"rt","time_elapsed","expId","subject","prolificID","trialType","rlType","attType","stimulus","key_press","stim","corrresp","phase","corr","pracCounter","trialNum","rewardOne","rewardTwo","reward","bandOne","bandTwo","attentionNum","attentionRunNum","blockNum","performance","bandChosen","circleVal","squareVal","bandOneVal","bandTwoVal","shapeChosen","rlNum","badFlag"
"7648.19999999553","7657","SARL_v6","SARL_v6m4ahcrss","5e1528b314ae63b3961a2b60","","","","","","","","","","","","","","","","","","","","","","","","","","","",""
"","10581","SARL_v6","SARL_v6m4ahcrss","5e1528b314ae63b3961a2b60","fullscreen","fullscreen","fullscreen","","","","","","","","","","","","","","","","","","","","","","","","",""
"53673.29999999702","64268","SARL_v6","SARL_v6m4ahcrss","5e1528b314ae63b3961a2b60","","","","","","","","","","","","","","","","","","","","","","","","","","","",""
"765.1000000014901","65049","SARL_v6","SARL_v6m4ahcrss","5e1528b314ae63b3961a2b60","freqPrac","","","img/orange_2bandit_a2.png","70","img/orange_2bandit_a2.png","70","prac","1","0","","","","","","","","","","","","","","","","","",""
"765.1000000014901","65102","SARL_v6","SARL_v6m4ahcrss","5e1528b314ae63b3961a2b60","freqPrac_resp","","","img/orange_2bandit_a.png","70","img/orange_2bandit_a.png","70","prac","","","","","","","","","","","","","","","","","","","",""
"null","65267","SARL_v6","SARL_v6m4ahcrss","5e1528b314ae63b3961a2b60","fixation","","","img/fixation.png","null","","","prac","","","","","","","","","","","","","","","","","","","",""
"697.9000000059605","65977","SARL_v6","SARL_v6m4ahcrss","5e1528b314ae63b3961a2b60","infreqPrac","","","img/blue_2bandit_a2.png","68","img/blue_2bandit_a2.png","68","prac","1","0","","","","","","","","","","","","","","","","","",""
"697.9000000059605","66099","SARL_v6","SARL_v6m4ahcrss","5e1528b314ae63b3961a2b60","infreqPrac_resp","","","img/blue_2bandit_a.png","68","img/blue_2bandit_a.png","68","prac","","","","","","","","","","","","","","","","","","","",""
"null","66267","SARL_v6","SARL_v6m4ahcrss","5e1528b314ae63b3961a2b60","fixation","","","img/fixation.png","null","","","prac","","","","","","","","","","","","","","","","","","","",""
"424.19999999552965","66705","SARL_v6","SARL_v6m4ahcrss","5e1528b314ae63b3961a2b60","freqPrac","","","img/orange_2bandit_a2.png","70","img/orange_2bandit_a2.png","70","prac","1","0","","","","","","","","","","","","","","","","","",""
"424.19999999552965","67092","SARL_v6","SARL_v6m4ahcrss","5e1528b314ae63b3961a2b60","freqPrac_resp","","","img/orange_2bandit_a.png","70","img/orange_2bandit_a.png","70","prac","","","","","","","","","","","","","","","","","","","",""
"null","67258","SARL_v6","SARL_v6m4ahcrss","5e1528b314ae63b3961a2b60","fixation","","","img/fixation.png","null","","","prac","","","","","","","","","","","","","","","","","","","",""
"421","67689","SARL_v6","SARL_v6m4ahcrss","5e1528b314ae63b3961a2b60","infreqPrac","","","img/blue_2bandit_a2.png","68","img/blue_2bandit_a2.png","68","prac","1","0","","","","","","","","","","","","","","","","","",""
"421","68083","SARL_v6","SARL_v6m4ahcrss","5e1528b314ae63b3961a2b60","infreqPrac_resp","","","img/blue_2bandit_a.png","68","img/blue_2bandit_a.png","68","prac","","","","","","","","","","","","","","","","","","","",""
"null","68251","SARL_v6","SARL_v6m4ahcrss","5e1528b314ae63b3961a2b60","fixation","","","img/fixation.png","null","","","prac","","","","","","","","","","","","","","","","","","","",""
"502.6000000014901","68764","SARL_v6","SARL_v6m4ahcrss","5e1528b314ae63b3961a2b60","infreqPrac","","","img/blue_2bandit_a2.png","68","img/blue_2bandit_a2.png","68","prac","1","0","","","","","","","","","","","","","","","","","",""
"502.6000000014901","69075","SARL_v6","SARL_v6m4ahcrss","5e1528b314ae63b3961a2b60","infreqPrac_resp","","","img/blue_2bandit_a.png","68","img/blue_2bandit_a.png","68","prac","","","","","","","","","","","","","","","","","","","",""
"null","69241","SARL_v6","SARL_v6m4ahcrss","5e1528b314ae63b3961a2b60","fixation","","","img/fixation.png","null","","","prac","","","","","","","","","","","","","","","","","","","",""
"668.2999999970198","69919","SARL_v6","SARL_v6m4ahcrss","5e1528b314ae63b3961a2b60","infreqPrac","","","img/blue_2bandit_a2.png","68","img/blue_2bandit_a2.png","68","prac","1","0","","","","","","","","","","","","","","","","","",""
"668.2999999970198","70070","SARL_v6","SARL_v6m4ahcrss","5e1528b314ae63b3961a2b60","infreqPrac_resp","","","img/blue_2bandit_a.png","68","img/blue_2bandit_a.png","68","prac","","","","","","","","","","","","","","","","","","","",""
"null","70235","SARL_v6","SARL_v6m4ahcrss","5e1528b314ae63b3961a2b60","fixation","","","img/fixation.png","null","","","prac","","","","","","","","","","","","","","","","","","","",""
"576.1000000014901","70822","SARL_v6","SARL_v6m4ahcrss","5e1528b314ae63b3961a2b60","freqPrac","","","img/orange_2bandit_a2.png","70","img/orange_2bandit_a2.png","70","prac","1","0","","","","","","","","","","","","","","","","","",""
"576.1000000014901","71059","SARL_v6","SARL_v6m4ahcrss","5e1528b314ae63b3961a2b60","freqPrac_resp","","","img/orange_2bandit_a.png","70","img/orange_2bandit_a.png","70","prac","","","","","","","","","","","","","","","","","","","",""
"null","71228","SARL_v6","SARL_v6m4ahcrss","5e1528b314ae63b3961a2b60","fixation","","","img/fixation.png","null","","","prac","","","","","","","","","","","","","","","","","","","",""
"504.6000000014901","71744","SARL_v6","SARL_v6m4ahcrss","5e1528b314ae63b3961a2b60","infreqPrac","","","img/blue_2bandit_a2.png","68","img/blue_2bandit_a2.png","68","prac","1","0","","","","","","","","","","","","","","","","","",""
"504.6000000014901","72052","SARL_v6","SARL_v6m4ahcrss","5e1528b314ae63b3961a2b60","infreqPrac_resp","","","img/blue_2bandit_a.png","68","img/blue_2bandit_a.png","68","prac","","","","","","","","","","","","","","","","","","","",""
"null","72219","SARL_v6","SARL_v6m4ahcrss","5e1528b314ae63b3961a2b60","fixation","","","img/fixation.png","null","","","prac","","","","","","","","","","","","","","","","","","","",""
"487.8999999985099","72717","SARL_v6","SARL_v6m4ahcrss","5e1528b314ae63b3961a2b60","freqPrac","","","img/orange_2bandit_a2.png","70","img/orange_2bandit_a2.png","70","prac","1","0","","","","","","","","","","","","","","","","","",""
"487.8999999985099","73044","SARL_v6","SARL_v6m4ahcrss","5e1528b314ae63b3961a2b60","freqPrac_resp","","","img/orange_2bandit_a.png","70","img/orange_2bandit_a.png","70","prac","","","","","","","","","","","","","","","","","","","",""
"null","73212","SARL_v6","SARL_v6m4ahcrss","5e1528b314ae63b3961a2b60","fixation","","","img/fixation.png","null","","","prac","","","","","","","","","","","","","","","","","","","",""
"777.9000000059605","73999","SARL_v6","SARL_v6m4ahcrss","5e1528b314ae63b3961a2b60","freqPrac","","","img/orange_2bandit_a2.png","70","img/orange_2bandit_a2.png","70","prac","1","0","","","","","","","","","","","","","","","","","",""
"777.9000000059605","74030","SARL_v6","SARL_v6m4ahcrss","5e1528b314ae63b3961a2b60","freqPrac_resp","","","img/orange_2bandit_a.png","70","img/orange_2bandit_a.png","70","prac","","","","","","","","","","","","","","","","","","","",""
"null","74196","SARL_v6","SARL_v6m4ahcrss","5e1528b314ae63b3961a2b60","fixation","","","img/fixation.png","null","","","prac","","","","","","","","","","","","","","","","","","","",""
"34252","108458","SARL_v6","SARL_v6m4ahcrss","5e1528b314ae63b3961a2b60","","","","","","","","prac","","","","","","","","","","","","","","","","","","","",""
"989.7999999970198","109461","SARL_v6","SARL_v6m4ahcrss","5e1528b314ae63b3961a2b60","rlPractice","","","img/black_2bandit_a2.png","74","img/black_2bandit_a2.png","","prac","","","0","","","","","","","","","","","","","","","","",""
"null","110228","SARL_v6","SARL_v6m4ahcrss","5e1528b314ae63b3961a2b60","feedback","","","<div class=""verylowPoints_sq""> -14 </div>","null","","na","prac","","","1","10","-14","10","","","","","","","","","","","","","",""
"null","110395","SARL_v6","SARL_v6m4ahcrss","5e1528b314ae63b3961a2b60","fixation","","","img/fixation.png","null","","","prac","","","","","","","","","","","","","","","","","","","",""
"515.8999999985099","110922","SARL_v6","SARL_v6m4ahcrss","5e1528b314ae63b3961a2b60","rlPractice","","","img/black_2bandit_a2.png","75","img/black_2bandit_a2.png","","prac","","","1","","","","","","","","","","","","","","","","",""
"null","111692","SARL_v6","SARL_v6m4ahcrss","5e1528b314ae63b3961a2b60","feedback","","","<div class=""veryhighPoints""> 5 </div>","null","","na","prac","","","2","5","-5","5","","","","","","","","","","","","","",""
"null","111857","SARL_v6","SARL_v6m4ahcrss","5e1528b314ae63b3961a2b60","fixation","","","img/fixation.png","null","","","prac","","","","","","","","","","","","","","","","","","","",""
"377","112245","SARL_v6","SARL_v6m4ahcrss","5e1528b314ae63b3961a2b60","rlPractice","","","img/black_2bandit_a2.png","75","img/black_2bandit_a2.png","","prac","","","2","","","","","","","","","","","","","","","","",""
"null","113011","SARL_v6","SARL_v6m4ahcrss","5e1528b314ae63b3961a2b60","feedback","","","<div class=""veryhighPoints""> 30 </div>","null","","na","prac","","","3","30","2","30","","","","","","","","","","","","","",""
"null","113171","SARL_v6","SARL_v6m4ahcrss","5e1528b314ae63b3961a2b60","fixation","","","img/fixation.png","null","","","prac","","","","","","","","","","","","","","","","","","","",""
"326.70000000298023","113508","SARL_v6","SARL_v6m4ahcrss","5e1528b314ae63b3961a2b60","rlPractice","","","img/black_2bandit_a2.png","75","img/black_2bandit_a2.png","","prac","","","3","","","","","","","","","","","","","","","","",""
"null","114276","SARL_v6","SARL_v6m4ahcrss","5e1528b314ae63b3961a2b60","feedback","","","<div class=""verylowPoints""> -2 </div>","null","","na","prac","","","4","-2","20","-2","","","","","","","","","","","","","",""
"null","114443","SARL_v6","SARL_v6m4ahcrss","5e1528b314ae63b3961a2b60","fixation","","","img/fixation.png","null","","","prac","","","","","","","","","","","","","","","","","","","",""
"10090","124543","SARL_v6","SARL_v6m4ahcrss","5e1528b314ae63b3961a2b60","","","","","","","","prac","","","","","","","","","","","","","","","","","","","",""
"604.1000000014901","125159","SARL_v6","SARL_v6m4ahcrss","5e1528b314ae63b3961a2b60","mixAttFreqPrac","","","img/orange_2bandit_a2.png","70","img/orange_2bandit_a2.png","70","prac","","","1","","","","","","","","","","","","","","","","",""
"604.1000000014901","125371","SARL_v6","SARL_v6m4ahcrss","5e1528b314ae63b3961a2b60","freqPrac_resp","","","img/orange_2bandit_a.png","70","img/orange_2bandit_a.png","70","prac","","","1","","","","","","","","","","","","","","","","",""
"null","125541","SARL_v6","SARL_v6m4ahcrss","5e1528b314ae63b3961a2b60","fixation","","","img/fixation.png","null","","","prac","","","","","","","","","","","","","","","","","","","",""
"676","126225","SARL_v6","SARL_v6m4ahcrss","5e1528b314ae63b3961a2b60","mixAttInfreqPrac","","","img/blue_2bandit_a2.png","68","img/blue_2bandit_a2.png","68","prac","","","2","","","","","","","","","","","","","","","","",""
"676","126361","SARL_v6","SARL_v6m4ahcrss","5e1528b314ae63b3961a2b60","infreqPrac_resp","","","img/blue_2bandit_a.png","68","img/orange_2bandit_a.png","68","prac","","","2","","","","","","","","","","","","","","","","",""
"null","126521","SARL_v6","SARL_v6m4ahcrss","5e1528b314ae63b3961a2b60","fixation","","","img/fixation.png","null","","","prac","","","","","","","","","","","","","","","","","","","",""
"null","127333","SARL_v6","SARL_v6m4ahcrss","5e1528b314ae63b3961a2b60","mixAttInfreqPrac","","","img/blue_2bandit_a2.png","null","img/blue_2bandit_a2.png","68","prac","","","3","","","","","","","","","","","","","","","","",""
"103.5","127499","SARL_v6","SARL_v6m4ahcrss","5e1528b314ae63b3961a2b60","fixation","","","img/fixation.png","68","","","prac","","","","","","","","","","","","","","","","","","","",""
"691.8999999985099","128201","SARL_v6","SARL_v6m4ahcrss","5e1528b314ae63b3961a2b60","mixAttInfreqPrac","","","img/blue_2bandit_a2.png","68","img/blue_2bandit_a2.png","68","prac","","","4","","","","","","","","","","","","","","","","",""
"691.8999999985099","128322","SARL_v6","SARL_v6m4ahcrss","5e1528b314ae63b3961a2b60","infreqPrac_resp","","","img/blue_2bandit_a.png","68","img/orange_2bandit_a.png","68","prac","","","4","","","","","","","","","","","","","","","","",""
"null","128483","SARL_v6","SARL_v6m4ahcrss","5e1528b314ae63b3961a2b60","fixation","","","img/fixation.png","null","","","prac","","","","","","","","","","","","","","","","","","","",""
"522.2000000029802","129016","SARL_v6","SARL_v6m4ahcrss","5e1528b314ae63b3961a2b60","mixAttFreqPrac","","","img/orange_2bandit_a2.png","70","img/orange_2bandit_a2.png","70","prac","","","5","","","","","","","","","","","","","","","","",""
"522.2000000029802","129307","SARL_v6","SARL_v6m4ahcrss","5e1528b314ae63b3961a2b60","freqPrac_resp","","","img/orange_2bandit_a.png","70","img/orange_2bandit_a.png","70","prac","","","5","","","","","","","","","","","","","","","","",""
"null","129475","SARL_v6","SARL_v6m4ahcrss","5e1528b314ae63b3961a2b60","fixation","","","img/fixation.png","null","","","prac","","","","","","","","","","","","","","","","","","","",""
"913.2999999970198","130399","SARL_v6","SARL_v6m4ahcrss","5e1528b314ae63b3961a2b60","mixRLPractice","","","img/black_2bandit_a2.png","75","img/black_2bandit_a2.png","","prac","","","5","","","","","","","","","","","","","","","","",""
"null","131164","SARL_v6","SARL_v6m4ahcrss","5e1528b314ae63b3961a2b60","feedback","","","<div class=""verylowPoints""> -14 </div>","null","","na","prac","","","6","-14","10","-14","","","","","","","","","","","","","",""
"null","131332","SARL_v6","SARL_v6m4ahcrss","5e1528b314ae63b3961a2b60","fixation","","","img/fixation.png","null","","","prac","","","","","","","","","","","","","","","","","","","",""
"null","132147","SARL_v6","SARL_v6m4ahcrss","5e1528b314ae63b3961a2b60","mixAttFreqPrac","","","img/orange_2bandit_a2.png","null","img/orange_2bandit_a2.png","70","prac","","","7","","","","","","","","","","","","","","","","",""
"null","132316","SARL_v6","SARL_v6m4ahcrss","5e1528b314ae63b3961a2b60","fixation","","","img/fixation.png","null","","","prac","","","","","","","","","","","","","","","","","","","",""
"263.90000000596046","132591","SARL_v6","SARL_v6m4ahcrss","5e1528b314ae63b3961a2b60","mixAttInfreqPrac","","","img/blue_2bandit_a2.png","70","img/blue_2bandit_a2.png","68","prac","","","8","","","","","","","","","","","","","","","","",""
"263.90000000596046","133139","SARL_v6","SARL_v6m4ahcrss","5e1528b314ae63b3961a2b60","infreqPrac_resp","","","img/blue_2bandit_a.png","70","img/orange_2bandit_a.png","68","prac","","","8","","","","","","","","","","","","","","","","",""
"null","133308","SARL_v6","SARL_v6m4ahcrss","5e1528b314ae63b3961a2b60","fixation","","","img/fixation.png","null","","","prac","","","","","","","","","","","","","","","","","","","",""
"481","133797","SARL_v6","SARL_v6m4ahcrss","5e1528b314ae63b3961a2b60","mixAttFreqPrac","","","img/orange_2bandit_a2.png","70","img/orange_2bandit_a2.png","70","prac","","","9","","","","","","","","","","","","","","","","",""
"481","134132","SARL_v6","SARL_v6m4ahcrss","5e1528b314ae63b3961a2b60","freqPrac_resp","","","img/orange_2bandit_a.png","70","img/orange_2bandit_a.png","70","prac","","","9","","","","","","","","","","","","","","","","",""
"null","134299","SARL_v6","SARL_v6m4ahcrss","5e1528b314ae63b3961a2b60","fixation","","","img/fixation.png","null","","","prac","","","","","","","","","","","","","","","","","","","",""
"408.29999999701977","134719","SARL_v6","SARL_v6m4ahcrss","5e1528b314ae63b3961a2b60","mixAttFreqPrac","","","img/orange_2bandit_a2.png","70","img/orange_2bandit_a2.png","70","prac","","","10","","","","","","","","","","","","","","","","",""
"408.29999999701977","135123","SARL_v6","SARL_v6m4ahcrss","5e1528b314ae63b3961a2b60","freqPrac_resp","","","img/orange_2bandit_a.png","70","img/orange_2bandit_a.png","70","prac","","","10","","","","","","","","","","","","","","","","",""
"null","135290","SARL_v6","SARL_v6m4ahcrss","5e1528b314ae63b3961a2b60","fixation","","","img/fixation.png","null","","","prac","","","","","","","","","","","","","","","","","","","",""
"467.69999999552965","135769","SARL_v6","SARL_v6m4ahcrss","5e1528b314ae63b3961a2b60","mixAttInfreqPrac","","","img/blue_2bandit_a2.png","68","img/blue_2bandit_a2.png","68","prac","","","11","","","","","","","","","","","","","","","","",""
"467.69999999552965","136113","SARL_v6","SARL_v6m4ahcrss","5e1528b314ae63b3961a2b60","infreqPrac_resp","","","img/blue_2bandit_a.png","68","img/orange_2bandit_a.png","68","prac","","","11","","","","","","","","","","","","","","","","",""
"null","136276","SARL_v6","SARL_v6m4ahcrss","5e1528b314ae63b3961a2b60","fixation","","","img/fixation.png","null","","","prac","","","","","","","","","","","","","","","","","","","",""
"633","136919","SARL_v6","SARL_v6m4ahcrss","5e1528b314ae63b3961a2b60","mixRLPractice","","","img/black_2bandit_a2.png","74","img/black_2bandit_a2.png","","prac","","","11","","","","","","","","","","","","","","","","",""
"null","137684","SARL_v6","SARL_v6m4ahcrss","5e1528b314ae63b3961a2b60","feedback","","","<div class=""verylowPoints_sq""> -5 </div>","null","","na","prac","","","12","5","-5","5","","","","","","","","","","","","","",""
"null","137852","SARL_v6","SARL_v6m4ahcrss","5e1528b314ae63b3961a2b60","fixation","","","img/fixation.png","null","","","prac","","","","","","","","","","","","","","","","","","","",""
"6118.5","143980","SARL_v6","SARL_v6m4ahcrss","5e1528b314ae63b3961a2b60","","","","","","","","prac","","","","","","","","","","","","","","","","","","","",""
"464.79999999701977","144457","SARL_v6","SARL_v6m4ahcrss","5e1528b314ae63b3961a2b60","freq","","","img/orange_2bandit_a2.png","70","","70","test","1","","1","","","","square","circle","1","1","1","1","","","","","","","",""
"null","144810","SARL_v6","SARL_v6m4ahcrss","5e1528b314ae63b3961a2b60","freq_resp","","","img/orange_2bandit_a.png","70","img/orange_2bandit_a.png","70","test","","","","","","","","","","","1","","","","","","","","",""
"null","144980","SARL_v6","SARL_v6m4ahcrss","5e1528b314ae63b3961a2b60","fixation","","","img/fixation.png","null","","","test","","","","","","","","","","","","","","","","","","","",""
"337.19999999552965","145328","SARL_v6","SARL_v6m4ahcrss","5e1528b314ae63b3961a2b60","freq","","","img/orange_2bandit_a2.png","70","","70","test","1","","2","","","","square","circle","2","2","1","1","","","","","","","",""
"null","145803","SARL_v6","SARL_v6m4ahcrss","5e1528b314ae63b3961a2b60","freq_resp","","","img/orange_2bandit_a.png","70","img/orange_2bandit_a.png","70","test","","","","","","","","","","","1","","","","","","","","",""
"null","145971","SARL_v6","SARL_v6m4ahcrss","5e1528b314ae63b3961a2b60","fixation","","","img/fixation.png","null","","","test","","","","","","","","","","","","","","","","","","","",""
"633.8999999985099","146615","SARL_v6","SARL_v6m4ahcrss","5e1528b314ae63b3961a2b60","infreq","","","img/blue_2bandit_a2.png","68","","68","test","1","","3","","","","square","circle","3","3","1","1","","","","","","","",""
"null","146795","SARL_v6","SARL_v6m4ahcrss","5e1528b314ae63b3961a2b60","infreq_resp","","","img/blue_2bandit_a.png","68","img/blue_2bandit_a.png","68","test","","","","","","","","","","","1","","","","","","","","",""
"null","146956","SARL_v6","SARL_v6m4ahcrss","5e1528b314ae63b3961a2b60","fixation","","","img/fixation.png","null","","","test","","","","","","","","","","","","","","","","","","","",""
"654.5","147619","SARL_v6","SARL_v6m4ahcrss","5e1528b314ae63b3961a2b60","freq","","","img/orange_2bandit_a2.png","70","","70","test","1","","4","","","","square","circle","4","4","1","1","","","","","","","",""
"null","147780","SARL_v6","SARL_v6m4ahcrss","5e1528b314ae63b3961a2b60","freq_resp","","","img/orange_2bandit_a.png","70","img/orange_2bandit_a.png","70","test","","","","","","","","","","","1","","","","","","","","",""
"null","147948","SARL_v6","SARL_v6m4ahcrss","5e1528b314ae63b3961a2b60","fixation","","","img/fixation.png","null","","","test","","","","","","","","","","","","","","","","","","","",""
"411.59999999403954","148373","SARL_v6","SARL_v6m4ahcrss","5e1528b314ae63b3961a2b60","freq","","","img/orange_2bandit_a2.png","70","","70","test","1","","5","","","","square","circle","5","5","1","1","","","","","","","",""
"null","148779","SARL_v6","SARL_v6m4ahcrss","5e1528b314ae63b3961a2b60","freq_resp","","","img/orange_2bandit_a.png","70","img/orange_2bandit_a.png","70","test","","","","","","","","","","","1","","","","","","","","",""
"null","148947","SARL_v6","SARL_v6m4ahcrss","5e1528b314ae63b3961a2b60","fixation","","","img/fixation.png","null","","","test","","","","","","","","","","","","","","","","","","","",""
"369.20000000298023","149329","SARL_v6","SARL_v6m4ahcrss","5e1528b314ae63b3961a2b60","freq","","","img/orange_2bandit_a2.png","70","","70","test","1","","6","","","","square","circle","6","6","1","1","","","","","","","",""
"null","149771","SARL_v6","SARL_v6m4ahcrss","5e1528b314ae63b3961a2b60","freq_resp","","","img/orange_2bandit_a.png","70","img/orange_2bandit_a.png","70","test","","","","","","","","","","","1","","","","","","","","",""
"null","149939","SARL_v6","SARL_v6m4ahcrss","5e1528b314ae63b3961a2b60","fixation","","","img/fixation.png","null","","","test","","","","","","","","","","","","","","","","","","","",""
"324.5","150272","SARL_v6","SARL_v6m4ahcrss","5e1528b314ae63b3961a2b60","freq","","","img/orange_2bandit_a2.png","70","","70","test","1","","7","","","","square","circle","7","7","1","1","","","","","","","",""
"null","150763","SARL_v6","SARL_v6m4ahcrss","5e1528b314ae63b3961a2b60","freq_resp","","","img/orange_2bandit_a.png","70","img/orange_2bandit_a.png","70","test","","","","","","","","","","","1","","","","","","","","",""
"null","150933","SARL_v6","SARL_v6m4ahcrss","5e1528b314ae63b3961a2b60","fixation","","","img/fixation.png","null","","","test","","","","","","","","","","","","","","","","","","","",""
"392.1000000014901","151336","SARL_v6","SARL_v6m4ahcrss","5e1528b314ae63b3961a2b60","freq","","","img/orange_2bandit_a2.png","70","","70","test","1","","8","","","","square","circle","8","8","1","1","","","","","","","",""
"null","151753","SARL_v6","SARL_v6m4ahcrss","5e1528b314ae63b3961a2b60","freq_resp","","","img/orange_2bandit_a.png","70","img/orange_2bandit_a.png","70","test","","","","","","","","","","","1","","","","","","","","",""
"null","151916","SARL_v6","SARL_v6m4ahcrss","5e1528b314ae63b3961a2b60","fixation","","","img/fixation.png","null","","","test","","","","","","","","","","","","","","","","","","","",""
"432.80000000447035","152359","SARL_v6","SARL_v6m4ahcrss","5e1528b314ae63b3961a2b60","freq","","","img/orange_2bandit_a2.png","70","","70","test","1","","9","","","","square","circle","9","9","1","1","","","","","","","",""
"null","152740","SARL_v6","SARL_v6m4ahcrss","5e1528b314ae63b3961a2b60","freq_resp","","","img/orange_2bandit_a.png","70","img/orange_2bandit_a.png","70","test","","","","","","","","","","","1","","","","","","","","",""
"null","152907","SARL_v6","SARL_v6m4ahcrss","5e1528b314ae63b3961a2b60","fixation","","","img/fixation.png","null","","","test","","","","","","","","","","","","","","","","","","","",""
"372","153290","SARL_v6","SARL_v6m4ahcrss","5e1528b314ae63b3961a2b60","freq","","","img/orange_2bandit_a2.png","70","","70","test","1","","10","","","","square","circle","10","10","1","1","","","","","","","",""
"null","153732","SARL_v6","SARL_v6m4ahcrss","5e1528b314ae63b3961a2b60","freq_resp","","","img/orange_2bandit_a.png","70","img/orange_2bandit_a.png","70","test","","","","","","","","","","","1","","","","","","","","",""
"null","153900","SARL_v6","SARL_v6m4ahcrss","5e1528b314ae63b3961a2b60","fixation","","","img/fixation.png","null","","","test","","","","","","","","","","","","","","","","","","","",""
"317.09999999403954","154227","SARL_v6","SARL_v6m4ahcrss","5e1528b314ae63b3961a2b60","freq","","","img/orange_2bandit_a2.png","70","","70","test","1","","11","","","","square","circle","11","11","1","1","","","","","","","",""
"null","154722","SARL_v6","SARL_v6m4ahcrss","5e1528b314ae63b3961a2b60","freq_resp","","","img/orange_2bandit_a.png","70","img/orange_2bandit_a.png","70","test","","","","","","","","","","","1","","","","","","","","",""
"null","154883","SARL_v6","SARL_v6m4ahcrss","5e1528b314ae63b3961a2b60","fixation","","","img/fixation.png","null","","","test","","","","","","","","","","","","","","","","","","","",""
"324.79999999701977","155217","SARL_v6","SARL_v6m4ahcrss","5e1528b314ae63b3961a2b60","freq","","","img/orange_2bandit_a2.png","70","","70","test","1","","12","","","","square","circle","12","12","1","1","","","","","","","",""
"null","155707","SARL_v6","SARL_v6m4ahcrss","5e1528b314ae63b3961a2b60","freq_resp","","","img/orange_2bandit_a.png","70","img/orange_2bandit_a.png","70","test","","","","","","","","","","","1","","","","","","","","",""
"null","155874","SARL_v6","SARL_v6m4ahcrss","5e1528b314ae63b3961a2b60","fixation","","","img/fixation.png","null","","","test","","","","","","","","","","","","","","","","","","","",""
"293.19999999552965","156177","SARL_v6","SARL_v6m4ahcrss","5e1528b314ae63b3961a2b60","freq","","","img/orange_2bandit_a2.png","70","","70","test","1","","13","","","","square","circle","13","13","1","1","","","","","","","",""
"null","156700","SARL_v6","SARL_v6m4ahcrss","5e1528b314ae63b3961a2b60","freq_resp","","","img/orange_2bandit_a.png","70","img/orange_2bandit_a.png","70","test","","","","","","","","","","","1","","","","","","","","",""
"null","156868","SARL_v6","SARL_v6m4ahcrss","5e1528b314ae63b3961a2b60","fixation","","","img/fixation.png","null","","","test","","","","","","","","","","","","","","","","","","","",""
"282.5","157162","SARL_v6","SARL_v6m4ahcrss","5e1528b314ae63b3961a2b60","freq","","","img/orange_2bandit_a2.png","70","","70","test","1","","14","","","","square","circle","14","14","1","1","","","","","","","",""
"null","157692","SARL_v6","SARL_v6m4ahcrss","5e1528b314ae63b3961a2b60","freq_resp","","","img/orange_2bandit_a.png","70","img/orange_2bandit_a.png","70","test","","","","","","","","","","","1","","","","","","","","",""
"null","157861","SARL_v6","SARL_v6m4ahcrss","5e1528b314ae63b3961a2b60","fixation","","","img/fixation.png","null","","","test","","","","","","","","","","","","","","","","","","","",""
"313.3999999985099","158185","SARL_v6","SARL_v6m4ahcrss","5e1528b314ae63b3961a2b60","freq","","","img/orange_2bandit_a2.png","70","","70","test","1","","15","","","","square","circle","15","15","1","1","","","","","","","",""
"null","158684","SARL_v6","SARL_v6m4ahcrss","5e1528b314ae63b3961a2b60","freq_resp","","","img/orange_2bandit_a.png","70","img/orange_2bandit_a.png","70","test","","","","","","","","","","","1","","","","","","","","",""
"null","158851","SARL_v6","SARL_v6m4ahcrss","5e1528b314ae63b3961a2b60","fixation","","","img/fixation.png","null","","","test","","","","","","","","","","","","","","","","","","","",""
"346.19999999552965","159210","SARL_v6","SARL_v6m4ahcrss","5e1528b314ae63b3961a2b60","freq","","","img/orange_2bandit_a2.png","70","","70","test","1","","16","","","","square","circle","16","16","1","1","","","","","","","",""
"null","159676","SARL_v6","SARL_v6m4ahcrss","5e1528b314ae63b3961a2b60","freq_resp","","","img/orange_2bandit_a.png","70","img/orange_2bandit_a.png","70","test","","","","","","","","","","","1","","","","","","","","",""
"null","159843","SARL_v6","SARL_v6m4ahcrss","5e1528b314ae63b3961a2b60","fixation","","","img/fixation.png","null","","","test","","","","","","","","","","","","","","","","","","","",""
"291.70000000298023","160145","SARL_v6","SARL_v6m4ahcrss","5e1528b314ae63b3961a2b60","freq","","","img/orange_2bandit_a2.png","70","","70","test","1","","17","","","","square","circle","17","17","1","1","","","","","","","",""
"null","160667","SARL_v6","SARL_v6m4ahcrss","5e1528b314ae63b3961a2b60","freq_resp","","","img/orange_2bandit_a.png","70","img/orange_2bandit_a.png","70","test","","","","","","","","","","","1","","","","","","","","",""
"null","160835","SARL_v6","SARL_v6m4ahcrss","5e1528b314ae63b3961a2b60","fixation","","","img/fixation.png","null","","","test","","","","","","","","","","","","","","","","","","","",""
"416.80000000447035","161263","SARL_v6","SARL_v6m4ahcrss","5e1528b314ae63b3961a2b60","infreq","","","img/blue_2bandit_a2.png","68","","68","test","1","","18","","","","square","circle","18","18","1","1","","","","","","","",""
"null","161659","SARL_v6","SARL_v6m4ahcrss","5e1528b314ae63b3961a2b60","infreq_resp","","","img/blue_2bandit_a.png","68","img/blue_2bandit_a.png","68","test","","","","","","","","","","","1","","","","","","","","",""
"null","161828","SARL_v6","SARL_v6m4ahcrss","5e1528b314ae63b3961a2b60","fixation","","","img/fixation.png","null","","","test","","","","","","","","","","","","","","","","","","","",""
"311.29999999701977","162148","SARL_v6","SARL_v6m4ahcrss","5e1528b314ae63b3961a2b60","freq","","","img/orange_2bandit_a2.png","70","","70","test","1","","19","","","","square","circle","19","19","1","1","","","","","","","",""
"null","162652","SARL_v6","SARL_v6m4ahcrss","5e1528b314ae63b3961a2b60","freq_resp","","","img/orange_2bandit_a.png","70","img/orange_2bandit_a.png","70","test","","","","","","","","","","","1","","","","","","","","",""
"null","162817","SARL_v6","SARL_v6m4ahcrss","5e1528b314ae63b3961a2b60","fixation","","","img/fixation.png","null","","","test","","","","","","","","","","","","","","","","","","","",""
"260.70000000298023","163087","SARL_v6","SARL_v6m4ahcrss","5e1528b314ae63b3961a2b60","freq","","","img/orange_2bandit_a2.png","70","","70","test","1","","20","","","","square","circle","20","20","1","1","","","","","","","",""
"null","163643","SARL_v6","SARL_v6m4ahcrss","5e1528b314ae63b3961a2b60","freq_resp","","","img/orange_2bandit_a.png","70","img/orange_2bandit_a.png","70","test","","","","","","","","","","","1","","","","","","","","",""
"null","163811","SARL_v6","SARL_v6m4ahcrss","5e1528b314ae63b3961a2b60","fixation","","","img/fixation.png","null","","","test","","","","","","","","","","","","","","","","","","","",""
"285","164107","SARL_v6","SARL_v6m4ahcrss","5e1528b314ae63b3961a2b60","freq","","","img/orange_2bandit_a2.png","70","","70","test","1","","21","","","","square","circle","21","21","1","1","","","","","","","",""
"null","164635","SARL_v6","SARL_v6m4ahcrss","5e1528b314ae63b3961a2b60","freq_resp","","","img/orange_2bandit_a.png","70","img/orange_2bandit_a.png","70","test","","","","","","","","","","","1","","","","","","","","",""
"null","164804","SARL_v6","SARL_v6m4ahcrss","5e1528b314ae63b3961a2b60","fixation","","","img/fixation.png","null","","","test","","","","","","","","","","","","","","","","","","","",""
"172","164987","SARL_v6","SARL_v6m4ahcrss","5e1528b314ae63b3961a2b60","freq","","","img/orange_2bandit_a2.png","70","","70","test","1","","22","","","","square","circle","22","22","1","1","","","","","","","",""
"null","165627","SARL_v6","SARL_v6m4ahcrss","5e1528b314ae63b3961a2b60","freq_resp","","","img/orange_2bandit_a.png","70","img/orange_2bandit_a.png","70","test","","","","","","","","","","","1","","","","","","","","",""
"null","165795","SARL_v6","SARL_v6m4ahcrss","5e1528b314ae63b3961a2b60","fixation","","","img/fixation.png","null","","","test","","","","","","","","","","","","","","","","","","","",""
"269","166074","SARL_v6","SARL_v6m4ahcrss","5e1528b314ae63b3961a2b60","freq","","","img/orange_2bandit_a2.png","70","","70","test","1","","23","","","","square","circle","23","23","1","1","","","","","","","",""
"null","166620","SARL_v6","SARL_v6m4ahcrss","5e1528b314ae63b3961a2b60","freq_resp","","","img/orange_2bandit_a.png","70","img/orange_2bandit_a.png","70","test","","","","","","","","","","","1","","","","","","","","",""
"null","166788","SARL_v6","SARL_v6m4ahcrss","5e1528b314ae63b3961a2b60","fixation","","","img/fixation.png","null","","","test","","","","","","","","","","","","","","","","","","","",""
"890.1000000014901","167691","SARL_v6","SARL_v6m4ahcrss","5e1528b314ae63b3961a2b60","rl","","","img/black_2bandit_a2.png","74","","0","test","","","24","","","-3","square","circle","","0","1","","74","-3","-3","-3","-3","square","1","0"
"null","168452","SARL_v6","SARL_v6m4ahcrss","5e1528b314ae63b3961a2b60","feedback","","","<div class=""verylowPoints_sq""> -3 </div>","null","","na","test","","","NaN","","","","","","","","1","","74","","","","","","1",""
"604.1000000014901","169066","SARL_v6","SARL_v6m4ahcrss","5e1528b314ae63b3961a2b60","freq","","","img/orange_2bandit_a2.png","70","","70","test","1","","25","","","","square","circle","24","1","2","1","","","","","","","",""
"null","169275","SARL_v6","SARL_v6m4ahcrss","5e1528b314ae63b3961a2b60","freq_resp","","","img/orange_2bandit_a.png","70","img/orange_2bandit_a.png","70","test","","","","","","","","","","","2","","","","","","","","",""
"null","169443","SARL_v6","SARL_v6m4ahcrss","5e1528b314ae63b3961a2b60","fixation","","","img/fixation.png","null","","","test","","","","","","","","","","","","","","","","","","","",""
"438.69999999552965","169893","SARL_v6","SARL_v6m4ahcrss","5e1528b314ae63b3961a2b60","freq","","","img/orange_2bandit_a2.png","70","","70","test","1","","26","","","","square","circle","25","2","2","1","","","","","","","",""
"null","170268","SARL_v6","SARL_v6m4ahcrss","5e1528b314ae63b3961a2b60","freq_resp","","","img/orange_2bandit_a.png","70","img/orange_2bandit_a.png","70","test","","","","","","","","","","","2","","","","","","","","",""
"null","170433","SARL_v6","SARL_v6m4ahcrss","5e1528b314ae63b3961a2b60","fixation","","","img/fixation.png","null","","","test","","","","","","","","","","","","","","","","","","","",""
"322.70000000298023","170766","SARL_v6","SARL_v6m4ahcrss","5e1528b314ae63b3961a2b60","freq","","","img/orange_2bandit_a2.png","70","","70","test","1","","27","","","","square","circle","26","3","2","1","","","","","","","",""
"null","171257","SARL_v6","SARL_v6m4ahcrss","5e1528b314ae63b3961a2b60","freq_resp","","","img/orange_2bandit_a.png","70","img/orange_2bandit_a.png","70","test","","","","","","","","","","","2","","","","","","","","",""
"null","171420","SARL_v6","SARL_v6m4ahcrss","5e1528b314ae63b3961a2b60","fixation","","","img/fixation.png","null","","","test","","","","","","","","","","","","","","","","","","","",""
"340.6000000014901","171770","SARL_v6","SARL_v6m4ahcrss","5e1528b314ae63b3961a2b60","freq","","","img/orange_2bandit_a2.png","70","","70","test","1","","28","","","","square","circle","27","4","2","1","","","","","","","",""
"null","172243","SARL_v6","SARL_v6m4ahcrss","5e1528b314ae63b3961a2b60","freq_resp","","","img/orange_2bandit_a.png","70","img/orange_2bandit_a.png","70","test","","","","","","","","","","","2","","","","","","","","",""
"null","172412","SARL_v6","SARL_v6m4ahcrss","5e1528b314ae63b3961a2b60","fixation","","","img/fixation.png","null","","","test","","","","","","","","","","","","","","","","","","","",""
"412.5","172835","SARL_v6","SARL_v6m4ahcrss","5e1528b314ae63b3961a2b60","infreq","","","img/blue_2bandit_a2.png","70","","68","test","0","","29","","","","square","circle","28","5","2","0.9642857142857143","","","","","","","",""
"null","173235","SARL_v6","SARL_v6m4ahcrss","5e1528b314ae63b3961a2b60","infreq_resp","","","img/blue_2bandit_a.png","70","img/blue_2bandit_a.png","68","test","","","","","","","","","","","2","","","","","","","","",""
"null","173404","SARL_v6","SARL_v6m4ahcrss","5e1528b314ae63b3961a2b60","fixation","","","img/fixation.png","null","","","test","","","","","","","","","","","","","","","","","","","",""
"0.7999999970197678","173413","SARL_v6","SARL_v6m4ahcrss","5e1528b314ae63b3961a2b60","freq","","","img/orange_2bandit_a2.png","68","","70","test","0","","30","","","","square","circle","29","6","2","0.9310344827586207","","","","","","","",""
"null","174228","SARL_v6","SARL_v6m4ahcrss","5e1528b314ae63b3961a2b60","freq_resp","","","img/orange_2bandit_a.png","68","img/orange_2bandit_a.png","70","test","","","","","","","","","","","2","","","","","","","","",""
"null","174395","SARL_v6","SARL_v6m4ahcrss","5e1528b314ae63b3961a2b60","fixation","","","img/fixation.png","null","","","test","","","","","","","","","","","","","","","","","","","",""
"14.5","174418","SARL_v6","SARL_v6m4ahcrss","5e1528b314ae63b3961a2b60","freq","","","img/orange_2bandit_a2.png","70","","70","test","1","","31","","","","square","circle","30","7","2","0.9333333333333333","","","","","","","",""
"null","175220","SARL_v6","SARL_v6m4ahcrss","5e1528b314ae63b3961a2b60","freq_resp","","","img/orange_2bandit_a.png","70","img/orange_2bandit_a.png","70","test","","","","","","","","","","","2","","","","","","","","",""
"null","175383","SARL_v6","SARL_v6m4ahcrss","5e1528b314ae63b3961a2b60","fixation","","","img/fixation.png","null","","","test","","","","","","","","","","","","","","","","","","","",""
"null","176208","SARL_v6","SARL_v6m4ahcrss","5e1528b314ae63b3961a2b60","freq","","","img/orange_2bandit_a2.png","null","","70","test","0","","32","","","","square","circle","31","8","2","0.9032258064516129","","","","","","","",""
"null","176372","SARL_v6","SARL_v6m4ahcrss","5e1528b314ae63b3961a2b60","fixation","","","img/fixation.png","null","","","test","","","","","","","","","","","","","","","","","","","",""
"542.2000000029802","176925","SARL_v6","SARL_v6m4ahcrss","5e1528b314ae63b3961a2b60","freq","","","img/orange_2bandit_a2.png","70","","70","test","1","","33","","","","square","circle","32","9","2","0.90625","","","","","","","",""
"null","177195","SARL_v6","SARL_v6m4ahcrss","5e1528b314ae63b3961a2b60","freq_resp","","","img/orange_2bandit_a.png","70","img/orange_2bandit_a.png","70","test","","","","","","","","","","","2","","","","","","","","",""
"null","177363","SARL_v6","SARL_v6m4ahcrss","5e1528b314ae63b3961a2b60","fixation","","","img/fixation.png","null","","","test","","","","","","","","","","","","","","","","","","","",""
"572.7000000029802","177948","SARL_v6","SARL_v6m4ahcrss","5e1528b314ae63b3961a2b60","freq","","","img/orange_2bandit_a2.png","70","","70","test","1","","34","","","","square","circle","33","10","2","0.9090909090909091","","","","","","","",""
"null","178187","SARL_v6","SARL_v6m4ahcrss","5e1528b314ae63b3961a2b60","freq_resp","","","img/orange_2bandit_a.png","70","img/orange_2bandit_a.png","70","test","","","","","","","","","","","2","","","","","","","","",""
"null","178356","SARL_v6","SARL_v6m4ahcrss","5e1528b314ae63b3961a2b60","fixation","","","img/fixation.png","null","","","test","","","","","","","","","","","","","","","","","","","",""
"436.29999999701977","178802","SARL_v6","SARL_v6m4ahcrss","5e1528b314ae63b3961a2b60","freq","","","img/orange_2bandit_a2.png","70","","70","test","1","","35","","","","square","circle","34","11","2","0.9117647058823529","","","","","","","",""
"null","179182","SARL_v6","SARL_v6m4ahcrss","5e1528b314ae63b3961a2b60","freq_resp","","","img/orange_2bandit_a.png","70","img/orange_2bandit_a.png","70","test","","","","","","","","","","","2","","","","","","","","",""
"null","179349","SARL_v6","SARL_v6m4ahcrss","5e1528b314ae63b3961a2b60","fixation","","","img/fixation.png","null","","","test","","","","","","","","","","","","","","","","","","","",""
"385.79999999701977","179745","SARL_v6","SARL_v6m4ahcrss","5e1528b314ae63b3961a2b60","freq","","","img/orange_2bandit_a2.png","70","","70","test","1","","36","","","","square","circle","35","12","2","0.9142857142857143","","","","","","","",""
"null","180169","SARL_v6","SARL_v6m4ahcrss","5e1528b314ae63b3961a2b60","freq_resp","","","img/orange_2bandit_a.png","70","img/orange_2bandit_a.png","70","test","","","","","","","","","","","2","","","","","","","","",""
"null","180329","SARL_v6","SARL_v6m4ahcrss","5e1528b314ae63b3961a2b60","fixation","","","img/fixation.png","null","","","test","","","","","","","","","","","","","","","","","","","",""
"388.69999999552965","180728","SARL_v6","SARL_v6m4ahcrss","5e1528b314ae63b3961a2b60","freq","","","img/orange_2bandit_a2.png","70","","70","test","1","","37","","","","square","circle","36","13","2","0.9166666666666666","","","","","","","",""
"null","181154","SARL_v6","SARL_v6m4ahcrss","5e1528b314ae63b3961a2b60","freq_resp","","","img/orange_2bandit_a.png","70","img/orange_2bandit_a.png","70","test","","","","","","","","","","","2","","","","","","","","",""
"null","181315","SARL_v6","SARL_v6m4ahcrss","5e1528b314ae63b3961a2b60","fixation","","","img/fixation.png","null","","","test","","","","","","","","","","","","","","","","","","","",""
"329.6000000014901","181655","SARL_v6","SARL_v6m4ahcrss","5e1528b314ae63b3961a2b60","freq","","","img/orange_2bandit_a2.png","70","","70","test","1","","38","","","","square","circle","37","14","2","0.918918918918919","","","","","","","",""
"null","182139","SARL_v6","SARL_v6m4ahcrss","5e1528b314ae63b3961a2b60","freq_resp","","","img/orange_2bandit_a.png","70","img/orange_2bandit_a.png","70","test","","","","","","","","","","","2","","","","","","","","",""
"null","182307","SARL_v6","SARL_v6m4ahcrss","5e1528b314ae63b3961a2b60","fixation","","","img/fixation.png","null","","","test","","","","","","","","","","","","","","","","","","","",""
"459.8999999985099","182778","SARL_v6","SARL_v6m4ahcrss","5e1528b314ae63b3961a2b60","infreq","","","img/blue_2bandit_a2.png","68","","68","test","1","","39","","","","square","circle","38","15","2","0.9210526315789473","","","","","","","",""
"null","183132","SARL_v6","SARL_v6m4ahcrss","5e1528b314ae63b3961a2b60","infreq_resp","","","img/blue_2bandit_a.png","68","img/blue_2bandit_a.png","68","test","","","","","","","","","","","2","","","","","","","","",""
"null","183299","SARL_v6","SARL_v6m4ahcrss","5e1528b314ae63b3961a2b60","fixation","","","img/fixation.png","null","","","test","","","","","","","","","","","","","","","","","","","",""
"435","183747","SARL_v6","SARL_v6m4ahcrss","5e1528b314ae63b3961a2b60","freq","","","img/orange_2bandit_a2.png","70","","70","test","1","","40","","","","square","circle","39","16","2","0.9230769230769231","","","","","","","",""
"null","184131","SARL_v6","SARL_v6m4ahcrss","5e1528b314ae63b3961a2b60","freq_resp","","","img/orange_2bandit_a.png","70","img/orange_2bandit_a.png","70","test","","","","","","","","","","","2","","","","","","","","",""
"null","184300","SARL_v6","SARL_v6m4ahcrss","5e1528b314ae63b3961a2b60","fixation","","","img/fixation.png","null","","","test","","","","","","","","","","","","","","","","","","","",""
"602.5999999940395","184913","SARL_v6","SARL_v6m4ahcrss","5e1528b314ae63b3961a2b60","freq","","","img/orange_2bandit_a2.png","68","","70","test","0","","41","","","","square","circle","40","17","2","0.9","","","","","","","",""
"null","185123","SARL_v6","SARL_v6m4ahcrss","5e1528b314ae63b3961a2b60","freq_resp","","","img/orange_2bandit_a.png","68","img/orange_2bandit_a.png","70","test","","","","","","","","","","","2","","","","","","","","",""
"null","185284","SARL_v6","SARL_v6m4ahcrss","5e1528b314ae63b3961a2b60","fixation","","","img/fixation.png","null","","","test","","","","","","","","","","","","","","","","","","","",""
"427.79999999701977","185721","SARL_v6","SARL_v6m4ahcrss","5e1528b314ae63b3961a2b60","freq","","","img/orange_2bandit_a2.png","70","","70","test","1","","42","","","","square","circle","41","18","2","0.9024390243902439","","","","","","","",""
"null","186107","SARL_v6","SARL_v6m4ahcrss","5e1528b314ae63b3961a2b60","freq_resp","","","img/orange_2bandit_a.png","70","img/orange_2bandit_a.png","70","test","","","","","","","","","","","2","","","","","","","","",""
"null","186274","SARL_v6","SARL_v6m4ahcrss","5e1528b314ae63b3961a2b60","fixation","","","img/fixation.png","null","","","test","","","","","","","","","","","","","","","","","","","",""
"325.3999999985099","186610","SARL_v6","SARL_v6m4ahcrss","5e1528b314ae63b3961a2b60","freq","","","img/orange_2bandit_a2.png","70","","70","test","1","","43","","","","square","circle","42","19","2","0.9047619047619048","","","","","","","",""
"null","187100","SARL_v6","SARL_v6m4ahcrss","5e1528b314ae63b3961a2b60","freq_resp","","","img/orange_2bandit_a.png","70","img/orange_2bandit_a.png","70","test","","","","","","","","","","","2","","","","","","","","",""
"null","187267","SARL_v6","SARL_v6m4ahcrss","5e1528b314ae63b3961a2b60","fixation","","","img/fixation.png","null","","","test","","","","","","","","","","","","","","","","","","","",""
"367.79999999701977","187645","SARL_v6","SARL_v6m4ahcrss","5e1528b314ae63b3961a2b60","freq","","","img/orange_2bandit_a2.png","70","","70","test","1","","44","","","","square","circle","43","20","2","0.9069767441860465","","","","","","","",""
"null","188092","SARL_v6","SARL_v6m4ahcrss","5e1528b314ae63b3961a2b60","freq_resp","","","img/orange_2bandit_a.png","70","img/orange_2bandit_a.png","70","test","","","","","","","","","","","2","","","","","","","","",""
"null","188260","SARL_v6","SARL_v6m4ahcrss","5e1528b314ae63b3961a2b60","fixation","","","img/fixation.png","null","","","test","","","","","","","","","","","","","","","","","","","",""
"304.6000000014901","188575","SARL_v6","SARL_v6m4ahcrss","5e1528b314ae63b3961a2b60","freq","","","img/orange_2bandit_a2.png","70","","70","test","1","","45","","","","square","circle","44","21","2","0.9090909090909091","","","","","","","",""
"null","189084","SARL_v6","SARL_v6m4ahcrss","5e1528b314ae63b3961a2b60","freq_resp","","","img/orange_2bandit_a.png","70","img/orange_2bandit_a.png","70","test","","","","","","","","","","","2","","","","","","","","",""
"null","189252","SARL_v6","SARL_v6m4ahcrss","5e1528b314ae63b3961a2b60","fixation","","","img/fixation.png","null","","","test","","","","","","","","","","","","","","","","","","","",""
"307","189569","SARL_v6","SARL_v6m4ahcrss","5e1528b314ae63b3961a2b60","freq","","","img/orange_2bandit_a2.png","70","","70","test","1","","46","","","","square","circle","45","22","2","0.9111111111111111","","","","","","","",""
"null","190075","SARL_v6","SARL_v6m4ahcrss","5e1528b314ae63b3961a2b60","freq_resp","","","img/orange_2bandit_a.png","70","img/orange_2bandit_a.png","70","test","","","","","","","","","","","2","","","","","","","","",""
"null","190242","SARL_v6","SARL_v6m4ahcrss","5e1528b314ae63b3961a2b60","fixation","","","img/fixation.png","null","","","test","","","","","","","","","","","","","","","","","","","",""
"308.19999999552965","190560","SARL_v6","SARL_v6m4ahcrss","5e1528b314ae63b3961a2b60","freq","","","img/orange_2bandit_a2.png","70","","70","test","1","","47","","","","square","circle","46","23","2","0.9130434782608695","","","","","","","",""
"null","191066","SARL_v6","SARL_v6m4ahcrss","5e1528b314ae63b3961a2b60","freq_resp","","","img/orange_2bandit_a.png","70","img/orange_2bandit_a.png","70","test","","","","","","","","","","","2","","","","","","","","",""
"null","191236","SARL_v6","SARL_v6m4ahcrss","5e1528b314ae63b3961a2b60","fixation","","","img/fixation.png","null","","","test","","","","","","","","","","","","","","","","","","","",""
"321.8999999985099","191570","SARL_v6","SARL_v6m4ahcrss","5e1528b314ae63b3961a2b60","freq","","","img/orange_2bandit_a2.png","70","","70","test","1","","48","","","","square","circle","47","24","2","0.9148936170212766","","","","","","","",""
"null","192061","SARL_v6","SARL_v6m4ahcrss","5e1528b314ae63b3961a2b60","freq_resp","","","img/orange_2bandit_a.png","70","img/orange_2bandit_a.png","70","test","","","","","","","","","","","2","","","","","","","","",""
"null","192227","SARL_v6","SARL_v6m4ahcrss","5e1528b314ae63b3961a2b60","fixation","","","img/fixation.png","null","","","test","","","","","","","","","","","","","","","","","","","",""
"712.3000000044703","192948","SARL_v6","SARL_v6m4ahcrss","5e1528b314ae63b3961a2b60","rl","","","img/black_2bandit_a2.png","74","","0","test","","","49","","","-5","square","circle","","0","2","","74","-8","-5","-5","-8","square","2","0"
"null","193715","SARL_v6","SARL_v6m4ahcrss","5e1528b314ae63b3961a2b60","feedback","","","<div class=""verylowPoints_sq""> -5 </div>","null","","na","test","","","NaN","","","","","","","","2","","74","","","","","","2",""
"null","194531","SARL_v6","SARL_v6m4ahcrss","5e1528b314ae63b3961a2b60","freq","","","img/orange_2bandit_a2.png","null","","70","test","0","","50","","","","square","circle","48","1","3","0.8958333333333334","","","","","","","",""
"null","194699","SARL_v6","SARL_v6m4ahcrss","5e1528b314ae63b3961a2b60","fixation","","","img/fixation.png","null","","","test","","","","","","","","","","","","","","","","","","","",""
"537.2999999970198","195247","SARL_v6","SARL_v6m4ahcrss","5e1528b314ae63b3961a2b60","freq","","","img/orange_2bandit_a2.png","70","","70","test","1","","51","","","","square","circle","49","2","3","0.8979591836734694","","","","","","","",""
"null","195523","SARL_v6","SARL_v6m4ahcrss","5e1528b314ae63b3961a2b60","freq_resp","","","img/orange_2bandit_a.png","70","img/orange_2bandit_a.png","70","test","","","","","","","","","","","3","","","","","","","","",""
"null","195691","SARL_v6","SARL_v6m4ahcrss","5e1528b314ae63b3961a2b60","fixation","","","img/fixation.png","null","","","test","","","","","","","","","","","","","","","","","","","",""
"492.6000000014901","196193","SARL_v6","SARL_v6m4ahcrss","5e1528b314ae63b3961a2b60","freq","","","img/orange_2bandit_a2.png","70","","70","test","1","","52","","","","square","circle","50","3","3","0.9","","","","","","","",""
"null","196516","SARL_v6","SARL_v6m4ahcrss","5e1528b314ae63b3961a2b60","freq_resp","","","img/orange_2bandit_a.png","70","img/orange_2bandit_a.png","70","test","","","","","","","","","","","3","","","","","","","","",""
"null","196683","SARL_v6","SARL_v6m4ahcrss","5e1528b314ae63b3961a2b60","fixation","","","img/fixation.png","null","","","test","","","","","","","","","","","","","","","","","","","",""
"525.1999999955297","197219","SARL_v6","SARL_v6m4ahcrss","5e1528b314ae63b3961a2b60","freq","","","img/orange_2bandit_a2.png","70","","70","test","1","","53","","","","square","circle","51","4","3","0.9019607843137255","","","","","","","",""
"null","197505","SARL_v6","SARL_v6m4ahcrss","5e1528b314ae63b3961a2b60","freq_resp","","","img/orange_2bandit_a.png","70","img/orange_2bandit_a.png","70","test","","","","","","","","","","","3","","","","","","","","",""
"null","197668","SARL_v6","SARL_v6m4ahcrss","5e1528b314ae63b3961a2b60","fixation","","","img/fixation.png","null","","","test","","","","","","","","","","","","","","","","","","","",""
"676.7000000029802","198355","SARL_v6","SARL_v6m4ahcrss","5e1528b314ae63b3961a2b60","freq","","","img/orange_2bandit_a2.png","70","","70","test","1","","54","","","","square","circle","52","5","3","0.9038461538461539","","","","","","","",""
"null","198491","SARL_v6","SARL_v6m4ahcrss","5e1528b314ae63b3961a2b60","freq_resp","","","img/orange_2bandit_a.png","70","img/orange_2bandit_a.png","70","test","","","","","","","","","","","3","","","","","","","","",""
"null","198659","SARL_v6","SARL_v6m4ahcrss","5e1528b314ae63b3961a2b60","fixation","","","img/fixation.png","null","","","test","","","","","","","","","","","","","","","","","","","",""
"693.2000000029802","199364","SARL_v6","SARL_v6m4ahcrss","5e1528b314ae63b3961a2b60","freq","","","img/orange_2bandit_a2.png","70","","70","test","1","","55","","","","square","circle","53","6","3","0.9056603773584906","","","","","","","",""
"null","199483","SARL_v6","SARL_v6m4ahcrss","5e1528b314ae63b3961a2b60","freq_resp","","","img/orange_2bandit_a.png","70","img/orange_2bandit_a.png","70","test","","","","","","","","","","","3","","","","","","","","",""
"null","199651","SARL_v6","SARL_v6m4ahcrss","5e1528b314ae63b3961a2b60","fixation","","","img/fixation.png","null","","","test","","","","","","","","","","","","","","","","","","","",""
"431.59999999403954","200093","SARL_v6","SARL_v6m4ahcrss","5e1528b314ae63b3961a2b60","freq","","","img/orange_2bandit_a2.png","70","","70","test","1","","56","","","","square","circle","54","7","3","0.9074074074074074","","","","","","","",""
"null","200476","SARL_v6","SARL_v6m4ahcrss","5e1528b314ae63b3961a2b60","freq_resp","","","img/orange_2bandit_a.png","70","img/orange_2bandit_a.png","70","test","","","","","","","","","","","3","","","","","","","","",""
"null","200643","SARL_v6","SARL_v6m4ahcrss","5e1528b314ae63b3961a2b60","fixation","","","img/fixation.png","null","","","test","","","","","","","","","","","","","","","","","","","",""
"413.3999999985099","201068","SARL_v6","SARL_v6m4ahcrss","5e1528b314ae63b3961a2b60","freq","","","img/orange_2bandit_a2.png","70","","70","test","1","","57","","","","square","circle","55","8","3","0.9090909090909091","","","","","","","",""
"null","201467","SARL_v6","SARL_v6m4ahcrss","5e1528b314ae63b3961a2b60","freq_resp","","","img/orange_2bandit_a.png","70","img/orange_2bandit_a.png","70","test","","","","","","","","","","","3","","","","","","","","",""
"null","201636","SARL_v6","SARL_v6m4ahcrss","5e1528b314ae63b3961a2b60","fixation","","","img/fixation.png","null","","","test","","","","","","","","","","","","","","","","","","","",""
"317.70000000298023","201965","SARL_v6","SARL_v6m4ahcrss","5e1528b314ae63b3961a2b60","freq","","","img/orange_2bandit_a2.png","70","","70","test","1","","58","","","","square","circle","56","9","3","0.9107142857142857","","","","","","","",""
"null","202460","SARL_v6","SARL_v6m4ahcrss","5e1528b314ae63b3961a2b60","freq_resp","","","img/orange_2bandit_a.png","70","img/orange_2bandit_a.png","70","test","","","","","","","","","","","3","","","","","","","","",""
"null","202628","SARL_v6","SARL_v6m4ahcrss","5e1528b314ae63b3961a2b60","fixation","","","img/fixation.png","null","","","test","","","","","","","","","","","","","","","","","","","",""
"245.5","202886","SARL_v6","SARL_v6m4ahcrss","5e1528b314ae63b3961a2b60","freq","","","img/orange_2bandit_a2.png","70","","70","test","1","","59","","","","square","circle","57","10","3","0.9122807017543859","","","","","","","",""
"null","203451","SARL_v6","SARL_v6m4ahcrss","5e1528b314ae63b3961a2b60","freq_resp","","","img/orange_2bandit_a.png","70","img/orange_2bandit_a.png","70","test","","","","","","","","","","","3","","","","","","","","",""
"null","203620","SARL_v6","SARL_v6m4ahcrss","5e1528b314ae63b3961a2b60","fixation","","","img/fixation.png","null","","","test","","","","","","","","","","","","","","","","","","","",""
"277.19999999552965","203906","SARL_v6","SARL_v6m4ahcrss","5e1528b314ae63b3961a2b60","freq","","","img/orange_2bandit_a2.png","70","","70","test","1","","60","","","","square","circle","58","11","3","0.9137931034482759","","","","","","","",""
"null","204444","SARL_v6","SARL_v6m4ahcrss","5e1528b314ae63b3961a2b60","freq_resp","","","img/orange_2bandit_a.png","70","img/orange_2bandit_a.png","70","test","","","","","","","","","","","3","","","","","","","","",""
"null","204611","SARL_v6","SARL_v6m4ahcrss","5e1528b314ae63b3961a2b60","fixation","","","img/fixation.png","null","","","test","","","","","","","","","","","","","","","","","","","",""
"298.79999999701977","204921","SARL_v6","SARL_v6m4ahcrss","5e1528b314ae63b3961a2b60","freq","","","img/orange_2bandit_a2.png","70","","70","test","1","","61","","","","square","circle","59","12","3","0.9152542372881356","","","","","","","",""
"null","205436","SARL_v6","SARL_v6m4ahcrss","5e1528b314ae63b3961a2b60","freq_resp","","","img/orange_2bandit_a.png","70","img/orange_2bandit_a.png","70","test","","","","","","","","","","","3","","","","","","","","",""
"null","205603","SARL_v6","SARL_v6m4ahcrss","5e1528b314ae63b3961a2b60","fixation","","","img/fixation.png","null","","","test","","","","","","","","","","","","","","","","","","","",""
"295.1000000014901","205908","SARL_v6","SARL_v6m4ahcrss","5e1528b314ae63b3961a2b60","freq","","","img/orange_2bandit_a2.png","70","","70","test","1","","62","","","","square","circle","60","13","3","0.9166666666666666","","","","","","","",""
"null","206429","SARL_v6","SARL_v6m4ahcrss","5e1528b314ae63b3961a2b60","freq_resp","","","img/orange_2bandit_a.png","70","img/orange_2bandit_a.png","70","test","","","","","","","","","","","3","","","","","","","","",""
"null","206595","SARL_v6","SARL_v6m4ahcrss","5e1528b314ae63b3961a2b60","fixation","","","img/fixation.png","null","","","test","","","","","","","","","","","","","","","","","","","",""
"318","206924","SARL_v6","SARL_v6m4ahcrss","5e1528b314ae63b3961a2b60","freq","","","img/orange_2bandit_a2.png","70","","70","test","1","","63","","","","square","circle","61","14","3","0.9180327868852459","","","","","","","",""
"null","207420","SARL_v6","SARL_v6m4ahcrss","5e1528b314ae63b3961a2b60","freq_resp","","","img/orange_2bandit_a.png","70","img/orange_2bandit_a.png","70","test","","","","","","","","","","","3","","","","","","","","",""
"null","207588","SARL_v6","SARL_v6m4ahcrss","5e1528b314ae63b3961a2b60","fixation","","","img/fixation.png","null","","","test","","","","","","","","","","","","","","","","","","","",""
"289.3999999985099","207888","SARL_v6","SARL_v6m4ahcrss","5e1528b314ae63b3961a2b60","freq","","","img/orange_2bandit_a2.png","70","","70","test","1","","64","","","","square","circle","62","15","3","0.9193548387096774","","","","","","","",""
"null","208411","SARL_v6","SARL_v6m4ahcrss","5e1528b314ae63b3961a2b60","freq_resp","","","img/orange_2bandit_a.png","70","img/orange_2bandit_a.png","70","test","","","","","","","","","","","3","","","","","","","","",""
"null","208581","SARL_v6","SARL_v6m4ahcrss","5e1528b314ae63b3961a2b60","fixation","","","img/fixation.png","null","","","test","","","","","","","","","","","","","","","","","","","",""
"492.59999999403954","209083","SARL_v6","SARL_v6m4ahcrss","5e1528b314ae63b3961a2b60","infreq","","","img/blue_2bandit_a2.png","68","","68","test","1","","65","","","","square","circle","63","16","3","0.9206349206349206","","","","","","","",""
"null","209403","SARL_v6","SARL_v6m4ahcrss","5e1528b314ae63b3961a2b60","infreq_resp","","","img/blue_2bandit_a.png","68","img/blue_2bandit_a.png","68","test","","","","","","","","","","","3","","","","","","","","",""
"null","209572","SARL_v6","SARL_v6m4ahcrss","5e1528b314ae63b3961a2b60","fixation","","","img/fixation.png","null","","","test","","","","","","","","","","","","","","","","","","","",""
"369","209952","SARL_v6","SARL_v6m4ahcrss","5e1528b314ae63b3961a2b60","freq","","","img/orange_2bandit_a2.png","70","","70","test","1","","66","","","","square","circle","64","17","3","0.921875","","","","","","","",""
"null","210395","SARL_v6","SARL_v6m4ahcrss","5e1528b314ae63b3961a2b60","freq_resp","","","img/orange_2bandit_a.png","70","img/orange_2bandit_a.png","70","test","","","","","","","","","","","3","","","","","","","","",""
"null","210564","SARL_v6","SARL_v6m4ahcrss","5e1528b314ae63b3961a2b60","fixation","","","img/fixation.png","null","","","test","","","","","","","","","","","","","","","","","","","",""
"449.6000000014901","211024","SARL_v6","SARL_v6m4ahcrss","5e1528b314ae63b3961a2b60","infreq","","","img/blue_2bandit_a2.png","68","","68","test","1","","67","","","","square","circle","65","18","3","0.9230769230769231","","","","","","","",""
"null","211387","SARL_v6","SARL_v6m4ahcrss","5e1528b314ae63b3961a2b60","infreq_resp","","","img/blue_2bandit_a.png","68","img/blue_2bandit_a.png","68","test","","","","","","","","","","","3","","","","","","","","",""
"null","211555","SARL_v6","SARL_v6m4ahcrss","5e1528b314ae63b3961a2b60","fixation","","","img/fixation.png","null","","","test","","","","","","","","","","","","","","","","","","","",""
"469.40000000596046","212035","SARL_v6","SARL_v6m4ahcrss","5e1528b314ae63b3961a2b60","freq","","","img/orange_2bandit_a2.png","70","","70","test","1","","68","","","","square","circle","66","19","3","0.9242424242424242","","","","","","","",""
"null","212379","SARL_v6","SARL_v6m4ahcrss","5e1528b314ae63b3961a2b60","freq_resp","","","img/orange_2bandit_a.png","70","img/orange_2bandit_a.png","70","test","","","","","","","","","","","3","","","","","","","","",""
"null","212548","SARL_v6","SARL_v6m4ahcrss","5e1528b314ae63b3961a2b60","fixation","","","img/fixation.png","null","","","test","","","","","","","","","","","","","","","","","","","",""
"552.3000000044703","213112","SARL_v6","SARL_v6m4ahcrss","5e1528b314ae63b3961a2b60","freq","","","img/orange_2bandit_a2.png","68","","70","test","0","","69","","","","square","circle","67","20","3","0.9104477611940298","","","","","","","",""
"null","213371","SARL_v6","SARL_v6m4ahcrss","5e1528b314ae63b3961a2b60","freq_resp","","","img/orange_2bandit_a.png","68","img/orange_2bandit_a.png","70","test","","","","","","","","","","","3","","","","","","","","",""
"null","213532","SARL_v6","SARL_v6m4ahcrss","5e1528b314ae63b3961a2b60","fixation","","","img/fixation.png","null","","","test","","","","","","","","","","","","","","","","","","","",""
"358.5","213901","SARL_v6","SARL_v6m4ahcrss","5e1528b314ae63b3961a2b60","freq","","","img/orange_2bandit_a2.png","70","","70","test","1","","70","","","","square","circle","68","21","3","0.9117647058823529","","","","","","","",""
"null","214356","SARL_v6","SARL_v6m4ahcrss","5e1528b314ae63b3961a2b60","freq_resp","","","img/orange_2bandit_a.png","70","img/orange_2bandit_a.png","70","test","","","","","","","","","","","3","","","","","","","","",""
"null","214524","SARL_v6","SARL_v6m4ahcrss","5e1528b314ae63b3961a2b60","fixation","","","img/fixation.png","null","","","test","","","","","","","","","","","","","","","","","","","",""
"893.5","215428","SARL_v6","SARL_v6m4ahcrss","5e1528b314ae63b3961a2b60","rl","","","img/black_2bandit_a2.png","75","","0","test","","","71","","","-8","square","circle","","0","3","","75","-8","-4","-4","-8","circle","3","0"
"null","216194","SARL_v6","SARL_v6m4ahcrss","5e1528b314ae63b3961a2b60","feedback","","","<div class=""verylowPoints""> -8 </div>","null","","na","test","","","NaN","","","","","","","","3","","75","","","","","","3",""
"572.7999999970198","216778","SARL_v6","SARL_v6m4ahcrss","5e1528b314ae63b3961a2b60","freq","","","img/orange_2bandit_a2.png","70","","70","test","1","","72","","","","square","circle","69","1","4","0.9130434782608695","","","","","","","",""
"null","217020","SARL_v6","SARL_v6m4ahcrss","5e1528b314ae63b3961a2b60","freq_resp","","","img/orange_2bandit_a.png","70","img/orange_2bandit_a.png","70","test","","","","","","","","","","","4","","","","","","","","",""
"null","217185","SARL_v6","SARL_v6m4ahcrss","5e1528b314ae63b3961a2b60","fixation","","","img/fixation.png","null","","","test","","","","","","","","","","","","","","","","","","","",""
"465","217659","SARL_v6","SARL_v6m4ahcrss","5e1528b314ae63b3961a2b60","freq","","","img/orange_2bandit_a2.png","70","","70","test","1","","73","","","","square","circle","70","2","4","0.9142857142857143","","","","","","","",""
"null","218011","SARL_v6","SARL_v6m4ahcrss","5e1528b314ae63b3961a2b60","freq_resp","","","img/orange_2bandit_a.png","70","img/orange_2bandit_a.png","70","test","","","","","","","","","","","4","","","","","","","","",""
"null","218179","SARL_v6","SARL_v6m4ahcrss","5e1528b314ae63b3961a2b60","fixation","","","img/fixation.png","null","","","test","","","","","","","","","","","","","","","","","","","",""
"405.20000000298023","218595","SARL_v6","SARL_v6m4ahcrss","5e1528b314ae63b3961a2b60","freq","","","img/orange_2bandit_a2.png","70","","70","test","1","","74","","","","square","circle","71","3","4","0.9154929577464789","","","","","","","",""
"null","219005","SARL_v6","SARL_v6m4ahcrss","5e1528b314ae63b3961a2b60","freq_resp","","","img/orange_2bandit_a.png","70","img/orange_2bandit_a.png","70","test","","","","","","","","","","","4","","","","","","","","",""
"null","219171","SARL_v6","SARL_v6m4ahcrss","5e1528b314ae63b3961a2b60","fixation","","","img/fixation.png","null","","","test","","","","","","","","","","","","","","","","","","","",""
"null","219987","SARL_v6","SARL_v6m4ahcrss","5e1528b314ae63b3961a2b60","infreq","","","img/blue_2bandit_a2.png","null","","68","test","0","","75","","","","square","circle","72","4","4","0.9027777777777778","","","","","","","",""
"null","220155","SARL_v6","SARL_v6m4ahcrss","5e1528b314ae63b3961a2b60","fixation","","","img/fixation.png","null","","","test","","","","","","","","","","","","","","","","","","","",""
"556.6000000014901","220723","SARL_v6","SARL_v6m4ahcrss","5e1528b314ae63b3961a2b60","freq","","","img/orange_2bandit_a2.png","70","","70","test","1","","76","","","","square","circle","73","5","4","0.9041095890410958","","","","","","","",""
"null","220980","SARL_v6","SARL_v6m4ahcrss","5e1528b314ae63b3961a2b60","freq_resp","","","img/orange_2bandit_a.png","70","img/orange_2bandit_a.png","70","test","","","","","","","","","","","4","","","","","","","","",""
"null","221145","SARL_v6","SARL_v6m4ahcrss","5e1528b314ae63b3961a2b60","fixation","","","img/fixation.png","null","","","test","","","","","","","","","","","","","","","","","","","",""
"380.3999999985099","221536","SARL_v6","SARL_v6m4ahcrss","5e1528b314ae63b3961a2b60","freq","","","img/orange_2bandit_a2.png","70","","70","test","1","","77","","","","square","circle","74","6","4","0.9054054054054054","","","","","","","",""
"null","221969","SARL_v6","SARL_v6m4ahcrss","5e1528b314ae63b3961a2b60","freq_resp","","","img/orange_2bandit_a.png","70","img/orange_2bandit_a.png","70","test","","","","","","","","","","","4","","","","","","","","",""
"null","222131","SARL_v6","SARL_v6m4ahcrss","5e1528b314ae63b3961a2b60","fixation","","","img/fixation.png","null","","","test","","","","","","","","","","","","","","","","","","","",""
"347.8999999985099","222490","SARL_v6","SARL_v6m4ahcrss","5e1528b314ae63b3961a2b60","freq","","","img/orange_2bandit_a2.png","70","","70","test","1","","78","","","","square","circle","75","7","4","0.9066666666666666","","","","","","","",""
"null","222952","SARL_v6","SARL_v6m4ahcrss","5e1528b314ae63b3961a2b60","freq_resp","","","img/orange_2bandit_a.png","70","img/orange_2bandit_a.png","70","test","","","","","","","","","","","4","","","","","","","","",""
"null","223116","SARL_v6","SARL_v6m4ahcrss","5e1528b314ae63b3961a2b60","fixation","","","img/fixation.png","null","","","test","","","","","","","","","","","","","","","","","","","",""
"341.79999999701977","223465","SARL_v6","SARL_v6m4ahcrss","5e1528b314ae63b3961a2b60","freq","","","img/orange_2bandit_a2.png","70","","70","test","1","","79","","","","square","circle","76","8","4","0.9078947368421053","","","","","","","",""
"null","223939","SARL_v6","SARL_v6m4ahcrss","5e1528b314ae63b3961a2b60","freq_resp","","","img/orange_2bandit_a.png","70","img/orange_2bandit_a.png","70","test","","","","","","","","","","","4","","","","","","","","",""
"null","224098","SARL_v6","SARL_v6m4ahcrss","5e1528b314ae63b3961a2b60","fixation","","","img/fixation.png","null","","","test","","","","","","","","","","","","","","","","","","","",""
"329.8999999985099","224436","SARL_v6","SARL_v6m4ahcrss","5e1528b314ae63b3961a2b60","freq","","","img/orange_2bandit_a2.png","70","","70","test","1","","80","","","","square","circle","77","9","4","0.9090909090909091","","","","","","","",""
"null","224923","SARL_v6","SARL_v6m4ahcrss","5e1528b314ae63b3961a2b60","freq_resp","","","img/orange_2bandit_a.png","70","img/orange_2bandit_a.png","70","test","","","","","","","","","","","4","","","","","","","","",""
"null","225084","SARL_v6","SARL_v6m4ahcrss","5e1528b314ae63b3961a2b60","fixation","","","img/fixation.png","null","","","test","","","","","","","","","","","","","","","","","","","",""
"331.70000000298023","225424","SARL_v6","SARL_v6m4ahcrss","5e1528b314ae63b3961a2b60","freq","","","img/orange_2bandit_a2.png","70","","70","test","1","","81","","","","square","circle","78","10","4","0.9102564102564102","","","","","","","",""
"null","225906","SARL_v6","SARL_v6m4ahcrss","5e1528b314ae63b3961a2b60","freq_resp","","","img/orange_2bandit_a.png","70","img/orange_2bandit_a.png","70","test","","","","","","","","","","","4","","","","","","","","",""
"null","226065","SARL_v6","SARL_v6m4ahcrss","5e1528b314ae63b3961a2b60","fixation","","","img/fixation.png","null","","","test","","","","","","","","","","","","","","","","","","","",""
"276.3999999985099","226352","SARL_v6","SARL_v6m4ahcrss","5e1528b314ae63b3961a2b60","freq","","","img/orange_2bandit_a2.png","70","","70","test","1","","82","","","","square","circle","79","11","4","0.9113924050632911","","","","","","","",""
"null","226892","SARL_v6","SARL_v6m4ahcrss","5e1528b314ae63b3961a2b60","freq_resp","","","img/orange_2bandit_a.png","70","img/orange_2bandit_a.png","70","test","","","","","","","","","","","4","","","","","","","","",""
"null","227058","SARL_v6","SARL_v6m4ahcrss","5e1528b314ae63b3961a2b60","fixation","","","img/fixation.png","null","","","test","","","","","","","","","","","","","","","","","","","",""
"248.20000000298023","227317","SARL_v6","SARL_v6m4ahcrss","5e1528b314ae63b3961a2b60","infreq","","","img/blue_2bandit_a2.png","70","","68","test","0","","83","","","","square","circle","80","12","4","0.9","","","","","","","",""
"null","227884","SARL_v6","SARL_v6m4ahcrss","5e1528b314ae63b3961a2b60","infreq_resp","","","img/blue_2bandit_a.png","70","img/blue_2bandit_a.png","68","test","","","","","","","","","","","4","","","","","","","","",""
"null","228052","SARL_v6","SARL_v6m4ahcrss","5e1528b314ae63b3961a2b60","fixation","","","img/fixation.png","null","","","test","","","","","","","","","","","","","","","","","","","",""
"339.1000000014901","228401","SARL_v6","SARL_v6m4ahcrss","5e1528b314ae63b3961a2b60","freq","","","img/orange_2bandit_a2.png","70","","70","test","1","","84","","","","square","circle","81","13","4","0.9012345679012346","","","","","","","",""
"null","228876","SARL_v6","SARL_v6m4ahcrss","5e1528b314ae63b3961a2b60","freq_resp","","","img/orange_2bandit_a.png","70","img/orange_2bandit_a.png","70","test","","","","","","","","","","","4","","","","","","","","",""
"null","229043","SARL_v6","SARL_v6m4ahcrss","5e1528b314ae63b3961a2b60","fixation","","","img/fixation.png","null","","","test","","","","","","","","","","","","","","","","","","","",""
"346.8999999985099","229399","SARL_v6","SARL_v6m4ahcrss","5e1528b314ae63b3961a2b60","freq","","","img/orange_2bandit_a2.png","70","","70","test","1","","85","","","","square","circle","82","14","4","0.9024390243902439","","","","","","","",""
"null","229867","SARL_v6","SARL_v6m4ahcrss","5e1528b314ae63b3961a2b60","freq_resp","","","img/orange_2bandit_a.png","70","img/orange_2bandit_a.png","70","test","","","","","","","","","","","4","","","","","","","","",""
"null","230034","SARL_v6","SARL_v6m4ahcrss","5e1528b314ae63b3961a2b60","fixation","","","img/fixation.png","null","","","test","","","","","","","","","","","","","","","","","","","",""
"340.20000000298023","230383","SARL_v6","SARL_v6m4ahcrss","5e1528b314ae63b3961a2b60","freq","","","img/orange_2bandit_a2.png","70","","70","test","1","","86","","","","square","circle","83","15","4","0.9036144578313253","","","","","","","",""
"null","230859","SARL_v6","SARL_v6m4ahcrss","5e1528b314ae63b3961a2b60","freq_resp","","","img/orange_2bandit_a.png","70","img/orange_2bandit_a.png","70","test","","","","","","","","","","","4","","","","","","","","",""
"null","231029","SARL_v6","SARL_v6m4ahcrss","5e1528b314ae63b3961a2b60","fixation","","","img/fixation.png","null","","","test","","","","","","","","","","","","","","","","","","","",""
"340.09999999403954","231380","SARL_v6","SARL_v6m4ahcrss","5e1528b314ae63b3961a2b60","freq","","","img/orange_2bandit_a2.png","70","","70","test","1","","87","","","","square","circle","84","16","4","0.9047619047619048","","","","","","","",""
"null","231852","SARL_v6","SARL_v6m4ahcrss","5e1528b314ae63b3961a2b60","freq_resp","","","img/orange_2bandit_a.png","70","img/orange_2bandit_a.png","70","test","","","","","","","","","","","4","","","","","","","","",""
"null","232019","SARL_v6","SARL_v6m4ahcrss","5e1528b314ae63b3961a2b60","fixation","","","img/fixation.png","null","","","test","","","","","","","","","","","","","","","","","","","",""
"315","232345","SARL_v6","SARL_v6m4ahcrss","5e1528b314ae63b3961a2b60","freq","","","img/orange_2bandit_a2.png","70","","70","test","1","","88","","","","square","circle","85","17","4","0.9058823529411765","","","","","","","",""
"null","232843","SARL_v6","SARL_v6m4ahcrss","5e1528b314ae63b3961a2b60","freq_resp","","","img/orange_2bandit_a.png","70","img/orange_2bandit_a.png","70","test","","","","","","","","","","","4","","","","","","","","",""
"null","233011","SARL_v6","SARL_v6m4ahcrss","5e1528b314ae63b3961a2b60","fixation","","","img/fixation.png","null","","","test","","","","","","","","","","","","","","","","","","","",""
"312.69999999552965","233334","SARL_v6","SARL_v6m4ahcrss","5e1528b314ae63b3961a2b60","freq","","","img/orange_2bandit_a2.png","70","","70","test","1","","89","","","","square","circle","86","18","4","0.9069767441860465","","","","","","","",""
"null","233834","SARL_v6","SARL_v6m4ahcrss","5e1528b314ae63b3961a2b60","freq_resp","","","img/orange_2bandit_a.png","70","img/orange_2bandit_a.png","70","test","","","","","","","","","","","4","","","","","","","","",""
"null","233995","SARL_v6","SARL_v6m4ahcrss","5e1528b314ae63b3961a2b60","fixation","","","img/fixation.png","null","","","test","","","","","","","","","","","","","","","","","","","",""
"371.3999999985099","234380","SARL_v6","SARL_v6m4ahcrss","5e1528b314ae63b3961a2b60","freq","","","img/orange_2bandit_a2.png","70","","70","test","1","","90","","","","square","circle","87","19","4","0.9080459770114943","","","","","","","",""
"null","234828","SARL_v6","SARL_v6m4ahcrss","5e1528b314ae63b3961a2b60","freq_resp","","","img/orange_2bandit_a.png","70","img/orange_2bandit_a.png","70","test","","","","","","","","","","","4","","","","","","","","",""
"null","234996","SARL_v6","SARL_v6m4ahcrss","5e1528b314ae63b3961a2b60","fixation","","","img/fixation.png","null","","","test","","","","","","","","","","","","","","","","","","","",""
"520.3999999985099","235527","SARL_v6","SARL_v6m4ahcrss","5e1528b314ae63b3961a2b60","freq","","","img/orange_2bandit_a2.png","70","","70","test","1","","91","","","","square","circle","88","20","4","0.9090909090909091","","","","","","","",""
"null","235821","SARL_v6","SARL_v6m4ahcrss","5e1528b314ae63b3961a2b60","freq_resp","","","img/orange_2bandit_a.png","70","img/orange_2bandit_a.png","70","test","","","","","","","","","","","4","","","","","","","","",""
"null","235992","SARL_v6","SARL_v6m4ahcrss","5e1528b314ae63b3961a2b60","fixation","","","img/fixation.png","null","","","test","","","","","","","","","","","","","","","","","","","",""
"546.6000000014901","236551","SARL_v6","SARL_v6m4ahcrss","5e1528b314ae63b3961a2b60","freq","","","img/orange_2bandit_a2.png","70","","70","test","1","","92","","","","square","circle","89","21","4","0.9101123595505618","","","","","","","",""
"null","236818","SARL_v6","SARL_v6m4ahcrss","5e1528b314ae63b3961a2b60","freq_resp","","","img/orange_2bandit_a.png","70","img/orange_2bandit_a.png","70","test","","","","","","","","","","","4","","","","","","","","",""
"null","236980","SARL_v6","SARL_v6m4ahcrss","5e1528b314ae63b3961a2b60","fixation","","","img/fixation.png","null","","","test","","","","","","","","","","","","","","","","","","","",""
"495.40000000596046","237487","SARL_v6","SARL_v6m4ahcrss","5e1528b314ae63b3961a2b60","freq","","","img/orange_2bandit_a2.png","70","","70","test","1","","93","","","","square","circle","90","22","4","0.9111111111111111","","","","","","","",""
"null","237801","SARL_v6","SARL_v6m4ahcrss","5e1528b314ae63b3961a2b60","freq_resp","","","img/orange_2bandit_a.png","70","img/orange_2bandit_a.png","70","test","","","","","","","","","","","4","","","","","","","","",""
"null","237963","SARL_v6","SARL_v6m4ahcrss","5e1528b314ae63b3961a2b60","fixation","","","img/fixation.png","null","","","test","","","","","","","","","","","","","","","","","","","",""
"319.6000000014901","238294","SARL_v6","SARL_v6m4ahcrss","5e1528b314ae63b3961a2b60","freq","","","img/orange_2bandit_a2.png","70","","70","test","1","","94","","","","square","circle","91","23","4","0.9120879120879121","","","","","","","",""
"null","238787","SARL_v6","SARL_v6m4ahcrss","5e1528b314ae63b3961a2b60","freq_resp","","","img/orange_2bandit_a.png","70","img/orange_2bandit_a.png","70","test","","","","","","","","","","","4","","","","","","","","",""
"null","238956","SARL_v6","SARL_v6m4ahcrss","5e1528b314ae63b3961a2b60","fixation","","","img/fixation.png","null","","","test","","","","","","","","","","","","","","","","","","","",""
"296.69999999552965","239263","SARL_v6","SARL_v6m4ahcrss","5e1528b314ae63b3961a2b60","freq","","","img/orange_2bandit_a2.png","70","","70","test","1","","95","","","","square","circle","92","24","4","0.9130434782608695","","","","","","","",""
"null","239779","SARL_v6","SARL_v6m4ahcrss","5e1528b314ae63b3961a2b60","freq_resp","","","img/orange_2bandit_a.png","70","img/orange_2bandit_a.png","70","test","","","","","","","","","","","4","","","","","","","","",""
"null","239948","SARL_v6","SARL_v6m4ahcrss","5e1528b314ae63b3961a2b60","fixation","","","img/fixation.png","null","","","test","","","","","","","","","","","","","","","","","","","",""
"296.1000000014901","240255","SARL_v6","SARL_v6m4ahcrss","5e1528b314ae63b3961a2b60","freq","","","img/orange_2bandit_a2.png","70","","70","test","1","","96","","","","square","circle","93","25","4","0.9139784946236559","","","","","","","",""
"null","240772","SARL_v6","SARL_v6m4ahcrss","5e1528b314ae63b3961a2b60","freq_resp","","","img/orange_2bandit_a.png","70","img/orange_2bandit_a.png","70","test","","","","","","","","","","","4","","","","","","","","",""
"null","240940","SARL_v6","SARL_v6m4ahcrss","5e1528b314ae63b3961a2b60","fixation","","","img/fixation.png","null","","","test","","","","","","","","","","","","","","","","","","","",""
"679.1000000014901","241628","SARL_v6","SARL_v6m4ahcrss","5e1528b314ae63b3961a2b60","rl","","","img/black_2bandit_a2.png","74","","0","test","","","97","","","0","square","circle","","0","4","","74","-12","0","0","-12","square","4","0"
"null","242396","SARL_v6","SARL_v6m4ahcrss","5e1528b314ae63b3961a2b60","feedback","","","<div class=""verylowPoints_sq""> 0 </div>","null","","na","test","","","NaN","","","","","","","","4","","74","","","","","","4",""
"375.1000000014901","242782","SARL_v6","SARL_v6m4ahcrss","5e1528b314ae63b3961a2b60","freq","","","img/orange_2bandit_a2.png","70","","70","test","1","","98","","","","square","circle","94","1","5","0.9148936170212766","","","","","","","",""
"null","243219","SARL_v6","SARL_v6m4ahcrss","5e1528b314ae63b3961a2b60","freq_resp","","","img/orange_2bandit_a.png","70","img/orange_2bandit_a.png","70","test","","","","","","","","","","","5","","","","","","","","",""
"null","243388","SARL_v6","SARL_v6m4ahcrss","5e1528b314ae63b3961a2b60","fixation","","","img/fixation.png","null","","","test","","","","","","","","","","","","","","","","","","","",""
"382.3999999985099","243782","SARL_v6","SARL_v6m4ahcrss","5e1528b314ae63b3961a2b60","infreq","","","img/blue_2bandit_a2.png","70","","68","test","0","","99","","","","square","circle","95","2","5","0.9052631578947369","","","","","","","",""
"null","244211","SARL_v6","SARL_v6m4ahcrss","5e1528b314ae63b3961a2b60","infreq_resp","","","img/blue_2bandit_a.png","70","img/blue_2bandit_a.png","68","test","","","","","","","","","","","5","","","","","","","","",""
"null","244380","SARL_v6","SARL_v6m4ahcrss","5e1528b314ae63b3961a2b60","fixation","","","img/fixation.png","null","","","test","","","","","","","","","","","","","","","","","","","",""
"638.5999999940395","245029","SARL_v6","SARL_v6m4ahcrss","5e1528b314ae63b3961a2b60","freq","","","img/orange_2bandit_a2.png","70","","70","test","1","","100","","","","square","circle","96","3","5","0.90625","","","","","","","",""
"null","245206","SARL_v6","SARL_v6m4ahcrss","5e1528b314ae63b3961a2b60","freq_resp","","","img/orange_2bandit_a.png","70","img/orange_2bandit_a.png","70","test","","","","","","","","","","","5","","","","","","","","",""
"null","245372","SARL_v6","SARL_v6m4ahcrss","5e1528b314ae63b3961a2b60","fixation","","","img/fixation.png","null","","","test","","","","","","","","","","","","","","","","","","","",""
"610.5999999940395","245996","SARL_v6","SARL_v6m4ahcrss","5e1528b314ae63b3961a2b60","freq","","","img/orange_2bandit_a2.png","70","","70","test","1","","101","","","","square","circle","97","4","5","0.9072164948453608","","","","","","","",""
"null","246203","SARL_v6","SARL_v6m4ahcrss","5e1528b314ae63b3961a2b60","freq_resp","","","img/orange_2bandit_a.png","70","img/orange_2bandit_a.png","70","test","","","","","","","","","","","5","","","","","","","","",""
"null","246372","SARL_v6","SARL_v6m4ahcrss","5e1528b314ae63b3961a2b60","fixation","","","img/fixation.png","null","","","test","","","","","","","","","","","","","","","","","","","",""
"696","247077","SARL_v6","SARL_v6m4ahcrss","5e1528b314ae63b3961a2b60","freq","","","img/orange_2bandit_a2.png","70","","70","test","1","","102","","","","square","circle","98","5","5","0.9081632653061225","","","","","","","",""
"null","247195","SARL_v6","SARL_v6m4ahcrss","5e1528b314ae63b3961a2b60","freq_resp","","","img/orange_2bandit_a.png","70","img/orange_2bandit_a.png","70","test","","","","","","","","","","","5","","","","","","","","",""
"null","247364","SARL_v6","SARL_v6m4ahcrss","5e1528b314ae63b3961a2b60","fixation","","","img/fixation.png","null","","","test","","","","","","","","","","","","","","","","","","","",""
"696.7000000029802","248073","SARL_v6","SARL_v6m4ahcrss","5e1528b314ae63b3961a2b60","freq","","","img/orange_2bandit_a2.png","70","","70","test","1","","103","","","","square","circle","99","6","5","0.9090909090909091","","","","","","","",""
"null","248195","SARL_v6","SARL_v6m4ahcrss","5e1528b314ae63b3961a2b60","freq_resp","","","img/orange_2bandit_a.png","70","img/orange_2bandit_a.png","70","test","","","","","","","","","","","5","","","","","","","","",""
"null","248364","SARL_v6","SARL_v6m4ahcrss","5e1528b314ae63b3961a2b60","fixation","","","img/fixation.png","null","","","test","","","","","","","","","","","","","","","","","","","",""
"698.8999999985099","249074","SARL_v6","SARL_v6m4ahcrss","5e1528b314ae63b3961a2b60","freq","","","img/orange_2bandit_a2.png","70","","70","test","1","","104","","","","square","circle","100","7","5","0.91","","","","","","","",""
"null","249187","SARL_v6","SARL_v6m4ahcrss","5e1528b314ae63b3961a2b60","freq_resp","","","img/orange_2bandit_a.png","70","img/orange_2bandit_a.png","70","test","","","","","","","","","","","5","","","","","","","","",""
"null","249356","SARL_v6","SARL_v6m4ahcrss","5e1528b314ae63b3961a2b60","fixation","","","img/fixation.png","null","","","test","","","","","","","","","","","","","","","","","","","",""
"595.7999999970198","249962","SARL_v6","SARL_v6m4ahcrss","5e1528b314ae63b3961a2b60","freq","","","img/orange_2bandit_a2.png","70","","70","test","1","","105","","","","square","circle","101","8","5","0.9108910891089109","","","","","","","",""
"null","250180","SARL_v6","SARL_v6m4ahcrss","5e1528b314ae63b3961a2b60","freq_resp","","","img/orange_2bandit_a.png","70","img/orange_2bandit_a.png","70","test","","","","","","","","","","","5","","","","","","","","",""
"null","250349","SARL_v6","SARL_v6m4ahcrss","5e1528b314ae63b3961a2b60","fixation","","","img/fixation.png","null","","","test","","","","","","","","","","","","","","","","","","","",""
"485.3999999985099","250846","SARL_v6","SARL_v6m4ahcrss","5e1528b314ae63b3961a2b60","freq","","","img/orange_2bandit_a2.png","70","","70","test","1","","106","","","","square","circle","102","9","5","0.9117647058823529","","","","","","","",""
"null","251180","SARL_v6","SARL_v6m4ahcrss","5e1528b314ae63b3961a2b60","freq_resp","","","img/orange_2bandit_a.png","70","img/orange_2bandit_a.png","70","test","","","","","","","","","","","5","","","","","","","","",""
"null","251348","SARL_v6","SARL_v6m4ahcrss","5e1528b314ae63b3961a2b60","fixation","","","img/fixation.png","null","","","test","","","","","","","","","","","","","","","","","","","",""
"503.09999999403954","251863","SARL_v6","SARL_v6m4ahcrss","5e1528b314ae63b3961a2b60","freq","","","img/orange_2bandit_a2.png","70","","70","test","1","","107","","","","square","circle","103","10","5","0.912621359223301","","","","","","","",""
"null","252170","SARL_v6","SARL_v6m4ahcrss","5e1528b314ae63b3961a2b60","freq_resp","","","img/orange_2bandit_a.png","70","img/orange_2bandit_a.png","70","test","","","","","","","","","","","5","","","","","","","","",""
"null","252331","SARL_v6","SARL_v6m4ahcrss","5e1528b314ae63b3961a2b60","fixation","","","img/fixation.png","null","","","test","","","","","","","","","","","","","","","","","","","",""
"480.90000000596046","252823","SARL_v6","SARL_v6m4ahcrss","5e1528b314ae63b3961a2b60","freq","","","img/orange_2bandit_a2.png","70","","70","test","1","","108","","","","square","circle","104","11","5","0.9134615384615384","","","","","","","",""
"null","253158","SARL_v6","SARL_v6m4ahcrss","5e1528b314ae63b3961a2b60","freq_resp","","","img/orange_2bandit_a.png","70","img/orange_2bandit_a.png","70","test","","","","","","","","","","","5","","","","","","","","",""
"null","253323","SARL_v6","SARL_v6m4ahcrss","5e1528b314ae63b3961a2b60","fixation","","","img/fixation.png","null","","","test","","","","","","","","","","","","","","","","","","","",""
"671.2000000029802","254004","SARL_v6","SARL_v6m4ahcrss","5e1528b314ae63b3961a2b60","infreq","","","img/blue_2bandit_a2.png","68","","68","test","1","","109","","","","square","circle","105","12","5","0.9142857142857143","","","","","","","",""
"null","254148","SARL_v6","SARL_v6m4ahcrss","5e1528b314ae63b3961a2b60","infreq_resp","","","img/blue_2bandit_a.png","68","img/blue_2bandit_a.png","68","test","","","","","","","","","","","5","","","","","","","","",""
"null","254314","SARL_v6","SARL_v6m4ahcrss","5e1528b314ae63b3961a2b60","fixation","","","img/fixation.png","null","","","test","","","","","","","","","","","","","","","","","","","",""
"null","255132","SARL_v6","SARL_v6m4ahcrss","5e1528b314ae63b3961a2b60","freq","","","img/orange_2bandit_a2.png","null","","70","test","0","","110","","","","square","circle","106","13","5","0.9056603773584906","","","","","","","",""
"null","255300","SARL_v6","SARL_v6m4ahcrss","5e1528b314ae63b3961a2b60","fixation","","","img/fixation.png","null","","","test","","","","","","","","","","","","","","","","","","","",""
"719.8999999985099","256031","SARL_v6","SARL_v6m4ahcrss","5e1528b314ae63b3961a2b60","freq","","","img/orange_2bandit_a2.png","70","","70","test","1","","111","","","","square","circle","107","14","5","0.9065420560747663","","","","","","","",""
"null","256124","SARL_v6","SARL_v6m4ahcrss","5e1528b314ae63b3961a2b60","freq_resp","","","img/orange_2bandit_a.png","70","img/orange_2bandit_a.png","70","test","","","","","","","","","","","5","","","","","","","","",""
"null","256291","SARL_v6","SARL_v6m4ahcrss","5e1528b314ae63b3961a2b60","fixation","","","img/fixation.png","null","","","test","","","","","","","","","","","","","","","","","","","",""
"null","257108","SARL_v6","SARL_v6m4ahcrss","5e1528b314ae63b3961a2b60","freq","","","img/orange_2bandit_a2.png","null","","70","test","0","","112","","","","square","circle","108","15","5","0.8981481481481481","","","","","","","",""
"null","257274","SARL_v6","SARL_v6m4ahcrss","5e1528b314ae63b3961a2b60","fixation","","","img/fixation.png","null","","","test","","","","","","","","","","","","","","","","","","","",""
"735","258019","SARL_v6","SARL_v6m4ahcrss","5e1528b314ae63b3961a2b60","freq","","","img/orange_2bandit_a2.png","70","","70","test","1","","113","","","","square","circle","109","16","5","0.8990825688073395","","","","","","","",""
"null","258099","SARL_v6","SARL_v6m4ahcrss","5e1528b314ae63b3961a2b60","freq_resp","","","img/orange_2bandit_a.png","70","img/orange_2bandit_a.png","70","test","","","","","","","","","","","5","","","","","","","","",""
"null","258268","SARL_v6","SARL_v6m4ahcrss","5e1528b314ae63b3961a2b60","fixation","","","img/fixation.png","null","","","test","","","","","","","","","","","","","","","","","","","",""
"668.6999999955297","258947","SARL_v6","SARL_v6m4ahcrss","5e1528b314ae63b3961a2b60","freq","","","img/orange_2bandit_a2.png","70","","70","test","1","","114","","","","square","circle","110","17","5","0.9","","","","","","","",""
"null","259091","SARL_v6","SARL_v6m4ahcrss","5e1528b314ae63b3961a2b60","freq_resp","","","img/orange_2bandit_a.png","70","img/orange_2bandit_a.png","70","test","","","","","","","","","","","5","","","","","","","","",""
"null","259261","SARL_v6","SARL_v6m4ahcrss","5e1528b314ae63b3961a2b60","fixation","","","img/fixation.png","null","","","test","","","","","","","","","","","","","","","","","","","",""
"435.6000000014901","259707","SARL_v6","SARL_v6m4ahcrss","5e1528b314ae63b3961a2b60","freq","","","img/orange_2bandit_a2.png","70","","70","test","1","","115","","","","square","circle","111","18","5","0.9009009009009009","","","","","","","",""
"null","260084","SARL_v6","SARL_v6m4ahcrss","5e1528b314ae63b3961a2b60","freq_resp","","","img/orange_2bandit_a.png","70","img/orange_2bandit_a.png","70","test","","","","","","","","","","","5","","","","","","","","",""
"null","260252","SARL_v6","SARL_v6m4ahcrss","5e1528b314ae63b3961a2b60","fixation","","","img/fixation.png","null","","","test","","","","","","","","","","","","","","","","","","","",""
"382.6000000014901","260645","SARL_v6","SARL_v6m4ahcrss","5e1528b314ae63b3961a2b60","freq","","","img/orange_2bandit_a2.png","70","","70","test","1","","116","","","","square","circle","112","19","5","0.9017857142857143","","","","","","","",""
"null","261075","SARL_v6","SARL_v6m4ahcrss","5e1528b314ae63b3961a2b60","freq_resp","","","img/orange_2bandit_a.png","70","img/orange_2bandit_a.png","70","test","","","","","","","","","","","5","","","","","","","","",""
"null","261244","SARL_v6","SARL_v6m4ahcrss","5e1528b314ae63b3961a2b60","fixation","","","img/fixation.png","null","","","test","","","","","","","","","","","","","","","","","","","",""
"327.6000000014901","261583","SARL_v6","SARL_v6m4ahcrss","5e1528b314ae63b3961a2b60","freq","","","img/orange_2bandit_a2.png","70","","70","test","1","","117","","","","square","circle","113","20","5","0.9026548672566371","","","","","","","",""
"null","262067","SARL_v6","SARL_v6m4ahcrss","5e1528b314ae63b3961a2b60","freq_resp","","","img/orange_2bandit_a.png","70","img/orange_2bandit_a.png","70","test","","","","","","","","","","","5","","","","","","","","",""
"null","262235","SARL_v6","SARL_v6m4ahcrss","5e1528b314ae63b3961a2b60","fixation","","","img/fixation.png","null","","","test","","","","","","","","","","","","","","","","","","","",""
"333.5","262580","SARL_v6","SARL_v6m4ahcrss","5e1528b314ae63b3961a2b60","freq","","","img/orange_2bandit_a2.png","70","","70","test","1","","118","","","","square","circle","114","21","5","0.9035087719298246","","","","","","","",""
"null","263059","SARL_v6","SARL_v6m4ahcrss","5e1528b314ae63b3961a2b60","freq_resp","","","img/orange_2bandit_a.png","70","img/orange_2bandit_a.png","70","test","","","","","","","","","","","5","","","","","","","","",""
"null","263220","SARL_v6","SARL_v6m4ahcrss","5e1528b314ae63b3961a2b60","fixation","","","img/fixation.png","null","","","test","","","","","","","","","","","","","","","","","","","",""
"591.1000000014901","263824","SARL_v6","SARL_v6m4ahcrss","5e1528b314ae63b3961a2b60","rl","","","img/black_2bandit_a2.png","74","","0","test","","","119","","","4","square","circle","","0","5","","74","-7","4","4","-7","square","5","0"
"null","264587","SARL_v6","SARL_v6m4ahcrss","5e1528b314ae63b3961a2b60","feedback","","","<div class=""veryhighPoints_sq""> 4 </div>","null","","na","test","","","NaN","","","","","","","","5","","74","","","","","","5",""
"463.6000000014901","265061","SARL_v6","SARL_v6m4ahcrss","5e1528b314ae63b3961a2b60","freq","","","img/orange_2bandit_a2.png","70","","70","test","1","","120","","","","square","circle","115","1","6","0.9043478260869565","","","","","","","",""
"null","265411","SARL_v6","SARL_v6m4ahcrss","5e1528b314ae63b3961a2b60","freq_resp","","","img/orange_2bandit_a.png","70","img/orange_2bandit_a.png","70","test","","","","","","","","","","","6","","","","","","","","",""
"null","265579","SARL_v6","SARL_v6m4ahcrss","5e1528b314ae63b3961a2b60","fixation","","","img/fixation.png","null","","","test","","","","","","","","","","","","","","","","","","","",""
"654.2999999970198","266245","SARL_v6","SARL_v6m4ahcrss","5e1528b314ae63b3961a2b60","freq","","","img/orange_2bandit_a2.png","70","","70","test","1","","121","","","","square","circle","116","2","6","0.9051724137931034","","","","","","","",""
"null","266405","SARL_v6","SARL_v6m4ahcrss","5e1528b314ae63b3961a2b60","freq_resp","","","img/orange_2bandit_a.png","70","img/orange_2bandit_a.png","70","test","","","","","","","","","","","6","","","","","","","","",""
"null","266571","SARL_v6","SARL_v6m4ahcrss","5e1528b314ae63b3961a2b60","fixation","","","img/fixation.png","null","","","test","","","","","","","","","","","","","","","","","","","",""
"494","267077","SARL_v6","SARL_v6m4ahcrss","5e1528b314ae63b3961a2b60","freq","","","img/orange_2bandit_a2.png","70","","70","test","1","","122","","","","square","circle","117","3","6","0.905982905982906","","","","","","","",""
"null","267395","SARL_v6","SARL_v6m4ahcrss","5e1528b314ae63b3961a2b60","freq_resp","","","img/orange_2bandit_a.png","70","img/orange_2bandit_a.png","70","test","","","","","","","","","","","6","","","","","","","","",""
"null","267564","SARL_v6","SARL_v6m4ahcrss","5e1528b314ae63b3961a2b60","fixation","","","img/fixation.png","null","","","test","","","","","","","","","","","","","","","","","","","",""
"433.6000000014901","268010","SARL_v6","SARL_v6m4ahcrss","5e1528b314ae63b3961a2b60","freq","","","img/orange_2bandit_a2.png","70","","70","test","1","","123","","","","square","circle","118","4","6","0.9067796610169492","","","","","","","",""
"null","268388","SARL_v6","SARL_v6m4ahcrss","5e1528b314ae63b3961a2b60","freq_resp","","","img/orange_2bandit_a.png","70","img/orange_2bandit_a.png","70","test","","","","","","","","","","","6","","","","","","","","",""
"null","268555","SARL_v6","SARL_v6m4ahcrss","5e1528b314ae63b3961a2b60","fixation","","","img/fixation.png","null","","","test","","","","","","","","","","","","","","","","","","","",""
"407.8999999985099","268974","SARL_v6","SARL_v6m4ahcrss","5e1528b314ae63b3961a2b60","freq","","","img/orange_2bandit_a2.png","70","","70","test","1","","124","","","","square","circle","119","5","6","0.907563025210084","","","","","","","",""
"null","269379","SARL_v6","SARL_v6m4ahcrss","5e1528b314ae63b3961a2b60","freq_resp","","","img/orange_2bandit_a.png","70","img/orange_2bandit_a.png","70","test","","","","","","","","","","","6","","","","","","","","",""
"null","269547","SARL_v6","SARL_v6m4ahcrss","5e1528b314ae63b3961a2b60","fixation","","","img/fixation.png","null","","","test","","","","","","","","","","","","","","","","","","","",""
"381","269940","SARL_v6","SARL_v6m4ahcrss","5e1528b314ae63b3961a2b60","freq","","","img/orange_2bandit_a2.png","70","","70","test","1","","125","","","","square","circle","120","6","6","0.9083333333333333","","","","","","","",""
"null","270372","SARL_v6","SARL_v6m4ahcrss","5e1528b314ae63b3961a2b60","freq_resp","","","img/orange_2bandit_a.png","70","img/orange_2bandit_a.png","70","test","","","","","","","","","","","6","","","","","","","","",""
"null","270540","SARL_v6","SARL_v6m4ahcrss","5e1528b314ae63b3961a2b60","fixation","","","img/fixation.png","null","","","test","","","","","","","","","","","","","","","","","","","",""
"317","270867","SARL_v6","SARL_v6m4ahcrss","5e1528b314ae63b3961a2b60","freq","","","img/orange_2bandit_a2.png","70","","70","test","1","","126","","","","square","circle","121","7","6","0.9090909090909091","","","","","","","",""
"null","271363","SARL_v6","SARL_v6m4ahcrss","5e1528b314ae63b3961a2b60","freq_resp","","","img/orange_2bandit_a.png","70","img/orange_2bandit_a.png","70","test","","","","","","","","","","","6","","","","","","","","",""
"null","271530","SARL_v6","SARL_v6m4ahcrss","5e1528b314ae63b3961a2b60","fixation","","","img/fixation.png","null","","","test","","","","","","","","","","","","","","","","","","","",""
"275.6000000014901","271815","SARL_v6","SARL_v6m4ahcrss","5e1528b314ae63b3961a2b60","freq","","","img/orange_2bandit_a2.png","70","","70","test","1","","127","","","","square","circle","122","8","6","0.9098360655737705","","","","","","","",""
"null","272356","SARL_v6","SARL_v6m4ahcrss","5e1528b314ae63b3961a2b60","freq_resp","","","img/orange_2bandit_a.png","70","img/orange_2bandit_a.png","70","test","","","","","","","","","","","6","","","","","","","","",""
"null","272523","SARL_v6","SARL_v6m4ahcrss","5e1528b314ae63b3961a2b60","fixation","","","img/fixation.png","null","","","test","","","","","","","","","","","","","","","","","","","",""
"320.59999999403954","272853","SARL_v6","SARL_v6m4ahcrss","5e1528b314ae63b3961a2b60","freq","","","img/orange_2bandit_a2.png","70","","70","test","1","","128","","","","square","circle","123","9","6","0.9105691056910569","","","","","","","",""
"null","273348","SARL_v6","SARL_v6m4ahcrss","5e1528b314ae63b3961a2b60","freq_resp","","","img/orange_2bandit_a.png","70","img/orange_2bandit_a.png","70","test","","","","","","","","","","","6","","","","","","","","",""
"null","273516","SARL_v6","SARL_v6m4ahcrss","5e1528b314ae63b3961a2b60","fixation","","","img/fixation.png","null","","","test","","","","","","","","","","","","","","","","","","","",""
"321.5","273849","SARL_v6","SARL_v6m4ahcrss","5e1528b314ae63b3961a2b60","freq","","","img/orange_2bandit_a2.png","70","","70","test","1","","129","","","","square","circle","124","10","6","0.9112903225806451","","","","","","","",""
"null","274339","SARL_v6","SARL_v6m4ahcrss","5e1528b314ae63b3961a2b60","freq_resp","","","img/orange_2bandit_a.png","70","img/orange_2bandit_a.png","70","test","","","","","","","","","","","6","","","","","","","","",""
"null","274508","SARL_v6","SARL_v6m4ahcrss","5e1528b314ae63b3961a2b60","fixation","","","img/fixation.png","null","","","test","","","","","","","","","","","","","","","","","","","",""
"315.69999999552965","274834","SARL_v6","SARL_v6m4ahcrss","5e1528b314ae63b3961a2b60","freq","","","img/orange_2bandit_a2.png","70","","70","test","1","","130","","","","square","circle","125","11","6","0.912","","","","","","","",""
"null","275331","SARL_v6","SARL_v6m4ahcrss","5e1528b314ae63b3961a2b60","freq_resp","","","img/orange_2bandit_a.png","70","img/orange_2bandit_a.png","70","test","","","","","","","","","","","6","","","","","","","","",""
"null","275499","SARL_v6","SARL_v6m4ahcrss","5e1528b314ae63b3961a2b60","fixation","","","img/fixation.png","null","","","test","","","","","","","","","","","","","","","","","","","",""
"308.19999999552965","275818","SARL_v6","SARL_v6m4ahcrss","5e1528b314ae63b3961a2b60","freq","","","img/orange_2bandit_a2.png","70","","70","test","1","","131","","","","square","circle","126","12","6","0.9126984126984127","","","","","","","",""
"null","276323","SARL_v6","SARL_v6m4ahcrss","5e1528b314ae63b3961a2b60","freq_resp","","","img/orange_2bandit_a.png","70","img/orange_2bandit_a.png","70","test","","","","","","","","","","","6","","","","","","","","",""
