"rt","time_elapsed","expId","subject","prolificID","trialType","rlType","attType","stimulus","key_press","stim","corrresp","phase","corr","pracCounter","trialNum","rewardOne","rewardTwo","reward","bandOne","bandTwo","attentionNum","attentionRunNum","blockNum","performance","bandChosen","circleVal","squareVal","bandOneVal","bandTwoVal","shapeChosen","rlNum","badFlag"
"13670.5","13680","SARL_v6","SARL_v6olvypzeq","628f827eeb876ed2617881e7","","","","","","","","","","","","","","","","","","","","","","","","","","","",""
"","21275","SARL_v6","SARL_v6olvypzeq","628f827eeb876ed2617881e7","fullscreen","fullscreen","fullscreen","","","","","","","","","","","","","","","","","","","","","","","","",""
"83449.10000000894","104733","SARL_v6","SARL_v6olvypzeq","628f827eeb876ed2617881e7","","","","","","","","","","","","","","","","","","","","","","","","","","","",""
"null","105545","SARL_v6","SARL_v6olvypzeq","628f827eeb876ed2617881e7","freqPrac","","","img/orange_2bandit_b2.png","null","img/orange_2bandit_b2.png","70","prac","0","1","","","","","","","","","","","","","","","","","",""
"null","106559","SARL_v6","SARL_v6olvypzeq","628f827eeb876ed2617881e7","feedback","","","img/tooSlow.png","null","","na","prac","","","","","","","","","","","","","","","","","","","",""
"null","106719","SARL_v6","SARL_v6olvypzeq","628f827eeb876ed2617881e7","fixation","","","img/fixation.png","null","","","prac","","","","","","","","","","","","","","","","","","","",""
"706","107432","SARL_v6","SARL_v6olvypzeq","628f827eeb876ed2617881e7","infreqPrac","","","img/blue_2bandit_b2.png","68","img/blue_2bandit_b2.png","68","prac","1","1","","","","","","","","","","","","","","","","","",""
"706","107535","SARL_v6","SARL_v6olvypzeq","628f827eeb876ed2617881e7","infreqPrac_resp","","","img/blue_2bandit_b.png","68","img/blue_2bandit_b.png","68","prac","","","","","","","","","","","","","","","","","","","",""
"null","107695","SARL_v6","SARL_v6olvypzeq","628f827eeb876ed2617881e7","fixation","","","img/fixation.png","null","","","prac","","","","","","","","","","","","","","","","","","","",""
"493","108194","SARL_v6","SARL_v6olvypzeq","628f827eeb876ed2617881e7","freqPrac","","","img/orange_2bandit_b2.png","70","img/orange_2bandit_b2.png","70","prac","1","1","","","","","","","","","","","","","","","","","",""
"493","108511","SARL_v6","SARL_v6olvypzeq","628f827eeb876ed2617881e7","freqPrac_resp","","","img/orange_2bandit_b.png","70","img/orange_2bandit_b.png","70","prac","","","","","","","","","","","","","","","","","","","",""
"null","108671","SARL_v6","SARL_v6olvypzeq","628f827eeb876ed2617881e7","fixation","","","img/fixation.png","null","","","prac","","","","","","","","","","","","","","","","","","","",""
"643.0999999940395","109321","SARL_v6","SARL_v6olvypzeq","628f827eeb876ed2617881e7","infreqPrac","","","img/blue_2bandit_b2.png","68","img/blue_2bandit_b2.png","68","prac","1","1","","","","","","","","","","","","","","","","","",""
"643.0999999940395","109487","SARL_v6","SARL_v6olvypzeq","628f827eeb876ed2617881e7","infreqPrac_resp","","","img/blue_2bandit_b.png","68","img/blue_2bandit_b.png","68","prac","","","","","","","","","","","","","","","","","","","",""
"null","109647","SARL_v6","SARL_v6olvypzeq","628f827eeb876ed2617881e7","fixation","","","img/fixation.png","null","","","prac","","","","","","","","","","","","","","","","","","","",""
"432.90000000596046","110086","SARL_v6","SARL_v6olvypzeq","628f827eeb876ed2617881e7","infreqPrac","","","img/blue_2bandit_b2.png","68","img/blue_2bandit_b2.png","68","prac","1","1","","","","","","","","","","","","","","","","","",""
"432.90000000596046","110463","SARL_v6","SARL_v6olvypzeq","628f827eeb876ed2617881e7","infreqPrac_resp","","","img/blue_2bandit_b.png","68","img/blue_2bandit_b.png","68","prac","","","","","","","","","","","","","","","","","","","",""
"null","110623","SARL_v6","SARL_v6olvypzeq","628f827eeb876ed2617881e7","fixation","","","img/fixation.png","null","","","prac","","","","","","","","","","","","","","","","","","","",""
"373.8999999910593","111003","SARL_v6","SARL_v6olvypzeq","628f827eeb876ed2617881e7","infreqPrac","","","img/blue_2bandit_b2.png","68","img/blue_2bandit_b2.png","68","prac","1","1","","","","","","","","","","","","","","","","","",""
"373.8999999910593","111439","SARL_v6","SARL_v6olvypzeq","628f827eeb876ed2617881e7","infreqPrac_resp","","","img/blue_2bandit_b.png","68","img/blue_2bandit_b.png","68","prac","","","","","","","","","","","","","","","","","","","",""
"null","111599","SARL_v6","SARL_v6olvypzeq","628f827eeb876ed2617881e7","fixation","","","img/fixation.png","null","","","prac","","","","","","","","","","","","","","","","","","","",""
"434.09999999403954","112040","SARL_v6","SARL_v6olvypzeq","628f827eeb876ed2617881e7","freqPrac","","","img/orange_2bandit_b2.png","70","img/orange_2bandit_b2.png","70","prac","1","1","","","","","","","","","","","","","","","","","",""
"434.09999999403954","112415","SARL_v6","SARL_v6olvypzeq","628f827eeb876ed2617881e7","freqPrac_resp","","","img/orange_2bandit_b.png","70","img/orange_2bandit_b.png","70","prac","","","","","","","","","","","","","","","","","","","",""
"null","112575","SARL_v6","SARL_v6olvypzeq","628f827eeb876ed2617881e7","fixation","","","img/fixation.png","null","","","prac","","","","","","","","","","","","","","","","","","","",""
"395.6000000089407","112977","SARL_v6","SARL_v6olvypzeq","628f827eeb876ed2617881e7","infreqPrac","","","img/blue_2bandit_b2.png","68","img/blue_2bandit_b2.png","68","prac","1","1","","","","","","","","","","","","","","","","","",""
"395.6000000089407","113391","SARL_v6","SARL_v6olvypzeq","628f827eeb876ed2617881e7","infreqPrac_resp","","","img/blue_2bandit_b.png","68","img/blue_2bandit_b.png","68","prac","","","","","","","","","","","","","","","","","","","",""
"null","113551","SARL_v6","SARL_v6olvypzeq","628f827eeb876ed2617881e7","fixation","","","img/fixation.png","null","","","prac","","","","","","","","","","","","","","","","","","","",""
"409.29999999701977","113967","SARL_v6","SARL_v6olvypzeq","628f827eeb876ed2617881e7","freqPrac","","","img/orange_2bandit_b2.png","70","img/orange_2bandit_b2.png","70","prac","1","1","","","","","","","","","","","","","","","","","",""
"409.29999999701977","114367","SARL_v6","SARL_v6olvypzeq","628f827eeb876ed2617881e7","freqPrac_resp","","","img/orange_2bandit_b.png","70","img/orange_2bandit_b.png","70","prac","","","","","","","","","","","","","","","","","","","",""
"null","114527","SARL_v6","SARL_v6olvypzeq","628f827eeb876ed2617881e7","fixation","","","img/fixation.png","null","","","prac","","","","","","","","","","","","","","","","","","","",""
"416.80000001192093","114950","SARL_v6","SARL_v6olvypzeq","628f827eeb876ed2617881e7","freqPrac","","","img/orange_2bandit_b2.png","70","img/orange_2bandit_b2.png","70","prac","1","1","","","","","","","","","","","","","","","","","",""
"416.80000001192093","115343","SARL_v6","SARL_v6olvypzeq","628f827eeb876ed2617881e7","freqPrac_resp","","","img/orange_2bandit_b.png","70","img/orange_2bandit_b.png","70","prac","","","","","","","","","","","","","","","","","","","",""
"null","115503","SARL_v6","SARL_v6olvypzeq","628f827eeb876ed2617881e7","fixation","","","img/fixation.png","null","","","prac","","","","","","","","","","","","","","","","","","","",""
"41575.20000000298","157084","SARL_v6","SARL_v6olvypzeq","628f827eeb876ed2617881e7","","","","","","","","prac","","","","","","","","","","","","","","","","","","","",""
"649.1999999880791","157740","SARL_v6","SARL_v6olvypzeq","628f827eeb876ed2617881e7","rlPractice","","","img/black_2bandit_b2.png","75","img/black_2bandit_b2.png","","prac","","","0","","","","","","","","","","","","","","","","",""
"null","158503","SARL_v6","SARL_v6olvypzeq","628f827eeb876ed2617881e7","feedback","","","<div class=""verylowPoints_sq""> -14 </div>","null","","na","prac","","","1","10","-14","10","","","","","","","","","","","","","",""
"null","158663","SARL_v6","SARL_v6olvypzeq","628f827eeb876ed2617881e7","fixation","","","img/fixation.png","null","","","prac","","","","","","","","","","","","","","","","","","","",""
"539.0999999940395","159208","SARL_v6","SARL_v6olvypzeq","628f827eeb876ed2617881e7","rlPractice","","","img/black_2bandit_b2.png","74","img/black_2bandit_b2.png","","prac","","","1","","","","","","","","","","","","","","","","",""
"null","159968","SARL_v6","SARL_v6olvypzeq","628f827eeb876ed2617881e7","feedback","","","<div class=""veryhighPoints""> 5 </div>","null","","na","prac","","","2","5","-5","5","","","","","","","","","","","","","",""
"null","160127","SARL_v6","SARL_v6olvypzeq","628f827eeb876ed2617881e7","fixation","","","img/fixation.png","null","","","prac","","","","","","","","","","","","","","","","","","","",""
"632.1000000089407","160766","SARL_v6","SARL_v6olvypzeq","628f827eeb876ed2617881e7","rlPractice","","","img/black_2bandit_b2.png","75","img/black_2bandit_b2.png","","prac","","","2","","","","","","","","","","","","","","","","",""
"null","161527","SARL_v6","SARL_v6olvypzeq","628f827eeb876ed2617881e7","feedback","","","<div class=""veryhighPoints_sq""> 2 </div>","null","","na","prac","","","3","30","2","30","","","","","","","","","","","","","",""
"null","161687","SARL_v6","SARL_v6olvypzeq","628f827eeb876ed2617881e7","fixation","","","img/fixation.png","null","","","prac","","","","","","","","","","","","","","","","","","","",""
"419.8999999910593","162113","SARL_v6","SARL_v6olvypzeq","628f827eeb876ed2617881e7","rlPractice","","","img/black_2bandit_b2.png","74","img/black_2bandit_b2.png","","prac","","","3","","","","","","","","","","","","","","","","",""
"null","162871","SARL_v6","SARL_v6olvypzeq","628f827eeb876ed2617881e7","feedback","","","<div class=""verylowPoints""> -2 </div>","null","","na","prac","","","4","-2","20","-2","","","","","","","","","","","","","",""
"null","163031","SARL_v6","SARL_v6olvypzeq","628f827eeb876ed2617881e7","fixation","","","img/fixation.png","null","","","prac","","","","","","","","","","","","","","","","","","","",""
"12141.60000000894","175178","SARL_v6","SARL_v6olvypzeq","628f827eeb876ed2617881e7","","","","","","","","prac","","","","","","","","","","","","","","","","","","","",""
"null","175991","SARL_v6","SARL_v6olvypzeq","628f827eeb876ed2617881e7","mixAttFreqPrac","","","img/orange_2bandit_b2.png","null","img/orange_2bandit_b2.png","70","prac","","","1","","","","","","","","","","","","","","","","",""
"null","176151","SARL_v6","SARL_v6olvypzeq","628f827eeb876ed2617881e7","fixation","","","img/fixation.png","null","","","prac","","","","","","","","","","","","","","","","","","","",""
"3.6000000089406967","176161","SARL_v6","SARL_v6olvypzeq","628f827eeb876ed2617881e7","mixAttInfreqPrac","","","img/blue_2bandit_b2.png","68","img/blue_2bandit_b2.png","68","prac","","","2","","","","","","","","","","","","","","","","",""
"3.6000000089406967","176967","SARL_v6","SARL_v6olvypzeq","628f827eeb876ed2617881e7","infreqPrac_resp","","","img/blue_2bandit_b.png","68","img/orange_2bandit_b.png","68","prac","","","2","","","","","","","","","","","","","","","","",""
"null","177127","SARL_v6","SARL_v6olvypzeq","628f827eeb876ed2617881e7","fixation","","","img/fixation.png","null","","","prac","","","","","","","","","","","","","","","","","","","",""
"504.59999999403954","177638","SARL_v6","SARL_v6olvypzeq","628f827eeb876ed2617881e7","mixAttInfreqPrac","","","img/blue_2bandit_b2.png","68","img/blue_2bandit_b2.png","68","prac","","","3","","","","","","","","","","","","","","","","",""
"504.59999999403954","177943","SARL_v6","SARL_v6olvypzeq","628f827eeb876ed2617881e7","infreqPrac_resp","","","img/blue_2bandit_b.png","68","img/orange_2bandit_b.png","68","prac","","","3","","","","","","","","","","","","","","","","",""
"null","178103","SARL_v6","SARL_v6olvypzeq","628f827eeb876ed2617881e7","fixation","","","img/fixation.png","null","","","prac","","","","","","","","","","","","","","","","","","","",""
"443.80000001192093","178553","SARL_v6","SARL_v6olvypzeq","628f827eeb876ed2617881e7","mixAttInfreqPrac","","","img/blue_2bandit_b2.png","68","img/blue_2bandit_b2.png","68","prac","","","4","","","","","","","","","","","","","","","","",""
"443.80000001192093","178919","SARL_v6","SARL_v6olvypzeq","628f827eeb876ed2617881e7","infreqPrac_resp","","","img/blue_2bandit_b.png","68","img/orange_2bandit_b.png","68","prac","","","4","","","","","","","","","","","","","","","","",""
"null","179079","SARL_v6","SARL_v6olvypzeq","628f827eeb876ed2617881e7","fixation","","","img/fixation.png","null","","","prac","","","","","","","","","","","","","","","","","","","",""
"367.70000000298023","179453","SARL_v6","SARL_v6olvypzeq","628f827eeb876ed2617881e7","mixAttFreqPrac","","","img/orange_2bandit_b2.png","70","img/orange_2bandit_b2.png","70","prac","","","5","","","","","","","","","","","","","","","","",""
"367.70000000298023","179895","SARL_v6","SARL_v6olvypzeq","628f827eeb876ed2617881e7","freqPrac_resp","","","img/orange_2bandit_b.png","70","img/orange_2bandit_b.png","70","prac","","","5","","","","","","","","","","","","","","","","",""
"null","180056","SARL_v6","SARL_v6olvypzeq","628f827eeb876ed2617881e7","fixation","","","img/fixation.png","null","","","prac","","","","","","","","","","","","","","","","","","","",""
"819.4000000059605","180881","SARL_v6","SARL_v6olvypzeq","628f827eeb876ed2617881e7","mixRLPractice","","","img/black_2bandit_b2.png","74","img/black_2bandit_b2.png","","prac","","","5","","","","","","","","","","","","","","","","",""
"null","181639","SARL_v6","SARL_v6olvypzeq","628f827eeb876ed2617881e7","feedback","","","<div class=""verylowPoints""> -14 </div>","null","","na","prac","","","6","-14","10","-14","","","","","","","","","","","","","",""
"null","181807","SARL_v6","SARL_v6olvypzeq","628f827eeb876ed2617881e7","fixation","","","img/fixation.png","null","","","prac","","","","","","","","","","","","","","","","","","","",""
"null","182615","SARL_v6","SARL_v6olvypzeq","628f827eeb876ed2617881e7","mixAttFreqPrac","","","img/orange_2bandit_b2.png","null","img/orange_2bandit_b2.png","70","prac","","","7","","","","","","","","","","","","","","","","",""
"21","182775","SARL_v6","SARL_v6olvypzeq","628f827eeb876ed2617881e7","fixation","","","img/fixation.png","68","","","prac","","","","","","","","","","","","","","","","","","","",""
"null","183583","SARL_v6","SARL_v6olvypzeq","628f827eeb876ed2617881e7","mixAttInfreqPrac","","","img/blue_2bandit_b2.png","null","img/blue_2bandit_b2.png","68","prac","","","8","","","","","","","","","","","","","","","","",""
"null","183743","SARL_v6","SARL_v6olvypzeq","628f827eeb876ed2617881e7","fixation","","","img/fixation.png","null","","","prac","","","","","","","","","","","","","","","","","","","",""
"null","184551","SARL_v6","SARL_v6olvypzeq","628f827eeb876ed2617881e7","mixAttFreqPrac","","","img/orange_2bandit_b2.png","null","img/orange_2bandit_b2.png","70","prac","","","9","","","","","","","","","","","","","","","","",""
"35.900000005960464","184711","SARL_v6","SARL_v6olvypzeq","628f827eeb876ed2617881e7","fixation","","","img/fixation.png","70","","","prac","","","","","","","","","","","","","","","","","","","",""
"467.59999999403954","185185","SARL_v6","SARL_v6olvypzeq","628f827eeb876ed2617881e7","mixAttFreqPrac","","","img/orange_2bandit_b2.png","70","img/orange_2bandit_b2.png","70","prac","","","10","","","","","","","","","","","","","","","","",""
"467.59999999403954","185527","SARL_v6","SARL_v6olvypzeq","628f827eeb876ed2617881e7","freqPrac_resp","","","img/orange_2bandit_b.png","70","img/orange_2bandit_b.png","70","prac","","","10","","","","","","","","","","","","","","","","",""
"null","185688","SARL_v6","SARL_v6olvypzeq","628f827eeb876ed2617881e7","fixation","","","img/fixation.png","null","","","prac","","","","","","","","","","","","","","","","","","","",""
"488.1000000089407","186182","SARL_v6","SARL_v6olvypzeq","628f827eeb876ed2617881e7","mixAttInfreqPrac","","","img/blue_2bandit_b2.png","68","img/blue_2bandit_b2.png","68","prac","","","11","","","","","","","","","","","","","","","","",""
"488.1000000089407","186504","SARL_v6","SARL_v6olvypzeq","628f827eeb876ed2617881e7","infreqPrac_resp","","","img/blue_2bandit_b.png","68","img/orange_2bandit_b.png","68","prac","","","11","","","","","","","","","","","","","","","","",""
"null","186663","SARL_v6","SARL_v6olvypzeq","628f827eeb876ed2617881e7","fixation","","","img/fixation.png","null","","","prac","","","","","","","","","","","","","","","","","","","",""
"605.5999999940395","187275","SARL_v6","SARL_v6olvypzeq","628f827eeb876ed2617881e7","mixRLPractice","","","img/black_2bandit_b2.png","75","img/black_2bandit_b2.png","","prac","","","11","","","","","","","","","","","","","","","","",""
"null","188040","SARL_v6","SARL_v6olvypzeq","628f827eeb876ed2617881e7","feedback","","","<div class=""verylowPoints_sq""> -5 </div>","null","","na","prac","","","12","5","-5","5","","","","","","","","","","","","","",""
"null","188199","SARL_v6","SARL_v6olvypzeq","628f827eeb876ed2617881e7","fixation","","","img/fixation.png","null","","","prac","","","","","","","","","","","","","","","","","","","",""
"3837.7999999970198","192042","SARL_v6","SARL_v6olvypzeq","628f827eeb876ed2617881e7","","","","","","","","prac","","","","","","","","","","","","","","","","","","","",""
"723.6999999880791","192772","SARL_v6","SARL_v6olvypzeq","628f827eeb876ed2617881e7","freq","","","img/orange_2bandit_b2.png","70","","70","test","1","","1","","","","circle","square","1","1","1","1","","","","","","","",""
"null","192863","SARL_v6","SARL_v6olvypzeq","628f827eeb876ed2617881e7","freq_resp","","","img/orange_2bandit_b.png","70","img/orange_2bandit_b.png","70","test","","","","","","","","","","","1","","","","","","","","",""
"null","193023","SARL_v6","SARL_v6olvypzeq","628f827eeb876ed2617881e7","fixation","","","img/fixation.png","null","","","test","","","","","","","","","","","","","","","","","","","",""
"482.3999999910593","193511","SARL_v6","SARL_v6olvypzeq","628f827eeb876ed2617881e7","freq","","","img/orange_2bandit_b2.png","70","","70","test","1","","2","","","","circle","square","2","2","1","1","","","","","","","",""
"null","193839","SARL_v6","SARL_v6olvypzeq","628f827eeb876ed2617881e7","freq_resp","","","img/orange_2bandit_b.png","70","img/orange_2bandit_b.png","70","test","","","","","","","","","","","1","","","","","","","","",""
"null","193999","SARL_v6","SARL_v6olvypzeq","628f827eeb876ed2617881e7","fixation","","","img/fixation.png","null","","","test","","","","","","","","","","","","","","","","","","","",""
"688.9000000059605","194694","SARL_v6","SARL_v6olvypzeq","628f827eeb876ed2617881e7","freq","","","img/orange_2bandit_b2.png","70","","70","test","1","","3","","","","circle","square","3","3","1","1","","","","","","","",""
"null","194815","SARL_v6","SARL_v6olvypzeq","628f827eeb876ed2617881e7","freq_resp","","","img/orange_2bandit_b.png","70","img/orange_2bandit_b.png","70","test","","","","","","","","","","","1","","","","","","","","",""
"null","194975","SARL_v6","SARL_v6olvypzeq","628f827eeb876ed2617881e7","fixation","","","img/fixation.png","null","","","test","","","","","","","","","","","","","","","","","","","",""
"597.6000000089407","195579","SARL_v6","SARL_v6olvypzeq","628f827eeb876ed2617881e7","freq","","","img/orange_2bandit_b2.png","70","","70","test","1","","4","","","","circle","square","4","4","1","1","","","","","","","",""
"null","195791","SARL_v6","SARL_v6olvypzeq","628f827eeb876ed2617881e7","freq_resp","","","img/orange_2bandit_b.png","70","img/orange_2bandit_b.png","70","test","","","","","","","","","","","1","","","","","","","","",""
"null","195951","SARL_v6","SARL_v6olvypzeq","628f827eeb876ed2617881e7","fixation","","","img/fixation.png","null","","","test","","","","","","","","","","","","","","","","","","","",""
"480.29999999701977","196437","SARL_v6","SARL_v6olvypzeq","628f827eeb876ed2617881e7","freq","","","img/orange_2bandit_b2.png","70","","70","test","1","","5","","","","circle","square","5","5","1","1","","","","","","","",""
"null","196767","SARL_v6","SARL_v6olvypzeq","628f827eeb876ed2617881e7","freq_resp","","","img/orange_2bandit_b.png","70","img/orange_2bandit_b.png","70","test","","","","","","","","","","","1","","","","","","","","",""
"null","196927","SARL_v6","SARL_v6olvypzeq","628f827eeb876ed2617881e7","fixation","","","img/fixation.png","null","","","test","","","","","","","","","","","","","","","","","","","",""
"359.3999999910593","197292","SARL_v6","SARL_v6olvypzeq","628f827eeb876ed2617881e7","freq","","","img/orange_2bandit_b2.png","70","","70","test","1","","6","","","","circle","square","6","6","1","1","","","","","","","",""
"null","197743","SARL_v6","SARL_v6olvypzeq","628f827eeb876ed2617881e7","freq_resp","","","img/orange_2bandit_b.png","70","img/orange_2bandit_b.png","70","test","","","","","","","","","","","1","","","","","","","","",""
"null","197903","SARL_v6","SARL_v6olvypzeq","628f827eeb876ed2617881e7","fixation","","","img/fixation.png","null","","","test","","","","","","","","","","","","","","","","","","","",""
"372.90000000596046","198283","SARL_v6","SARL_v6olvypzeq","628f827eeb876ed2617881e7","freq","","","img/orange_2bandit_b2.png","70","","70","test","1","","7","","","","circle","square","7","7","1","1","","","","","","","",""
"null","198719","SARL_v6","SARL_v6olvypzeq","628f827eeb876ed2617881e7","freq_resp","","","img/orange_2bandit_b.png","70","img/orange_2bandit_b.png","70","test","","","","","","","","","","","1","","","","","","","","",""
"null","198879","SARL_v6","SARL_v6olvypzeq","628f827eeb876ed2617881e7","fixation","","","img/fixation.png","null","","","test","","","","","","","","","","","","","","","","","","","",""
"346.79999999701977","199232","SARL_v6","SARL_v6olvypzeq","628f827eeb876ed2617881e7","freq","","","img/orange_2bandit_b2.png","70","","70","test","1","","8","","","","circle","square","8","8","1","1","","","","","","","",""
"null","199695","SARL_v6","SARL_v6olvypzeq","628f827eeb876ed2617881e7","freq_resp","","","img/orange_2bandit_b.png","70","img/orange_2bandit_b.png","70","test","","","","","","","","","","","1","","","","","","","","",""
"null","199855","SARL_v6","SARL_v6olvypzeq","628f827eeb876ed2617881e7","fixation","","","img/fixation.png","null","","","test","","","","","","","","","","","","","","","","","","","",""
"446.79999999701977","200309","SARL_v6","SARL_v6olvypzeq","628f827eeb876ed2617881e7","freq","","","img/orange_2bandit_b2.png","70","","70","test","1","","9","","","","circle","square","9","9","1","1","","","","","","","",""
"null","200671","SARL_v6","SARL_v6olvypzeq","628f827eeb876ed2617881e7","freq_resp","","","img/orange_2bandit_b.png","70","img/orange_2bandit_b.png","70","test","","","","","","","","","","","1","","","","","","","","",""
"null","200831","SARL_v6","SARL_v6olvypzeq","628f827eeb876ed2617881e7","fixation","","","img/fixation.png","null","","","test","","","","","","","","","","","","","","","","","","","",""
"597.9000000059605","201435","SARL_v6","SARL_v6olvypzeq","628f827eeb876ed2617881e7","freq","","","img/orange_2bandit_b2.png","70","","70","test","1","","10","","","","circle","square","10","10","1","1","","","","","","","",""
"null","201647","SARL_v6","SARL_v6olvypzeq","628f827eeb876ed2617881e7","freq_resp","","","img/orange_2bandit_b.png","70","img/orange_2bandit_b.png","70","test","","","","","","","","","","","1","","","","","","","","",""
"null","201807","SARL_v6","SARL_v6olvypzeq","628f827eeb876ed2617881e7","fixation","","","img/fixation.png","null","","","test","","","","","","","","","","","","","","","","","","","",""
"548.5","202362","SARL_v6","SARL_v6olvypzeq","628f827eeb876ed2617881e7","freq","","","img/orange_2bandit_b2.png","70","","70","test","1","","11","","","","circle","square","11","11","1","1","","","","","","","",""
"null","202623","SARL_v6","SARL_v6olvypzeq","628f827eeb876ed2617881e7","freq_resp","","","img/orange_2bandit_b.png","70","img/orange_2bandit_b.png","70","test","","","","","","","","","","","1","","","","","","","","",""
"null","202783","SARL_v6","SARL_v6olvypzeq","628f827eeb876ed2617881e7","fixation","","","img/fixation.png","null","","","test","","","","","","","","","","","","","","","","","","","",""
"401.5","203191","SARL_v6","SARL_v6olvypzeq","628f827eeb876ed2617881e7","freq","","","img/orange_2bandit_b2.png","70","","70","test","1","","12","","","","circle","square","12","12","1","1","","","","","","","",""
"null","203599","SARL_v6","SARL_v6olvypzeq","628f827eeb876ed2617881e7","freq_resp","","","img/orange_2bandit_b.png","70","img/orange_2bandit_b.png","70","test","","","","","","","","","","","1","","","","","","","","",""
"null","203759","SARL_v6","SARL_v6olvypzeq","628f827eeb876ed2617881e7","fixation","","","img/fixation.png","null","","","test","","","","","","","","","","","","","","","","","","","",""
"306.5","204072","SARL_v6","SARL_v6olvypzeq","628f827eeb876ed2617881e7","freq","","","img/orange_2bandit_b2.png","70","","70","test","1","","13","","","","circle","square","13","13","1","1","","","","","","","",""
"null","204575","SARL_v6","SARL_v6olvypzeq","628f827eeb876ed2617881e7","freq_resp","","","img/orange_2bandit_b.png","70","img/orange_2bandit_b.png","70","test","","","","","","","","","","","1","","","","","","","","",""
"null","204735","SARL_v6","SARL_v6olvypzeq","628f827eeb876ed2617881e7","fixation","","","img/fixation.png","null","","","test","","","","","","","","","","","","","","","","","","","",""
"373","205114","SARL_v6","SARL_v6olvypzeq","628f827eeb876ed2617881e7","freq","","","img/orange_2bandit_b2.png","70","","70","test","1","","14","","","","circle","square","14","14","1","1","","","","","","","",""
"null","205551","SARL_v6","SARL_v6olvypzeq","628f827eeb876ed2617881e7","freq_resp","","","img/orange_2bandit_b.png","70","img/orange_2bandit_b.png","70","test","","","","","","","","","","","1","","","","","","","","",""
"null","205711","SARL_v6","SARL_v6olvypzeq","628f827eeb876ed2617881e7","fixation","","","img/fixation.png","null","","","test","","","","","","","","","","","","","","","","","","","",""
"701.5999999940395","206419","SARL_v6","SARL_v6olvypzeq","628f827eeb876ed2617881e7","freq","","","img/orange_2bandit_b2.png","70","","70","test","1","","15","","","","circle","square","15","15","1","1","","","","","","","",""
"null","206527","SARL_v6","SARL_v6olvypzeq","628f827eeb876ed2617881e7","freq_resp","","","img/orange_2bandit_b.png","70","img/orange_2bandit_b.png","70","test","","","","","","","","","","","1","","","","","","","","",""
"null","206687","SARL_v6","SARL_v6olvypzeq","628f827eeb876ed2617881e7","fixation","","","img/fixation.png","null","","","test","","","","","","","","","","","","","","","","","","","",""
"715.5","207409","SARL_v6","SARL_v6olvypzeq","628f827eeb876ed2617881e7","freq","","","img/orange_2bandit_b2.png","70","","70","test","1","","16","","","","circle","square","16","16","1","1","","","","","","","",""
"null","207503","SARL_v6","SARL_v6olvypzeq","628f827eeb876ed2617881e7","freq_resp","","","img/orange_2bandit_b.png","70","img/orange_2bandit_b.png","70","test","","","","","","","","","","","1","","","","","","","","",""
"null","207663","SARL_v6","SARL_v6olvypzeq","628f827eeb876ed2617881e7","fixation","","","img/fixation.png","null","","","test","","","","","","","","","","","","","","","","","","","",""
"586.7999999970198","208256","SARL_v6","SARL_v6olvypzeq","628f827eeb876ed2617881e7","infreq","","","img/blue_2bandit_b2.png","68","","68","test","1","","17","","","","circle","square","17","17","1","1","","","","","","","",""
"null","208479","SARL_v6","SARL_v6olvypzeq","628f827eeb876ed2617881e7","infreq_resp","","","img/blue_2bandit_b.png","68","img/blue_2bandit_b.png","68","test","","","","","","","","","","","1","","","","","","","","",""
"null","208639","SARL_v6","SARL_v6olvypzeq","628f827eeb876ed2617881e7","fixation","","","img/fixation.png","null","","","test","","","","","","","","","","","","","","","","","","","",""
"397.80000001192093","209043","SARL_v6","SARL_v6olvypzeq","628f827eeb876ed2617881e7","infreq","","","img/blue_2bandit_b2.png","68","","68","test","1","","18","","","","circle","square","18","18","1","1","","","","","","","",""
"null","209455","SARL_v6","SARL_v6olvypzeq","628f827eeb876ed2617881e7","infreq_resp","","","img/blue_2bandit_b.png","68","img/blue_2bandit_b.png","68","test","","","","","","","","","","","1","","","","","","","","",""
"null","209615","SARL_v6","SARL_v6olvypzeq","628f827eeb876ed2617881e7","fixation","","","img/fixation.png","null","","","test","","","","","","","","","","","","","","","","","","","",""
"528.7999999970198","210150","SARL_v6","SARL_v6olvypzeq","628f827eeb876ed2617881e7","freq","","","img/orange_2bandit_b2.png","70","","70","test","1","","19","","","","circle","square","19","19","1","1","","","","","","","",""
"null","210431","SARL_v6","SARL_v6olvypzeq","628f827eeb876ed2617881e7","freq_resp","","","img/orange_2bandit_b.png","70","img/orange_2bandit_b.png","70","test","","","","","","","","","","","1","","","","","","","","",""
"null","210591","SARL_v6","SARL_v6olvypzeq","628f827eeb876ed2617881e7","fixation","","","img/fixation.png","null","","","test","","","","","","","","","","","","","","","","","","","",""
"463","211061","SARL_v6","SARL_v6olvypzeq","628f827eeb876ed2617881e7","freq","","","img/orange_2bandit_b2.png","70","","70","test","1","","20","","","","circle","square","20","20","1","1","","","","","","","",""
"null","211408","SARL_v6","SARL_v6olvypzeq","628f827eeb876ed2617881e7","freq_resp","","","img/orange_2bandit_b.png","70","img/orange_2bandit_b.png","70","test","","","","","","","","","","","1","","","","","","","","",""
"null","211567","SARL_v6","SARL_v6olvypzeq","628f827eeb876ed2617881e7","fixation","","","img/fixation.png","null","","","test","","","","","","","","","","","","","","","","","","","",""
"386.70000000298023","211960","SARL_v6","SARL_v6olvypzeq","628f827eeb876ed2617881e7","freq","","","img/orange_2bandit_b2.png","70","","70","test","1","","21","","","","circle","square","21","21","1","1","","","","","","","",""
"null","212383","SARL_v6","SARL_v6olvypzeq","628f827eeb876ed2617881e7","freq_resp","","","img/orange_2bandit_b.png","70","img/orange_2bandit_b.png","70","test","","","","","","","","","","","1","","","","","","","","",""
"null","212543","SARL_v6","SARL_v6olvypzeq","628f827eeb876ed2617881e7","fixation","","","img/fixation.png","null","","","test","","","","","","","","","","","","","","","","","","","",""
"678.6999999880791","213228","SARL_v6","SARL_v6olvypzeq","628f827eeb876ed2617881e7","rl","","","img/black_2bandit_b2.png","74","","0","test","","","22","","","-3","circle","square","","0","1","","74","-3","-3","-3","-3","circle","1","0"
"null","213991","SARL_v6","SARL_v6olvypzeq","628f827eeb876ed2617881e7","feedback","","","<div class=""verylowPoints""> -3 </div>","null","","na","test","","","NaN","","","","","","","","1","","74","","","","","","1",""
"728.5","214726","SARL_v6","SARL_v6olvypzeq","628f827eeb876ed2617881e7","freq","","","img/orange_2bandit_b2.png","68","","70","test","0","","23","","","","circle","square","22","1","2","0.9545454545454546","","","","","","","",""
"null","214808","SARL_v6","SARL_v6olvypzeq","628f827eeb876ed2617881e7","freq_resp","","","img/orange_2bandit_b.png","68","img/orange_2bandit_b.png","70","test","","","","","","","","","","","2","","","","","","","","",""
"null","214965","SARL_v6","SARL_v6olvypzeq","628f827eeb876ed2617881e7","fixation","","","img/fixation.png","null","","","test","","","","","","","","","","","","","","","","","","","",""
"null","215775","SARL_v6","SARL_v6olvypzeq","628f827eeb876ed2617881e7","infreq","","","img/blue_2bandit_b2.png","null","","68","test","0","","24","","","","circle","square","23","2","2","0.9130434782608695","","","","","","","",""
"null","215935","SARL_v6","SARL_v6olvypzeq","628f827eeb876ed2617881e7","fixation","","","img/fixation.png","null","","","test","","","","","","","","","","","","","","","","","","","",""
"204.70000000298023","216146","SARL_v6","SARL_v6olvypzeq","628f827eeb876ed2617881e7","freq","","","img/orange_2bandit_b2.png","68","","70","test","0","","25","","","","circle","square","24","3","2","0.875","","","","","","","",""
"null","216751","SARL_v6","SARL_v6olvypzeq","628f827eeb876ed2617881e7","freq_resp","","","img/orange_2bandit_b.png","68","img/orange_2bandit_b.png","70","test","","","","","","","","","","","2","","","","","","","","",""
"null","216911","SARL_v6","SARL_v6olvypzeq","628f827eeb876ed2617881e7","fixation","","","img/fixation.png","null","","","test","","","","","","","","","","","","","","","","","","","",""
"425.8999999910593","217343","SARL_v6","SARL_v6olvypzeq","628f827eeb876ed2617881e7","infreq","","","img/blue_2bandit_b2.png","68","","68","test","1","","26","","","","circle","square","25","4","2","0.88","","","","","","","",""
"null","217726","SARL_v6","SARL_v6olvypzeq","628f827eeb876ed2617881e7","infreq_resp","","","img/blue_2bandit_b.png","68","img/blue_2bandit_b.png","68","test","","","","","","","","","","","2","","","","","","","","",""
"null","217887","SARL_v6","SARL_v6olvypzeq","628f827eeb876ed2617881e7","fixation","","","img/fixation.png","null","","","test","","","","","","","","","","","","","","","","","","","",""
"525.1000000089407","218418","SARL_v6","SARL_v6olvypzeq","628f827eeb876ed2617881e7","freq","","","img/orange_2bandit_b2.png","70","","70","test","1","","27","","","","circle","square","26","5","2","0.8846153846153846","","","","","","","",""
"null","218703","SARL_v6","SARL_v6olvypzeq","628f827eeb876ed2617881e7","freq_resp","","","img/orange_2bandit_b.png","70","img/orange_2bandit_b.png","70","test","","","","","","","","","","","2","","","","","","","","",""
"null","218863","SARL_v6","SARL_v6olvypzeq","628f827eeb876ed2617881e7","fixation","","","img/fixation.png","null","","","test","","","","","","","","","","","","","","","","","","","",""
"590.8999999910593","219460","SARL_v6","SARL_v6olvypzeq","628f827eeb876ed2617881e7","freq","","","img/orange_2bandit_b2.png","70","","70","test","1","","28","","","","circle","square","27","6","2","0.8888888888888888","","","","","","","",""
"null","219679","SARL_v6","SARL_v6olvypzeq","628f827eeb876ed2617881e7","freq_resp","","","img/orange_2bandit_b.png","70","img/orange_2bandit_b.png","70","test","","","","","","","","","","","2","","","","","","","","",""
"null","219839","SARL_v6","SARL_v6olvypzeq","628f827eeb876ed2617881e7","fixation","","","img/fixation.png","null","","","test","","","","","","","","","","","","","","","","","","","",""
"513.5","220359","SARL_v6","SARL_v6olvypzeq","628f827eeb876ed2617881e7","freq","","","img/orange_2bandit_b2.png","70","","70","test","1","","29","","","","circle","square","28","7","2","0.8928571428571429","","","","","","","",""
"null","220655","SARL_v6","SARL_v6olvypzeq","628f827eeb876ed2617881e7","freq_resp","","","img/orange_2bandit_b.png","70","img/orange_2bandit_b.png","70","test","","","","","","","","","","","2","","","","","","","","",""
"null","220815","SARL_v6","SARL_v6olvypzeq","628f827eeb876ed2617881e7","fixation","","","img/fixation.png","null","","","test","","","","","","","","","","","","","","","","","","","",""
"437.8999999910593","221259","SARL_v6","SARL_v6olvypzeq","628f827eeb876ed2617881e7","freq","","","img/orange_2bandit_b2.png","70","","70","test","1","","30","","","","circle","square","29","8","2","0.896551724137931","","","","","","","",""
"null","221631","SARL_v6","SARL_v6olvypzeq","628f827eeb876ed2617881e7","freq_resp","","","img/orange_2bandit_b.png","70","img/orange_2bandit_b.png","70","test","","","","","","","","","","","2","","","","","","","","",""
"null","221791","SARL_v6","SARL_v6olvypzeq","628f827eeb876ed2617881e7","fixation","","","img/fixation.png","null","","","test","","","","","","","","","","","","","","","","","","","",""
"386.79999999701977","222184","SARL_v6","SARL_v6olvypzeq","628f827eeb876ed2617881e7","freq","","","img/orange_2bandit_b2.png","70","","70","test","1","","31","","","","circle","square","30","9","2","0.9","","","","","","","",""
"null","222607","SARL_v6","SARL_v6olvypzeq","628f827eeb876ed2617881e7","freq_resp","","","img/orange_2bandit_b.png","70","img/orange_2bandit_b.png","70","test","","","","","","","","","","","2","","","","","","","","",""
"null","222767","SARL_v6","SARL_v6olvypzeq","628f827eeb876ed2617881e7","fixation","","","img/fixation.png","null","","","test","","","","","","","","","","","","","","","","","","","",""
"348.29999999701977","223122","SARL_v6","SARL_v6olvypzeq","628f827eeb876ed2617881e7","freq","","","img/orange_2bandit_b2.png","70","","70","test","1","","32","","","","circle","square","31","10","2","0.9032258064516129","","","","","","","",""
"null","223583","SARL_v6","SARL_v6olvypzeq","628f827eeb876ed2617881e7","freq_resp","","","img/orange_2bandit_b.png","70","img/orange_2bandit_b.png","70","test","","","","","","","","","","","2","","","","","","","","",""
"null","223743","SARL_v6","SARL_v6olvypzeq","628f827eeb876ed2617881e7","fixation","","","img/fixation.png","null","","","test","","","","","","","","","","","","","","","","","","","",""
"368.70000000298023","224118","SARL_v6","SARL_v6olvypzeq","628f827eeb876ed2617881e7","freq","","","img/orange_2bandit_b2.png","70","","70","test","1","","33","","","","circle","square","32","11","2","0.90625","","","","","","","",""
"null","224559","SARL_v6","SARL_v6olvypzeq","628f827eeb876ed2617881e7","freq_resp","","","img/orange_2bandit_b.png","70","img/orange_2bandit_b.png","70","test","","","","","","","","","","","2","","","","","","","","",""
"null","224719","SARL_v6","SARL_v6olvypzeq","628f827eeb876ed2617881e7","fixation","","","img/fixation.png","null","","","test","","","","","","","","","","","","","","","","","","","",""
"447.70000000298023","225173","SARL_v6","SARL_v6olvypzeq","628f827eeb876ed2617881e7","freq","","","img/orange_2bandit_b2.png","70","","70","test","1","","34","","","","circle","square","33","12","2","0.9090909090909091","","","","","","","",""
"null","225535","SARL_v6","SARL_v6olvypzeq","628f827eeb876ed2617881e7","freq_resp","","","img/orange_2bandit_b.png","70","img/orange_2bandit_b.png","70","test","","","","","","","","","","","2","","","","","","","","",""
"null","225696","SARL_v6","SARL_v6olvypzeq","628f827eeb876ed2617881e7","fixation","","","img/fixation.png","null","","","test","","","","","","","","","","","","","","","","","","","",""
"349.20000000298023","226052","SARL_v6","SARL_v6olvypzeq","628f827eeb876ed2617881e7","freq","","","img/orange_2bandit_b2.png","70","","70","test","1","","35","","","","circle","square","34","13","2","0.9117647058823529","","","","","","","",""
"null","226511","SARL_v6","SARL_v6olvypzeq","628f827eeb876ed2617881e7","freq_resp","","","img/orange_2bandit_b.png","70","img/orange_2bandit_b.png","70","test","","","","","","","","","","","2","","","","","","","","",""
"null","226671","SARL_v6","SARL_v6olvypzeq","628f827eeb876ed2617881e7","fixation","","","img/fixation.png","null","","","test","","","","","","","","","","","","","","","","","","","",""
"430.40000000596046","227108","SARL_v6","SARL_v6olvypzeq","628f827eeb876ed2617881e7","freq","","","img/orange_2bandit_b2.png","70","","70","test","1","","36","","","","circle","square","35","14","2","0.9142857142857143","","","","","","","",""
"null","227487","SARL_v6","SARL_v6olvypzeq","628f827eeb876ed2617881e7","freq_resp","","","img/orange_2bandit_b.png","70","img/orange_2bandit_b.png","70","test","","","","","","","","","","","2","","","","","","","","",""
"null","227647","SARL_v6","SARL_v6olvypzeq","628f827eeb876ed2617881e7","fixation","","","img/fixation.png","null","","","test","","","","","","","","","","","","","","","","","","","",""
"514.7000000029802","228168","SARL_v6","SARL_v6olvypzeq","628f827eeb876ed2617881e7","freq","","","img/orange_2bandit_b2.png","70","","70","test","1","","37","","","","circle","square","36","15","2","0.9166666666666666","","","","","","","",""
"null","228463","SARL_v6","SARL_v6olvypzeq","628f827eeb876ed2617881e7","freq_resp","","","img/orange_2bandit_b.png","70","img/orange_2bandit_b.png","70","test","","","","","","","","","","","2","","","","","","","","",""
"null","228623","SARL_v6","SARL_v6olvypzeq","628f827eeb876ed2617881e7","fixation","","","img/fixation.png","null","","","test","","","","","","","","","","","","","","","","","","","",""
"478.40000000596046","229108","SARL_v6","SARL_v6olvypzeq","628f827eeb876ed2617881e7","freq","","","img/orange_2bandit_b2.png","70","","70","test","1","","38","","","","circle","square","37","16","2","0.918918918918919","","","","","","","",""
"null","229440","SARL_v6","SARL_v6olvypzeq","628f827eeb876ed2617881e7","freq_resp","","","img/orange_2bandit_b.png","70","img/orange_2bandit_b.png","70","test","","","","","","","","","","","2","","","","","","","","",""
"null","229599","SARL_v6","SARL_v6olvypzeq","628f827eeb876ed2617881e7","fixation","","","img/fixation.png","null","","","test","","","","","","","","","","","","","","","","","","","",""
"454","230060","SARL_v6","SARL_v6olvypzeq","628f827eeb876ed2617881e7","freq","","","img/orange_2bandit_b2.png","70","","70","test","1","","39","","","","circle","square","38","17","2","0.9210526315789473","","","","","","","",""
"null","230415","SARL_v6","SARL_v6olvypzeq","628f827eeb876ed2617881e7","freq_resp","","","img/orange_2bandit_b.png","70","img/orange_2bandit_b.png","70","test","","","","","","","","","","","2","","","","","","","","",""
"null","230575","SARL_v6","SARL_v6olvypzeq","628f827eeb876ed2617881e7","fixation","","","img/fixation.png","null","","","test","","","","","","","","","","","","","","","","","","","",""
"357.70000000298023","230939","SARL_v6","SARL_v6olvypzeq","628f827eeb876ed2617881e7","freq","","","img/orange_2bandit_b2.png","70","","70","test","1","","40","","","","circle","square","39","18","2","0.9230769230769231","","","","","","","",""
"null","231391","SARL_v6","SARL_v6olvypzeq","628f827eeb876ed2617881e7","freq_resp","","","img/orange_2bandit_b.png","70","img/orange_2bandit_b.png","70","test","","","","","","","","","","","2","","","","","","","","",""
"null","231551","SARL_v6","SARL_v6olvypzeq","628f827eeb876ed2617881e7","fixation","","","img/fixation.png","null","","","test","","","","","","","","","","","","","","","","","","","",""
"408.09999999403954","231970","SARL_v6","SARL_v6olvypzeq","628f827eeb876ed2617881e7","freq","","","img/orange_2bandit_b2.png","70","","70","test","1","","41","","","","circle","square","40","19","2","0.925","","","","","","","",""
"null","232375","SARL_v6","SARL_v6olvypzeq","628f827eeb876ed2617881e7","freq_resp","","","img/orange_2bandit_b.png","70","img/orange_2bandit_b.png","70","test","","","","","","","","","","","2","","","","","","","","",""
"null","232535","SARL_v6","SARL_v6olvypzeq","628f827eeb876ed2617881e7","fixation","","","img/fixation.png","null","","","test","","","","","","","","","","","","","","","","","","","",""
"1100.5","233642","SARL_v6","SARL_v6olvypzeq","628f827eeb876ed2617881e7","rl","","","img/black_2bandit_b2.png","74","","0","test","","","42","","","-8","circle","square","","0","2","","74","-8","-5","-8","-5","circle","2","0"
"null","234399","SARL_v6","SARL_v6olvypzeq","628f827eeb876ed2617881e7","feedback","","","<div class=""verylowPoints""> -8 </div>","null","","na","test","","","NaN","","","","","","","","2","","74","","","","","","2",""
"null","235207","SARL_v6","SARL_v6olvypzeq","628f827eeb876ed2617881e7","freq","","","img/orange_2bandit_b2.png","null","","70","test","0","","43","","","","circle","square","41","1","3","0.9024390243902439","","","","","","","",""
"null","235367","SARL_v6","SARL_v6olvypzeq","628f827eeb876ed2617881e7","fixation","","","img/fixation.png","null","","","test","","","","","","","","","","","","","","","","","","","",""
"123.20000000298023","235497","SARL_v6","SARL_v6olvypzeq","628f827eeb876ed2617881e7","freq","","","img/orange_2bandit_b2.png","68","","70","test","0","","44","","","","circle","square","42","2","3","0.8809523809523809","","","","","","","",""
"null","236183","SARL_v6","SARL_v6olvypzeq","628f827eeb876ed2617881e7","freq_resp","","","img/orange_2bandit_b.png","68","img/orange_2bandit_b.png","70","test","","","","","","","","","","","3","","","","","","","","",""
"null","236343","SARL_v6","SARL_v6olvypzeq","628f827eeb876ed2617881e7","fixation","","","img/fixation.png","null","","","test","","","","","","","","","","","","","","","","","","","",""
"370.19999998807907","236720","SARL_v6","SARL_v6olvypzeq","628f827eeb876ed2617881e7","freq","","","img/orange_2bandit_b2.png","70","","70","test","1","","45","","","","circle","square","43","3","3","0.8837209302325582","","","","","","","",""
"null","237160","SARL_v6","SARL_v6olvypzeq","628f827eeb876ed2617881e7","freq_resp","","","img/orange_2bandit_b.png","70","img/orange_2bandit_b.png","70","test","","","","","","","","","","","3","","","","","","","","",""
"null","237319","SARL_v6","SARL_v6olvypzeq","628f827eeb876ed2617881e7","fixation","","","img/fixation.png","null","","","test","","","","","","","","","","","","","","","","","","","",""
"362.69999998807907","237688","SARL_v6","SARL_v6olvypzeq","628f827eeb876ed2617881e7","freq","","","img/orange_2bandit_b2.png","70","","70","test","1","","46","","","","circle","square","44","4","3","0.8863636363636364","","","","","","","",""
"null","238135","SARL_v6","SARL_v6olvypzeq","628f827eeb876ed2617881e7","freq_resp","","","img/orange_2bandit_b.png","70","img/orange_2bandit_b.png","70","test","","","","","","","","","","","3","","","","","","","","",""
"null","238295","SARL_v6","SARL_v6olvypzeq","628f827eeb876ed2617881e7","fixation","","","img/fixation.png","null","","","test","","","","","","","","","","","","","","","","","","","",""
"408.1000000089407","238710","SARL_v6","SARL_v6olvypzeq","628f827eeb876ed2617881e7","freq","","","img/orange_2bandit_b2.png","70","","70","test","1","","47","","","","circle","square","45","5","3","0.8888888888888888","","","","","","","",""
"null","239112","SARL_v6","SARL_v6olvypzeq","628f827eeb876ed2617881e7","freq_resp","","","img/orange_2bandit_b.png","70","img/orange_2bandit_b.png","70","test","","","","","","","","","","","3","","","","","","","","",""
"null","239271","SARL_v6","SARL_v6olvypzeq","628f827eeb876ed2617881e7","fixation","","","img/fixation.png","null","","","test","","","","","","","","","","","","","","","","","","","",""
"326.79999999701977","239605","SARL_v6","SARL_v6olvypzeq","628f827eeb876ed2617881e7","freq","","","img/orange_2bandit_b2.png","70","","70","test","1","","48","","","","circle","square","46","6","3","0.8913043478260869","","","","","","","",""
"null","240087","SARL_v6","SARL_v6olvypzeq","628f827eeb876ed2617881e7","freq_resp","","","img/orange_2bandit_b.png","70","img/orange_2bandit_b.png","70","test","","","","","","","","","","","3","","","","","","","","",""
"null","240247","SARL_v6","SARL_v6olvypzeq","628f827eeb876ed2617881e7","fixation","","","img/fixation.png","null","","","test","","","","","","","","","","","","","","","","","","","",""
"289.80000001192093","240543","SARL_v6","SARL_v6olvypzeq","628f827eeb876ed2617881e7","freq","","","img/orange_2bandit_b2.png","70","","70","test","1","","49","","","","circle","square","47","7","3","0.8936170212765957","","","","","","","",""
"null","241063","SARL_v6","SARL_v6olvypzeq","628f827eeb876ed2617881e7","freq_resp","","","img/orange_2bandit_b.png","70","img/orange_2bandit_b.png","70","test","","","","","","","","","","","3","","","","","","","","",""
"null","241223","SARL_v6","SARL_v6olvypzeq","628f827eeb876ed2617881e7","fixation","","","img/fixation.png","null","","","test","","","","","","","","","","","","","","","","","","","",""
"338.90000000596046","241568","SARL_v6","SARL_v6olvypzeq","628f827eeb876ed2617881e7","freq","","","img/orange_2bandit_b2.png","70","","70","test","1","","50","","","","circle","square","48","8","3","0.8958333333333334","","","","","","","",""
"null","242039","SARL_v6","SARL_v6olvypzeq","628f827eeb876ed2617881e7","freq_resp","","","img/orange_2bandit_b.png","70","img/orange_2bandit_b.png","70","test","","","","","","","","","","","3","","","","","","","","",""
"null","242199","SARL_v6","SARL_v6olvypzeq","628f827eeb876ed2617881e7","fixation","","","img/fixation.png","null","","","test","","","","","","","","","","","","","","","","","","","",""
"348.1000000089407","242554","SARL_v6","SARL_v6olvypzeq","628f827eeb876ed2617881e7","freq","","","img/orange_2bandit_b2.png","70","","70","test","1","","51","","","","circle","square","49","9","3","0.8979591836734694","","","","","","","",""
"null","243015","SARL_v6","SARL_v6olvypzeq","628f827eeb876ed2617881e7","freq_resp","","","img/orange_2bandit_b.png","70","img/orange_2bandit_b.png","70","test","","","","","","","","","","","3","","","","","","","","",""
"null","243175","SARL_v6","SARL_v6olvypzeq","628f827eeb876ed2617881e7","fixation","","","img/fixation.png","null","","","test","","","","","","","","","","","","","","","","","","","",""
"422.6000000089407","243605","SARL_v6","SARL_v6olvypzeq","628f827eeb876ed2617881e7","freq","","","img/orange_2bandit_b2.png","70","","70","test","1","","52","","","","circle","square","50","10","3","0.9","","","","","","","",""
"null","243991","SARL_v6","SARL_v6olvypzeq","628f827eeb876ed2617881e7","freq_resp","","","img/orange_2bandit_b.png","70","img/orange_2bandit_b.png","70","test","","","","","","","","","","","3","","","","","","","","",""
"null","244151","SARL_v6","SARL_v6olvypzeq","628f827eeb876ed2617881e7","fixation","","","img/fixation.png","null","","","test","","","","","","","","","","","","","","","","","","","",""
"370","244527","SARL_v6","SARL_v6olvypzeq","628f827eeb876ed2617881e7","freq","","","img/orange_2bandit_b2.png","70","","70","test","1","","53","","","","circle","square","51","11","3","0.9019607843137255","","","","","","","",""
"null","244967","SARL_v6","SARL_v6olvypzeq","628f827eeb876ed2617881e7","freq_resp","","","img/orange_2bandit_b.png","70","img/orange_2bandit_b.png","70","test","","","","","","","","","","","3","","","","","","","","",""
"null","245128","SARL_v6","SARL_v6olvypzeq","628f827eeb876ed2617881e7","fixation","","","img/fixation.png","null","","","test","","","","","","","","","","","","","","","","","","","",""
"528.7000000029802","245664","SARL_v6","SARL_v6olvypzeq","628f827eeb876ed2617881e7","freq","","","img/orange_2bandit_b2.png","70","","70","test","1","","54","","","","circle","square","52","12","3","0.9038461538461539","","","","","","","",""
"null","245943","SARL_v6","SARL_v6olvypzeq","628f827eeb876ed2617881e7","freq_resp","","","img/orange_2bandit_b.png","70","img/orange_2bandit_b.png","70","test","","","","","","","","","","","3","","","","","","","","",""
"null","246103","SARL_v6","SARL_v6olvypzeq","628f827eeb876ed2617881e7","fixation","","","img/fixation.png","null","","","test","","","","","","","","","","","","","","","","","","","",""
"630.5","246740","SARL_v6","SARL_v6olvypzeq","628f827eeb876ed2617881e7","freq","","","img/orange_2bandit_b2.png","70","","70","test","1","","55","","","","circle","square","53","13","3","0.9056603773584906","","","","","","","",""
"null","246919","SARL_v6","SARL_v6olvypzeq","628f827eeb876ed2617881e7","freq_resp","","","img/orange_2bandit_b.png","70","img/orange_2bandit_b.png","70","test","","","","","","","","","","","3","","","","","","","","",""
"null","247079","SARL_v6","SARL_v6olvypzeq","628f827eeb876ed2617881e7","fixation","","","img/fixation.png","null","","","test","","","","","","","","","","","","","","","","","","","",""
"468.90000000596046","247555","SARL_v6","SARL_v6olvypzeq","628f827eeb876ed2617881e7","freq","","","img/orange_2bandit_b2.png","70","","70","test","1","","56","","","","circle","square","54","14","3","0.9074074074074074","","","","","","","",""
"null","247895","SARL_v6","SARL_v6olvypzeq","628f827eeb876ed2617881e7","freq_resp","","","img/orange_2bandit_b.png","70","img/orange_2bandit_b.png","70","test","","","","","","","","","","","3","","","","","","","","",""
"null","248055","SARL_v6","SARL_v6olvypzeq","628f827eeb876ed2617881e7","fixation","","","img/fixation.png","null","","","test","","","","","","","","","","","","","","","","","","","",""
"354.70000000298023","248416","SARL_v6","SARL_v6olvypzeq","628f827eeb876ed2617881e7","freq","","","img/orange_2bandit_b2.png","70","","70","test","1","","57","","","","circle","square","55","15","3","0.9090909090909091","","","","","","","",""
"null","248871","SARL_v6","SARL_v6olvypzeq","628f827eeb876ed2617881e7","freq_resp","","","img/orange_2bandit_b.png","70","img/orange_2bandit_b.png","70","test","","","","","","","","","","","3","","","","","","","","",""
"null","249031","SARL_v6","SARL_v6olvypzeq","628f827eeb876ed2617881e7","fixation","","","img/fixation.png","null","","","test","","","","","","","","","","","","","","","","","","","",""
"319.90000000596046","249357","SARL_v6","SARL_v6olvypzeq","628f827eeb876ed2617881e7","freq","","","img/orange_2bandit_b2.png","70","","70","test","1","","58","","","","circle","square","56","16","3","0.9107142857142857","","","","","","","",""
"null","249847","SARL_v6","SARL_v6olvypzeq","628f827eeb876ed2617881e7","freq_resp","","","img/orange_2bandit_b.png","70","img/orange_2bandit_b.png","70","test","","","","","","","","","","","3","","","","","","","","",""
"null","250007","SARL_v6","SARL_v6olvypzeq","628f827eeb876ed2617881e7","fixation","","","img/fixation.png","null","","","test","","","","","","","","","","","","","","","","","","","",""
"327.29999999701977","250345","SARL_v6","SARL_v6olvypzeq","628f827eeb876ed2617881e7","freq","","","img/orange_2bandit_b2.png","70","","70","test","1","","59","","","","circle","square","57","17","3","0.9122807017543859","","","","","","","",""
"null","250831","SARL_v6","SARL_v6olvypzeq","628f827eeb876ed2617881e7","freq_resp","","","img/orange_2bandit_b.png","70","img/orange_2bandit_b.png","70","test","","","","","","","","","","","3","","","","","","","","",""
"null","250991","SARL_v6","SARL_v6olvypzeq","628f827eeb876ed2617881e7","fixation","","","img/fixation.png","null","","","test","","","","","","","","","","","","","","","","","","","",""
"486.8999999910593","251485","SARL_v6","SARL_v6olvypzeq","628f827eeb876ed2617881e7","infreq","","","img/blue_2bandit_b2.png","68","","68","test","1","","60","","","","circle","square","58","18","3","0.9137931034482759","","","","","","","",""
"null","251807","SARL_v6","SARL_v6olvypzeq","628f827eeb876ed2617881e7","infreq_resp","","","img/blue_2bandit_b.png","68","img/blue_2bandit_b.png","68","test","","","","","","","","","","","3","","","","","","","","",""
"null","251967","SARL_v6","SARL_v6olvypzeq","628f827eeb876ed2617881e7","fixation","","","img/fixation.png","null","","","test","","","","","","","","","","","","","","","","","","","",""
"562.3999999910593","252536","SARL_v6","SARL_v6olvypzeq","628f827eeb876ed2617881e7","freq","","","img/orange_2bandit_b2.png","70","","70","test","1","","61","","","","circle","square","59","19","3","0.9152542372881356","","","","","","","",""
"null","252783","SARL_v6","SARL_v6olvypzeq","628f827eeb876ed2617881e7","freq_resp","","","img/orange_2bandit_b.png","70","img/orange_2bandit_b.png","70","test","","","","","","","","","","","3","","","","","","","","",""
"null","252943","SARL_v6","SARL_v6olvypzeq","628f827eeb876ed2617881e7","fixation","","","img/fixation.png","null","","","test","","","","","","","","","","","","","","","","","","","",""
"367.8999999910593","253318","SARL_v6","SARL_v6olvypzeq","628f827eeb876ed2617881e7","infreq","","","img/blue_2bandit_b2.png","68","","68","test","1","","62","","","","circle","square","60","20","3","0.9166666666666666","","","","","","","",""
"null","253760","SARL_v6","SARL_v6olvypzeq","628f827eeb876ed2617881e7","infreq_resp","","","img/blue_2bandit_b.png","68","img/blue_2bandit_b.png","68","test","","","","","","","","","","","3","","","","","","","","",""
"null","253919","SARL_v6","SARL_v6olvypzeq","628f827eeb876ed2617881e7","fixation","","","img/fixation.png","null","","","test","","","","","","","","","","","","","","","","","","","",""
"265.20000000298023","254191","SARL_v6","SARL_v6olvypzeq","628f827eeb876ed2617881e7","freq","","","img/orange_2bandit_b2.png","70","","70","test","1","","63","","","","circle","square","61","21","3","0.9180327868852459","","","","","","","",""
"null","254736","SARL_v6","SARL_v6olvypzeq","628f827eeb876ed2617881e7","freq_resp","","","img/orange_2bandit_b.png","70","img/orange_2bandit_b.png","70","test","","","","","","","","","","","3","","","","","","","","",""
"null","254895","SARL_v6","SARL_v6olvypzeq","628f827eeb876ed2617881e7","fixation","","","img/fixation.png","null","","","test","","","","","","","","","","","","","","","","","","","",""
"308.70000000298023","255211","SARL_v6","SARL_v6olvypzeq","628f827eeb876ed2617881e7","freq","","","img/orange_2bandit_b2.png","68","","70","test","0","","64","","","","circle","square","62","22","3","0.9032258064516129","","","","","","","",""
"null","255712","SARL_v6","SARL_v6olvypzeq","628f827eeb876ed2617881e7","freq_resp","","","img/orange_2bandit_b.png","68","img/orange_2bandit_b.png","70","test","","","","","","","","","","","3","","","","","","","","",""
"null","255871","SARL_v6","SARL_v6olvypzeq","628f827eeb876ed2617881e7","fixation","","","img/fixation.png","null","","","test","","","","","","","","","","","","","","","","","","","",""
"419.20000000298023","256296","SARL_v6","SARL_v6olvypzeq","628f827eeb876ed2617881e7","freq","","","img/orange_2bandit_b2.png","70","","70","test","1","","65","","","","circle","square","63","23","3","0.9047619047619048","","","","","","","",""
"null","256687","SARL_v6","SARL_v6olvypzeq","628f827eeb876ed2617881e7","freq_resp","","","img/orange_2bandit_b.png","70","img/orange_2bandit_b.png","70","test","","","","","","","","","","","3","","","","","","","","",""
"null","256847","SARL_v6","SARL_v6olvypzeq","628f827eeb876ed2617881e7","fixation","","","img/fixation.png","null","","","test","","","","","","","","","","","","","","","","","","","",""
"227.3999999910593","257081","SARL_v6","SARL_v6olvypzeq","628f827eeb876ed2617881e7","freq","","","img/orange_2bandit_b2.png","70","","70","test","1","","66","","","","circle","square","64","24","3","0.90625","","","","","","","",""
"null","257663","SARL_v6","SARL_v6olvypzeq","628f827eeb876ed2617881e7","freq_resp","","","img/orange_2bandit_b.png","70","img/orange_2bandit_b.png","70","test","","","","","","","","","","","3","","","","","","","","",""
"null","257823","SARL_v6","SARL_v6olvypzeq","628f827eeb876ed2617881e7","fixation","","","img/fixation.png","null","","","test","","","","","","","","","","","","","","","","","","","",""
"905.3999999910593","258734","SARL_v6","SARL_v6olvypzeq","628f827eeb876ed2617881e7","rl","","","img/black_2bandit_b2.png","74","","0","test","","","67","","","-8","circle","square","","0","3","","74","-8","-4","-8","-4","circle","3","0"
"null","259495","SARL_v6","SARL_v6olvypzeq","628f827eeb876ed2617881e7","feedback","","","<div class=""verylowPoints""> -8 </div>","null","","na","test","","","NaN","","","","","","","","3","","74","","","","","","3",""
"null","260303","SARL_v6","SARL_v6olvypzeq","628f827eeb876ed2617881e7","freq","","","img/orange_2bandit_b2.png","null","","70","test","0","","68","","","","circle","square","65","1","4","0.8923076923076924","","","","","","","",""
"null","260463","SARL_v6","SARL_v6olvypzeq","628f827eeb876ed2617881e7","fixation","","","img/fixation.png","null","","","test","","","","","","","","","","","","","","","","","","","",""
"571.7000000029802","261041","SARL_v6","SARL_v6olvypzeq","628f827eeb876ed2617881e7","freq","","","img/orange_2bandit_b2.png","70","","70","test","1","","69","","","","circle","square","66","2","4","0.8939393939393939","","","","","","","",""
"null","261279","SARL_v6","SARL_v6olvypzeq","628f827eeb876ed2617881e7","freq_resp","","","img/orange_2bandit_b.png","70","img/orange_2bandit_b.png","70","test","","","","","","","","","","","4","","","","","","","","",""
"null","261439","SARL_v6","SARL_v6olvypzeq","628f827eeb876ed2617881e7","fixation","","","img/fixation.png","null","","","test","","","","","","","","","","","","","","","","","","","",""
"468.5","261913","SARL_v6","SARL_v6olvypzeq","628f827eeb876ed2617881e7","freq","","","img/orange_2bandit_b2.png","70","","70","test","1","","70","","","","circle","square","67","3","4","0.8955223880597015","","","","","","","",""
"null","262255","SARL_v6","SARL_v6olvypzeq","628f827eeb876ed2617881e7","freq_resp","","","img/orange_2bandit_b.png","70","img/orange_2bandit_b.png","70","test","","","","","","","","","","","4","","","","","","","","",""
"null","262415","SARL_v6","SARL_v6olvypzeq","628f827eeb876ed2617881e7","fixation","","","img/fixation.png","null","","","test","","","","","","","","","","","","","","","","","","","",""
"343.20000000298023","262764","SARL_v6","SARL_v6olvypzeq","628f827eeb876ed2617881e7","freq","","","img/orange_2bandit_b2.png","68","","70","test","0","","71","","","","circle","square","68","4","4","0.8823529411764706","","","","","","","",""
"null","263231","SARL_v6","SARL_v6olvypzeq","628f827eeb876ed2617881e7","freq_resp","","","img/orange_2bandit_b.png","68","img/orange_2bandit_b.png","70","test","","","","","","","","","","","4","","","","","","","","",""
"null","263391","SARL_v6","SARL_v6olvypzeq","628f827eeb876ed2617881e7","fixation","","","img/fixation.png","null","","","test","","","","","","","","","","","","","","","","","","","",""
"96.6000000089407","263494","SARL_v6","SARL_v6olvypzeq","628f827eeb876ed2617881e7","freq","","","img/orange_2bandit_b2.png","70","","70","test","1","","72","","","","circle","square","69","5","4","0.8840579710144928","","","","","","","",""
"null","264207","SARL_v6","SARL_v6olvypzeq","628f827eeb876ed2617881e7","freq_resp","","","img/orange_2bandit_b.png","70","img/orange_2bandit_b.png","70","test","","","","","","","","","","","4","","","","","","","","",""
"null","264367","SARL_v6","SARL_v6olvypzeq","628f827eeb876ed2617881e7","fixation","","","img/fixation.png","null","","","test","","","","","","","","","","","","","","","","","","","",""
"395","264769","SARL_v6","SARL_v6olvypzeq","628f827eeb876ed2617881e7","freq","","","img/orange_2bandit_b2.png","70","","70","test","1","","73","","","","circle","square","70","6","4","0.8857142857142857","","","","","","","",""
"null","265183","SARL_v6","SARL_v6olvypzeq","628f827eeb876ed2617881e7","freq_resp","","","img/orange_2bandit_b.png","70","img/orange_2bandit_b.png","70","test","","","","","","","","","","","4","","","","","","","","",""
"null","265343","SARL_v6","SARL_v6olvypzeq","628f827eeb876ed2617881e7","fixation","","","img/fixation.png","null","","","test","","","","","","","","","","","","","","","","","","","",""
"449.09999999403954","265799","SARL_v6","SARL_v6olvypzeq","628f827eeb876ed2617881e7","infreq","","","img/blue_2bandit_b2.png","68","","68","test","1","","74","","","","circle","square","71","7","4","0.8873239436619719","","","","","","","",""
"null","266159","SARL_v6","SARL_v6olvypzeq","628f827eeb876ed2617881e7","infreq_resp","","","img/blue_2bandit_b.png","68","img/blue_2bandit_b.png","68","test","","","","","","","","","","","4","","","","","","","","",""
"null","266319","SARL_v6","SARL_v6olvypzeq","628f827eeb876ed2617881e7","fixation","","","img/fixation.png","null","","","test","","","","","","","","","","","","","","","","","","","",""
"484.90000000596046","266810","SARL_v6","SARL_v6olvypzeq","628f827eeb876ed2617881e7","freq","","","img/orange_2bandit_b2.png","70","","70","test","1","","75","","","","circle","square","72","8","4","0.8888888888888888","","","","","","","",""
"null","267135","SARL_v6","SARL_v6olvypzeq","628f827eeb876ed2617881e7","freq_resp","","","img/orange_2bandit_b.png","70","img/orange_2bandit_b.png","70","test","","","","","","","","","","","4","","","","","","","","",""
"null","267296","SARL_v6","SARL_v6olvypzeq","628f827eeb876ed2617881e7","fixation","","","img/fixation.png","null","","","test","","","","","","","","","","","","","","","","","","","",""
"403.20000000298023","267705","SARL_v6","SARL_v6olvypzeq","628f827eeb876ed2617881e7","freq","","","img/orange_2bandit_b2.png","70","","70","test","1","","76","","","","circle","square","73","9","4","0.8904109589041096","","","","","","","",""
"null","268111","SARL_v6","SARL_v6olvypzeq","628f827eeb876ed2617881e7","freq_resp","","","img/orange_2bandit_b.png","70","img/orange_2bandit_b.png","70","test","","","","","","","","","","","4","","","","","","","","",""
"null","268271","SARL_v6","SARL_v6olvypzeq","628f827eeb876ed2617881e7","fixation","","","img/fixation.png","null","","","test","","","","","","","","","","","","","","","","","","","",""
"402.70000000298023","268680","SARL_v6","SARL_v6olvypzeq","628f827eeb876ed2617881e7","freq","","","img/orange_2bandit_b2.png","70","","70","test","1","","77","","","","circle","square","74","10","4","0.8918918918918919","","","","","","","",""
"null","269087","SARL_v6","SARL_v6olvypzeq","628f827eeb876ed2617881e7","freq_resp","","","img/orange_2bandit_b.png","70","img/orange_2bandit_b.png","70","test","","","","","","","","","","","4","","","","","","","","",""
"null","269246","SARL_v6","SARL_v6olvypzeq","628f827eeb876ed2617881e7","fixation","","","img/fixation.png","null","","","test","","","","","","","","","","","","","","","","","","","",""
"717.5","269970","SARL_v6","SARL_v6olvypzeq","628f827eeb876ed2617881e7","freq","","","img/orange_2bandit_b2.png","70","","70","test","1","","78","","","","circle","square","75","11","4","0.8933333333333333","","","","","","","",""
"null","270064","SARL_v6","SARL_v6olvypzeq","628f827eeb876ed2617881e7","freq_resp","","","img/orange_2bandit_b.png","70","img/orange_2bandit_b.png","70","test","","","","","","","","","","","4","","","","","","","","",""
"null","270223","SARL_v6","SARL_v6olvypzeq","628f827eeb876ed2617881e7","fixation","","","img/fixation.png","null","","","test","","","","","","","","","","","","","","","","","","","",""
"501.59999999403954","270731","SARL_v6","SARL_v6olvypzeq","628f827eeb876ed2617881e7","freq","","","img/orange_2bandit_b2.png","70","","70","test","1","","79","","","","circle","square","76","12","4","0.8947368421052632","","","","","","","",""
"null","271039","SARL_v6","SARL_v6olvypzeq","628f827eeb876ed2617881e7","freq_resp","","","img/orange_2bandit_b.png","70","img/orange_2bandit_b.png","70","test","","","","","","","","","","","4","","","","","","","","",""
"null","271199","SARL_v6","SARL_v6olvypzeq","628f827eeb876ed2617881e7","fixation","","","img/fixation.png","null","","","test","","","","","","","","","","","","","","","","","","","",""
"422.30000001192093","271628","SARL_v6","SARL_v6olvypzeq","628f827eeb876ed2617881e7","freq","","","img/orange_2bandit_b2.png","70","","70","test","1","","80","","","","circle","square","77","13","4","0.8961038961038961","","","","","","","",""
"null","272015","SARL_v6","SARL_v6olvypzeq","628f827eeb876ed2617881e7","freq_resp","","","img/orange_2bandit_b.png","70","img/orange_2bandit_b.png","70","test","","","","","","","","","","","4","","","","","","","","",""
"null","272175","SARL_v6","SARL_v6olvypzeq","628f827eeb876ed2617881e7","fixation","","","img/fixation.png","null","","","test","","","","","","","","","","","","","","","","","","","",""
"351","272532","SARL_v6","SARL_v6olvypzeq","628f827eeb876ed2617881e7","freq","","","img/orange_2bandit_b2.png","70","","70","test","1","","81","","","","circle","square","78","14","4","0.8974358974358975","","","","","","","",""
"null","272991","SARL_v6","SARL_v6olvypzeq","628f827eeb876ed2617881e7","freq_resp","","","img/orange_2bandit_b.png","70","img/orange_2bandit_b.png","70","test","","","","","","","","","","","4","","","","","","","","",""
"null","273151","SARL_v6","SARL_v6olvypzeq","628f827eeb876ed2617881e7","fixation","","","img/fixation.png","null","","","test","","","","","","","","","","","","","","","","","","","",""
"348.20000000298023","273506","SARL_v6","SARL_v6olvypzeq","628f827eeb876ed2617881e7","freq","","","img/orange_2bandit_b2.png","70","","70","test","1","","82","","","","circle","square","79","15","4","0.8987341772151899","","","","","","","",""
"null","273967","SARL_v6","SARL_v6olvypzeq","628f827eeb876ed2617881e7","freq_resp","","","img/orange_2bandit_b.png","70","img/orange_2bandit_b.png","70","test","","","","","","","","","","","4","","","","","","","","",""
"null","274127","SARL_v6","SARL_v6olvypzeq","628f827eeb876ed2617881e7","fixation","","","img/fixation.png","null","","","test","","","","","","","","","","","","","","","","","","","",""
"368.20000000298023","274501","SARL_v6","SARL_v6olvypzeq","628f827eeb876ed2617881e7","freq","","","img/orange_2bandit_b2.png","70","","70","test","1","","83","","","","circle","square","80","16","4","0.9","","","","","","","",""
"null","274943","SARL_v6","SARL_v6olvypzeq","628f827eeb876ed2617881e7","freq_resp","","","img/orange_2bandit_b.png","70","img/orange_2bandit_b.png","70","test","","","","","","","","","","","4","","","","","","","","",""
"null","275103","SARL_v6","SARL_v6olvypzeq","628f827eeb876ed2617881e7","fixation","","","img/fixation.png","null","","","test","","","","","","","","","","","","","","","","","","","",""
"418","275527","SARL_v6","SARL_v6olvypzeq","628f827eeb876ed2617881e7","freq","","","img/orange_2bandit_b2.png","70","","70","test","1","","84","","","","circle","square","81","17","4","0.9012345679012346","","","","","","","",""
"null","275919","SARL_v6","SARL_v6olvypzeq","628f827eeb876ed2617881e7","freq_resp","","","img/orange_2bandit_b.png","70","img/orange_2bandit_b.png","70","test","","","","","","","","","","","4","","","","","","","","",""
"null","276079","SARL_v6","SARL_v6olvypzeq","628f827eeb876ed2617881e7","fixation","","","img/fixation.png","null","","","test","","","","","","","","","","","","","","","","","","","",""
"596.6000000089407","276682","SARL_v6","SARL_v6olvypzeq","628f827eeb876ed2617881e7","infreq","","","img/blue_2bandit_b2.png","68","","68","test","1","","85","","","","circle","square","82","18","4","0.9024390243902439","","","","","","","",""
"null","276896","SARL_v6","SARL_v6olvypzeq","628f827eeb876ed2617881e7","infreq_resp","","","img/blue_2bandit_b.png","68","img/blue_2bandit_b.png","68","test","","","","","","","","","","","4","","","","","","","","",""
"null","277055","SARL_v6","SARL_v6olvypzeq","628f827eeb876ed2617881e7","fixation","","","img/fixation.png","null","","","test","","","","","","","","","","","","","","","","","","","",""
"546.7999999970198","277608","SARL_v6","SARL_v6olvypzeq","628f827eeb876ed2617881e7","freq","","","img/orange_2bandit_b2.png","70","","70","test","1","","86","","","","circle","square","83","19","4","0.9036144578313253","","","","","","","",""
"null","277871","SARL_v6","SARL_v6olvypzeq","628f827eeb876ed2617881e7","freq_resp","","","img/orange_2bandit_b.png","70","img/orange_2bandit_b.png","70","test","","","","","","","","","","","4","","","","","","","","",""
"null","278031","SARL_v6","SARL_v6olvypzeq","628f827eeb876ed2617881e7","fixation","","","img/fixation.png","null","","","test","","","","","","","","","","","","","","","","","","","",""
"616.7999999970198","278654","SARL_v6","SARL_v6olvypzeq","628f827eeb876ed2617881e7","rl","","","img/black_2bandit_b2.png","75","","0","test","","","87","","","0","circle","square","","0","4","","75","-12","0","-12","0","square","4","0"
"null","279415","SARL_v6","SARL_v6olvypzeq","628f827eeb876ed2617881e7","feedback","","","<div class=""verylowPoints_sq""> 0 </div>","null","","na","test","","","NaN","","","","","","","","4","","75","","","","","","4",""
"742.4000000059605","280164","SARL_v6","SARL_v6olvypzeq","628f827eeb876ed2617881e7","freq","","","img/orange_2bandit_b2.png","70","","70","test","1","","88","","","","circle","square","84","1","5","0.9047619047619048","","","","","","","",""
"null","280231","SARL_v6","SARL_v6olvypzeq","628f827eeb876ed2617881e7","freq_resp","","","img/orange_2bandit_b.png","70","img/orange_2bandit_b.png","70","test","","","","","","","","","","","5","","","","","","","","",""
"null","280391","SARL_v6","SARL_v6olvypzeq","628f827eeb876ed2617881e7","fixation","","","img/fixation.png","null","","","test","","","","","","","","","","","","","","","","","","","",""
"null","281199","SARL_v6","SARL_v6olvypzeq","628f827eeb876ed2617881e7","freq","","","img/orange_2bandit_b2.png","null","","70","test","0","","89","","","","circle","square","85","2","5","0.8941176470588236","","","","","","","",""
"null","281359","SARL_v6","SARL_v6olvypzeq","628f827eeb876ed2617881e7","fixation","","","img/fixation.png","null","","","test","","","","","","","","","","","","","","","","","","","",""
"433.79999999701977","281799","SARL_v6","SARL_v6olvypzeq","628f827eeb876ed2617881e7","freq","","","img/orange_2bandit_b2.png","70","","70","test","1","","90","","","","circle","square","86","3","5","0.8953488372093024","","","","","","","",""
"null","282175","SARL_v6","SARL_v6olvypzeq","628f827eeb876ed2617881e7","freq_resp","","","img/orange_2bandit_b.png","70","img/orange_2bandit_b.png","70","test","","","","","","","","","","","5","","","","","","","","",""
"null","282335","SARL_v6","SARL_v6olvypzeq","628f827eeb876ed2617881e7","fixation","","","img/fixation.png","null","","","test","","","","","","","","","","","","","","","","","","","",""
"515.7999999970198","282857","SARL_v6","SARL_v6olvypzeq","628f827eeb876ed2617881e7","infreq","","","img/blue_2bandit_b2.png","68","","68","test","1","","91","","","","circle","square","87","4","5","0.896551724137931","","","","","","","",""
"null","283151","SARL_v6","SARL_v6olvypzeq","628f827eeb876ed2617881e7","infreq_resp","","","img/blue_2bandit_b.png","68","img/blue_2bandit_b.png","68","test","","","","","","","","","","","5","","","","","","","","",""
"null","283311","SARL_v6","SARL_v6olvypzeq","628f827eeb876ed2617881e7","fixation","","","img/fixation.png","null","","","test","","","","","","","","","","","","","","","","","","","",""
"485.69999998807907","283803","SARL_v6","SARL_v6olvypzeq","628f827eeb876ed2617881e7","freq","","","img/orange_2bandit_b2.png","70","","70","test","1","","92","","","","circle","square","88","5","5","0.8977272727272727","","","","","","","",""
"null","284127","SARL_v6","SARL_v6olvypzeq","628f827eeb876ed2617881e7","freq_resp","","","img/orange_2bandit_b.png","70","img/orange_2bandit_b.png","70","test","","","","","","","","","","","5","","","","","","","","",""
"null","284287","SARL_v6","SARL_v6olvypzeq","628f827eeb876ed2617881e7","fixation","","","img/fixation.png","null","","","test","","","","","","","","","","","","","","","","","","","",""
"702","284996","SARL_v6","SARL_v6olvypzeq","628f827eeb876ed2617881e7","infreq","","","img/blue_2bandit_b2.png","68","","68","test","1","","93","","","","circle","square","89","6","5","0.898876404494382","","","","","","","",""
"null","285103","SARL_v6","SARL_v6olvypzeq","628f827eeb876ed2617881e7","infreq_resp","","","img/blue_2bandit_b.png","68","img/blue_2bandit_b.png","68","test","","","","","","","","","","","5","","","","","","","","",""
"null","285263","SARL_v6","SARL_v6olvypzeq","628f827eeb876ed2617881e7","fixation","","","img/fixation.png","null","","","test","","","","","","","","","","","","","","","","","","","",""
"523.8999999910593","285793","SARL_v6","SARL_v6olvypzeq","628f827eeb876ed2617881e7","freq","","","img/orange_2bandit_b2.png","70","","70","test","1","","94","","","","circle","square","90","7","5","0.9","","","","","","","",""
"null","286079","SARL_v6","SARL_v6olvypzeq","628f827eeb876ed2617881e7","freq_resp","","","img/orange_2bandit_b.png","70","img/orange_2bandit_b.png","70","test","","","","","","","","","","","5","","","","","","","","",""
"null","286239","SARL_v6","SARL_v6olvypzeq","628f827eeb876ed2617881e7","fixation","","","img/fixation.png","null","","","test","","","","","","","","","","","","","","","","","","","",""
"null","287047","SARL_v6","SARL_v6olvypzeq","628f827eeb876ed2617881e7","freq","","","img/orange_2bandit_b2.png","null","","70","test","0","","95","","","","circle","square","91","8","5","0.8901098901098901","","","","","","","",""
"null","287207","SARL_v6","SARL_v6olvypzeq","628f827eeb876ed2617881e7","fixation","","","img/fixation.png","null","","","test","","","","","","","","","","","","","","","","","","","",""
"278.09999999403954","287491","SARL_v6","SARL_v6olvypzeq","628f827eeb876ed2617881e7","freq","","","img/orange_2bandit_b2.png","70","","70","test","1","","96","","","","circle","square","92","9","5","0.8913043478260869","","","","","","","",""
"null","288023","SARL_v6","SARL_v6olvypzeq","628f827eeb876ed2617881e7","freq_resp","","","img/orange_2bandit_b.png","70","img/orange_2bandit_b.png","70","test","","","","","","","","","","","5","","","","","","","","",""
"null","288183","SARL_v6","SARL_v6olvypzeq","628f827eeb876ed2617881e7","fixation","","","img/fixation.png","null","","","test","","","","","","","","","","","","","","","","","","","",""
"340.40000000596046","288530","SARL_v6","SARL_v6olvypzeq","628f827eeb876ed2617881e7","freq","","","img/orange_2bandit_b2.png","70","","70","test","1","","97","","","","circle","square","93","10","5","0.8924731182795699","","","","","","","",""
"null","288999","SARL_v6","SARL_v6olvypzeq","628f827eeb876ed2617881e7","freq_resp","","","img/orange_2bandit_b.png","70","img/orange_2bandit_b.png","70","test","","","","","","","","","","","5","","","","","","","","",""
"null","289159","SARL_v6","SARL_v6olvypzeq","628f827eeb876ed2617881e7","fixation","","","img/fixation.png","null","","","test","","","","","","","","","","","","","","","","","","","",""
"310.20000000298023","289476","SARL_v6","SARL_v6olvypzeq","628f827eeb876ed2617881e7","freq","","","img/orange_2bandit_b2.png","70","","70","test","1","","98","","","","circle","square","94","11","5","0.8936170212765957","","","","","","","",""
"null","289975","SARL_v6","SARL_v6olvypzeq","628f827eeb876ed2617881e7","freq_resp","","","img/orange_2bandit_b.png","70","img/orange_2bandit_b.png","70","test","","","","","","","","","","","5","","","","","","","","",""
"null","290135","SARL_v6","SARL_v6olvypzeq","628f827eeb876ed2617881e7","fixation","","","img/fixation.png","null","","","test","","","","","","","","","","","","","","","","","","","",""
"261","290402","SARL_v6","SARL_v6olvypzeq","628f827eeb876ed2617881e7","freq","","","img/orange_2bandit_b2.png","70","","70","test","1","","99","","","","circle","square","95","12","5","0.8947368421052632","","","","","","","",""
"null","290951","SARL_v6","SARL_v6olvypzeq","628f827eeb876ed2617881e7","freq_resp","","","img/orange_2bandit_b.png","70","img/orange_2bandit_b.png","70","test","","","","","","","","","","","5","","","","","","","","",""
"null","291111","SARL_v6","SARL_v6olvypzeq","628f827eeb876ed2617881e7","fixation","","","img/fixation.png","null","","","test","","","","","","","","","","","","","","","","","","","",""
"121.79999999701977","291239","SARL_v6","SARL_v6olvypzeq","628f827eeb876ed2617881e7","freq","","","img/orange_2bandit_b2.png","70","","70","test","1","","100","","","","circle","square","96","13","5","0.8958333333333334","","","","","","","",""
"null","291927","SARL_v6","SARL_v6olvypzeq","628f827eeb876ed2617881e7","freq_resp","","","img/orange_2bandit_b.png","70","img/orange_2bandit_b.png","70","test","","","","","","","","","","","5","","","","","","","","",""
"null","292087","SARL_v6","SARL_v6olvypzeq","628f827eeb876ed2617881e7","fixation","","","img/fixation.png","null","","","test","","","","","","","","","","","","","","","","","","","",""
"121.8999999910593","292215","SARL_v6","SARL_v6olvypzeq","628f827eeb876ed2617881e7","freq","","","img/orange_2bandit_b2.png","70","","70","test","1","","101","","","","circle","square","97","14","5","0.8969072164948454","","","","","","","",""
"null","292903","SARL_v6","SARL_v6olvypzeq","628f827eeb876ed2617881e7","freq_resp","","","img/orange_2bandit_b.png","70","img/orange_2bandit_b.png","70","test","","","","","","","","","","","5","","","","","","","","",""
"null","293063","SARL_v6","SARL_v6olvypzeq","628f827eeb876ed2617881e7","fixation","","","img/fixation.png","null","","","test","","","","","","","","","","","","","","","","","","","",""
"291.59999999403954","293361","SARL_v6","SARL_v6olvypzeq","628f827eeb876ed2617881e7","freq","","","img/orange_2bandit_b2.png","70","","70","test","1","","102","","","","circle","square","98","15","5","0.8979591836734694","","","","","","","",""
"null","293879","SARL_v6","SARL_v6olvypzeq","628f827eeb876ed2617881e7","freq_resp","","","img/orange_2bandit_b.png","70","img/orange_2bandit_b.png","70","test","","","","","","","","","","","5","","","","","","","","",""
"null","294039","SARL_v6","SARL_v6olvypzeq","628f827eeb876ed2617881e7","fixation","","","img/fixation.png","null","","","test","","","","","","","","","","","","","","","","","","","",""
"265","294310","SARL_v6","SARL_v6olvypzeq","628f827eeb876ed2617881e7","infreq","","","img/blue_2bandit_b2.png","70","","68","test","0","","103","","","","circle","square","99","16","5","0.8888888888888888","","","","","","","",""
"null","294855","SARL_v6","SARL_v6olvypzeq","628f827eeb876ed2617881e7","infreq_resp","","","img/blue_2bandit_b.png","70","img/blue_2bandit_b.png","68","test","","","","","","","","","","","5","","","","","","","","",""
"null","295015","SARL_v6","SARL_v6olvypzeq","628f827eeb876ed2617881e7","fixation","","","img/fixation.png","null","","","test","","","","","","","","","","","","","","","","","","","",""
"584.5999999940395","295606","SARL_v6","SARL_v6olvypzeq","628f827eeb876ed2617881e7","freq","","","img/orange_2bandit_b2.png","70","","70","test","1","","104","","","","circle","square","100","17","5","0.89","","","","","","","",""
"null","295829","SARL_v6","SARL_v6olvypzeq","628f827eeb876ed2617881e7","freq_resp","","","img/orange_2bandit_b.png","70","img/orange_2bandit_b.png","70","test","","","","","","","","","","","5","","","","","","","","",""
"null","295991","SARL_v6","SARL_v6olvypzeq","628f827eeb876ed2617881e7","fixation","","","img/fixation.png","null","","","test","","","","","","","","","","","","","","","","","","","",""
"null","296799","SARL_v6","SARL_v6olvypzeq","628f827eeb876ed2617881e7","freq","","","img/orange_2bandit_b2.png","null","","70","test","0","","105","","","","circle","square","101","18","5","0.8811881188118812","","","","","","","",""
"null","296959","SARL_v6","SARL_v6olvypzeq","628f827eeb876ed2617881e7","fixation","","","img/fixation.png","null","","","test","","","","","","","","","","","","","","","","","","","",""
"null","297767","SARL_v6","SARL_v6olvypzeq","628f827eeb876ed2617881e7","freq","","","img/orange_2bandit_b2.png","null","","70","test","0","","106","","","","circle","square","102","19","5","0.8725490196078431","","","","","","","",""
"null","297927","SARL_v6","SARL_v6olvypzeq","628f827eeb876ed2617881e7","fixation","","","img/fixation.png","null","","","test","","","","","","","","","","","","","","","","","","","",""
"621.5","298556","SARL_v6","SARL_v6olvypzeq","628f827eeb876ed2617881e7","freq","","","img/orange_2bandit_b2.png","70","","70","test","1","","107","","","","circle","square","103","20","5","0.8737864077669902","","","","","","","",""
"null","298743","SARL_v6","SARL_v6olvypzeq","628f827eeb876ed2617881e7","freq_resp","","","img/orange_2bandit_b.png","70","img/orange_2bandit_b.png","70","test","","","","","","","","","","","5","","","","","","","","",""
"null","298903","SARL_v6","SARL_v6olvypzeq","628f827eeb876ed2617881e7","fixation","","","img/fixation.png","null","","","test","","","","","","","","","","","","","","","","","","","",""
"735.5","299646","SARL_v6","SARL_v6olvypzeq","628f827eeb876ed2617881e7","freq","","","img/orange_2bandit_b2.png","70","","70","test","1","","108","","","","circle","square","104","21","5","0.875","","","","","","","",""
"null","299719","SARL_v6","SARL_v6olvypzeq","628f827eeb876ed2617881e7","freq_resp","","","img/orange_2bandit_b.png","70","img/orange_2bandit_b.png","70","test","","","","","","","","","","","5","","","","","","","","",""
"null","299878","SARL_v6","SARL_v6olvypzeq","628f827eeb876ed2617881e7","fixation","","","img/fixation.png","null","","","test","","","","","","","","","","","","","","","","","","","",""
"670.2999999970198","300555","SARL_v6","SARL_v6olvypzeq","628f827eeb876ed2617881e7","freq","","","img/orange_2bandit_b2.png","70","","70","test","1","","109","","","","circle","square","105","22","5","0.8761904761904762","","","","","","","",""
"null","300695","SARL_v6","SARL_v6olvypzeq","628f827eeb876ed2617881e7","freq_resp","","","img/orange_2bandit_b.png","70","img/orange_2bandit_b.png","70","test","","","","","","","","","","","5","","","","","","","","",""
"null","300855","SARL_v6","SARL_v6olvypzeq","628f827eeb876ed2617881e7","fixation","","","img/fixation.png","null","","","test","","","","","","","","","","","","","","","","","","","",""
"446.3999999910593","301308","SARL_v6","SARL_v6olvypzeq","628f827eeb876ed2617881e7","freq","","","img/orange_2bandit_b2.png","70","","70","test","1","","110","","","","circle","square","106","23","5","0.8773584905660378","","","","","","","",""
"null","301671","SARL_v6","SARL_v6olvypzeq","628f827eeb876ed2617881e7","freq_resp","","","img/orange_2bandit_b.png","70","img/orange_2bandit_b.png","70","test","","","","","","","","","","","5","","","","","","","","",""
"null","301831","SARL_v6","SARL_v6olvypzeq","628f827eeb876ed2617881e7","fixation","","","img/fixation.png","null","","","test","","","","","","","","","","","","","","","","","","","",""
"406.70000000298023","302244","SARL_v6","SARL_v6olvypzeq","628f827eeb876ed2617881e7","freq","","","img/orange_2bandit_b2.png","70","","70","test","1","","111","","","","circle","square","107","24","5","0.8785046728971962","","","","","","","",""
"null","302647","SARL_v6","SARL_v6olvypzeq","628f827eeb876ed2617881e7","freq_resp","","","img/orange_2bandit_b.png","70","img/orange_2bandit_b.png","70","test","","","","","","","","","","","5","","","","","","","","",""
"null","302807","SARL_v6","SARL_v6olvypzeq","628f827eeb876ed2617881e7","fixation","","","img/fixation.png","null","","","test","","","","","","","","","","","","","","","","","","","",""
"398.20000000298023","303212","SARL_v6","SARL_v6olvypzeq","628f827eeb876ed2617881e7","freq","","","img/orange_2bandit_b2.png","70","","70","test","1","","112","","","","circle","square","108","25","5","0.8796296296296297","","","","","","","",""
"null","303623","SARL_v6","SARL_v6olvypzeq","628f827eeb876ed2617881e7","freq_resp","","","img/orange_2bandit_b.png","70","img/orange_2bandit_b.png","70","test","","","","","","","","","","","5","","","","","","","","",""
"null","303783","SARL_v6","SARL_v6olvypzeq","628f827eeb876ed2617881e7","fixation","","","img/fixation.png","null","","","test","","","","","","","","","","","","","","","","","","","",""
"645.7999999970198","304435","SARL_v6","SARL_v6olvypzeq","628f827eeb876ed2617881e7","rl","","","img/black_2bandit_b2.png","75","","0","test","","","113","","","4","circle","square","","0","5","","75","-7","4","-7","4","square","5","0"
"null","305199","SARL_v6","SARL_v6olvypzeq","628f827eeb876ed2617881e7","feedback","","","<div class=""veryhighPoints_sq""> 4 </div>","null","","na","test","","","NaN","","","","","","","","5","","75","","","","","","5",""
"662.3999999910593","305868","SARL_v6","SARL_v6olvypzeq","628f827eeb876ed2617881e7","freq","","","img/orange_2bandit_b2.png","70","","70","test","1","","114","","","","circle","square","109","1","6","0.8807339449541285","","","","","","","",""
"null","306016","SARL_v6","SARL_v6olvypzeq","628f827eeb876ed2617881e7","freq_resp","","","img/orange_2bandit_b.png","70","img/orange_2bandit_b.png","70","test","","","","","","","","","","","6","","","","","","","","",""
"null","306175","SARL_v6","SARL_v6olvypzeq","628f827eeb876ed2617881e7","fixation","","","img/fixation.png","null","","","test","","","","","","","","","","","","","","","","","","","",""
"561.1000000089407","306742","SARL_v6","SARL_v6olvypzeq","628f827eeb876ed2617881e7","infreq","","","img/blue_2bandit_b2.png","68","","68","test","1","","115","","","","circle","square","110","2","6","0.8818181818181818","","","","","","","",""
"null","306991","SARL_v6","SARL_v6olvypzeq","628f827eeb876ed2617881e7","infreq_resp","","","img/blue_2bandit_b.png","68","img/blue_2bandit_b.png","68","test","","","","","","","","","","","6","","","","","","","","",""
"null","307151","SARL_v6","SARL_v6olvypzeq","628f827eeb876ed2617881e7","fixation","","","img/fixation.png","null","","","test","","","","","","","","","","","","","","","","","","","",""
"400.79999999701977","307558","SARL_v6","SARL_v6olvypzeq","628f827eeb876ed2617881e7","infreq","","","img/blue_2bandit_b2.png","68","","68","test","1","","116","","","","circle","square","111","3","6","0.8828828828828829","","","","","","","",""
"null","307967","SARL_v6","SARL_v6olvypzeq","628f827eeb876ed2617881e7","infreq_resp","","","img/blue_2bandit_b.png","68","img/blue_2bandit_b.png","68","test","","","","","","","","","","","6","","","","","","","","",""
"null","308127","SARL_v6","SARL_v6olvypzeq","628f827eeb876ed2617881e7","fixation","","","img/fixation.png","null","","","test","","","","","","","","","","","","","","","","","","","",""
"499.09999999403954","308633","SARL_v6","SARL_v6olvypzeq","628f827eeb876ed2617881e7","freq","","","img/orange_2bandit_b2.png","70","","70","test","1","","117","","","","circle","square","112","4","6","0.8839285714285714","","","","","","","",""
"null","308943","SARL_v6","SARL_v6olvypzeq","628f827eeb876ed2617881e7","freq_resp","","","img/orange_2bandit_b.png","70","img/orange_2bandit_b.png","70","test","","","","","","","","","","","6","","","","","","","","",""
"null","309103","SARL_v6","SARL_v6olvypzeq","628f827eeb876ed2617881e7","fixation","","","img/fixation.png","null","","","test","","","","","","","","","","","","","","","","","","","",""
"420.09999999403954","309529","SARL_v6","SARL_v6olvypzeq","628f827eeb876ed2617881e7","freq","","","img/orange_2bandit_b2.png","70","","70","test","1","","118","","","","circle","square","113","5","6","0.8849557522123894","","","","","","","",""
"null","309919","SARL_v6","SARL_v6olvypzeq","628f827eeb876ed2617881e7","freq_resp","","","img/orange_2bandit_b.png","70","img/orange_2bandit_b.png","70","test","","","","","","","","","","","6","","","","","","","","",""
"null","310079","SARL_v6","SARL_v6olvypzeq","628f827eeb876ed2617881e7","fixation","","","img/fixation.png","null","","","test","","","","","","","","","","","","","","","","","","","",""
"447.6000000089407","310533","SARL_v6","SARL_v6olvypzeq","628f827eeb876ed2617881e7","freq","","","img/orange_2bandit_b2.png","70","","70","test","1","","119","","","","circle","square","114","6","6","0.8859649122807017","","","","","","","",""
"null","310895","SARL_v6","SARL_v6olvypzeq","628f827eeb876ed2617881e7","freq_resp","","","img/orange_2bandit_b.png","70","img/orange_2bandit_b.png","70","test","","","","","","","","","","","6","","","","","","","","",""
"null","311055","SARL_v6","SARL_v6olvypzeq","628f827eeb876ed2617881e7","fixation","","","img/fixation.png","null","","","test","","","","","","","","","","","","","","","","","","","",""
"451.59999999403954","311514","SARL_v6","SARL_v6olvypzeq","628f827eeb876ed2617881e7","freq","","","img/orange_2bandit_b2.png","70","","70","test","1","","120","","","","circle","square","115","7","6","0.8869565217391304","","","","","","","",""
"null","311871","SARL_v6","SARL_v6olvypzeq","628f827eeb876ed2617881e7","freq_resp","","","img/orange_2bandit_b.png","70","img/orange_2bandit_b.png","70","test","","","","","","","","","","","6","","","","","","","","",""
"null","312031","SARL_v6","SARL_v6olvypzeq","628f827eeb876ed2617881e7","fixation","","","img/fixation.png","null","","","test","","","","","","","","","","","","","","","","","","","",""
"407.30000001192093","312445","SARL_v6","SARL_v6olvypzeq","628f827eeb876ed2617881e7","freq","","","img/orange_2bandit_b2.png","70","","70","test","1","","121","","","","circle","square","116","8","6","0.8879310344827587","","","","","","","",""
"null","312847","SARL_v6","SARL_v6olvypzeq","628f827eeb876ed2617881e7","freq_resp","","","img/orange_2bandit_b.png","70","img/orange_2bandit_b.png","70","test","","","","","","","","","","","6","","","","","","","","",""
"null","313007","SARL_v6","SARL_v6olvypzeq","628f827eeb876ed2617881e7","fixation","","","img/fixation.png","null","","","test","","","","","","","","","","","","","","","","","","","",""
"390.19999998807907","313403","SARL_v6","SARL_v6olvypzeq","628f827eeb876ed2617881e7","freq","","","img/orange_2bandit_b2.png","70","","70","test","1","","122","","","","circle","square","117","9","6","0.8888888888888888","","","","","","","",""
"null","313823","SARL_v6","SARL_v6olvypzeq","628f827eeb876ed2617881e7","freq_resp","","","img/orange_2bandit_b.png","70","img/orange_2bandit_b.png","70","test","","","","","","","","","","","6","","","","","","","","",""
"null","313983","SARL_v6","SARL_v6olvypzeq","628f827eeb876ed2617881e7","fixation","","","img/fixation.png","null","","","test","","","","","","","","","","","","","","","","","","","",""
"336","314325","SARL_v6","SARL_v6olvypzeq","628f827eeb876ed2617881e7","freq","","","img/orange_2bandit_b2.png","70","","70","test","1","","123","","","","circle","square","118","10","6","0.8898305084745762","","","","","","","",""
"null","314799","SARL_v6","SARL_v6olvypzeq","628f827eeb876ed2617881e7","freq_resp","","","img/orange_2bandit_b.png","70","img/orange_2bandit_b.png","70","test","","","","","","","","","","","6","","","","","","","","",""
"null","314959","SARL_v6","SARL_v6olvypzeq","628f827eeb876ed2617881e7","fixation","","","img/fixation.png","null","","","test","","","","","","","","","","","","","","","","","","","",""
"238.59999999403954","315205","SARL_v6","SARL_v6olvypzeq","628f827eeb876ed2617881e7","freq","","","img/orange_2bandit_b2.png","70","","70","test","1","","124","","","","circle","square","119","11","6","0.8907563025210085","","","","","","","",""
"null","315775","SARL_v6","SARL_v6olvypzeq","628f827eeb876ed2617881e7","freq_resp","","","img/orange_2bandit_b.png","70","img/orange_2bandit_b.png","70","test","","","","","","","","","","","6","","","","","","","","",""
"null","315935","SARL_v6","SARL_v6olvypzeq","628f827eeb876ed2617881e7","fixation","","","img/fixation.png","null","","","test","","","","","","","","","","","","","","","","","","","",""
"193.29999999701977","316135","SARL_v6","SARL_v6olvypzeq","628f827eeb876ed2617881e7","freq","","","img/orange_2bandit_b2.png","70","","70","test","1","","125","","","","circle","square","120","12","6","0.8916666666666667","","","","","","","",""
"null","316751","SARL_v6","SARL_v6olvypzeq","628f827eeb876ed2617881e7","freq_resp","","","img/orange_2bandit_b.png","70","img/orange_2bandit_b.png","70","test","","","","","","","","","","","6","","","","","","","","",""
"null","316911","SARL_v6","SARL_v6olvypzeq","628f827eeb876ed2617881e7","fixation","","","img/fixation.png","null","","","test","","","","","","","","","","","","","","","","","","","",""
"291.70000000298023","317209","SARL_v6","SARL_v6olvypzeq","628f827eeb876ed2617881e7","freq","","","img/orange_2bandit_b2.png","70","","70","test","1","","126","","","","circle","square","121","13","6","0.8925619834710744","","","","","","","",""
"null","317727","SARL_v6","SARL_v6olvypzeq","628f827eeb876ed2617881e7","freq_resp","","","img/orange_2bandit_b.png","70","img/orange_2bandit_b.png","70","test","","","","","","","","","","","6","","","","","","","","",""
"null","317887","SARL_v6","SARL_v6olvypzeq","628f827eeb876ed2617881e7","fixation","","","img/fixation.png","null","","","test","","","","","","","","","","","","","","","","","","","",""
"351.70000000298023","318245","SARL_v6","SARL_v6olvypzeq","628f827eeb876ed2617881e7","freq","","","img/orange_2bandit_b2.png","70","","70","test","1","","127","","","","circle","square","122","14","6","0.8934426229508197","","","","","","","",""
"null","318703","SARL_v6","SARL_v6olvypzeq","628f827eeb876ed2617881e7","freq_resp","","","img/orange_2bandit_b.png","70","img/orange_2bandit_b.png","70","test","","","","","","","","","","","6","","","","","","","","",""
"null","318863","SARL_v6","SARL_v6olvypzeq","628f827eeb876ed2617881e7","fixation","","","img/fixation.png","null","","","test","","","","","","","","","","","","","","","","","","","",""
"385.5","319255","SARL_v6","SARL_v6olvypzeq","628f827eeb876ed2617881e7","freq","","","img/orange_2bandit_b2.png","70","","70","test","1","","128","","","","circle","square","123","15","6","0.8943089430894309","","","","","","","",""
"null","319679","SARL_v6","SARL_v6olvypzeq","628f827eeb876ed2617881e7","freq_resp","","","img/orange_2bandit_b.png","70","img/orange_2bandit_b.png","70","test","","","","","","","","","","","6","","","","","","","","",""
"null","319839","SARL_v6","SARL_v6olvypzeq","628f827eeb876ed2617881e7","fixation","","","img/fixation.png","null","","","test","","","","","","","","","","","","","","","","","","","",""
"369.59999999403954","320216","SARL_v6","SARL_v6olvypzeq","628f827eeb876ed2617881e7","freq","","","img/orange_2bandit_b2.png","70","","70","test","1","","129","","","","circle","square","124","16","6","0.8951612903225806","","","","","","","",""
"null","320655","SARL_v6","SARL_v6olvypzeq","628f827eeb876ed2617881e7","freq_resp","","","img/orange_2bandit_b.png","70","img/orange_2bandit_b.png","70","test","","","","","","","","","","","6","","","","","","","","",""
"null","320815","SARL_v6","SARL_v6olvypzeq","628f827eeb876ed2617881e7","fixation","","","img/fixation.png","null","","","test","","","","","","","","","","","","","","","","","","","",""
"384.5","321206","SARL_v6","SARL_v6olvypzeq","628f827eeb876ed2617881e7","freq","","","img/orange_2bandit_b2.png","70","","70","test","1","","130","","","","circle","square","125","17","6","0.896","","","","","","","",""
"null","321631","SARL_v6","SARL_v6olvypzeq","628f827eeb876ed2617881e7","freq_resp","","","img/orange_2bandit_b.png","70","img/orange_2bandit_b.png","70","test","","","","","","","","","","","6","","","","","","","","",""
"null","321791","SARL_v6","SARL_v6olvypzeq","628f827eeb876ed2617881e7","fixation","","","img/fixation.png","null","","","test","","","","","","","","","","","","","","","","","","","",""
"387.79999999701977","322185","SARL_v6","SARL_v6olvypzeq","628f827eeb876ed2617881e7","freq","","","img/orange_2bandit_b2.png","70","","70","test","1","","131","","","","circle","square","126","18","6","0.8968253968253969","","","","","","","",""
"null","322607","SARL_v6","SARL_v6olvypzeq","628f827eeb876ed2617881e7","freq_resp","","","img/orange_2bandit_b.png","70","img/orange_2bandit_b.png","70","test","","","","","","","","","","","6","","","","","","","","",""
"null","322767","SARL_v6","SARL_v6olvypzeq","628f827eeb876ed2617881e7","fixation","","","img/fixation.png","null","","","test","","","","","","","","","","","","","","","","","","","",""
"335.5","323109","SARL_v6","SARL_v6olvypzeq","628f827eeb876ed2617881e7","freq","","","img/orange_2bandit_b2.png","70","","70","test","1","","132","","","","circle","square","127","19","6","0.8976377952755905","","","","","","","",""
"null","323583","SARL_v6","SARL_v6olvypzeq","628f827eeb876ed2617881e7","freq_resp","","","img/orange_2bandit_b.png","70","img/orange_2bandit_b.png","70","test","","","","","","","","","","","6","","","","","","","","",""
"null","323743","SARL_v6","SARL_v6olvypzeq","628f827eeb876ed2617881e7","fixation","","","img/fixation.png","null","","","test","","","","","","","","","","","","","","","","","","","",""
