"rt","time_elapsed","expId","subject","prolificID","trialType","rlType","attType","stimulus","key_press","stim","corrresp","phase","corr","pracCounter","trialNum","rewardOne","rewardTwo","reward","bandOne","bandTwo","attentionNum","attentionRunNum","blockNum","performance","bandChosen","circleVal","squareVal","bandOneVal","bandTwoVal","shapeChosen","rlNum","badFlag"
"1411.5999999046326","1418","SARL_v6","SARL_v6u5qsll51","641359b5040c453203e2c088","","","","","","","","","","","","","","","","","","","","","","","","","","","",""
"","3773","SARL_v6","SARL_v6u5qsll51","641359b5040c453203e2c088","fullscreen","fullscreen","fullscreen","","","","","","","","","","","","","","","","","","","","","","","","",""
"88921.20000004768","92699","SARL_v6","SARL_v6u5qsll51","641359b5040c453203e2c088","","","","","","","","","","","","","","","","","","","","","","","","","","","",""
"null","93505","SARL_v6","SARL_v6u5qsll51","641359b5040c453203e2c088","freqPrac","","","img/blue_2bandit_b2.png","null","img/blue_2bandit_b2.png","70","prac","0","1","","","","","","","","","","","","","","","","","",""
"null","94514","SARL_v6","SARL_v6u5qsll51","641359b5040c453203e2c088","feedback","","","img/tooSlow.png","null","","na","prac","","","","","","","","","","","","","","","","","","","",""
"null","94682","SARL_v6","SARL_v6u5qsll51","641359b5040c453203e2c088","fixation","","","img/fixation.png","null","","","prac","","","","","","","","","","","","","","","","","","","",""
"null","95497","SARL_v6","SARL_v6u5qsll51","641359b5040c453203e2c088","infreqPrac","","","img/orange_2bandit_b2.png","null","img/orange_2bandit_b2.png","68","prac","0","2","","","","","","","","","","","","","","","","","",""
"null","96515","SARL_v6","SARL_v6u5qsll51","641359b5040c453203e2c088","feedback","","","img/tooSlow.png","null","","na","prac","","","","","","","","","","","","","","","","","","","",""
"null","96682","SARL_v6","SARL_v6u5qsll51","641359b5040c453203e2c088","fixation","","","img/fixation.png","null","","","prac","","","","","","","","","","","","","","","","","","","",""
"null","97489","SARL_v6","SARL_v6u5qsll51","641359b5040c453203e2c088","freqPrac","","","img/blue_2bandit_b2.png","null","img/blue_2bandit_b2.png","70","prac","0","3","","","","","","","","","","","","","","","","","",""
"null","98507","SARL_v6","SARL_v6u5qsll51","641359b5040c453203e2c088","feedback","","","img/tooSlow.png","null","","na","prac","","","","","","","","","","","","","","","","","","","",""
"null","98666","SARL_v6","SARL_v6u5qsll51","641359b5040c453203e2c088","fixation","","","img/fixation.png","null","","","prac","","","","","","","","","","","","","","","","","","","",""
"156.80000019073486","98825","SARL_v6","SARL_v6u5qsll51","641359b5040c453203e2c088","infreqPrac","","","img/orange_2bandit_b2.png","70","img/orange_2bandit_b2.png","68","prac","0","4","","","","","","","","","","","","","","","","","",""
"156.80000019073486","99472","SARL_v6","SARL_v6u5qsll51","641359b5040c453203e2c088","infreqPrac_resp","","","img/orange_2bandit_b.png","70","img/orange_2bandit_b.png","68","prac","","","","","","","","","","","","","","","","","","","",""
"null","100490","SARL_v6","SARL_v6u5qsll51","641359b5040c453203e2c088","feedback","","","img/wrongKey.png","null","","na","prac","","","","","","","","","","","","","","","","","","","",""
"null","100648","SARL_v6","SARL_v6u5qsll51","641359b5040c453203e2c088","fixation","","","img/fixation.png","null","","","prac","","","","","","","","","","","","","","","","","","","",""
"null","101453","SARL_v6","SARL_v6u5qsll51","641359b5040c453203e2c088","infreqPrac","","","img/orange_2bandit_b2.png","null","img/orange_2bandit_b2.png","68","prac","0","5","","","","","","","","","","","","","","","","","",""
"null","102467","SARL_v6","SARL_v6u5qsll51","641359b5040c453203e2c088","feedback","","","img/tooSlow.png","null","","na","prac","","","","","","","","","","","","","","","","","","","",""
"null","102629","SARL_v6","SARL_v6u5qsll51","641359b5040c453203e2c088","fixation","","","img/fixation.png","null","","","prac","","","","","","","","","","","","","","","","","","","",""
"292.5","102925","SARL_v6","SARL_v6u5qsll51","641359b5040c453203e2c088","infreqPrac","","","img/orange_2bandit_b2.png","70","img/orange_2bandit_b2.png","68","prac","0","6","","","","","","","","","","","","","","","","","",""
"292.5","103438","SARL_v6","SARL_v6u5qsll51","641359b5040c453203e2c088","infreqPrac_resp","","","img/orange_2bandit_b.png","70","img/orange_2bandit_b.png","68","prac","","","","","","","","","","","","","","","","","","","",""
"null","104442","SARL_v6","SARL_v6u5qsll51","641359b5040c453203e2c088","feedback","","","img/wrongKey.png","null","","na","prac","","","","","","","","","","","","","","","","","","","",""
"null","104597","SARL_v6","SARL_v6u5qsll51","641359b5040c453203e2c088","fixation","","","img/fixation.png","null","","","prac","","","","","","","","","","","","","","","","","","","",""
"135.29999995231628","104735","SARL_v6","SARL_v6u5qsll51","641359b5040c453203e2c088","freqPrac","","","img/blue_2bandit_b2.png","70","img/blue_2bandit_b2.png","70","prac","1","6","","","","","","","","","","","","","","","","","",""
"135.29999995231628","105406","SARL_v6","SARL_v6u5qsll51","641359b5040c453203e2c088","freqPrac_resp","","","img/blue_2bandit_b.png","70","img/blue_2bandit_b.png","70","prac","","","","","","","","","","","","","","","","","","","",""
"8.5","105564","SARL_v6","SARL_v6u5qsll51","641359b5040c453203e2c088","fixation","","","img/fixation.png","70","","","prac","","","","","","","","","","","","","","","","","","","",""
"null","106370","SARL_v6","SARL_v6u5qsll51","641359b5040c453203e2c088","infreqPrac","","","img/orange_2bandit_b2.png","null","img/orange_2bandit_b2.png","68","prac","0","7","","","","","","","","","","","","","","","","","",""
"null","107389","SARL_v6","SARL_v6u5qsll51","641359b5040c453203e2c088","feedback","","","img/tooSlow.png","null","","na","prac","","","","","","","","","","","","","","","","","","","",""
"null","107546","SARL_v6","SARL_v6u5qsll51","641359b5040c453203e2c088","fixation","","","img/fixation.png","null","","","prac","","","","","","","","","","","","","","","","","","","",""
"null","108352","SARL_v6","SARL_v6u5qsll51","641359b5040c453203e2c088","freqPrac","","","img/blue_2bandit_b2.png","null","img/blue_2bandit_b2.png","70","prac","0","8","","","","","","","","","","","","","","","","","",""
"null","109356","SARL_v6","SARL_v6u5qsll51","641359b5040c453203e2c088","feedback","","","img/tooSlow.png","null","","na","prac","","","","","","","","","","","","","","","","","","","",""
"null","109511","SARL_v6","SARL_v6u5qsll51","641359b5040c453203e2c088","fixation","","","img/fixation.png","null","","","prac","","","","","","","","","","","","","","","","","","","",""
"null","110318","SARL_v6","SARL_v6u5qsll51","641359b5040c453203e2c088","freqPrac","","","img/blue_2bandit_b2.png","null","img/blue_2bandit_b2.png","70","prac","0","9","","","","","","","","","","","","","","","","","",""
"null","111322","SARL_v6","SARL_v6u5qsll51","641359b5040c453203e2c088","feedback","","","img/tooSlow.png","null","","na","prac","","","","","","","","","","","","","","","","","","","",""
"null","111478","SARL_v6","SARL_v6u5qsll51","641359b5040c453203e2c088","fixation","","","img/fixation.png","null","","","prac","","","","","","","","","","","","","","","","","","","",""
"16210.599999904633","127691","SARL_v6","SARL_v6u5qsll51","641359b5040c453203e2c088","","","","","","","","prac","","","","","","","","","","","","","","","","","","","",""
"null","129199","SARL_v6","SARL_v6u5qsll51","641359b5040c453203e2c088","rlPractice","","","img/black_2bandit_b2.png","null","img/black_2bandit_b2.png","","prac","","","0","","","","","","","","","","","","","","","","",""
"null","129961","SARL_v6","SARL_v6u5qsll51","641359b5040c453203e2c088","feedback","","","<div font size = 80> TOO SLOW  </div>","null","","na","prac","","","1","10","-14","10","","","","","","","","","","","","","",""
"null","130122","SARL_v6","SARL_v6u5qsll51","641359b5040c453203e2c088","fixation","","","img/fixation.png","null","","","prac","","","","","","","","","","","","","","","","","","","",""
"1112.7000000476837","131237","SARL_v6","SARL_v6u5qsll51","641359b5040c453203e2c088","rlPractice","","","img/black_2bandit_b2.png","74","img/black_2bandit_b2.png","","prac","","","1","","","","","","","","","","","","","","","","",""
"null","131998","SARL_v6","SARL_v6u5qsll51","641359b5040c453203e2c088","feedback","","","<div class=""veryhighPoints""> 5 </div>","null","","na","prac","","","2","5","-5","5","","","","","","","","","","","","","",""
"null","132154","SARL_v6","SARL_v6u5qsll51","641359b5040c453203e2c088","fixation","","","img/fixation.png","null","","","prac","","","","","","","","","","","","","","","","","","","",""
"671","132828","SARL_v6","SARL_v6u5qsll51","641359b5040c453203e2c088","rlPractice","","","img/black_2bandit_b2.png","75","img/black_2bandit_b2.png","","prac","","","2","","","","","","","","","","","","","","","","",""
"null","133582","SARL_v6","SARL_v6u5qsll51","641359b5040c453203e2c088","feedback","","","<div class=""veryhighPoints_sq""> 2 </div>","null","","na","prac","","","3","30","2","30","","","","","","","","","","","","","",""
"null","133737","SARL_v6","SARL_v6u5qsll51","641359b5040c453203e2c088","fixation","","","img/fixation.png","null","","","prac","","","","","","","","","","","","","","","","","","","",""
"105.60000014305115","133845","SARL_v6","SARL_v6u5qsll51","641359b5040c453203e2c088","rlPractice","","","img/black_2bandit_b2.png","74","img/black_2bandit_b2.png","","prac","","","3","","","","","","","","","","","","","","","","",""
"null","134614","SARL_v6","SARL_v6u5qsll51","641359b5040c453203e2c088","feedback","","","<div class=""verylowPoints""> -2 </div>","null","","na","prac","","","4","-2","20","-2","","","","","","","","","","","","","",""
"null","134771","SARL_v6","SARL_v6u5qsll51","641359b5040c453203e2c088","fixation","","","img/fixation.png","null","","","prac","","","","","","","","","","","","","","","","","","","",""
"10876.799999952316","145649","SARL_v6","SARL_v6u5qsll51","641359b5040c453203e2c088","","","","","","","","prac","","","","","","","","","","","","","","","","","","","",""
"null","146453","SARL_v6","SARL_v6u5qsll51","641359b5040c453203e2c088","mixAttFreqPrac","","","img/blue_2bandit_b2.png","null","img/blue_2bandit_b2.png","70","prac","","","1","","","","","","","","","","","","","","","","",""
"null","146616","SARL_v6","SARL_v6u5qsll51","641359b5040c453203e2c088","fixation","","","img/fixation.png","null","","","prac","","","","","","","","","","","","","","","","","","","",""
"null","147423","SARL_v6","SARL_v6u5qsll51","641359b5040c453203e2c088","mixAttInfreqPrac","","","img/orange_2bandit_b2.png","null","img/orange_2bandit_b2.png","68","prac","","","2","","","","","","","","","","","","","","","","",""
"null","147583","SARL_v6","SARL_v6u5qsll51","641359b5040c453203e2c088","fixation","","","img/fixation.png","null","","","prac","","","","","","","","","","","","","","","","","","","",""
"139.89999985694885","147726","SARL_v6","SARL_v6u5qsll51","641359b5040c453203e2c088","mixAttInfreqPrac","","","img/orange_2bandit_b2.png","70","img/orange_2bandit_b2.png","68","prac","","","3","","","","","","","","","","","","","","","","",""
"139.89999985694885","148402","SARL_v6","SARL_v6u5qsll51","641359b5040c453203e2c088","infreqPrac_resp","","","img/orange_2bandit_b.png","70","img/blue_2bandit_b.png","68","prac","","","3","","","","","","","","","","","","","","","","",""
"null","148566","SARL_v6","SARL_v6u5qsll51","641359b5040c453203e2c088","fixation","","","img/fixation.png","null","","","prac","","","","","","","","","","","","","","","","","","","",""
"357.40000009536743","148926","SARL_v6","SARL_v6u5qsll51","641359b5040c453203e2c088","mixAttInfreqPrac","","","img/orange_2bandit_b2.png","70","img/orange_2bandit_b2.png","68","prac","","","4","","","","","","","","","","","","","","","","",""
"357.40000009536743","149382","SARL_v6","SARL_v6u5qsll51","641359b5040c453203e2c088","infreqPrac_resp","","","img/orange_2bandit_b.png","70","img/blue_2bandit_b.png","68","prac","","","4","","","","","","","","","","","","","","","","",""
"null","149548","SARL_v6","SARL_v6u5qsll51","641359b5040c453203e2c088","fixation","","","img/fixation.png","null","","","prac","","","","","","","","","","","","","","","","","","","",""
"246.59999990463257","149797","SARL_v6","SARL_v6u5qsll51","641359b5040c453203e2c088","mixAttFreqPrac","","","img/blue_2bandit_b2.png","68","img/blue_2bandit_b2.png","70","prac","","","5","","","","","","","","","","","","","","","","",""
"246.59999990463257","150367","SARL_v6","SARL_v6u5qsll51","641359b5040c453203e2c088","freqPrac_resp","","","img/blue_2bandit_b.png","68","img/blue_2bandit_b.png","70","prac","","","5","","","","","","","","","","","","","","","","",""
"null","150531","SARL_v6","SARL_v6u5qsll51","641359b5040c453203e2c088","fixation","","","img/fixation.png","null","","","prac","","","","","","","","","","","","","","","","","","","",""
"952.6000001430511","151487","SARL_v6","SARL_v6u5qsll51","641359b5040c453203e2c088","mixRLPractice","","","img/black_2bandit_b2.png","74","img/black_2bandit_b2.png","","prac","","","5","","","","","","","","","","","","","","","","",""
"null","152245","SARL_v6","SARL_v6u5qsll51","641359b5040c453203e2c088","feedback","","","<div class=""verylowPoints""> -14 </div>","null","","na","prac","","","6","-14","10","-14","","","","","","","","","","","","","",""
"null","152398","SARL_v6","SARL_v6u5qsll51","641359b5040c453203e2c088","fixation","","","img/fixation.png","null","","","prac","","","","","","","","","","","","","","","","","","","",""
"null","153217","SARL_v6","SARL_v6u5qsll51","641359b5040c453203e2c088","mixAttFreqPrac","","","img/blue_2bandit_b2.png","null","img/blue_2bandit_b2.png","70","prac","","","7","","","","","","","","","","","","","","","","",""
"0.09999990463256836","153381","SARL_v6","SARL_v6u5qsll51","641359b5040c453203e2c088","fixation","","","img/fixation.png","70","","","prac","","","","","","","","","","","","","","","","","","","",""
"573.2000000476837","153957","SARL_v6","SARL_v6u5qsll51","641359b5040c453203e2c088","mixAttInfreqPrac","","","img/orange_2bandit_b2.png","68","img/orange_2bandit_b2.png","68","prac","","","8","","","","","","","","","","","","","","","","",""
"573.2000000476837","154193","SARL_v6","SARL_v6u5qsll51","641359b5040c453203e2c088","infreqPrac_resp","","","img/orange_2bandit_b.png","68","img/blue_2bandit_b.png","68","prac","","","8","","","","","","","","","","","","","","","","",""
"null","154347","SARL_v6","SARL_v6u5qsll51","641359b5040c453203e2c088","fixation","","","img/fixation.png","null","","","prac","","","","","","","","","","","","","","","","","","","",""
"666.6000001430511","155017","SARL_v6","SARL_v6u5qsll51","641359b5040c453203e2c088","mixAttFreqPrac","","","img/blue_2bandit_b2.png","68","img/blue_2bandit_b2.png","70","prac","","","9","","","","","","","","","","","","","","","","",""
"666.6000001430511","155164","SARL_v6","SARL_v6u5qsll51","641359b5040c453203e2c088","freqPrac_resp","","","img/blue_2bandit_b.png","68","img/blue_2bandit_b.png","70","prac","","","9","","","","","","","","","","","","","","","","",""
"null","155330","SARL_v6","SARL_v6u5qsll51","641359b5040c453203e2c088","fixation","","","img/fixation.png","null","","","prac","","","","","","","","","","","","","","","","","","","",""
"324.2999999523163","155657","SARL_v6","SARL_v6u5qsll51","641359b5040c453203e2c088","mixAttFreqPrac","","","img/blue_2bandit_b2.png","68","img/blue_2bandit_b2.png","70","prac","","","10","","","","","","","","","","","","","","","","",""
"324.2999999523163","156142","SARL_v6","SARL_v6u5qsll51","641359b5040c453203e2c088","freqPrac_resp","","","img/blue_2bandit_b.png","68","img/blue_2bandit_b.png","70","prac","","","10","","","","","","","","","","","","","","","","",""
"null","156299","SARL_v6","SARL_v6u5qsll51","641359b5040c453203e2c088","fixation","","","img/fixation.png","null","","","prac","","","","","","","","","","","","","","","","","","","",""
"274.30000019073486","156577","SARL_v6","SARL_v6u5qsll51","641359b5040c453203e2c088","mixAttInfreqPrac","","","img/orange_2bandit_b2.png","68","img/orange_2bandit_b2.png","68","prac","","","11","","","","","","","","","","","","","","","","",""
"274.30000019073486","157121","SARL_v6","SARL_v6u5qsll51","641359b5040c453203e2c088","infreqPrac_resp","","","img/orange_2bandit_b.png","68","img/blue_2bandit_b.png","68","prac","","","11","","","","","","","","","","","","","","","","",""
"null","157280","SARL_v6","SARL_v6u5qsll51","641359b5040c453203e2c088","fixation","","","img/fixation.png","null","","","prac","","","","","","","","","","","","","","","","","","","",""
"753.5999999046326","158037","SARL_v6","SARL_v6u5qsll51","641359b5040c453203e2c088","mixRLPractice","","","img/black_2bandit_b2.png","75","img/black_2bandit_b2.png","","prac","","","11","","","","","","","","","","","","","","","","",""
"null","158800","SARL_v6","SARL_v6u5qsll51","641359b5040c453203e2c088","feedback","","","<div class=""verylowPoints_sq""> -5 </div>","null","","na","prac","","","12","5","-5","5","","","","","","","","","","","","","",""
"null","158963","SARL_v6","SARL_v6u5qsll51","641359b5040c453203e2c088","fixation","","","img/fixation.png","null","","","prac","","","","","","","","","","","","","","","","","","","",""
"3203.9000000953674","162170","SARL_v6","SARL_v6u5qsll51","641359b5040c453203e2c088","","","","","","","","prac","","","","","","","","","","","","","","","","","","","",""
"663.7000000476837","162837","SARL_v6","SARL_v6u5qsll51","641359b5040c453203e2c088","freq","","","img/blue_2bandit_b2.png","70","","70","test","1","","1","","","","circle","square","1","1","1","1","","","","","","","",""
"null","162977","SARL_v6","SARL_v6u5qsll51","641359b5040c453203e2c088","freq_resp","","","img/blue_2bandit_b.png","70","img/blue_2bandit_b.png","70","test","","","","","","","","","","","1","","","","","","","","",""
"null","163131","SARL_v6","SARL_v6u5qsll51","641359b5040c453203e2c088","fixation","","","img/fixation.png","null","","","test","","","","","","","","","","","","","","","","","","","",""
"313.10000014305115","163447","SARL_v6","SARL_v6u5qsll51","641359b5040c453203e2c088","freq","","","img/blue_2bandit_b2.png","68","","70","test","0","","2","","","","circle","square","2","2","1","0.5","","","","","","","",""
"null","163947","SARL_v6","SARL_v6u5qsll51","641359b5040c453203e2c088","freq_resp","","","img/blue_2bandit_b.png","68","img/blue_2bandit_b.png","70","test","","","","","","","","","","","1","","","","","","","","",""
"null","164102","SARL_v6","SARL_v6u5qsll51","641359b5040c453203e2c088","fixation","","","img/fixation.png","null","","","test","","","","","","","","","","","","","","","","","","","",""
"202.5","164307","SARL_v6","SARL_v6u5qsll51","641359b5040c453203e2c088","freq","","","img/blue_2bandit_b2.png","70","","70","test","1","","3","","","","circle","square","3","3","1","0.6666666666666666","","","","","","","",""
"null","164915","SARL_v6","SARL_v6u5qsll51","641359b5040c453203e2c088","freq_resp","","","img/blue_2bandit_b.png","70","img/blue_2bandit_b.png","70","test","","","","","","","","","","","1","","","","","","","","",""
"null","165073","SARL_v6","SARL_v6u5qsll51","641359b5040c453203e2c088","fixation","","","img/fixation.png","null","","","test","","","","","","","","","","","","","","","","","","","",""
"170.79999995231628","165247","SARL_v6","SARL_v6u5qsll51","641359b5040c453203e2c088","freq","","","img/blue_2bandit_b2.png","70","","70","test","1","","4","","","","circle","square","4","4","1","0.75","","","","","","","",""
"null","165880","SARL_v6","SARL_v6u5qsll51","641359b5040c453203e2c088","freq_resp","","","img/blue_2bandit_b.png","70","img/blue_2bandit_b.png","70","test","","","","","","","","","","","1","","","","","","","","",""
"null","166044","SARL_v6","SARL_v6u5qsll51","641359b5040c453203e2c088","fixation","","","img/fixation.png","null","","","test","","","","","","","","","","","","","","","","","","","",""
"30.5","166077","SARL_v6","SARL_v6u5qsll51","641359b5040c453203e2c088","freq","","","img/blue_2bandit_b2.png","68","","70","test","0","","5","","","","circle","square","5","5","1","0.6","","","","","","","",""
"null","166852","SARL_v6","SARL_v6u5qsll51","641359b5040c453203e2c088","freq_resp","","","img/blue_2bandit_b.png","68","img/blue_2bandit_b.png","70","test","","","","","","","","","","","1","","","","","","","","",""
"null","167006","SARL_v6","SARL_v6u5qsll51","641359b5040c453203e2c088","fixation","","","img/fixation.png","null","","","test","","","","","","","","","","","","","","","","","","","",""
"117.59999990463257","167127","SARL_v6","SARL_v6u5qsll51","641359b5040c453203e2c088","freq","","","img/blue_2bandit_b2.png","68","","70","test","0","","6","","","","circle","square","6","6","1","0.5","","","","","","","",""
"null","167824","SARL_v6","SARL_v6u5qsll51","641359b5040c453203e2c088","freq_resp","","","img/blue_2bandit_b.png","68","img/blue_2bandit_b.png","70","test","","","","","","","","","","","1","","","","","","","","",""
"null","167993","SARL_v6","SARL_v6u5qsll51","641359b5040c453203e2c088","fixation","","","img/fixation.png","null","","","test","","","","","","","","","","","","","","","","","","","",""
"141.20000004768372","168137","SARL_v6","SARL_v6u5qsll51","641359b5040c453203e2c088","freq","","","img/blue_2bandit_b2.png","70","","70","test","1","","7","","","","circle","square","7","7","1","0.5714285714285714","","","","","","","",""
"null","168809","SARL_v6","SARL_v6u5qsll51","641359b5040c453203e2c088","freq_resp","","","img/blue_2bandit_b.png","70","img/blue_2bandit_b.png","70","test","","","","","","","","","","","1","","","","","","","","",""
"null","168975","SARL_v6","SARL_v6u5qsll51","641359b5040c453203e2c088","fixation","","","img/fixation.png","null","","","test","","","","","","","","","","","","","","","","","","","",""
"150.5","169129","SARL_v6","SARL_v6u5qsll51","641359b5040c453203e2c088","infreq","","","img/orange_2bandit_b2.png","70","","68","test","0","","8","","","","circle","square","8","8","1","0.5","","","","","","","",""
"null","169787","SARL_v6","SARL_v6u5qsll51","641359b5040c453203e2c088","infreq_resp","","","img/orange_2bandit_b.png","70","img/orange_2bandit_b.png","68","test","","","","","","","","","","","1","","","","","","","","",""
"null","169943","SARL_v6","SARL_v6u5qsll51","641359b5040c453203e2c088","fixation","","","img/fixation.png","null","","","test","","","","","","","","","","","","","","","","","","","",""
"32.30000019073486","169977","SARL_v6","SARL_v6u5qsll51","641359b5040c453203e2c088","freq","","","img/blue_2bandit_b2.png","70","","70","test","1","","9","","","","circle","square","9","9","1","0.5555555555555556","","","","","","","",""
"null","170749","SARL_v6","SARL_v6u5qsll51","641359b5040c453203e2c088","freq_resp","","","img/blue_2bandit_b.png","70","img/blue_2bandit_b.png","70","test","","","","","","","","","","","1","","","","","","","","",""
"null","170909","SARL_v6","SARL_v6u5qsll51","641359b5040c453203e2c088","fixation","","","img/fixation.png","null","","","test","","","","","","","","","","","","","","","","","","","",""
"15.299999952316284","170927","SARL_v6","SARL_v6u5qsll51","641359b5040c453203e2c088","freq","","","img/blue_2bandit_b2.png","68","","70","test","0","","10","","","","circle","square","10","10","1","0.5","","","","","","","",""
"null","171715","SARL_v6","SARL_v6u5qsll51","641359b5040c453203e2c088","freq_resp","","","img/blue_2bandit_b.png","68","img/blue_2bandit_b.png","70","test","","","","","","","","","","","1","","","","","","","","",""
"null","171876","SARL_v6","SARL_v6u5qsll51","641359b5040c453203e2c088","fixation","","","img/fixation.png","null","","","test","","","","","","","","","","","","","","","","","","","",""
"48.799999952316284","171928","SARL_v6","SARL_v6u5qsll51","641359b5040c453203e2c088","freq","","","img/blue_2bandit_b2.png","70","","70","test","1","","11","","","","circle","square","11","11","1","0.5454545454545454","","","","","","","",""
"null","172683","SARL_v6","SARL_v6u5qsll51","641359b5040c453203e2c088","freq_resp","","","img/blue_2bandit_b.png","70","img/blue_2bandit_b.png","70","test","","","","","","","","","","","1","","","","","","","","",""
"null","172837","SARL_v6","SARL_v6u5qsll51","641359b5040c453203e2c088","fixation","","","img/fixation.png","null","","","test","","","","","","","","","","","","","","","","","","","",""
"79.40000009536743","172918","SARL_v6","SARL_v6u5qsll51","641359b5040c453203e2c088","freq","","","img/blue_2bandit_b2.png","70","","70","test","1","","12","","","","circle","square","12","12","1","0.5833333333333334","","","","","","","",""
"null","173651","SARL_v6","SARL_v6u5qsll51","641359b5040c453203e2c088","freq_resp","","","img/blue_2bandit_b.png","70","img/blue_2bandit_b.png","70","test","","","","","","","","","","","1","","","","","","","","",""
"null","173807","SARL_v6","SARL_v6u5qsll51","641359b5040c453203e2c088","fixation","","","img/fixation.png","null","","","test","","","","","","","","","","","","","","","","","","","",""
"138.40000009536743","173948","SARL_v6","SARL_v6u5qsll51","641359b5040c453203e2c088","freq","","","img/blue_2bandit_b2.png","70","","70","test","1","","13","","","","circle","square","13","13","1","0.6153846153846154","","","","","","","",""
"null","174626","SARL_v6","SARL_v6u5qsll51","641359b5040c453203e2c088","freq_resp","","","img/blue_2bandit_b.png","70","img/blue_2bandit_b.png","70","test","","","","","","","","","","","1","","","","","","","","",""
"null","174790","SARL_v6","SARL_v6u5qsll51","641359b5040c453203e2c088","fixation","","","img/fixation.png","null","","","test","","","","","","","","","","","","","","","","","","","",""
"64","174857","SARL_v6","SARL_v6u5qsll51","641359b5040c453203e2c088","freq","","","img/blue_2bandit_b2.png","70","","70","test","1","","14","","","","circle","square","14","14","1","0.6428571428571429","","","","","","","",""
"null","175604","SARL_v6","SARL_v6u5qsll51","641359b5040c453203e2c088","freq_resp","","","img/blue_2bandit_b.png","70","img/blue_2bandit_b.png","70","test","","","","","","","","","","","1","","","","","","","","",""
"null","175758","SARL_v6","SARL_v6u5qsll51","641359b5040c453203e2c088","fixation","","","img/fixation.png","null","","","test","","","","","","","","","","","","","","","","","","","",""
"215.79999995231628","175977","SARL_v6","SARL_v6u5qsll51","641359b5040c453203e2c088","infreq","","","img/orange_2bandit_b2.png","70","","68","test","0","","15","","","","circle","square","15","15","1","0.6","","","","","","","",""
"null","176566","SARL_v6","SARL_v6u5qsll51","641359b5040c453203e2c088","infreq_resp","","","img/orange_2bandit_b.png","70","img/orange_2bandit_b.png","68","test","","","","","","","","","","","1","","","","","","","","",""
"null","176724","SARL_v6","SARL_v6u5qsll51","641359b5040c453203e2c088","fixation","","","img/fixation.png","null","","","test","","","","","","","","","","","","","","","","","","","",""
"30.899999856948853","176758","SARL_v6","SARL_v6u5qsll51","641359b5040c453203e2c088","freq","","","img/blue_2bandit_b2.png","70","","70","test","1","","16","","","","circle","square","16","16","1","0.625","","","","","","","",""
"null","177533","SARL_v6","SARL_v6u5qsll51","641359b5040c453203e2c088","freq_resp","","","img/blue_2bandit_b.png","70","img/blue_2bandit_b.png","70","test","","","","","","","","","","","1","","","","","","","","",""
"null","177687","SARL_v6","SARL_v6u5qsll51","641359b5040c453203e2c088","fixation","","","img/fixation.png","null","","","test","","","","","","","","","","","","","","","","","","","",""
"137.29999995231628","177827","SARL_v6","SARL_v6u5qsll51","641359b5040c453203e2c088","freq","","","img/blue_2bandit_b2.png","70","","70","test","1","","17","","","","circle","square","17","17","1","0.6470588235294118","","","","","","","",""
"null","178497","SARL_v6","SARL_v6u5qsll51","641359b5040c453203e2c088","freq_resp","","","img/blue_2bandit_b.png","70","img/blue_2bandit_b.png","70","test","","","","","","","","","","","1","","","","","","","","",""
"null","178657","SARL_v6","SARL_v6u5qsll51","641359b5040c453203e2c088","fixation","","","img/fixation.png","null","","","test","","","","","","","","","","","","","","","","","","","",""
"107.90000009536743","178767","SARL_v6","SARL_v6u5qsll51","641359b5040c453203e2c088","freq","","","img/blue_2bandit_b2.png","68","","70","test","0","","18","","","","circle","square","18","18","1","0.6111111111111112","","","","","","","",""
"null","179473","SARL_v6","SARL_v6u5qsll51","641359b5040c453203e2c088","freq_resp","","","img/blue_2bandit_b.png","68","img/blue_2bandit_b.png","70","test","","","","","","","","","","","1","","","","","","","","",""
"null","179627","SARL_v6","SARL_v6u5qsll51","641359b5040c453203e2c088","fixation","","","img/fixation.png","null","","","test","","","","","","","","","","","","","","","","","","","",""
"147.09999990463257","179777","SARL_v6","SARL_v6u5qsll51","641359b5040c453203e2c088","freq","","","img/blue_2bandit_b2.png","68","","70","test","0","","19","","","","circle","square","19","19","1","0.5789473684210527","","","","","","","",""
"null","180445","SARL_v6","SARL_v6u5qsll51","641359b5040c453203e2c088","freq_resp","","","img/blue_2bandit_b.png","68","img/blue_2bandit_b.png","70","test","","","","","","","","","","","1","","","","","","","","",""
"null","180606","SARL_v6","SARL_v6u5qsll51","641359b5040c453203e2c088","fixation","","","img/fixation.png","null","","","test","","","","","","","","","","","","","","","","","","","",""
"229.79999995231628","180839","SARL_v6","SARL_v6u5qsll51","641359b5040c453203e2c088","freq","","","img/blue_2bandit_b2.png","68","","70","test","0","","20","","","","circle","square","20","20","1","0.55","","","","","","","",""
"null","181426","SARL_v6","SARL_v6u5qsll51","641359b5040c453203e2c088","freq_resp","","","img/blue_2bandit_b.png","68","img/blue_2bandit_b.png","70","test","","","","","","","","","","","1","","","","","","","","",""
"null","181589","SARL_v6","SARL_v6u5qsll51","641359b5040c453203e2c088","fixation","","","img/fixation.png","null","","","test","","","","","","","","","","","","","","","","","","","",""
"15.5","181607","SARL_v6","SARL_v6u5qsll51","641359b5040c453203e2c088","freq","","","img/blue_2bandit_b2.png","70","","70","test","1","","21","","","","circle","square","21","21","1","0.5714285714285714","","","","","","","",""
"null","182399","SARL_v6","SARL_v6u5qsll51","641359b5040c453203e2c088","freq_resp","","","img/blue_2bandit_b.png","70","img/blue_2bandit_b.png","70","test","","","","","","","","","","","1","","","","","","","","",""
"null","182557","SARL_v6","SARL_v6u5qsll51","641359b5040c453203e2c088","fixation","","","img/fixation.png","null","","","test","","","","","","","","","","","","","","","","","","","",""
"87","182647","SARL_v6","SARL_v6u5qsll51","641359b5040c453203e2c088","freq","","","img/blue_2bandit_b2.png","70","","70","test","1","","22","","","","circle","square","22","22","1","0.5909090909090909","","","","","","","",""
"null","183370","SARL_v6","SARL_v6u5qsll51","641359b5040c453203e2c088","freq_resp","","","img/blue_2bandit_b.png","70","img/blue_2bandit_b.png","70","test","","","","","","","","","","","1","","","","","","","","",""
"null","183538","SARL_v6","SARL_v6u5qsll51","641359b5040c453203e2c088","fixation","","","img/fixation.png","null","","","test","","","","","","","","","","","","","","","","","","","",""
"1317.3000001907349","184858","SARL_v6","SARL_v6u5qsll51","641359b5040c453203e2c088","rl","","","img/black_2bandit_b2.png","74","","0","test","","","23","","","-3","circle","square","","0","1","","74","-3","-3","-3","-3","circle","1","0"
"null","185617","SARL_v6","SARL_v6u5qsll51","641359b5040c453203e2c088","feedback","","","<div class=""verylowPoints""> -3 </div>","null","","na","test","","","NaN","","","","","","","","1","","74","","","","","","1",""
"476.7999999523163","186097","SARL_v6","SARL_v6u5qsll51","641359b5040c453203e2c088","freq","","","img/blue_2bandit_b2.png","68","","70","test","0","","24","","","","circle","square","23","1","2","0.5652173913043478","","","","","","","",""
"null","186431","SARL_v6","SARL_v6u5qsll51","641359b5040c453203e2c088","freq_resp","","","img/blue_2bandit_b.png","68","img/blue_2bandit_b.png","70","test","","","","","","","","","","","2","","","","","","","","",""
"null","186588","SARL_v6","SARL_v6u5qsll51","641359b5040c453203e2c088","fixation","","","img/fixation.png","null","","","test","","","","","","","","","","","","","","","","","","","",""
"117.80000019073486","186708","SARL_v6","SARL_v6u5qsll51","641359b5040c453203e2c088","freq","","","img/blue_2bandit_b2.png","68","","70","test","0","","25","","","","circle","square","24","2","2","0.5416666666666666","","","","","","","",""
"null","187396","SARL_v6","SARL_v6u5qsll51","641359b5040c453203e2c088","freq_resp","","","img/blue_2bandit_b.png","68","img/blue_2bandit_b.png","70","test","","","","","","","","","","","2","","","","","","","","",""
"null","187554","SARL_v6","SARL_v6u5qsll51","641359b5040c453203e2c088","fixation","","","img/fixation.png","null","","","test","","","","","","","","","","","","","","","","","","","",""
"99.90000009536743","187657","SARL_v6","SARL_v6u5qsll51","641359b5040c453203e2c088","freq","","","img/blue_2bandit_b2.png","70","","70","test","1","","26","","","","circle","square","25","3","2","0.56","","","","","","","",""
"null","188375","SARL_v6","SARL_v6u5qsll51","641359b5040c453203e2c088","freq_resp","","","img/blue_2bandit_b.png","70","img/blue_2bandit_b.png","70","test","","","","","","","","","","","2","","","","","","","","",""
"null","188528","SARL_v6","SARL_v6u5qsll51","641359b5040c453203e2c088","fixation","","","img/fixation.png","null","","","test","","","","","","","","","","","","","","","","","","","",""
"98.5","188630","SARL_v6","SARL_v6u5qsll51","641359b5040c453203e2c088","freq","","","img/blue_2bandit_b2.png","68","","70","test","0","","27","","","","circle","square","26","4","2","0.5384615384615384","","","","","","","",""
"null","189337","SARL_v6","SARL_v6u5qsll51","641359b5040c453203e2c088","freq_resp","","","img/blue_2bandit_b.png","68","img/blue_2bandit_b.png","70","test","","","","","","","","","","","2","","","","","","","","",""
"null","189499","SARL_v6","SARL_v6u5qsll51","641359b5040c453203e2c088","fixation","","","img/fixation.png","null","","","test","","","","","","","","","","","","","","","","","","","",""
"126.69999980926514","189628","SARL_v6","SARL_v6u5qsll51","641359b5040c453203e2c088","freq","","","img/blue_2bandit_b2.png","70","","70","test","1","","28","","","","circle","square","27","5","2","0.5555555555555556","","","","","","","",""
"null","190313","SARL_v6","SARL_v6u5qsll51","641359b5040c453203e2c088","freq_resp","","","img/blue_2bandit_b.png","70","img/blue_2bandit_b.png","70","test","","","","","","","","","","","2","","","","","","","","",""
"null","190470","SARL_v6","SARL_v6u5qsll51","641359b5040c453203e2c088","fixation","","","img/fixation.png","null","","","test","","","","","","","","","","","","","","","","","","","",""
"96.29999995231628","190570","SARL_v6","SARL_v6u5qsll51","641359b5040c453203e2c088","freq","","","img/blue_2bandit_b2.png","68","","70","test","0","","29","","","","circle","square","28","6","2","0.5357142857142857","","","","","","","",""
"null","191282","SARL_v6","SARL_v6u5qsll51","641359b5040c453203e2c088","freq_resp","","","img/blue_2bandit_b.png","68","img/blue_2bandit_b.png","70","test","","","","","","","","","","","2","","","","","","","","",""
"null","191451","SARL_v6","SARL_v6u5qsll51","641359b5040c453203e2c088","fixation","","","img/fixation.png","null","","","test","","","","","","","","","","","","","","","","","","","",""
"123.5","191577","SARL_v6","SARL_v6u5qsll51","641359b5040c453203e2c088","freq","","","img/blue_2bandit_b2.png","68","","70","test","0","","30","","","","circle","square","29","7","2","0.5172413793103449","","","","","","","",""
"null","192267","SARL_v6","SARL_v6u5qsll51","641359b5040c453203e2c088","freq_resp","","","img/blue_2bandit_b.png","68","img/blue_2bandit_b.png","70","test","","","","","","","","","","","2","","","","","","","","",""
"null","192435","SARL_v6","SARL_v6u5qsll51","641359b5040c453203e2c088","fixation","","","img/fixation.png","null","","","test","","","","","","","","","","","","","","","","","","","",""
"59.799999952316284","192498","SARL_v6","SARL_v6u5qsll51","641359b5040c453203e2c088","freq","","","img/blue_2bandit_b2.png","70","","70","test","1","","31","","","","circle","square","30","8","2","0.5333333333333333","","","","","","","",""
"null","193246","SARL_v6","SARL_v6u5qsll51","641359b5040c453203e2c088","freq_resp","","","img/blue_2bandit_b.png","70","img/blue_2bandit_b.png","70","test","","","","","","","","","","","2","","","","","","","","",""
"null","193402","SARL_v6","SARL_v6u5qsll51","641359b5040c453203e2c088","fixation","","","img/fixation.png","null","","","test","","","","","","","","","","","","","","","","","","","",""
"4.5","193410","SARL_v6","SARL_v6u5qsll51","641359b5040c453203e2c088","freq","","","img/blue_2bandit_b2.png","70","","70","test","1","","32","","","","circle","square","31","9","2","0.5483870967741935","","","","","","","",""
"null","194209","SARL_v6","SARL_v6u5qsll51","641359b5040c453203e2c088","freq_resp","","","img/blue_2bandit_b.png","70","img/blue_2bandit_b.png","70","test","","","","","","","","","","","2","","","","","","","","",""
"null","194368","SARL_v6","SARL_v6u5qsll51","641359b5040c453203e2c088","fixation","","","img/fixation.png","null","","","test","","","","","","","","","","","","","","","","","","","",""
"55.59999990463257","194427","SARL_v6","SARL_v6u5qsll51","641359b5040c453203e2c088","freq","","","img/blue_2bandit_b2.png","70","","70","test","1","","33","","","","circle","square","32","10","2","0.5625","","","","","","","",""
"null","195175","SARL_v6","SARL_v6u5qsll51","641359b5040c453203e2c088","freq_resp","","","img/blue_2bandit_b.png","70","img/blue_2bandit_b.png","70","test","","","","","","","","","","","2","","","","","","","","",""
"null","195334","SARL_v6","SARL_v6u5qsll51","641359b5040c453203e2c088","fixation","","","img/fixation.png","null","","","test","","","","","","","","","","","","","","","","","","","",""
"100.29999995231628","195438","SARL_v6","SARL_v6u5qsll51","641359b5040c453203e2c088","freq","","","img/blue_2bandit_b2.png","68","","70","test","0","","34","","","","circle","square","33","11","2","0.5454545454545454","","","","","","","",""
"null","196147","SARL_v6","SARL_v6u5qsll51","641359b5040c453203e2c088","freq_resp","","","img/blue_2bandit_b.png","68","img/blue_2bandit_b.png","70","test","","","","","","","","","","","2","","","","","","","","",""
"null","196302","SARL_v6","SARL_v6u5qsll51","641359b5040c453203e2c088","fixation","","","img/fixation.png","null","","","test","","","","","","","","","","","","","","","","","","","",""
"4.300000190734863","196309","SARL_v6","SARL_v6u5qsll51","641359b5040c453203e2c088","infreq","","","img/orange_2bandit_b2.png","70","","68","test","0","","35","","","","circle","square","34","12","2","0.5294117647058824","","","","","","","",""
"null","197109","SARL_v6","SARL_v6u5qsll51","641359b5040c453203e2c088","infreq_resp","","","img/orange_2bandit_b.png","70","img/orange_2bandit_b.png","68","test","","","","","","","","","","","2","","","","","","","","",""
"null","197267","SARL_v6","SARL_v6u5qsll51","641359b5040c453203e2c088","fixation","","","img/fixation.png","null","","","test","","","","","","","","","","","","","","","","","","","",""
"27.700000047683716","197297","SARL_v6","SARL_v6u5qsll51","641359b5040c453203e2c088","freq","","","img/blue_2bandit_b2.png","68","","70","test","0","","36","","","","circle","square","35","13","2","0.5142857142857142","","","","","","","",""
"null","198089","SARL_v6","SARL_v6u5qsll51","641359b5040c453203e2c088","freq_resp","","","img/blue_2bandit_b.png","68","img/blue_2bandit_b.png","70","test","","","","","","","","","","","2","","","","","","","","",""
"null","198251","SARL_v6","SARL_v6u5qsll51","641359b5040c453203e2c088","fixation","","","img/fixation.png","null","","","test","","","","","","","","","","","","","","","","","","","",""
"45.90000009536743","198300","SARL_v6","SARL_v6u5qsll51","641359b5040c453203e2c088","freq","","","img/blue_2bandit_b2.png","70","","70","test","1","","37","","","","circle","square","36","14","2","0.5277777777777778","","","","","","","",""
"null","199059","SARL_v6","SARL_v6u5qsll51","641359b5040c453203e2c088","freq_resp","","","img/blue_2bandit_b.png","70","img/blue_2bandit_b.png","70","test","","","","","","","","","","","2","","","","","","","","",""
"null","199217","SARL_v6","SARL_v6u5qsll51","641359b5040c453203e2c088","fixation","","","img/fixation.png","null","","","test","","","","","","","","","","","","","","","","","","","",""
"0.2999999523162842","199219","SARL_v6","SARL_v6u5qsll51","641359b5040c453203e2c088","freq","","","img/blue_2bandit_b2.png","70","","70","test","1","","38","","","","circle","square","37","15","2","0.5405405405405406","","","","","","","",""
"null","200035","SARL_v6","SARL_v6u5qsll51","641359b5040c453203e2c088","freq_resp","","","img/blue_2bandit_b.png","70","img/blue_2bandit_b.png","70","test","","","","","","","","","","","2","","","","","","","","",""
"null","200195","SARL_v6","SARL_v6u5qsll51","641359b5040c453203e2c088","fixation","","","img/fixation.png","null","","","test","","","","","","","","","","","","","","","","","","","",""
"20.90000009536743","200220","SARL_v6","SARL_v6u5qsll51","641359b5040c453203e2c088","freq","","","img/blue_2bandit_b2.png","70","","70","test","1","","39","","","","circle","square","38","16","2","0.5526315789473685","","","","","","","",""
"null","201007","SARL_v6","SARL_v6u5qsll51","641359b5040c453203e2c088","freq_resp","","","img/blue_2bandit_b.png","70","img/blue_2bandit_b.png","70","test","","","","","","","","","","","2","","","","","","","","",""
"null","201163","SARL_v6","SARL_v6u5qsll51","641359b5040c453203e2c088","fixation","","","img/fixation.png","null","","","test","","","","","","","","","","","","","","","","","","","",""
"179.69999980926514","201346","SARL_v6","SARL_v6u5qsll51","641359b5040c453203e2c088","infreq","","","img/orange_2bandit_b2.png","70","","68","test","0","","40","","","","circle","square","39","17","2","0.5384615384615384","","","","","","","",""
"null","201970","SARL_v6","SARL_v6u5qsll51","641359b5040c453203e2c088","infreq_resp","","","img/orange_2bandit_b.png","70","img/orange_2bandit_b.png","68","test","","","","","","","","","","","2","","","","","","","","",""
"null","202124","SARL_v6","SARL_v6u5qsll51","641359b5040c453203e2c088","fixation","","","img/fixation.png","null","","","test","","","","","","","","","","","","","","","","","","","",""
"323.09999990463257","202450","SARL_v6","SARL_v6u5qsll51","641359b5040c453203e2c088","freq","","","img/blue_2bandit_b2.png","70","","70","test","1","","41","","","","circle","square","40","18","2","0.55","","","","","","","",""
"null","202942","SARL_v6","SARL_v6u5qsll51","641359b5040c453203e2c088","freq_resp","","","img/blue_2bandit_b.png","70","img/blue_2bandit_b.png","70","test","","","","","","","","","","","2","","","","","","","","",""
"null","203100","SARL_v6","SARL_v6u5qsll51","641359b5040c453203e2c088","fixation","","","img/fixation.png","null","","","test","","","","","","","","","","","","","","","","","","","",""
"255.70000004768372","203359","SARL_v6","SARL_v6u5qsll51","641359b5040c453203e2c088","freq","","","img/blue_2bandit_b2.png","68","","70","test","0","","42","","","","circle","square","41","19","2","0.5365853658536586","","","","","","","",""
"null","203906","SARL_v6","SARL_v6u5qsll51","641359b5040c453203e2c088","freq_resp","","","img/blue_2bandit_b.png","68","img/blue_2bandit_b.png","70","test","","","","","","","","","","","2","","","","","","","","",""
"null","204065","SARL_v6","SARL_v6u5qsll51","641359b5040c453203e2c088","fixation","","","img/fixation.png","null","","","test","","","","","","","","","","","","","","","","","","","",""
"129.29999995231628","204198","SARL_v6","SARL_v6u5qsll51","641359b5040c453203e2c088","freq","","","img/blue_2bandit_b2.png","70","","70","test","1","","43","","","","circle","square","42","20","2","0.5476190476190477","","","","","","","",""
"null","204880","SARL_v6","SARL_v6u5qsll51","641359b5040c453203e2c088","freq_resp","","","img/blue_2bandit_b.png","70","img/blue_2bandit_b.png","70","test","","","","","","","","","","","2","","","","","","","","",""
"null","205047","SARL_v6","SARL_v6u5qsll51","641359b5040c453203e2c088","fixation","","","img/fixation.png","null","","","test","","","","","","","","","","","","","","","","","","","",""
"817.2000000476837","205868","SARL_v6","SARL_v6u5qsll51","641359b5040c453203e2c088","rl","","","img/black_2bandit_b2.png","74","","0","test","","","44","","","-5","circle","square","","0","2","","74","-5","-8","-5","-8","circle","2","0"
"null","206625","SARL_v6","SARL_v6u5qsll51","641359b5040c453203e2c088","feedback","","","<div class=""verylowPoints""> -5 </div>","null","","na","test","","","NaN","","","","","","","","2","","74","","","","","","2",""
"89.39999985694885","206718","SARL_v6","SARL_v6u5qsll51","641359b5040c453203e2c088","freq","","","img/blue_2bandit_b2.png","70","","70","test","1","","45","","","","circle","square","43","1","3","0.5581395348837209","","","","","","","",""
"null","207440","SARL_v6","SARL_v6u5qsll51","641359b5040c453203e2c088","freq_resp","","","img/blue_2bandit_b.png","70","img/blue_2bandit_b.png","70","test","","","","","","","","","","","3","","","","","","","","",""
"null","207597","SARL_v6","SARL_v6u5qsll51","641359b5040c453203e2c088","fixation","","","img/fixation.png","null","","","test","","","","","","","","","","","","","","","","","","","",""
"108.59999990463257","207708","SARL_v6","SARL_v6u5qsll51","641359b5040c453203e2c088","freq","","","img/blue_2bandit_b2.png","70","","70","test","1","","46","","","","circle","square","44","2","3","0.5681818181818182","","","","","","","",""
"null","208411","SARL_v6","SARL_v6u5qsll51","641359b5040c453203e2c088","freq_resp","","","img/blue_2bandit_b.png","70","img/blue_2bandit_b.png","70","test","","","","","","","","","","","3","","","","","","","","",""
"null","208580","SARL_v6","SARL_v6u5qsll51","641359b5040c453203e2c088","fixation","","","img/fixation.png","null","","","test","","","","","","","","","","","","","","","","","","","",""
"85.19999980926514","208668","SARL_v6","SARL_v6u5qsll51","641359b5040c453203e2c088","freq","","","img/blue_2bandit_b2.png","70","","70","test","1","","47","","","","circle","square","45","3","3","0.5777777777777777","","","","","","","",""
"null","209393","SARL_v6","SARL_v6u5qsll51","641359b5040c453203e2c088","freq_resp","","","img/blue_2bandit_b.png","70","img/blue_2bandit_b.png","70","test","","","","","","","","","","","3","","","","","","","","",""
"null","209547","SARL_v6","SARL_v6u5qsll51","641359b5040c453203e2c088","fixation","","","img/fixation.png","null","","","test","","","","","","","","","","","","","","","","","","","",""
"148.20000004768372","209698","SARL_v6","SARL_v6u5qsll51","641359b5040c453203e2c088","freq","","","img/blue_2bandit_b2.png","68","","70","test","0","","48","","","","circle","square","46","4","3","0.5652173913043478","","","","","","","",""
"null","210362","SARL_v6","SARL_v6u5qsll51","641359b5040c453203e2c088","freq_resp","","","img/blue_2bandit_b.png","68","img/blue_2bandit_b.png","70","test","","","","","","","","","","","3","","","","","","","","",""
"null","210528","SARL_v6","SARL_v6u5qsll51","641359b5040c453203e2c088","fixation","","","img/fixation.png","null","","","test","","","","","","","","","","","","","","","","","","","",""
"96.89999985694885","210628","SARL_v6","SARL_v6u5qsll51","641359b5040c453203e2c088","freq","","","img/blue_2bandit_b2.png","68","","70","test","0","","49","","","","circle","square","47","5","3","0.5531914893617021","","","","","","","",""
"null","211333","SARL_v6","SARL_v6u5qsll51","641359b5040c453203e2c088","freq_resp","","","img/blue_2bandit_b.png","68","img/blue_2bandit_b.png","70","test","","","","","","","","","","","3","","","","","","","","",""
"null","211487","SARL_v6","SARL_v6u5qsll51","641359b5040c453203e2c088","fixation","","","img/fixation.png","null","","","test","","","","","","","","","","","","","","","","","","","",""
"287.39999985694885","211778","SARL_v6","SARL_v6u5qsll51","641359b5040c453203e2c088","freq","","","img/blue_2bandit_b2.png","68","","70","test","0","","50","","","","circle","square","48","6","3","0.5416666666666666","","","","","","","",""
"null","212297","SARL_v6","SARL_v6u5qsll51","641359b5040c453203e2c088","freq_resp","","","img/blue_2bandit_b.png","68","img/blue_2bandit_b.png","70","test","","","","","","","","","","","3","","","","","","","","",""
"null","212462","SARL_v6","SARL_v6u5qsll51","641359b5040c453203e2c088","fixation","","","img/fixation.png","null","","","test","","","","","","","","","","","","","","","","","","","",""
"82.59999990463257","212547","SARL_v6","SARL_v6u5qsll51","641359b5040c453203e2c088","freq","","","img/blue_2bandit_b2.png","68","","70","test","0","","51","","","","circle","square","49","7","3","0.5306122448979592","","","","","","","",""
"null","213270","SARL_v6","SARL_v6u5qsll51","641359b5040c453203e2c088","freq_resp","","","img/blue_2bandit_b.png","68","img/blue_2bandit_b.png","70","test","","","","","","","","","","","3","","","","","","","","",""
"null","213429","SARL_v6","SARL_v6u5qsll51","641359b5040c453203e2c088","fixation","","","img/fixation.png","null","","","test","","","","","","","","","","","","","","","","","","","",""
"215.59999990463257","213648","SARL_v6","SARL_v6u5qsll51","641359b5040c453203e2c088","freq","","","img/blue_2bandit_b2.png","70","","70","test","1","","52","","","","circle","square","50","8","3","0.54","","","","","","","",""
"null","214249","SARL_v6","SARL_v6u5qsll51","641359b5040c453203e2c088","freq_resp","","","img/blue_2bandit_b.png","70","img/blue_2bandit_b.png","70","test","","","","","","","","","","","3","","","","","","","","",""
"null","214413","SARL_v6","SARL_v6u5qsll51","641359b5040c453203e2c088","fixation","","","img/fixation.png","null","","","test","","","","","","","","","","","","","","","","","","","",""
"103.79999995231628","214520","SARL_v6","SARL_v6u5qsll51","641359b5040c453203e2c088","infreq","","","img/orange_2bandit_b2.png","70","","68","test","0","","53","","","","circle","square","51","9","3","0.5294117647058824","","","","","","","",""
"null","215219","SARL_v6","SARL_v6u5qsll51","641359b5040c453203e2c088","infreq_resp","","","img/orange_2bandit_b.png","70","img/orange_2bandit_b.png","68","test","","","","","","","","","","","3","","","","","","","","",""
"null","215378","SARL_v6","SARL_v6u5qsll51","641359b5040c453203e2c088","fixation","","","img/fixation.png","null","","","test","","","","","","","","","","","","","","","","","","","",""
"157.20000004768372","215539","SARL_v6","SARL_v6u5qsll51","641359b5040c453203e2c088","freq","","","img/blue_2bandit_b2.png","70","","70","test","1","","54","","","","circle","square","52","10","3","0.5384615384615384","","","","","","","",""
"null","216195","SARL_v6","SARL_v6u5qsll51","641359b5040c453203e2c088","freq_resp","","","img/blue_2bandit_b.png","70","img/blue_2bandit_b.png","70","test","","","","","","","","","","","3","","","","","","","","",""
"null","216362","SARL_v6","SARL_v6u5qsll51","641359b5040c453203e2c088","fixation","","","img/fixation.png","null","","","test","","","","","","","","","","","","","","","","","","","",""
"73.10000014305115","216438","SARL_v6","SARL_v6u5qsll51","641359b5040c453203e2c088","freq","","","img/blue_2bandit_b2.png","70","","70","test","1","","55","","","","circle","square","53","11","3","0.5471698113207547","","","","","","","",""
"null","217169","SARL_v6","SARL_v6u5qsll51","641359b5040c453203e2c088","freq_resp","","","img/blue_2bandit_b.png","70","img/blue_2bandit_b.png","70","test","","","","","","","","","","","3","","","","","","","","",""
"null","217328","SARL_v6","SARL_v6u5qsll51","641359b5040c453203e2c088","fixation","","","img/fixation.png","null","","","test","","","","","","","","","","","","","","","","","","","",""
"148.60000014305115","217479","SARL_v6","SARL_v6u5qsll51","641359b5040c453203e2c088","infreq","","","img/orange_2bandit_b2.png","70","","68","test","0","","56","","","","circle","square","54","12","3","0.5370370370370371","","","","","","","",""
"null","218143","SARL_v6","SARL_v6u5qsll51","641359b5040c453203e2c088","infreq_resp","","","img/orange_2bandit_b.png","70","img/orange_2bandit_b.png","68","test","","","","","","","","","","","3","","","","","","","","",""
"null","218310","SARL_v6","SARL_v6u5qsll51","641359b5040c453203e2c088","fixation","","","img/fixation.png","null","","","test","","","","","","","","","","","","","","","","","","","",""
"135.10000014305115","218447","SARL_v6","SARL_v6u5qsll51","641359b5040c453203e2c088","freq","","","img/blue_2bandit_b2.png","70","","70","test","1","","57","","","","circle","square","55","13","3","0.5454545454545454","","","","","","","",""
"null","219125","SARL_v6","SARL_v6u5qsll51","641359b5040c453203e2c088","freq_resp","","","img/blue_2bandit_b.png","70","img/blue_2bandit_b.png","70","test","","","","","","","","","","","3","","","","","","","","",""
"null","219293","SARL_v6","SARL_v6u5qsll51","641359b5040c453203e2c088","fixation","","","img/fixation.png","null","","","test","","","","","","","","","","","","","","","","","","","",""
"121.79999995231628","219418","SARL_v6","SARL_v6u5qsll51","641359b5040c453203e2c088","freq","","","img/blue_2bandit_b2.png","70","","70","test","1","","58","","","","circle","square","56","14","3","0.5535714285714286","","","","","","","",""
"null","220106","SARL_v6","SARL_v6u5qsll51","641359b5040c453203e2c088","freq_resp","","","img/blue_2bandit_b.png","70","img/blue_2bandit_b.png","70","test","","","","","","","","","","","3","","","","","","","","",""
"null","220260","SARL_v6","SARL_v6u5qsll51","641359b5040c453203e2c088","fixation","","","img/fixation.png","null","","","test","","","","","","","","","","","","","","","","","","","",""
"176.90000009536743","220440","SARL_v6","SARL_v6u5qsll51","641359b5040c453203e2c088","freq","","","img/blue_2bandit_b2.png","70","","70","test","1","","59","","","","circle","square","57","15","3","0.5614035087719298","","","","","","","",""
"null","221080","SARL_v6","SARL_v6u5qsll51","641359b5040c453203e2c088","freq_resp","","","img/blue_2bandit_b.png","70","img/blue_2bandit_b.png","70","test","","","","","","","","","","","3","","","","","","","","",""
"null","221244","SARL_v6","SARL_v6u5qsll51","641359b5040c453203e2c088","fixation","","","img/fixation.png","null","","","test","","","","","","","","","","","","","","","","","","","",""
"21","221268","SARL_v6","SARL_v6u5qsll51","641359b5040c453203e2c088","freq","","","img/blue_2bandit_b2.png","68","","70","test","0","","60","","","","circle","square","58","16","3","0.5517241379310345","","","","","","","",""
"null","222066","SARL_v6","SARL_v6u5qsll51","641359b5040c453203e2c088","freq_resp","","","img/blue_2bandit_b.png","68","img/blue_2bandit_b.png","70","test","","","","","","","","","","","3","","","","","","","","",""
"null","222227","SARL_v6","SARL_v6u5qsll51","641359b5040c453203e2c088","fixation","","","img/fixation.png","null","","","test","","","","","","","","","","","","","","","","","","","",""
"77.60000014305115","222308","SARL_v6","SARL_v6u5qsll51","641359b5040c453203e2c088","freq","","","img/blue_2bandit_b2.png","68","","70","test","0","","61","","","","circle","square","59","17","3","0.5423728813559322","","","","","","","",""
"null","223033","SARL_v6","SARL_v6u5qsll51","641359b5040c453203e2c088","freq_resp","","","img/blue_2bandit_b.png","68","img/blue_2bandit_b.png","70","test","","","","","","","","","","","3","","","","","","","","",""
"null","223192","SARL_v6","SARL_v6u5qsll51","641359b5040c453203e2c088","fixation","","","img/fixation.png","null","","","test","","","","","","","","","","","","","","","","","","","",""
"123","223318","SARL_v6","SARL_v6u5qsll51","641359b5040c453203e2c088","freq","","","img/blue_2bandit_b2.png","68","","70","test","0","","62","","","","circle","square","60","18","3","0.5333333333333333","","","","","","","",""
"null","224008","SARL_v6","SARL_v6u5qsll51","641359b5040c453203e2c088","freq_resp","","","img/blue_2bandit_b.png","68","img/blue_2bandit_b.png","70","test","","","","","","","","","","","3","","","","","","","","",""
"null","224175","SARL_v6","SARL_v6u5qsll51","641359b5040c453203e2c088","fixation","","","img/fixation.png","null","","","test","","","","","","","","","","","","","","","","","","","",""
"61.10000014305115","224239","SARL_v6","SARL_v6u5qsll51","641359b5040c453203e2c088","freq","","","img/blue_2bandit_b2.png","68","","70","test","0","","63","","","","circle","square","61","19","3","0.5245901639344263","","","","","","","",""
"null","224986","SARL_v6","SARL_v6u5qsll51","641359b5040c453203e2c088","freq_resp","","","img/blue_2bandit_b.png","68","img/blue_2bandit_b.png","70","test","","","","","","","","","","","3","","","","","","","","",""
"null","225142","SARL_v6","SARL_v6u5qsll51","641359b5040c453203e2c088","fixation","","","img/fixation.png","null","","","test","","","","","","","","","","","","","","","","","","","",""
"153.60000014305115","225298","SARL_v6","SARL_v6u5qsll51","641359b5040c453203e2c088","freq","","","img/blue_2bandit_b2.png","68","","70","test","0","","64","","","","circle","square","62","20","3","0.5161290322580645","","","","","","","",""
"null","225958","SARL_v6","SARL_v6u5qsll51","641359b5040c453203e2c088","freq_resp","","","img/blue_2bandit_b.png","68","img/blue_2bandit_b.png","70","test","","","","","","","","","","","3","","","","","","","","",""
"null","226125","SARL_v6","SARL_v6u5qsll51","641359b5040c453203e2c088","fixation","","","img/fixation.png","null","","","test","","","","","","","","","","","","","","","","","","","",""
"62.40000009536743","226190","SARL_v6","SARL_v6u5qsll51","641359b5040c453203e2c088","freq","","","img/blue_2bandit_b2.png","70","","70","test","1","","65","","","","circle","square","63","21","3","0.5238095238095238","","","","","","","",""
"null","226943","SARL_v6","SARL_v6u5qsll51","641359b5040c453203e2c088","freq_resp","","","img/blue_2bandit_b.png","70","img/blue_2bandit_b.png","70","test","","","","","","","","","","","3","","","","","","","","",""
"null","227107","SARL_v6","SARL_v6u5qsll51","641359b5040c453203e2c088","fixation","","","img/fixation.png","null","","","test","","","","","","","","","","","","","","","","","","","",""
"27.399999856948853","227138","SARL_v6","SARL_v6u5qsll51","641359b5040c453203e2c088","freq","","","img/blue_2bandit_b2.png","68","","70","test","0","","66","","","","circle","square","64","22","3","0.515625","","","","","","","",""
"null","227917","SARL_v6","SARL_v6u5qsll51","641359b5040c453203e2c088","freq_resp","","","img/blue_2bandit_b.png","68","img/blue_2bandit_b.png","70","test","","","","","","","","","","","3","","","","","","","","",""
"null","228075","SARL_v6","SARL_v6u5qsll51","641359b5040c453203e2c088","fixation","","","img/fixation.png","null","","","test","","","","","","","","","","","","","","","","","","","",""
"9.900000095367432","228087","SARL_v6","SARL_v6u5qsll51","641359b5040c453203e2c088","freq","","","img/blue_2bandit_b2.png","68","","70","test","0","","67","","","","circle","square","65","23","3","0.5076923076923077","","","","","","","",""
"null","228893","SARL_v6","SARL_v6u5qsll51","641359b5040c453203e2c088","freq_resp","","","img/blue_2bandit_b.png","68","img/blue_2bandit_b.png","70","test","","","","","","","","","","","3","","","","","","","","",""
"null","229056","SARL_v6","SARL_v6u5qsll51","641359b5040c453203e2c088","fixation","","","img/fixation.png","null","","","test","","","","","","","","","","","","","","","","","","","",""
"null","230563","SARL_v6","SARL_v6u5qsll51","641359b5040c453203e2c088","rl","","","img/black_2bandit_b2.png","null","","0","test","","","68","","","0","circle","square","","0","3","","null","-4","-8","-4","-8","too slow","3","0"
"null","231320","SARL_v6","SARL_v6u5qsll51","641359b5040c453203e2c088","feedback","","","<div font size = 80> TOO SLOW  </div>","null","","na","test","","","NaN","","","","","","","","3","","null","","","","","","3",""
"null","232130","SARL_v6","SARL_v6u5qsll51","641359b5040c453203e2c088","freq","","","img/blue_2bandit_b2.png","null","","70","test","0","","69","","","","circle","square","66","1","4","0.5","","","","","","","",""
"null","232290","SARL_v6","SARL_v6u5qsll51","641359b5040c453203e2c088","fixation","","","img/fixation.png","null","","","test","","","","","","","","","","","","","","","","","","","",""
"124.69999980926514","232418","SARL_v6","SARL_v6u5qsll51","641359b5040c453203e2c088","freq","","","img/blue_2bandit_b2.png","68","","70","test","0","","70","","","","circle","square","67","2","4","0.4925373134328358","","","","","","","",""
"null","233111","SARL_v6","SARL_v6u5qsll51","641359b5040c453203e2c088","freq_resp","","","img/blue_2bandit_b.png","68","img/blue_2bandit_b.png","70","test","","","","","","","","","","","4","","","","","","","","",""
"null","233272","SARL_v6","SARL_v6u5qsll51","641359b5040c453203e2c088","fixation","","","img/fixation.png","null","","","test","","","","","","","","","","","","","","","","","","","",""
"203.29999995231628","233479","SARL_v6","SARL_v6u5qsll51","641359b5040c453203e2c088","freq","","","img/blue_2bandit_b2.png","70","","70","test","1","","71","","","","circle","square","68","3","4","0.5","","","","","","","",""
"null","234092","SARL_v6","SARL_v6u5qsll51","641359b5040c453203e2c088","freq_resp","","","img/blue_2bandit_b.png","70","img/blue_2bandit_b.png","70","test","","","","","","","","","","","4","","","","","","","","",""
"null","234255","SARL_v6","SARL_v6u5qsll51","641359b5040c453203e2c088","fixation","","","img/fixation.png","null","","","test","","","","","","","","","","","","","","","","","","","",""
"179.29999995231628","234437","SARL_v6","SARL_v6u5qsll51","641359b5040c453203e2c088","infreq","","","img/orange_2bandit_b2.png","70","","68","test","0","","72","","","","circle","square","69","4","4","0.4927536231884058","","","","","","","",""
"null","235061","SARL_v6","SARL_v6u5qsll51","641359b5040c453203e2c088","infreq_resp","","","img/orange_2bandit_b.png","70","img/orange_2bandit_b.png","68","test","","","","","","","","","","","4","","","","","","","","",""
"null","235222","SARL_v6","SARL_v6u5qsll51","641359b5040c453203e2c088","fixation","","","img/fixation.png","null","","","test","","","","","","","","","","","","","","","","","","","",""
"102.79999995231628","235327","SARL_v6","SARL_v6u5qsll51","641359b5040c453203e2c088","freq","","","img/blue_2bandit_b2.png","70","","70","test","1","","73","","","","circle","square","70","5","4","0.5","","","","","","","",""
"null","236030","SARL_v6","SARL_v6u5qsll51","641359b5040c453203e2c088","freq_resp","","","img/blue_2bandit_b.png","70","img/blue_2bandit_b.png","70","test","","","","","","","","","","","4","","","","","","","","",""
"null","236189","SARL_v6","SARL_v6u5qsll51","641359b5040c453203e2c088","fixation","","","img/fixation.png","null","","","test","","","","","","","","","","","","","","","","","","","",""
"98.79999995231628","236291","SARL_v6","SARL_v6u5qsll51","641359b5040c453203e2c088","freq","","","img/blue_2bandit_b2.png","68","","70","test","0","","74","","","","circle","square","71","6","4","0.49295774647887325","","","","","","","",""
"null","237002","SARL_v6","SARL_v6u5qsll51","641359b5040c453203e2c088","freq_resp","","","img/blue_2bandit_b.png","68","img/blue_2bandit_b.png","70","test","","","","","","","","","","","4","","","","","","","","",""
"null","237167","SARL_v6","SARL_v6u5qsll51","641359b5040c453203e2c088","fixation","","","img/fixation.png","null","","","test","","","","","","","","","","","","","","","","","","","",""
"0.10000014305114746","237170","SARL_v6","SARL_v6u5qsll51","641359b5040c453203e2c088","freq","","","img/blue_2bandit_b2.png","68","","70","test","0","","75","","","","circle","square","72","7","4","0.4861111111111111","","","","","","","",""
"null","237977","SARL_v6","SARL_v6u5qsll51","641359b5040c453203e2c088","freq_resp","","","img/blue_2bandit_b.png","68","img/blue_2bandit_b.png","70","test","","","","","","","","","","","4","","","","","","","","",""
"null","238138","SARL_v6","SARL_v6u5qsll51","641359b5040c453203e2c088","fixation","","","img/fixation.png","null","","","test","","","","","","","","","","","","","","","","","","","",""
"97.29999995231628","238238","SARL_v6","SARL_v6u5qsll51","641359b5040c453203e2c088","freq","","","img/blue_2bandit_b2.png","70","","70","test","1","","76","","","","circle","square","73","8","4","0.4931506849315068","","","","","","","",""
"null","238948","SARL_v6","SARL_v6u5qsll51","641359b5040c453203e2c088","freq_resp","","","img/blue_2bandit_b.png","70","img/blue_2bandit_b.png","70","test","","","","","","","","","","","4","","","","","","","","",""
"null","239104","SARL_v6","SARL_v6u5qsll51","641359b5040c453203e2c088","fixation","","","img/fixation.png","null","","","test","","","","","","","","","","","","","","","","","","","",""
"1.6999998092651367","239109","SARL_v6","SARL_v6u5qsll51","641359b5040c453203e2c088","freq","","","img/blue_2bandit_b2.png","68","","70","test","0","","77","","","","circle","square","74","9","4","0.4864864864864865","","","","","","","",""
"null","239911","SARL_v6","SARL_v6u5qsll51","641359b5040c453203e2c088","freq_resp","","","img/blue_2bandit_b.png","68","img/blue_2bandit_b.png","70","test","","","","","","","","","","","4","","","","","","","","",""
"null","240070","SARL_v6","SARL_v6u5qsll51","641359b5040c453203e2c088","fixation","","","img/fixation.png","null","","","test","","","","","","","","","","","","","","","","","","","",""
"215.30000019073486","240288","SARL_v6","SARL_v6u5qsll51","641359b5040c453203e2c088","freq","","","img/blue_2bandit_b2.png","68","","70","test","0","","78","","","","circle","square","75","10","4","0.48","","","","","","","",""
"null","240891","SARL_v6","SARL_v6u5qsll51","641359b5040c453203e2c088","freq_resp","","","img/blue_2bandit_b.png","68","img/blue_2bandit_b.png","70","test","","","","","","","","","","","4","","","","","","","","",""
"null","241054","SARL_v6","SARL_v6u5qsll51","641359b5040c453203e2c088","fixation","","","img/fixation.png","null","","","test","","","","","","","","","","","","","","","","","","","",""
"12.799999952316284","241070","SARL_v6","SARL_v6u5qsll51","641359b5040c453203e2c088","freq","","","img/blue_2bandit_b2.png","68","","70","test","0","","79","","","","circle","square","76","11","4","0.47368421052631576","","","","","","","",""
"null","241862","SARL_v6","SARL_v6u5qsll51","641359b5040c453203e2c088","freq_resp","","","img/blue_2bandit_b.png","68","img/blue_2bandit_b.png","70","test","","","","","","","","","","","4","","","","","","","","",""
"null","242020","SARL_v6","SARL_v6u5qsll51","641359b5040c453203e2c088","fixation","","","img/fixation.png","null","","","test","","","","","","","","","","","","","","","","","","","",""
"37.799999952316284","242061","SARL_v6","SARL_v6u5qsll51","641359b5040c453203e2c088","freq","","","img/blue_2bandit_b2.png","68","","70","test","0","","80","","","","circle","square","77","12","4","0.4675324675324675","","","","","","","",""
"null","242826","SARL_v6","SARL_v6u5qsll51","641359b5040c453203e2c088","freq_resp","","","img/blue_2bandit_b.png","68","img/blue_2bandit_b.png","70","test","","","","","","","","","","","4","","","","","","","","",""
"null","242987","SARL_v6","SARL_v6u5qsll51","641359b5040c453203e2c088","fixation","","","img/fixation.png","null","","","test","","","","","","","","","","","","","","","","","","","",""
"278.7999999523163","243268","SARL_v6","SARL_v6u5qsll51","641359b5040c453203e2c088","freq","","","img/blue_2bandit_b2.png","68","","70","test","0","","81","","","","circle","square","78","13","4","0.46153846153846156","","","","","","","",""
"null","243803","SARL_v6","SARL_v6u5qsll51","641359b5040c453203e2c088","freq_resp","","","img/blue_2bandit_b.png","68","img/blue_2bandit_b.png","70","test","","","","","","","","","","","4","","","","","","","","",""
"null","243968","SARL_v6","SARL_v6u5qsll51","641359b5040c453203e2c088","fixation","","","img/fixation.png","null","","","test","","","","","","","","","","","","","","","","","","","",""
"58.799999952316284","244029","SARL_v6","SARL_v6u5qsll51","641359b5040c453203e2c088","freq","","","img/blue_2bandit_b2.png","70","","70","test","1","","82","","","","circle","square","79","14","4","0.46835443037974683","","","","","","","",""
"null","244780","SARL_v6","SARL_v6u5qsll51","641359b5040c453203e2c088","freq_resp","","","img/blue_2bandit_b.png","70","img/blue_2bandit_b.png","70","test","","","","","","","","","","","4","","","","","","","","",""
"null","244935","SARL_v6","SARL_v6u5qsll51","641359b5040c453203e2c088","fixation","","","img/fixation.png","null","","","test","","","","","","","","","","","","","","","","","","","",""
"141.5","245080","SARL_v6","SARL_v6u5qsll51","641359b5040c453203e2c088","freq","","","img/blue_2bandit_b2.png","68","","70","test","0","","83","","","","circle","square","80","15","4","0.4625","","","","","","","",""
"null","245748","SARL_v6","SARL_v6u5qsll51","641359b5040c453203e2c088","freq_resp","","","img/blue_2bandit_b.png","68","img/blue_2bandit_b.png","70","test","","","","","","","","","","","4","","","","","","","","",""
"null","245902","SARL_v6","SARL_v6u5qsll51","641359b5040c453203e2c088","fixation","","","img/fixation.png","null","","","test","","","","","","","","","","","","","","","","","","","",""
"144","246050","SARL_v6","SARL_v6u5qsll51","641359b5040c453203e2c088","freq","","","img/blue_2bandit_b2.png","68","","70","test","0","","84","","","","circle","square","81","16","4","0.4567901234567901","","","","","","","",""
"null","246716","SARL_v6","SARL_v6u5qsll51","641359b5040c453203e2c088","freq_resp","","","img/blue_2bandit_b.png","68","img/blue_2bandit_b.png","70","test","","","","","","","","","","","4","","","","","","","","",""
"null","246884","SARL_v6","SARL_v6u5qsll51","641359b5040c453203e2c088","fixation","","","img/fixation.png","null","","","test","","","","","","","","","","","","","","","","","","","",""
"112","246999","SARL_v6","SARL_v6u5qsll51","641359b5040c453203e2c088","infreq","","","img/orange_2bandit_b2.png","70","","68","test","0","","85","","","","circle","square","82","17","4","0.45121951219512196","","","","","","","",""
"null","247695","SARL_v6","SARL_v6u5qsll51","641359b5040c453203e2c088","infreq_resp","","","img/orange_2bandit_b.png","70","img/orange_2bandit_b.png","68","test","","","","","","","","","","","4","","","","","","","","",""
"null","247851","SARL_v6","SARL_v6u5qsll51","641359b5040c453203e2c088","fixation","","","img/fixation.png","null","","","test","","","","","","","","","","","","","","","","","","","",""
"null","248670","SARL_v6","SARL_v6u5qsll51","641359b5040c453203e2c088","freq","","","img/blue_2bandit_b2.png","null","","70","test","0","","86","","","","circle","square","83","18","4","0.4457831325301205","","","","","","","",""
"null","248834","SARL_v6","SARL_v6u5qsll51","641359b5040c453203e2c088","fixation","","","img/fixation.png","null","","","test","","","","","","","","","","","","","","","","","","","",""
"null","249641","SARL_v6","SARL_v6u5qsll51","641359b5040c453203e2c088","freq","","","img/blue_2bandit_b2.png","null","","70","test","0","","87","","","","circle","square","84","19","4","0.44047619047619047","","","","","","","",""
"null","249801","SARL_v6","SARL_v6u5qsll51","641359b5040c453203e2c088","fixation","","","img/fixation.png","null","","","test","","","","","","","","","","","","","","","","","","","",""
"null","250626","SARL_v6","SARL_v6u5qsll51","641359b5040c453203e2c088","freq","","","img/blue_2bandit_b2.png","null","","70","test","0","","88","","","","circle","square","85","20","4","0.43529411764705883","","","","","","","",""
"null","250786","SARL_v6","SARL_v6u5qsll51","641359b5040c453203e2c088","fixation","","","img/fixation.png","null","","","test","","","","","","","","","","","","","","","","","","","",""
"null","251603","SARL_v6","SARL_v6u5qsll51","641359b5040c453203e2c088","freq","","","img/blue_2bandit_b2.png","null","","70","test","0","","89","","","","circle","square","86","21","4","0.43023255813953487","","","","","","","",""
"null","251766","SARL_v6","SARL_v6u5qsll51","641359b5040c453203e2c088","fixation","","","img/fixation.png","null","","","test","","","","","","","","","","","","","","","","","","","",""
"null","252584","SARL_v6","SARL_v6u5qsll51","641359b5040c453203e2c088","freq","","","img/blue_2bandit_b2.png","null","","70","test","0","","90","","","","circle","square","87","22","4","0.42528735632183906","","","","","","","",""
"null","252749","SARL_v6","SARL_v6u5qsll51","641359b5040c453203e2c088","fixation","","","img/fixation.png","null","","","test","","","","","","","","","","","","","","","","","","","",""
"null","254255","SARL_v6","SARL_v6u5qsll51","641359b5040c453203e2c088","rl","","","img/black_2bandit_b2.png","null","","0","test","","","91","","","0","circle","square","","0","4","","null","0","-12","0","-12","too slow","4","1"
"null","255021","SARL_v6","SARL_v6u5qsll51","641359b5040c453203e2c088","feedback","","","<div font size = 80> TOO SLOW  </div>","null","","na","test","","","NaN","","","","","","","","4","","null","","","","","","4",""
"null","255839","SARL_v6","SARL_v6u5qsll51","641359b5040c453203e2c088","freq","","","img/blue_2bandit_b2.png","null","","70","test","0","","92","","","","circle","square","88","1","5","0.42045454545454547","","","","","","","",""
"null","255999","SARL_v6","SARL_v6u5qsll51","641359b5040c453203e2c088","fixation","","","img/fixation.png","null","","","test","","","","","","","","","","","","","","","","","","","",""
"null","256817","SARL_v6","SARL_v6u5qsll51","641359b5040c453203e2c088","freq","","","img/blue_2bandit_b2.png","null","","70","test","0","","93","","","","circle","square","89","2","5","0.4157303370786517","","","","","","","",""
"null","256981","SARL_v6","SARL_v6u5qsll51","641359b5040c453203e2c088","fixation","","","img/fixation.png","null","","","test","","","","","","","","","","","","","","","","","","","",""
"null","257788","SARL_v6","SARL_v6u5qsll51","641359b5040c453203e2c088","freq","","","img/blue_2bandit_b2.png","null","","70","test","0","","94","","","","circle","square","90","3","5","0.4111111111111111","","","","","","","",""
"null","257948","SARL_v6","SARL_v6u5qsll51","641359b5040c453203e2c088","fixation","","","img/fixation.png","null","","","test","","","","","","","","","","","","","","","","","","","",""
"null","258755","SARL_v6","SARL_v6u5qsll51","641359b5040c453203e2c088","freq","","","img/blue_2bandit_b2.png","null","","70","test","0","","95","","","","circle","square","91","4","5","0.4065934065934066","","","","","","","",""
"null","258915","SARL_v6","SARL_v6u5qsll51","641359b5040c453203e2c088","fixation","","","img/fixation.png","null","","","test","","","","","","","","","","","","","","","","","","","",""
"null","259721","SARL_v6","SARL_v6u5qsll51","641359b5040c453203e2c088","freq","","","img/blue_2bandit_b2.png","null","","70","test","0","","96","","","","circle","square","92","5","5","0.40217391304347827","","","","","","","",""
"null","259881","SARL_v6","SARL_v6u5qsll51","641359b5040c453203e2c088","fixation","","","img/fixation.png","null","","","test","","","","","","","","","","","","","","","","","","","",""
"null","260687","SARL_v6","SARL_v6u5qsll51","641359b5040c453203e2c088","freq","","","img/blue_2bandit_b2.png","null","","70","test","0","","97","","","","circle","square","93","6","5","0.3978494623655914","","","","","","","",""
"null","260848","SARL_v6","SARL_v6u5qsll51","641359b5040c453203e2c088","fixation","","","img/fixation.png","null","","","test","","","","","","","","","","","","","","","","","","","",""
"null","261665","SARL_v6","SARL_v6u5qsll51","641359b5040c453203e2c088","freq","","","img/blue_2bandit_b2.png","null","","70","test","0","","98","","","","circle","square","94","7","5","0.39361702127659576","","","","","","","",""
"null","261829","SARL_v6","SARL_v6u5qsll51","641359b5040c453203e2c088","fixation","","","img/fixation.png","null","","","test","","","","","","","","","","","","","","","","","","","",""
"null","262636","SARL_v6","SARL_v6u5qsll51","641359b5040c453203e2c088","freq","","","img/blue_2bandit_b2.png","null","","70","test","0","","99","","","","circle","square","95","8","5","0.3894736842105263","","","","","","","",""
"null","262798","SARL_v6","SARL_v6u5qsll51","641359b5040c453203e2c088","fixation","","","img/fixation.png","null","","","test","","","","","","","","","","","","","","","","","","","",""
"null","263618","SARL_v6","SARL_v6u5qsll51","641359b5040c453203e2c088","freq","","","img/blue_2bandit_b2.png","null","","70","test","0","","100","","","","circle","square","96","9","5","0.3854166666666667","","","","","","","",""
"null","263780","SARL_v6","SARL_v6u5qsll51","641359b5040c453203e2c088","fixation","","","img/fixation.png","null","","","test","","","","","","","","","","","","","","","","","","","",""
"null","264586","SARL_v6","SARL_v6u5qsll51","641359b5040c453203e2c088","freq","","","img/blue_2bandit_b2.png","null","","70","test","0","","101","","","","circle","square","97","10","5","0.38144329896907214","","","","","","","",""
"null","264746","SARL_v6","SARL_v6u5qsll51","641359b5040c453203e2c088","fixation","","","img/fixation.png","null","","","test","","","","","","","","","","","","","","","","","","","",""
"null","265564","SARL_v6","SARL_v6u5qsll51","641359b5040c453203e2c088","freq","","","img/blue_2bandit_b2.png","null","","70","test","0","","102","","","","circle","square","98","11","5","0.37755102040816324","","","","","","","",""
"null","265728","SARL_v6","SARL_v6u5qsll51","641359b5040c453203e2c088","fixation","","","img/fixation.png","null","","","test","","","","","","","","","","","","","","","","","","","",""
"null","266531","SARL_v6","SARL_v6u5qsll51","641359b5040c453203e2c088","freq","","","img/blue_2bandit_b2.png","null","","70","test","0","","103","","","","circle","square","99","12","5","0.37373737373737376","","","","","","","",""
"null","266694","SARL_v6","SARL_v6u5qsll51","641359b5040c453203e2c088","fixation","","","img/fixation.png","null","","","test","","","","","","","","","","","","","","","","","","","",""
"null","267498","SARL_v6","SARL_v6u5qsll51","641359b5040c453203e2c088","freq","","","img/blue_2bandit_b2.png","null","","70","test","0","","104","","","","circle","square","100","13","5","0.37","","","","","","","",""
"null","267657","SARL_v6","SARL_v6u5qsll51","641359b5040c453203e2c088","fixation","","","img/fixation.png","null","","","test","","","","","","","","","","","","","","","","","","","",""
"null","268468","SARL_v6","SARL_v6u5qsll51","641359b5040c453203e2c088","freq","","","img/blue_2bandit_b2.png","null","","70","test","0","","105","","","","circle","square","101","14","5","0.36633663366336633","","","","","","","",""
"null","268629","SARL_v6","SARL_v6u5qsll51","641359b5040c453203e2c088","fixation","","","img/fixation.png","null","","","test","","","","","","","","","","","","","","","","","","","",""
"null","269447","SARL_v6","SARL_v6u5qsll51","641359b5040c453203e2c088","freq","","","img/blue_2bandit_b2.png","null","","70","test","0","","106","","","","circle","square","102","15","5","0.3627450980392157","","","","","","","",""
"null","269610","SARL_v6","SARL_v6u5qsll51","641359b5040c453203e2c088","fixation","","","img/fixation.png","null","","","test","","","","","","","","","","","","","","","","","","","",""
"null","270418","SARL_v6","SARL_v6u5qsll51","641359b5040c453203e2c088","freq","","","img/blue_2bandit_b2.png","null","","70","test","0","","107","","","","circle","square","103","16","5","0.3592233009708738","","","","","","","",""
"null","270578","SARL_v6","SARL_v6u5qsll51","641359b5040c453203e2c088","fixation","","","img/fixation.png","null","","","test","","","","","","","","","","","","","","","","","","","",""
"null","271384","SARL_v6","SARL_v6u5qsll51","641359b5040c453203e2c088","infreq","","","img/orange_2bandit_b2.png","null","","68","test","0","","108","","","","circle","square","104","17","5","0.3557692307692308","","","","","","","",""
"null","271544","SARL_v6","SARL_v6u5qsll51","641359b5040c453203e2c088","fixation","","","img/fixation.png","null","","","test","","","","","","","","","","","","","","","","","","","",""
"null","272350","SARL_v6","SARL_v6u5qsll51","641359b5040c453203e2c088","infreq","","","img/orange_2bandit_b2.png","null","","68","test","0","","109","","","","circle","square","105","18","5","0.3523809523809524","","","","","","","",""
"null","272510","SARL_v6","SARL_v6u5qsll51","641359b5040c453203e2c088","fixation","","","img/fixation.png","null","","","test","","","","","","","","","","","","","","","","","","","",""
"null","273317","SARL_v6","SARL_v6u5qsll51","641359b5040c453203e2c088","freq","","","img/blue_2bandit_b2.png","null","","70","test","0","","110","","","","circle","square","106","19","5","0.3490566037735849","","","","","","","",""
"null","273477","SARL_v6","SARL_v6u5qsll51","641359b5040c453203e2c088","fixation","","","img/fixation.png","null","","","test","","","","","","","","","","","","","","","","","","","",""
"null","274284","SARL_v6","SARL_v6u5qsll51","641359b5040c453203e2c088","infreq","","","img/orange_2bandit_b2.png","null","","68","test","0","","111","","","","circle","square","107","20","5","0.34579439252336447","","","","","","","",""
"null","274443","SARL_v6","SARL_v6u5qsll51","641359b5040c453203e2c088","fixation","","","img/fixation.png","null","","","test","","","","","","","","","","","","","","","","","","","",""
"null","275256","SARL_v6","SARL_v6u5qsll51","641359b5040c453203e2c088","freq","","","img/blue_2bandit_b2.png","null","","70","test","0","","112","","","","circle","square","108","21","5","0.3425925925925926","","","","","","","",""
"null","275426","SARL_v6","SARL_v6u5qsll51","641359b5040c453203e2c088","fixation","","","img/fixation.png","null","","","test","","","","","","","","","","","","","","","","","","","",""
"null","276244","SARL_v6","SARL_v6u5qsll51","641359b5040c453203e2c088","freq","","","img/blue_2bandit_b2.png","null","","70","test","0","","113","","","","circle","square","109","22","5","0.3394495412844037","","","","","","","",""
"null","276410","SARL_v6","SARL_v6u5qsll51","641359b5040c453203e2c088","fixation","","","img/fixation.png","null","","","test","","","","","","","","","","","","","","","","","","","",""
"null","277230","SARL_v6","SARL_v6u5qsll51","641359b5040c453203e2c088","freq","","","img/blue_2bandit_b2.png","null","","70","test","0","","114","","","","circle","square","110","23","5","0.33636363636363636","","","","","","","",""
"null","277392","SARL_v6","SARL_v6u5qsll51","641359b5040c453203e2c088","fixation","","","img/fixation.png","null","","","test","","","","","","","","","","","","","","","","","","","",""
"null","278199","SARL_v6","SARL_v6u5qsll51","641359b5040c453203e2c088","freq","","","img/blue_2bandit_b2.png","null","","70","test","0","","115","","","","circle","square","111","24","5","0.3333333333333333","","","","","","","",""
"null","278359","SARL_v6","SARL_v6u5qsll51","641359b5040c453203e2c088","fixation","","","img/fixation.png","null","","","test","","","","","","","","","","","","","","","","","","","",""
"null","279165","SARL_v6","SARL_v6u5qsll51","641359b5040c453203e2c088","freq","","","img/blue_2bandit_b2.png","null","","70","test","0","","116","","","","circle","square","112","25","5","0.33035714285714285","","","","","","","",""
"null","279325","SARL_v6","SARL_v6u5qsll51","641359b5040c453203e2c088","fixation","","","img/fixation.png","null","","","test","","","","","","","","","","","","","","","","","","","",""
"null","280835","SARL_v6","SARL_v6u5qsll51","641359b5040c453203e2c088","rl","","","img/black_2bandit_b2.png","null","","0","test","","","117","","","0","circle","square","","0","5","","null","4","-7","4","-7","too slow","5","1"
"null","281600","SARL_v6","SARL_v6u5qsll51","641359b5040c453203e2c088","feedback","","","<div font size = 80> TOO SLOW  </div>","null","","na","test","","","NaN","","","","","","","","5","","null","","","","","","5",""
"33699.59999990463","315302","SARL_v6","SARL_v6u5qsll51","641359b5040c453203e2c088","","","","","","","","test","","","","","","","","","","","","","","","","","","","",""
"null","316120","SARL_v6","SARL_v6u5qsll51","641359b5040c453203e2c088","freq","","","img/blue_2bandit_b2.png","null","","70","test","0","","118","","","","circle","square","113","1","6","0.3274336283185841","","","","","","","",""
"null","316280","SARL_v6","SARL_v6u5qsll51","641359b5040c453203e2c088","fixation","","","img/fixation.png","null","","","test","","","","","","","","","","","","","","","","","","","",""
"99.09999990463257","316382","SARL_v6","SARL_v6u5qsll51","641359b5040c453203e2c088","freq","","","img/blue_2bandit_b2.png","68","","70","test","0","","119","","","","circle","square","114","2","6","0.32456140350877194","","","","","","","",""
"null","317088","SARL_v6","SARL_v6u5qsll51","641359b5040c453203e2c088","freq_resp","","","img/blue_2bandit_b.png","68","img/blue_2bandit_b.png","70","test","","","","","","","","","","","6","","","","","","","","",""
"null","317247","SARL_v6","SARL_v6u5qsll51","641359b5040c453203e2c088","fixation","","","img/fixation.png","null","","","test","","","","","","","","","","","","","","","","","","","",""
"11","317261","SARL_v6","SARL_v6u5qsll51","641359b5040c453203e2c088","freq","","","img/blue_2bandit_b2.png","68","","70","test","0","","120","","","","circle","square","115","3","6","0.3217391304347826","","","","","","","",""
"null","318060","SARL_v6","SARL_v6u5qsll51","641359b5040c453203e2c088","freq_resp","","","img/blue_2bandit_b.png","68","img/blue_2bandit_b.png","70","test","","","","","","","","","","","6","","","","","","","","",""
"null","318216","SARL_v6","SARL_v6u5qsll51","641359b5040c453203e2c088","fixation","","","img/fixation.png","null","","","test","","","","","","","","","","","","","","","","","","","",""
"64.59999990463257","318284","SARL_v6","SARL_v6u5qsll51","641359b5040c453203e2c088","freq","","","img/blue_2bandit_b2.png","70","","70","test","1","","121","","","","circle","square","116","4","6","0.3275862068965517","","","","","","","",""
"null","319024","SARL_v6","SARL_v6u5qsll51","641359b5040c453203e2c088","freq_resp","","","img/blue_2bandit_b.png","70","img/blue_2bandit_b.png","70","test","","","","","","","","","","","6","","","","","","","","",""
"null","319179","SARL_v6","SARL_v6u5qsll51","641359b5040c453203e2c088","fixation","","","img/fixation.png","null","","","test","","","","","","","","","","","","","","","","","","","",""
"138.39999985694885","319320","SARL_v6","SARL_v6u5qsll51","641359b5040c453203e2c088","freq","","","img/blue_2bandit_b2.png","70","","70","test","1","","122","","","","circle","square","117","5","6","0.3333333333333333","","","","","","","",""
"null","319990","SARL_v6","SARL_v6u5qsll51","641359b5040c453203e2c088","freq_resp","","","img/blue_2bandit_b.png","70","img/blue_2bandit_b.png","70","test","","","","","","","","","","","6","","","","","","","","",""
"null","320157","SARL_v6","SARL_v6u5qsll51","641359b5040c453203e2c088","fixation","","","img/fixation.png","null","","","test","","","","","","","","","","","","","","","","","","","",""
"292.7000000476837","320453","SARL_v6","SARL_v6u5qsll51","641359b5040c453203e2c088","freq","","","img/blue_2bandit_b2.png","70","","70","test","1","","123","","","","circle","square","118","6","6","0.3389830508474576","","","","","","","",""
"null","320973","SARL_v6","SARL_v6u5qsll51","641359b5040c453203e2c088","freq_resp","","","img/blue_2bandit_b.png","70","img/blue_2bandit_b.png","70","test","","","","","","","","","","","6","","","","","","","","",""
"null","321129","SARL_v6","SARL_v6u5qsll51","641359b5040c453203e2c088","fixation","","","img/fixation.png","null","","","test","","","","","","","","","","","","","","","","","","","",""
"31.600000143051147","321163","SARL_v6","SARL_v6u5qsll51","641359b5040c453203e2c088","freq","","","img/blue_2bandit_b2.png","70","","70","test","1","","124","","","","circle","square","119","7","6","0.3445378151260504","","","","","","","",""
"null","321938","SARL_v6","SARL_v6u5qsll51","641359b5040c453203e2c088","freq_resp","","","img/blue_2bandit_b.png","70","img/blue_2bandit_b.png","70","test","","","","","","","","","","","6","","","","","","","","",""
"null","322095","SARL_v6","SARL_v6u5qsll51","641359b5040c453203e2c088","fixation","","","img/fixation.png","null","","","test","","","","","","","","","","","","","","","","","","","",""
"33.5","322131","SARL_v6","SARL_v6u5qsll51","641359b5040c453203e2c088","freq","","","img/blue_2bandit_b2.png","70","","70","test","1","","125","","","","circle","square","120","8","6","0.35","","","","","","","",""
"null","322912","SARL_v6","SARL_v6u5qsll51","641359b5040c453203e2c088","freq_resp","","","img/blue_2bandit_b.png","70","img/blue_2bandit_b.png","70","test","","","","","","","","","","","6","","","","","","","","",""
"null","323077","SARL_v6","SARL_v6u5qsll51","641359b5040c453203e2c088","fixation","","","img/fixation.png","null","","","test","","","","","","","","","","","","","","","","","","","",""
"22.299999952316284","323103","SARL_v6","SARL_v6u5qsll51","641359b5040c453203e2c088","freq","","","img/blue_2bandit_b2.png","70","","70","test","1","","126","","","","circle","square","121","9","6","0.35537190082644626","","","","","","","",""
"null","323885","SARL_v6","SARL_v6u5qsll51","641359b5040c453203e2c088","freq_resp","","","img/blue_2bandit_b.png","70","img/blue_2bandit_b.png","70","test","","","","","","","","","","","6","","","","","","","","",""
"null","324044","SARL_v6","SARL_v6u5qsll51","641359b5040c453203e2c088","fixation","","","img/fixation.png","null","","","test","","","","","","","","","","","","","","","","","","","",""
"57.200000047683716","324103","SARL_v6","SARL_v6u5qsll51","641359b5040c453203e2c088","freq","","","img/blue_2bandit_b2.png","68","","70","test","0","","127","","","","circle","square","122","10","6","0.3524590163934426","","","","","","","",""
"null","324853","SARL_v6","SARL_v6u5qsll51","641359b5040c453203e2c088","freq_resp","","","img/blue_2bandit_b.png","68","img/blue_2bandit_b.png","70","test","","","","","","","","","","","6","","","","","","","","",""
"null","325013","SARL_v6","SARL_v6u5qsll51","641359b5040c453203e2c088","fixation","","","img/fixation.png","null","","","test","","","","","","","","","","","","","","","","","","","",""
"21.799999952316284","325038","SARL_v6","SARL_v6u5qsll51","641359b5040c453203e2c088","freq","","","img/blue_2bandit_b2.png","68","","70","test","0","","128","","","","circle","square","123","11","6","0.34959349593495936","","","","","","","",""
"null","325819","SARL_v6","SARL_v6u5qsll51","641359b5040c453203e2c088","freq_resp","","","img/blue_2bandit_b.png","68","img/blue_2bandit_b.png","70","test","","","","","","","","","","","6","","","","","","","","",""
"null","325977","SARL_v6","SARL_v6u5qsll51","641359b5040c453203e2c088","fixation","","","img/fixation.png","null","","","test","","","","","","","","","","","","","","","","","","","",""
"330.59999990463257","326311","SARL_v6","SARL_v6u5qsll51","641359b5040c453203e2c088","freq","","","img/blue_2bandit_b2.png","68","","70","test","0","","129","","","","circle","square","124","12","6","0.3467741935483871","","","","","","","",""
"null","326789","SARL_v6","SARL_v6u5qsll51","641359b5040c453203e2c088","freq_resp","","","img/blue_2bandit_b.png","68","img/blue_2bandit_b.png","70","test","","","","","","","","","","","6","","","","","","","","",""
"null","326943","SARL_v6","SARL_v6u5qsll51","641359b5040c453203e2c088","fixation","","","img/fixation.png","null","","","test","","","","","","","","","","","","","","","","","","","",""
"44.40000009536743","326991","SARL_v6","SARL_v6u5qsll51","641359b5040c453203e2c088","freq","","","img/blue_2bandit_b2.png","68","","70","test","0","","130","","","","circle","square","125","13","6","0.344","","","","","","","",""
"null","327765","SARL_v6","SARL_v6u5qsll51","641359b5040c453203e2c088","freq_resp","","","img/blue_2bandit_b.png","68","img/blue_2bandit_b.png","70","test","","","","","","","","","","","6","","","","","","","","",""
"null","327926","SARL_v6","SARL_v6u5qsll51","641359b5040c453203e2c088","fixation","","","img/fixation.png","null","","","test","","","","","","","","","","","","","","","","","","","",""
"700.8999998569489","328631","SARL_v6","SARL_v6u5qsll51","641359b5040c453203e2c088","infreq","","","img/orange_2bandit_b2.png","68","","68","test","1","","131","","","","circle","square","126","14","6","0.3492063492063492","","","","","","","",""
"null","328746","SARL_v6","SARL_v6u5qsll51","641359b5040c453203e2c088","infreq_resp","","","img/orange_2bandit_b.png","68","img/orange_2bandit_b.png","68","test","","","","","","","","","","","6","","","","","","","","",""
"null","328908","SARL_v6","SARL_v6u5qsll51","641359b5040c453203e2c088","fixation","","","img/fixation.png","null","","","test","","","","","","","","","","","","","","","","","","","",""
"189.90000009536743","329101","SARL_v6","SARL_v6u5qsll51","641359b5040c453203e2c088","freq","","","img/blue_2bandit_b2.png","70","","70","test","1","","132","","","","circle","square","127","15","6","0.3543307086614173","","","","","","","",""
"null","329728","SARL_v6","SARL_v6u5qsll51","641359b5040c453203e2c088","freq_resp","","","img/blue_2bandit_b.png","70","img/blue_2bandit_b.png","70","test","","","","","","","","","","","6","","","","","","","","",""
"null","329892","SARL_v6","SARL_v6u5qsll51","641359b5040c453203e2c088","fixation","","","img/fixation.png","null","","","test","","","","","","","","","","","","","","","","","","","",""
"17.200000047683716","329911","SARL_v6","SARL_v6u5qsll51","641359b5040c453203e2c088","freq","","","img/blue_2bandit_b2.png","70","","70","test","1","","133","","","","circle","square","128","16","6","0.359375","","","","","","","",""
"null","330706","SARL_v6","SARL_v6u5qsll51","641359b5040c453203e2c088","freq_resp","","","img/blue_2bandit_b.png","70","img/blue_2bandit_b.png","70","test","","","","","","","","","","","6","","","","","","","","",""
"null","330875","SARL_v6","SARL_v6u5qsll51","641359b5040c453203e2c088","fixation","","","img/fixation.png","null","","","test","","","","","","","","","","","","","","","","","","","",""
"35.299999952316284","330913","SARL_v6","SARL_v6u5qsll51","641359b5040c453203e2c088","freq","","","img/blue_2bandit_b2.png","68","","70","test","0","","134","","","","circle","square","129","17","6","0.35658914728682173","","","","","","","",""
"null","331682","SARL_v6","SARL_v6u5qsll51","641359b5040c453203e2c088","freq_resp","","","img/blue_2bandit_b.png","68","img/blue_2bandit_b.png","70","test","","","","","","","","","","","6","","","","","","","","",""
"null","331839","SARL_v6","SARL_v6u5qsll51","641359b5040c453203e2c088","fixation","","","img/fixation.png","null","","","test","","","","","","","","","","","","","","","","","","","",""
"40.09999990463257","331882","SARL_v6","SARL_v6u5qsll51","641359b5040c453203e2c088","freq","","","img/blue_2bandit_b2.png","68","","70","test","0","","135","","","","circle","square","130","18","6","0.35384615384615387","","","","","","","",""
"null","332646","SARL_v6","SARL_v6u5qsll51","641359b5040c453203e2c088","freq_resp","","","img/blue_2bandit_b.png","68","img/blue_2bandit_b.png","70","test","","","","","","","","","","","6","","","","","","","","",""
"null","332808","SARL_v6","SARL_v6u5qsll51","641359b5040c453203e2c088","fixation","","","img/fixation.png","null","","","test","","","","","","","","","","","","","","","","","","","",""
"130.19999980926514","332941","SARL_v6","SARL_v6u5qsll51","641359b5040c453203e2c088","infreq","","","img/orange_2bandit_b2.png","68","","68","test","1","","136","","","","circle","square","131","19","6","0.35877862595419846","","","","","","","",""
"null","333618","SARL_v6","SARL_v6u5qsll51","641359b5040c453203e2c088","infreq_resp","","","img/orange_2bandit_b.png","68","img/orange_2bandit_b.png","68","test","","","","","","","","","","","6","","","","","","","","",""
"null","333771","SARL_v6","SARL_v6u5qsll51","641359b5040c453203e2c088","fixation","","","img/fixation.png","null","","","test","","","","","","","","","","","","","","","","","","","",""
"200.60000014305115","333974","SARL_v6","SARL_v6u5qsll51","641359b5040c453203e2c088","freq","","","img/blue_2bandit_b2.png","70","","70","test","1","","137","","","","circle","square","132","20","6","0.36363636363636365","","","","","","","",""
"null","334589","SARL_v6","SARL_v6u5qsll51","641359b5040c453203e2c088","freq_resp","","","img/blue_2bandit_b.png","70","img/blue_2bandit_b.png","70","test","","","","","","","","","","","6","","","","","","","","",""
"null","334752","SARL_v6","SARL_v6u5qsll51","641359b5040c453203e2c088","fixation","","","img/fixation.png","null","","","test","","","","","","","","","","","","","","","","","","","",""
"97.70000004768372","334853","SARL_v6","SARL_v6u5qsll51","641359b5040c453203e2c088","freq","","","img/blue_2bandit_b2.png","68","","70","test","0","","138","","","","circle","square","133","21","6","0.3609022556390977","","","","","","","",""
"null","335568","SARL_v6","SARL_v6u5qsll51","641359b5040c453203e2c088","freq_resp","","","img/blue_2bandit_b.png","68","img/blue_2bandit_b.png","70","test","","","","","","","","","","","6","","","","","","","","",""
"null","335724","SARL_v6","SARL_v6u5qsll51","641359b5040c453203e2c088","fixation","","","img/fixation.png","null","","","test","","","","","","","","","","","","","","","","","","","",""
"795.3000001907349","336521","SARL_v6","SARL_v6u5qsll51","641359b5040c453203e2c088","freq","","","img/blue_2bandit_b2.png","70","","70","test","1","","139","","","","circle","square","134","22","6","0.3656716417910448","","","","","","","",""
"null","336531","SARL_v6","SARL_v6u5qsll51","641359b5040c453203e2c088","freq_resp","","","img/blue_2bandit_b.png","70","img/blue_2bandit_b.png","70","test","","","","","","","","","","","6","","","","","","","","",""
"null","336690","SARL_v6","SARL_v6u5qsll51","641359b5040c453203e2c088","fixation","","","img/fixation.png","null","","","test","","","","","","","","","","","","","","","","","","","",""
"769.7000000476837","337463","SARL_v6","SARL_v6u5qsll51","641359b5040c453203e2c088","rl","","","img/black_2bandit_b2.png","74","","0","test","","","140","","","-4","circle","square","","0","6","","74","-4","-1","-4","-1","circle","6","0"
"null","338217","SARL_v6","SARL_v6u5qsll51","641359b5040c453203e2c088","feedback","","","<div class=""verylowPoints""> -4 </div>","null","","na","test","","","NaN","","","","","","","","6","","74","","","","","","6",""
"140.89999985694885","338361","SARL_v6","SARL_v6u5qsll51","641359b5040c453203e2c088","freq","","","img/blue_2bandit_b2.png","68","","70","test","0","","141","","","","circle","square","135","1","7","0.362962962962963","","","","","","","",""
"null","339026","SARL_v6","SARL_v6u5qsll51","641359b5040c453203e2c088","freq_resp","","","img/blue_2bandit_b.png","68","img/blue_2bandit_b.png","70","test","","","","","","","","","","","7","","","","","","","","",""
"null","339181","SARL_v6","SARL_v6u5qsll51","641359b5040c453203e2c088","fixation","","","img/fixation.png","null","","","test","","","","","","","","","","","","","","","","","","","",""
