"rt","time_elapsed","expId","subject","prolificID","trialType","rlType","attType","stimulus","key_press","stim","corrresp","phase","corr","pracCounter","trialNum","rewardOne","rewardTwo","reward","bandOne","bandTwo","attentionNum","attentionRunNum","blockNum","performance","bandChosen","circleVal","squareVal","bandOneVal","bandTwoVal","shapeChosen","rlNum","badFlag"
"16252.200000000186","16265","SARL_v6","SARL_v6tqr8c9w0","5859285b73f2620001c21bb8","","","","","","","","","","","","","","","","","","","","","","","","","","","",""
"","19116","SARL_v6","SARL_v6tqr8c9w0","5859285b73f2620001c21bb8","fullscreen","fullscreen","fullscreen","","","","","","","","","","","","","","","","","","","","","","","","",""
"671334.6000000001","690464","SARL_v6","SARL_v6tqr8c9w0","5859285b73f2620001c21bb8","","","","","","","","","","","","","","","","","","","","","","","","","","","",""
"771.8000000002794","691248","SARL_v6","SARL_v6tqr8c9w0","5859285b73f2620001c21bb8","freqPrac","","","img/blue_2bandit_b2.png","70","img/blue_2bandit_b2.png","70","prac","1","0","","","","","","","","","","","","","","","","","",""
"771.8000000002794","691286","SARL_v6","SARL_v6tqr8c9w0","5859285b73f2620001c21bb8","freqPrac_resp","","","img/blue_2bandit_b.png","70","img/blue_2bandit_b.png","70","prac","","","","","","","","","","","","","","","","","","","",""
"null","691449","SARL_v6","SARL_v6tqr8c9w0","5859285b73f2620001c21bb8","fixation","","","img/fixation.png","null","","","prac","","","","","","","","","","","","","","","","","","","",""
"455.39999999990687","691914","SARL_v6","SARL_v6tqr8c9w0","5859285b73f2620001c21bb8","infreqPrac","","","img/orange_2bandit_b2.png","68","img/orange_2bandit_b2.png","68","prac","1","0","","","","","","","","","","","","","","","","","",""
"455.39999999990687","692270","SARL_v6","SARL_v6tqr8c9w0","5859285b73f2620001c21bb8","infreqPrac_resp","","","img/orange_2bandit_b.png","68","img/orange_2bandit_b.png","68","prac","","","","","","","","","","","","","","","","","","","",""
"null","692438","SARL_v6","SARL_v6tqr8c9w0","5859285b73f2620001c21bb8","fixation","","","img/fixation.png","null","","","prac","","","","","","","","","","","","","","","","","","","",""
"522.8000000002794","692970","SARL_v6","SARL_v6tqr8c9w0","5859285b73f2620001c21bb8","freqPrac","","","img/blue_2bandit_b2.png","70","img/blue_2bandit_b2.png","70","prac","1","0","","","","","","","","","","","","","","","","","",""
"522.8000000002794","693259","SARL_v6","SARL_v6tqr8c9w0","5859285b73f2620001c21bb8","freqPrac_resp","","","img/blue_2bandit_b.png","70","img/blue_2bandit_b.png","70","prac","","","","","","","","","","","","","","","","","","","",""
"null","693434","SARL_v6","SARL_v6tqr8c9w0","5859285b73f2620001c21bb8","fixation","","","img/fixation.png","null","","","prac","","","","","","","","","","","","","","","","","","","",""
"504.59999999962747","693948","SARL_v6","SARL_v6tqr8c9w0","5859285b73f2620001c21bb8","infreqPrac","","","img/orange_2bandit_b2.png","68","img/orange_2bandit_b2.png","68","prac","1","0","","","","","","","","","","","","","","","","","",""
"504.59999999962747","694259","SARL_v6","SARL_v6tqr8c9w0","5859285b73f2620001c21bb8","infreqPrac_resp","","","img/orange_2bandit_b.png","68","img/orange_2bandit_b.png","68","prac","","","","","","","","","","","","","","","","","","","",""
"null","694422","SARL_v6","SARL_v6tqr8c9w0","5859285b73f2620001c21bb8","fixation","","","img/fixation.png","null","","","prac","","","","","","","","","","","","","","","","","","","",""
"513.7999999998137","694946","SARL_v6","SARL_v6tqr8c9w0","5859285b73f2620001c21bb8","infreqPrac","","","img/orange_2bandit_b2.png","68","img/orange_2bandit_b2.png","68","prac","1","0","","","","","","","","","","","","","","","","","",""
"513.7999999998137","695243","SARL_v6","SARL_v6tqr8c9w0","5859285b73f2620001c21bb8","infreqPrac_resp","","","img/orange_2bandit_b.png","68","img/orange_2bandit_b.png","68","prac","","","","","","","","","","","","","","","","","","","",""
"null","695405","SARL_v6","SARL_v6tqr8c9w0","5859285b73f2620001c21bb8","fixation","","","img/fixation.png","null","","","prac","","","","","","","","","","","","","","","","","","","",""
"498.20000000018626","695912","SARL_v6","SARL_v6tqr8c9w0","5859285b73f2620001c21bb8","infreqPrac","","","img/orange_2bandit_b2.png","68","img/orange_2bandit_b2.png","68","prac","1","0","","","","","","","","","","","","","","","","","",""
"498.20000000018626","696231","SARL_v6","SARL_v6tqr8c9w0","5859285b73f2620001c21bb8","infreqPrac_resp","","","img/orange_2bandit_b.png","68","img/orange_2bandit_b.png","68","prac","","","","","","","","","","","","","","","","","","","",""
"null","696405","SARL_v6","SARL_v6tqr8c9w0","5859285b73f2620001c21bb8","fixation","","","img/fixation.png","null","","","prac","","","","","","","","","","","","","","","","","","","",""
"509","696924","SARL_v6","SARL_v6tqr8c9w0","5859285b73f2620001c21bb8","freqPrac","","","img/blue_2bandit_b2.png","70","img/blue_2bandit_b2.png","70","prac","1","0","","","","","","","","","","","","","","","","","",""
"509","697232","SARL_v6","SARL_v6tqr8c9w0","5859285b73f2620001c21bb8","freqPrac_resp","","","img/blue_2bandit_b.png","70","img/blue_2bandit_b.png","70","prac","","","","","","","","","","","","","","","","","","","",""
"null","697393","SARL_v6","SARL_v6tqr8c9w0","5859285b73f2620001c21bb8","fixation","","","img/fixation.png","null","","","prac","","","","","","","","","","","","","","","","","","","",""
"535","697936","SARL_v6","SARL_v6tqr8c9w0","5859285b73f2620001c21bb8","infreqPrac","","","img/orange_2bandit_b2.png","68","img/orange_2bandit_b2.png","68","prac","1","0","","","","","","","","","","","","","","","","","",""
"535","698219","SARL_v6","SARL_v6tqr8c9w0","5859285b73f2620001c21bb8","infreqPrac_resp","","","img/orange_2bandit_b.png","68","img/orange_2bandit_b.png","68","prac","","","","","","","","","","","","","","","","","","","",""
"null","698390","SARL_v6","SARL_v6tqr8c9w0","5859285b73f2620001c21bb8","fixation","","","img/fixation.png","null","","","prac","","","","","","","","","","","","","","","","","","","",""
"614.7000000001863","699014","SARL_v6","SARL_v6tqr8c9w0","5859285b73f2620001c21bb8","freqPrac","","","img/blue_2bandit_b2.png","70","img/blue_2bandit_b2.png","70","prac","1","0","","","","","","","","","","","","","","","","","",""
"614.7000000001863","699211","SARL_v6","SARL_v6tqr8c9w0","5859285b73f2620001c21bb8","freqPrac_resp","","","img/blue_2bandit_b.png","70","img/blue_2bandit_b.png","70","prac","","","","","","","","","","","","","","","","","","","",""
"null","699378","SARL_v6","SARL_v6tqr8c9w0","5859285b73f2620001c21bb8","fixation","","","img/fixation.png","null","","","prac","","","","","","","","","","","","","","","","","","","",""
"450.20000000018626","699837","SARL_v6","SARL_v6tqr8c9w0","5859285b73f2620001c21bb8","freqPrac","","","img/blue_2bandit_b2.png","70","img/blue_2bandit_b2.png","70","prac","1","0","","","","","","","","","","","","","","","","","",""
"450.20000000018626","700199","SARL_v6","SARL_v6tqr8c9w0","5859285b73f2620001c21bb8","freqPrac_resp","","","img/blue_2bandit_b.png","70","img/blue_2bandit_b.png","70","prac","","","","","","","","","","","","","","","","","","","",""
"null","700364","SARL_v6","SARL_v6tqr8c9w0","5859285b73f2620001c21bb8","fixation","","","img/fixation.png","null","","","prac","","","","","","","","","","","","","","","","","","","",""
"65996.79999999981","766369","SARL_v6","SARL_v6tqr8c9w0","5859285b73f2620001c21bb8","","","","","","","","prac","","","","","","","","","","","","","","","","","","","",""
"769","767154","SARL_v6","SARL_v6tqr8c9w0","5859285b73f2620001c21bb8","rlPractice","","","img/black_2bandit_b2.png","74","img/black_2bandit_b2.png","","prac","","","0","","","","","","","","","","","","","","","","",""
"null","767918","SARL_v6","SARL_v6tqr8c9w0","5859285b73f2620001c21bb8","feedback","","","<div class=""veryhighPoints""> 10 </div>","null","","na","prac","","","1","10","-14","10","","","","","","","","","","","","","",""
"null","768091","SARL_v6","SARL_v6tqr8c9w0","5859285b73f2620001c21bb8","fixation","","","img/fixation.png","null","","","prac","","","","","","","","","","","","","","","","","","","",""
"911.3999999999069","769012","SARL_v6","SARL_v6tqr8c9w0","5859285b73f2620001c21bb8","rlPractice","","","img/black_2bandit_b2.png","74","img/black_2bandit_b2.png","","prac","","","1","","","","","","","","","","","","","","","","",""
"null","769880","SARL_v6","SARL_v6tqr8c9w0","5859285b73f2620001c21bb8","feedback","","","<div class=""veryhighPoints""> 5 </div>","null","","na","prac","","","2","5","-5","5","","","","","","","","","","","","","",""
"null","770044","SARL_v6","SARL_v6tqr8c9w0","5859285b73f2620001c21bb8","fixation","","","img/fixation.png","null","","","prac","","","","","","","","","","","","","","","","","","","",""
"654.5","770708","SARL_v6","SARL_v6tqr8c9w0","5859285b73f2620001c21bb8","rlPractice","","","img/black_2bandit_b2.png","74","img/black_2bandit_b2.png","","prac","","","2","","","","","","","","","","","","","","","","",""
"null","771489","SARL_v6","SARL_v6tqr8c9w0","5859285b73f2620001c21bb8","feedback","","","<div class=""veryhighPoints""> 30 </div>","null","","na","prac","","","3","30","2","30","","","","","","","","","","","","","",""
"null","771661","SARL_v6","SARL_v6tqr8c9w0","5859285b73f2620001c21bb8","fixation","","","img/fixation.png","null","","","prac","","","","","","","","","","","","","","","","","","","",""
"879.8999999999069","772550","SARL_v6","SARL_v6tqr8c9w0","5859285b73f2620001c21bb8","rlPractice","","","img/black_2bandit_b2.png","74","img/black_2bandit_b2.png","","prac","","","3","","","","","","","","","","","","","","","","",""
"null","773312","SARL_v6","SARL_v6tqr8c9w0","5859285b73f2620001c21bb8","feedback","","","<div class=""verylowPoints""> -2 </div>","null","","na","prac","","","4","-2","20","-2","","","","","","","","","","","","","",""
"null","773483","SARL_v6","SARL_v6tqr8c9w0","5859285b73f2620001c21bb8","fixation","","","img/fixation.png","null","","","prac","","","","","","","","","","","","","","","","","","","",""
"52339.299999999814","825829","SARL_v6","SARL_v6tqr8c9w0","5859285b73f2620001c21bb8","","","","","","","","prac","","","","","","","","","","","","","","","","","","","",""
"794","826634","SARL_v6","SARL_v6tqr8c9w0","5859285b73f2620001c21bb8","mixAttFreqPrac","","","img/blue_2bandit_b2.png","70","img/blue_2bandit_b2.png","70","prac","","","1","","","","","","","","","","","","","","","","",""
"794","826653","SARL_v6","SARL_v6tqr8c9w0","5859285b73f2620001c21bb8","freqPrac_resp","","","img/blue_2bandit_b.png","70","img/blue_2bandit_b.png","70","prac","","","1","","","","","","","","","","","","","","","","",""
"null","826827","SARL_v6","SARL_v6tqr8c9w0","5859285b73f2620001c21bb8","fixation","","","img/fixation.png","null","","","prac","","","","","","","","","","","","","","","","","","","",""
"413.39999999990687","827249","SARL_v6","SARL_v6tqr8c9w0","5859285b73f2620001c21bb8","mixAttInfreqPrac","","","img/orange_2bandit_b2.png","68","img/orange_2bandit_b2.png","68","prac","","","2","","","","","","","","","","","","","","","","",""
"413.39999999990687","827647","SARL_v6","SARL_v6tqr8c9w0","5859285b73f2620001c21bb8","infreqPrac_resp","","","img/orange_2bandit_b.png","68","img/blue_2bandit_b.png","68","prac","","","2","","","","","","","","","","","","","","","","",""
"null","827811","SARL_v6","SARL_v6tqr8c9w0","5859285b73f2620001c21bb8","fixation","","","img/fixation.png","null","","","prac","","","","","","","","","","","","","","","","","","","",""
"587.8999999999069","828408","SARL_v6","SARL_v6tqr8c9w0","5859285b73f2620001c21bb8","mixAttInfreqPrac","","","img/orange_2bandit_b2.png","68","img/orange_2bandit_b2.png","68","prac","","","3","","","","","","","","","","","","","","","","",""
"587.8999999999069","828642","SARL_v6","SARL_v6tqr8c9w0","5859285b73f2620001c21bb8","infreqPrac_resp","","","img/orange_2bandit_b.png","68","img/blue_2bandit_b.png","68","prac","","","3","","","","","","","","","","","","","","","","",""
"null","828816","SARL_v6","SARL_v6tqr8c9w0","5859285b73f2620001c21bb8","fixation","","","img/fixation.png","null","","","prac","","","","","","","","","","","","","","","","","","","",""
"474.79999999981374","829300","SARL_v6","SARL_v6tqr8c9w0","5859285b73f2620001c21bb8","mixAttInfreqPrac","","","img/orange_2bandit_b2.png","68","img/orange_2bandit_b2.png","68","prac","","","4","","","","","","","","","","","","","","","","",""
"474.79999999981374","829637","SARL_v6","SARL_v6tqr8c9w0","5859285b73f2620001c21bb8","infreqPrac_resp","","","img/orange_2bandit_b.png","68","img/blue_2bandit_b.png","68","prac","","","4","","","","","","","","","","","","","","","","",""
"null","829797","SARL_v6","SARL_v6tqr8c9w0","5859285b73f2620001c21bb8","fixation","","","img/fixation.png","null","","","prac","","","","","","","","","","","","","","","","","","","",""
"484.10000000009313","830288","SARL_v6","SARL_v6tqr8c9w0","5859285b73f2620001c21bb8","mixAttFreqPrac","","","img/blue_2bandit_b2.png","70","img/blue_2bandit_b2.png","70","prac","","","5","","","","","","","","","","","","","","","","",""
"484.10000000009313","830619","SARL_v6","SARL_v6tqr8c9w0","5859285b73f2620001c21bb8","freqPrac_resp","","","img/blue_2bandit_b.png","70","img/blue_2bandit_b.png","70","prac","","","5","","","","","","","","","","","","","","","","",""
"null","830780","SARL_v6","SARL_v6tqr8c9w0","5859285b73f2620001c21bb8","fixation","","","img/fixation.png","null","","","prac","","","","","","","","","","","","","","","","","","","",""
"762.5","831551","SARL_v6","SARL_v6tqr8c9w0","5859285b73f2620001c21bb8","mixRLPractice","","","img/black_2bandit_b2.png","74","img/black_2bandit_b2.png","","prac","","","5","","","","","","","","","","","","","","","","",""
"null","832312","SARL_v6","SARL_v6tqr8c9w0","5859285b73f2620001c21bb8","feedback","","","<div class=""verylowPoints""> -14 </div>","null","","na","prac","","","6","-14","10","-14","","","","","","","","","","","","","",""
"null","832484","SARL_v6","SARL_v6tqr8c9w0","5859285b73f2620001c21bb8","fixation","","","img/fixation.png","null","","","prac","","","","","","","","","","","","","","","","","","","",""
"null","833295","SARL_v6","SARL_v6tqr8c9w0","5859285b73f2620001c21bb8","mixAttFreqPrac","","","img/blue_2bandit_b2.png","null","img/blue_2bandit_b2.png","70","prac","","","7","","","","","","","","","","","","","","","","",""
"null","833455","SARL_v6","SARL_v6tqr8c9w0","5859285b73f2620001c21bb8","fixation","","","img/fixation.png","null","","","prac","","","","","","","","","","","","","","","","","","","",""
"null","834277","SARL_v6","SARL_v6tqr8c9w0","5859285b73f2620001c21bb8","mixAttInfreqPrac","","","img/orange_2bandit_b2.png","null","img/orange_2bandit_b2.png","68","prac","","","8","","","","","","","","","","","","","","","","",""
"138.89999999990687","834435","SARL_v6","SARL_v6tqr8c9w0","5859285b73f2620001c21bb8","fixation","","","img/fixation.png","68","","","prac","","","","","","","","","","","","","","","","","","","",""
"513.3000000002794","834957","SARL_v6","SARL_v6tqr8c9w0","5859285b73f2620001c21bb8","mixAttFreqPrac","","","img/blue_2bandit_b2.png","70","img/blue_2bandit_b2.png","70","prac","","","9","","","","","","","","","","","","","","","","",""
"513.3000000002794","835264","SARL_v6","SARL_v6tqr8c9w0","5859285b73f2620001c21bb8","freqPrac_resp","","","img/blue_2bandit_b.png","70","img/blue_2bandit_b.png","70","prac","","","9","","","","","","","","","","","","","","","","",""
"null","835430","SARL_v6","SARL_v6tqr8c9w0","5859285b73f2620001c21bb8","fixation","","","img/fixation.png","null","","","prac","","","","","","","","","","","","","","","","","","","",""
"517.8999999999069","835956","SARL_v6","SARL_v6tqr8c9w0","5859285b73f2620001c21bb8","mixAttFreqPrac","","","img/blue_2bandit_b2.png","70","img/blue_2bandit_b2.png","70","prac","","","10","","","","","","","","","","","","","","","","",""
"517.8999999999069","836252","SARL_v6","SARL_v6tqr8c9w0","5859285b73f2620001c21bb8","freqPrac_resp","","","img/blue_2bandit_b.png","70","img/blue_2bandit_b.png","70","prac","","","10","","","","","","","","","","","","","","","","",""
"null","836413","SARL_v6","SARL_v6tqr8c9w0","5859285b73f2620001c21bb8","fixation","","","img/fixation.png","null","","","prac","","","","","","","","","","","","","","","","","","","",""
"null","837235","SARL_v6","SARL_v6tqr8c9w0","5859285b73f2620001c21bb8","mixAttInfreqPrac","","","img/orange_2bandit_b2.png","null","img/orange_2bandit_b2.png","68","prac","","","11","","","","","","","","","","","","","","","","",""
"null","837411","SARL_v6","SARL_v6tqr8c9w0","5859285b73f2620001c21bb8","fixation","","","img/fixation.png","null","","","prac","","","","","","","","","","","","","","","","","","","",""
"719.8000000002794","838140","SARL_v6","SARL_v6tqr8c9w0","5859285b73f2620001c21bb8","mixRLPractice","","","img/black_2bandit_b2.png","75","img/black_2bandit_b2.png","","prac","","","11","","","","","","","","","","","","","","","","",""
"null","838905","SARL_v6","SARL_v6tqr8c9w0","5859285b73f2620001c21bb8","feedback","","","<div class=""verylowPoints_sq""> -5 </div>","null","","na","prac","","","12","5","-5","5","","","","","","","","","","","","","",""
"null","839077","SARL_v6","SARL_v6tqr8c9w0","5859285b73f2620001c21bb8","fixation","","","img/fixation.png","null","","","prac","","","","","","","","","","","","","","","","","","","",""
"783697.8999999999","1622781","SARL_v6","SARL_v6tqr8c9w0","5859285b73f2620001c21bb8","","","","","","","","prac","","","","","","","","","","","","","","","","","","","",""
"746.1000000005588","1623537","SARL_v6","SARL_v6tqr8c9w0","5859285b73f2620001c21bb8","freq","","","img/blue_2bandit_b2.png","70","","70","test","1","","1","","","","circle","square","1","1","1","1","","","","","","","",""
"null","1623598","SARL_v6","SARL_v6tqr8c9w0","5859285b73f2620001c21bb8","freq_resp","","","img/blue_2bandit_b.png","70","img/blue_2bandit_b.png","70","test","","","","","","","","","","","1","","","","","","","","",""
"null","1623756","SARL_v6","SARL_v6tqr8c9w0","5859285b73f2620001c21bb8","fixation","","","img/fixation.png","null","","","test","","","","","","","","","","","","","","","","","","","",""
"474.70000000018626","1624237","SARL_v6","SARL_v6tqr8c9w0","5859285b73f2620001c21bb8","freq","","","img/blue_2bandit_b2.png","70","","70","test","1","","2","","","","circle","square","2","2","1","1","","","","","","","",""
"null","1624575","SARL_v6","SARL_v6tqr8c9w0","5859285b73f2620001c21bb8","freq_resp","","","img/blue_2bandit_b.png","70","img/blue_2bandit_b.png","70","test","","","","","","","","","","","1","","","","","","","","",""
"null","1624742","SARL_v6","SARL_v6tqr8c9w0","5859285b73f2620001c21bb8","fixation","","","img/fixation.png","null","","","test","","","","","","","","","","","","","","","","","","","",""
"430.59999999962747","1625181","SARL_v6","SARL_v6tqr8c9w0","5859285b73f2620001c21bb8","freq","","","img/blue_2bandit_b2.png","70","","70","test","1","","3","","","","circle","square","3","3","1","1","","","","","","","",""
"null","1625575","SARL_v6","SARL_v6tqr8c9w0","5859285b73f2620001c21bb8","freq_resp","","","img/blue_2bandit_b.png","70","img/blue_2bandit_b.png","70","test","","","","","","","","","","","1","","","","","","","","",""
"null","1625741","SARL_v6","SARL_v6tqr8c9w0","5859285b73f2620001c21bb8","fixation","","","img/fixation.png","null","","","test","","","","","","","","","","","","","","","","","","","",""
"406","1626154","SARL_v6","SARL_v6tqr8c9w0","5859285b73f2620001c21bb8","freq","","","img/blue_2bandit_b2.png","70","","70","test","1","","4","","","","circle","square","4","4","1","1","","","","","","","",""
"null","1626559","SARL_v6","SARL_v6tqr8c9w0","5859285b73f2620001c21bb8","freq_resp","","","img/blue_2bandit_b.png","70","img/blue_2bandit_b.png","70","test","","","","","","","","","","","1","","","","","","","","",""
"null","1626768","SARL_v6","SARL_v6tqr8c9w0","5859285b73f2620001c21bb8","fixation","","","img/fixation.png","null","","","test","","","","","","","","","","","","","","","","","","","",""
"333.90000000037253","1627111","SARL_v6","SARL_v6tqr8c9w0","5859285b73f2620001c21bb8","freq","","","img/blue_2bandit_b2.png","70","","70","test","1","","5","","","","circle","square","5","5","1","1","","","","","","","",""
"null","1627592","SARL_v6","SARL_v6tqr8c9w0","5859285b73f2620001c21bb8","freq_resp","","","img/blue_2bandit_b.png","70","img/blue_2bandit_b.png","70","test","","","","","","","","","","","1","","","","","","","","",""
"null","1627769","SARL_v6","SARL_v6tqr8c9w0","5859285b73f2620001c21bb8","fixation","","","img/fixation.png","null","","","test","","","","","","","","","","","","","","","","","","","",""
"345.70000000018626","1628124","SARL_v6","SARL_v6tqr8c9w0","5859285b73f2620001c21bb8","freq","","","img/blue_2bandit_b2.png","70","","70","test","1","","6","","","","circle","square","6","6","1","1","","","","","","","",""
"null","1628592","SARL_v6","SARL_v6tqr8c9w0","5859285b73f2620001c21bb8","freq_resp","","","img/blue_2bandit_b.png","70","img/blue_2bandit_b.png","70","test","","","","","","","","","","","1","","","","","","","","",""
"null","1628765","SARL_v6","SARL_v6tqr8c9w0","5859285b73f2620001c21bb8","fixation","","","img/fixation.png","null","","","test","","","","","","","","","","","","","","","","","","","",""
"404.20000000018626","1629175","SARL_v6","SARL_v6tqr8c9w0","5859285b73f2620001c21bb8","freq","","","img/blue_2bandit_b2.png","70","","70","test","1","","7","","","","circle","square","7","7","1","1","","","","","","","",""
"null","1629580","SARL_v6","SARL_v6tqr8c9w0","5859285b73f2620001c21bb8","freq_resp","","","img/blue_2bandit_b.png","70","img/blue_2bandit_b.png","70","test","","","","","","","","","","","1","","","","","","","","",""
"null","1629748","SARL_v6","SARL_v6tqr8c9w0","5859285b73f2620001c21bb8","fixation","","","img/fixation.png","null","","","test","","","","","","","","","","","","","","","","","","","",""
"358.6000000005588","1630117","SARL_v6","SARL_v6tqr8c9w0","5859285b73f2620001c21bb8","freq","","","img/blue_2bandit_b2.png","70","","70","test","1","","8","","","","circle","square","8","8","1","1","","","","","","","",""
"null","1630579","SARL_v6","SARL_v6tqr8c9w0","5859285b73f2620001c21bb8","freq_resp","","","img/blue_2bandit_b.png","70","img/blue_2bandit_b.png","70","test","","","","","","","","","","","1","","","","","","","","",""
"null","1630749","SARL_v6","SARL_v6tqr8c9w0","5859285b73f2620001c21bb8","fixation","","","img/fixation.png","null","","","test","","","","","","","","","","","","","","","","","","","",""
"355","1631113","SARL_v6","SARL_v6tqr8c9w0","5859285b73f2620001c21bb8","freq","","","img/blue_2bandit_b2.png","70","","70","test","1","","9","","","","circle","square","9","9","1","1","","","","","","","",""
"null","1631582","SARL_v6","SARL_v6tqr8c9w0","5859285b73f2620001c21bb8","freq_resp","","","img/blue_2bandit_b.png","70","img/blue_2bandit_b.png","70","test","","","","","","","","","","","1","","","","","","","","",""
"null","1631753","SARL_v6","SARL_v6tqr8c9w0","5859285b73f2620001c21bb8","fixation","","","img/fixation.png","null","","","test","","","","","","","","","","","","","","","","","","","",""
"358.8999999994412","1632122","SARL_v6","SARL_v6tqr8c9w0","5859285b73f2620001c21bb8","freq","","","img/blue_2bandit_b2.png","70","","70","test","1","","10","","","","circle","square","10","10","1","1","","","","","","","",""
"null","1632584","SARL_v6","SARL_v6tqr8c9w0","5859285b73f2620001c21bb8","freq_resp","","","img/blue_2bandit_b.png","70","img/blue_2bandit_b.png","70","test","","","","","","","","","","","1","","","","","","","","",""
"null","1632755","SARL_v6","SARL_v6tqr8c9w0","5859285b73f2620001c21bb8","fixation","","","img/fixation.png","null","","","test","","","","","","","","","","","","","","","","","","","",""
"396.70000000018626","1633161","SARL_v6","SARL_v6tqr8c9w0","5859285b73f2620001c21bb8","freq","","","img/blue_2bandit_b2.png","70","","70","test","1","","11","","","","circle","square","11","11","1","1","","","","","","","",""
"null","1633575","SARL_v6","SARL_v6tqr8c9w0","5859285b73f2620001c21bb8","freq_resp","","","img/blue_2bandit_b.png","70","img/blue_2bandit_b.png","70","test","","","","","","","","","","","1","","","","","","","","",""
"null","1633740","SARL_v6","SARL_v6tqr8c9w0","5859285b73f2620001c21bb8","fixation","","","img/fixation.png","null","","","test","","","","","","","","","","","","","","","","","","","",""
"515.0999999996275","1634264","SARL_v6","SARL_v6tqr8c9w0","5859285b73f2620001c21bb8","infreq","","","img/orange_2bandit_b2.png","68","","68","test","1","","12","","","","circle","square","12","12","1","1","","","","","","","",""
"null","1634565","SARL_v6","SARL_v6tqr8c9w0","5859285b73f2620001c21bb8","infreq_resp","","","img/orange_2bandit_b.png","68","img/orange_2bandit_b.png","68","test","","","","","","","","","","","1","","","","","","","","",""
"null","1634744","SARL_v6","SARL_v6tqr8c9w0","5859285b73f2620001c21bb8","fixation","","","img/fixation.png","null","","","test","","","","","","","","","","","","","","","","","","","",""
"522.1000000005588","1635275","SARL_v6","SARL_v6tqr8c9w0","5859285b73f2620001c21bb8","freq","","","img/blue_2bandit_b2.png","70","","70","test","1","","13","","","","circle","square","13","13","1","1","","","","","","","",""
"null","1635567","SARL_v6","SARL_v6tqr8c9w0","5859285b73f2620001c21bb8","freq_resp","","","img/blue_2bandit_b.png","70","img/blue_2bandit_b.png","70","test","","","","","","","","","","","1","","","","","","","","",""
"null","1635729","SARL_v6","SARL_v6tqr8c9w0","5859285b73f2620001c21bb8","fixation","","","img/fixation.png","null","","","test","","","","","","","","","","","","","","","","","","","",""
"null","1636550","SARL_v6","SARL_v6tqr8c9w0","5859285b73f2620001c21bb8","freq","","","img/blue_2bandit_b2.png","null","","70","test","0","","14","","","","circle","square","14","14","1","0.9285714285714286","","","","","","","",""
"null","1636712","SARL_v6","SARL_v6tqr8c9w0","5859285b73f2620001c21bb8","fixation","","","img/fixation.png","null","","","test","","","","","","","","","","","","","","","","","","","",""
"null","1637535","SARL_v6","SARL_v6tqr8c9w0","5859285b73f2620001c21bb8","freq","","","img/blue_2bandit_b2.png","null","","70","test","0","","15","","","","circle","square","15","15","1","0.8666666666666667","","","","","","","",""
"null","1637697","SARL_v6","SARL_v6tqr8c9w0","5859285b73f2620001c21bb8","fixation","","","img/fixation.png","null","","","test","","","","","","","","","","","","","","","","","","","",""
"null","1638521","SARL_v6","SARL_v6tqr8c9w0","5859285b73f2620001c21bb8","freq","","","img/blue_2bandit_b2.png","null","","70","test","0","","16","","","","circle","square","16","16","1","0.8125","","","","","","","",""
"null","1638682","SARL_v6","SARL_v6tqr8c9w0","5859285b73f2620001c21bb8","fixation","","","img/fixation.png","null","","","test","","","","","","","","","","","","","","","","","","","",""
"743.2999999998137","1639435","SARL_v6","SARL_v6tqr8c9w0","5859285b73f2620001c21bb8","freq","","","img/blue_2bandit_b2.png","70","","70","test","1","","17","","","","circle","square","17","17","1","0.8235294117647058","","","","","","","",""
"null","1639523","SARL_v6","SARL_v6tqr8c9w0","5859285b73f2620001c21bb8","freq_resp","","","img/blue_2bandit_b.png","70","img/blue_2bandit_b.png","70","test","","","","","","","","","","","1","","","","","","","","",""
"null","1639686","SARL_v6","SARL_v6tqr8c9w0","5859285b73f2620001c21bb8","fixation","","","img/fixation.png","null","","","test","","","","","","","","","","","","","","","","","","","",""
"375.79999999981374","1640071","SARL_v6","SARL_v6tqr8c9w0","5859285b73f2620001c21bb8","freq","","","img/blue_2bandit_b2.png","70","","70","test","1","","18","","","","circle","square","18","18","1","0.8333333333333334","","","","","","","",""
"null","1640518","SARL_v6","SARL_v6tqr8c9w0","5859285b73f2620001c21bb8","freq_resp","","","img/blue_2bandit_b.png","70","img/blue_2bandit_b.png","70","test","","","","","","","","","","","1","","","","","","","","",""
"null","1640685","SARL_v6","SARL_v6tqr8c9w0","5859285b73f2620001c21bb8","fixation","","","img/fixation.png","null","","","test","","","","","","","","","","","","","","","","","","","",""
"313","1641007","SARL_v6","SARL_v6tqr8c9w0","5859285b73f2620001c21bb8","freq","","","img/blue_2bandit_b2.png","70","","70","test","1","","19","","","","circle","square","19","19","1","0.8421052631578947","","","","","","","",""
"null","1641514","SARL_v6","SARL_v6tqr8c9w0","5859285b73f2620001c21bb8","freq_resp","","","img/blue_2bandit_b.png","70","img/blue_2bandit_b.png","70","test","","","","","","","","","","","1","","","","","","","","",""
"null","1641688","SARL_v6","SARL_v6tqr8c9w0","5859285b73f2620001c21bb8","fixation","","","img/fixation.png","null","","","test","","","","","","","","","","","","","","","","","","","",""
"311.29999999981374","1642009","SARL_v6","SARL_v6tqr8c9w0","5859285b73f2620001c21bb8","freq","","","img/blue_2bandit_b2.png","70","","70","test","1","","20","","","","circle","square","20","20","1","0.85","","","","","","","",""
"null","1642514","SARL_v6","SARL_v6tqr8c9w0","5859285b73f2620001c21bb8","freq_resp","","","img/blue_2bandit_b.png","70","img/blue_2bandit_b.png","70","test","","","","","","","","","","","1","","","","","","","","",""
"null","1642687","SARL_v6","SARL_v6tqr8c9w0","5859285b73f2620001c21bb8","fixation","","","img/fixation.png","null","","","test","","","","","","","","","","","","","","","","","","","",""
"350.59999999962747","1643044","SARL_v6","SARL_v6tqr8c9w0","5859285b73f2620001c21bb8","freq","","","img/blue_2bandit_b2.png","70","","70","test","1","","21","","","","circle","square","21","21","1","0.8571428571428571","","","","","","","",""
"null","1643501","SARL_v6","SARL_v6tqr8c9w0","5859285b73f2620001c21bb8","freq_resp","","","img/blue_2bandit_b.png","70","img/blue_2bandit_b.png","70","test","","","","","","","","","","","1","","","","","","","","",""
"null","1643669","SARL_v6","SARL_v6tqr8c9w0","5859285b73f2620001c21bb8","fixation","","","img/fixation.png","null","","","test","","","","","","","","","","","","","","","","","","","",""
"187.09999999962747","1643862","SARL_v6","SARL_v6tqr8c9w0","5859285b73f2620001c21bb8","infreq","","","img/orange_2bandit_b2.png","70","","68","test","0","","22","","","","circle","square","22","22","1","0.8181818181818182","","","","","","","",""
"null","1644495","SARL_v6","SARL_v6tqr8c9w0","5859285b73f2620001c21bb8","infreq_resp","","","img/orange_2bandit_b.png","70","img/orange_2bandit_b.png","68","test","","","","","","","","","","","1","","","","","","","","",""
"null","1644661","SARL_v6","SARL_v6tqr8c9w0","5859285b73f2620001c21bb8","fixation","","","img/fixation.png","null","","","test","","","","","","","","","","","","","","","","","","","",""
"550.5999999996275","1645220","SARL_v6","SARL_v6tqr8c9w0","5859285b73f2620001c21bb8","freq","","","img/blue_2bandit_b2.png","70","","70","test","1","","23","","","","circle","square","23","23","1","0.8260869565217391","","","","","","","",""
"null","1645486","SARL_v6","SARL_v6tqr8c9w0","5859285b73f2620001c21bb8","freq_resp","","","img/blue_2bandit_b.png","70","img/blue_2bandit_b.png","70","test","","","","","","","","","","","1","","","","","","","","",""
"null","1645658","SARL_v6","SARL_v6tqr8c9w0","5859285b73f2620001c21bb8","fixation","","","img/fixation.png","null","","","test","","","","","","","","","","","","","","","","","","","",""
"526.8999999994412","1646197","SARL_v6","SARL_v6tqr8c9w0","5859285b73f2620001c21bb8","freq","","","img/blue_2bandit_b2.png","70","","70","test","1","","24","","","","circle","square","24","24","1","0.8333333333333334","","","","","","","",""
"null","1646487","SARL_v6","SARL_v6tqr8c9w0","5859285b73f2620001c21bb8","freq_resp","","","img/blue_2bandit_b.png","70","img/blue_2bandit_b.png","70","test","","","","","","","","","","","1","","","","","","","","",""
"null","1646651","SARL_v6","SARL_v6tqr8c9w0","5859285b73f2620001c21bb8","fixation","","","img/fixation.png","null","","","test","","","","","","","","","","","","","","","","","","","",""
"392","1647052","SARL_v6","SARL_v6tqr8c9w0","5859285b73f2620001c21bb8","freq","","","img/blue_2bandit_b2.png","70","","70","test","1","","25","","","","circle","square","25","25","1","0.84","","","","","","","",""
"null","1647480","SARL_v6","SARL_v6tqr8c9w0","5859285b73f2620001c21bb8","freq_resp","","","img/blue_2bandit_b.png","70","img/blue_2bandit_b.png","70","test","","","","","","","","","","","1","","","","","","","","",""
"null","1647647","SARL_v6","SARL_v6tqr8c9w0","5859285b73f2620001c21bb8","fixation","","","img/fixation.png","null","","","test","","","","","","","","","","","","","","","","","","","",""
"316.59999999962747","1647973","SARL_v6","SARL_v6tqr8c9w0","5859285b73f2620001c21bb8","freq","","","img/blue_2bandit_b2.png","70","","70","test","1","","26","","","","circle","square","26","26","1","0.8461538461538461","","","","","","","",""
"null","1648474","SARL_v6","SARL_v6tqr8c9w0","5859285b73f2620001c21bb8","freq_resp","","","img/blue_2bandit_b.png","70","img/blue_2bandit_b.png","70","test","","","","","","","","","","","1","","","","","","","","",""
"null","1648646","SARL_v6","SARL_v6tqr8c9w0","5859285b73f2620001c21bb8","fixation","","","img/fixation.png","null","","","test","","","","","","","","","","","","","","","","","","","",""
"1374.2999999998137","1650031","SARL_v6","SARL_v6tqr8c9w0","5859285b73f2620001c21bb8","rl","","","img/black_2bandit_b2.png","74","","0","test","","","27","","","-3","circle","square","","0","1","","74","-3","-3","-3","-3","circle","1","0"
"null","1650807","SARL_v6","SARL_v6tqr8c9w0","5859285b73f2620001c21bb8","feedback","","","<div class=""verylowPoints""> -3 </div>","null","","na","test","","","NaN","","","","","","","","1","","74","","","","","","1",""
"null","1651623","SARL_v6","SARL_v6tqr8c9w0","5859285b73f2620001c21bb8","freq","","","img/blue_2bandit_b2.png","null","","70","test","0","","28","","","","circle","square","27","1","2","0.8148148148148148","","","","","","","",""
"null","1651786","SARL_v6","SARL_v6tqr8c9w0","5859285b73f2620001c21bb8","fixation","","","img/fixation.png","null","","","test","","","","","","","","","","","","","","","","","","","",""
"598.1000000005588","1652393","SARL_v6","SARL_v6tqr8c9w0","5859285b73f2620001c21bb8","freq","","","img/blue_2bandit_b2.png","70","","70","test","1","","29","","","","circle","square","28","2","2","0.8214285714285714","","","","","","","",""
"null","1652617","SARL_v6","SARL_v6tqr8c9w0","5859285b73f2620001c21bb8","freq_resp","","","img/blue_2bandit_b.png","70","img/blue_2bandit_b.png","70","test","","","","","","","","","","","2","","","","","","","","",""
"null","1652786","SARL_v6","SARL_v6tqr8c9w0","5859285b73f2620001c21bb8","fixation","","","img/fixation.png","null","","","test","","","","","","","","","","","","","","","","","","","",""
"439.5","1653235","SARL_v6","SARL_v6tqr8c9w0","5859285b73f2620001c21bb8","freq","","","img/blue_2bandit_b2.png","70","","70","test","1","","30","","","","circle","square","29","3","2","0.8275862068965517","","","","","","","",""
"null","1653611","SARL_v6","SARL_v6tqr8c9w0","5859285b73f2620001c21bb8","freq_resp","","","img/blue_2bandit_b.png","70","img/blue_2bandit_b.png","70","test","","","","","","","","","","","2","","","","","","","","",""
"null","1653773","SARL_v6","SARL_v6tqr8c9w0","5859285b73f2620001c21bb8","fixation","","","img/fixation.png","null","","","test","","","","","","","","","","","","","","","","","","","",""
"444.29999999981374","1654227","SARL_v6","SARL_v6tqr8c9w0","5859285b73f2620001c21bb8","freq","","","img/blue_2bandit_b2.png","70","","70","test","1","","31","","","","circle","square","30","4","2","0.8333333333333334","","","","","","","",""
"null","1654595","SARL_v6","SARL_v6tqr8c9w0","5859285b73f2620001c21bb8","freq_resp","","","img/blue_2bandit_b.png","70","img/blue_2bandit_b.png","70","test","","","","","","","","","","","2","","","","","","","","",""
"null","1654759","SARL_v6","SARL_v6tqr8c9w0","5859285b73f2620001c21bb8","fixation","","","img/fixation.png","null","","","test","","","","","","","","","","","","","","","","","","","",""
"457.6000000005588","1655226","SARL_v6","SARL_v6tqr8c9w0","5859285b73f2620001c21bb8","freq","","","img/blue_2bandit_b2.png","70","","70","test","1","","32","","","","circle","square","31","5","2","0.8387096774193549","","","","","","","",""
"null","1655582","SARL_v6","SARL_v6tqr8c9w0","5859285b73f2620001c21bb8","freq_resp","","","img/blue_2bandit_b.png","70","img/blue_2bandit_b.png","70","test","","","","","","","","","","","2","","","","","","","","",""
"null","1655742","SARL_v6","SARL_v6tqr8c9w0","5859285b73f2620001c21bb8","fixation","","","img/fixation.png","null","","","test","","","","","","","","","","","","","","","","","","","",""
"596.2000000001863","1656348","SARL_v6","SARL_v6tqr8c9w0","5859285b73f2620001c21bb8","freq","","","img/blue_2bandit_b2.png","70","","70","test","1","","33","","","","circle","square","32","6","2","0.84375","","","","","","","",""
"null","1656575","SARL_v6","SARL_v6tqr8c9w0","5859285b73f2620001c21bb8","freq_resp","","","img/blue_2bandit_b.png","70","img/blue_2bandit_b.png","70","test","","","","","","","","","","","2","","","","","","","","",""
"null","1656750","SARL_v6","SARL_v6tqr8c9w0","5859285b73f2620001c21bb8","fixation","","","img/fixation.png","null","","","test","","","","","","","","","","","","","","","","","","","",""
"644","1657403","SARL_v6","SARL_v6tqr8c9w0","5859285b73f2620001c21bb8","freq","","","img/blue_2bandit_b2.png","70","","70","test","1","","34","","","","circle","square","33","7","2","0.8484848484848485","","","","","","","",""
"null","1657579","SARL_v6","SARL_v6tqr8c9w0","5859285b73f2620001c21bb8","freq_resp","","","img/blue_2bandit_b.png","70","img/blue_2bandit_b.png","70","test","","","","","","","","","","","2","","","","","","","","",""
"null","1657748","SARL_v6","SARL_v6tqr8c9w0","5859285b73f2620001c21bb8","fixation","","","img/fixation.png","null","","","test","","","","","","","","","","","","","","","","","","","",""
"581.2999999998137","1658339","SARL_v6","SARL_v6tqr8c9w0","5859285b73f2620001c21bb8","infreq","","","img/orange_2bandit_b2.png","68","","68","test","1","","35","","","","circle","square","34","8","2","0.8529411764705882","","","","","","","",""
"null","1658579","SARL_v6","SARL_v6tqr8c9w0","5859285b73f2620001c21bb8","infreq_resp","","","img/orange_2bandit_b.png","68","img/orange_2bandit_b.png","68","test","","","","","","","","","","","2","","","","","","","","",""
"null","1658747","SARL_v6","SARL_v6tqr8c9w0","5859285b73f2620001c21bb8","fixation","","","img/fixation.png","null","","","test","","","","","","","","","","","","","","","","","","","",""
"407.90000000037253","1659164","SARL_v6","SARL_v6tqr8c9w0","5859285b73f2620001c21bb8","freq","","","img/blue_2bandit_b2.png","70","","70","test","1","","36","","","","circle","square","35","9","2","0.8571428571428571","","","","","","","",""
"null","1659568","SARL_v6","SARL_v6tqr8c9w0","5859285b73f2620001c21bb8","freq_resp","","","img/blue_2bandit_b.png","70","img/blue_2bandit_b.png","70","test","","","","","","","","","","","2","","","","","","","","",""
"null","1659734","SARL_v6","SARL_v6tqr8c9w0","5859285b73f2620001c21bb8","fixation","","","img/fixation.png","null","","","test","","","","","","","","","","","","","","","","","","","",""
"576.5","1660320","SARL_v6","SARL_v6tqr8c9w0","5859285b73f2620001c21bb8","freq","","","img/blue_2bandit_b2.png","70","","70","test","1","","37","","","","circle","square","36","10","2","0.8611111111111112","","","","","","","",""
"null","1660564","SARL_v6","SARL_v6tqr8c9w0","5859285b73f2620001c21bb8","freq_resp","","","img/blue_2bandit_b.png","70","img/blue_2bandit_b.png","70","test","","","","","","","","","","","2","","","","","","","","",""
"null","1660739","SARL_v6","SARL_v6tqr8c9w0","5859285b73f2620001c21bb8","fixation","","","img/fixation.png","null","","","test","","","","","","","","","","","","","","","","","","","",""
"521.6000000005588","1661270","SARL_v6","SARL_v6tqr8c9w0","5859285b73f2620001c21bb8","freq","","","img/blue_2bandit_b2.png","70","","70","test","1","","38","","","","circle","square","37","11","2","0.8648648648648649","","","","","","","",""
"null","1661562","SARL_v6","SARL_v6tqr8c9w0","5859285b73f2620001c21bb8","freq_resp","","","img/blue_2bandit_b.png","70","img/blue_2bandit_b.png","70","test","","","","","","","","","","","2","","","","","","","","",""
"null","1661738","SARL_v6","SARL_v6tqr8c9w0","5859285b73f2620001c21bb8","fixation","","","img/fixation.png","null","","","test","","","","","","","","","","","","","","","","","","","",""
"583.0999999996275","1662330","SARL_v6","SARL_v6tqr8c9w0","5859285b73f2620001c21bb8","freq","","","img/blue_2bandit_b2.png","70","","70","test","1","","39","","","","circle","square","38","12","2","0.868421052631579","","","","","","","",""
"null","1662566","SARL_v6","SARL_v6tqr8c9w0","5859285b73f2620001c21bb8","freq_resp","","","img/blue_2bandit_b.png","70","img/blue_2bandit_b.png","70","test","","","","","","","","","","","2","","","","","","","","",""
"null","1662740","SARL_v6","SARL_v6tqr8c9w0","5859285b73f2620001c21bb8","fixation","","","img/fixation.png","null","","","test","","","","","","","","","","","","","","","","","","","",""
"506.8999999994412","1663257","SARL_v6","SARL_v6tqr8c9w0","5859285b73f2620001c21bb8","freq","","","img/blue_2bandit_b2.png","70","","70","test","1","","40","","","","circle","square","39","13","2","0.8717948717948718","","","","","","","",""
"null","1663563","SARL_v6","SARL_v6tqr8c9w0","5859285b73f2620001c21bb8","freq_resp","","","img/blue_2bandit_b.png","70","img/blue_2bandit_b.png","70","test","","","","","","","","","","","2","","","","","","","","",""
"null","1663726","SARL_v6","SARL_v6tqr8c9w0","5859285b73f2620001c21bb8","fixation","","","img/fixation.png","null","","","test","","","","","","","","","","","","","","","","","","","",""
"357.29999999981374","1664092","SARL_v6","SARL_v6tqr8c9w0","5859285b73f2620001c21bb8","freq","","","img/blue_2bandit_b2.png","70","","70","test","1","","41","","","","circle","square","40","14","2","0.875","","","","","","","",""
"null","1664554","SARL_v6","SARL_v6tqr8c9w0","5859285b73f2620001c21bb8","freq_resp","","","img/blue_2bandit_b.png","70","img/blue_2bandit_b.png","70","test","","","","","","","","","","","2","","","","","","","","",""
"null","1664727","SARL_v6","SARL_v6tqr8c9w0","5859285b73f2620001c21bb8","fixation","","","img/fixation.png","null","","","test","","","","","","","","","","","","","","","","","","","",""
"691.5","1665428","SARL_v6","SARL_v6tqr8c9w0","5859285b73f2620001c21bb8","infreq","","","img/orange_2bandit_b2.png","68","","68","test","1","","42","","","","circle","square","41","15","2","0.8780487804878049","","","","","","","",""
"null","1665547","SARL_v6","SARL_v6tqr8c9w0","5859285b73f2620001c21bb8","infreq_resp","","","img/orange_2bandit_b.png","68","img/orange_2bandit_b.png","68","test","","","","","","","","","","","2","","","","","","","","",""
"null","1665712","SARL_v6","SARL_v6tqr8c9w0","5859285b73f2620001c21bb8","fixation","","","img/fixation.png","null","","","test","","","","","","","","","","","","","","","","","","","",""
"454.59999999962747","1666177","SARL_v6","SARL_v6tqr8c9w0","5859285b73f2620001c21bb8","freq","","","img/blue_2bandit_b2.png","70","","70","test","1","","43","","","","circle","square","42","16","2","0.8809523809523809","","","","","","","",""
"null","1666534","SARL_v6","SARL_v6tqr8c9w0","5859285b73f2620001c21bb8","freq_resp","","","img/blue_2bandit_b.png","70","img/blue_2bandit_b.png","70","test","","","","","","","","","","","2","","","","","","","","",""
"null","1666694","SARL_v6","SARL_v6tqr8c9w0","5859285b73f2620001c21bb8","fixation","","","img/fixation.png","null","","","test","","","","","","","","","","","","","","","","","","","",""
"366.8999999994412","1667070","SARL_v6","SARL_v6tqr8c9w0","5859285b73f2620001c21bb8","freq","","","img/blue_2bandit_b2.png","70","","70","test","1","","44","","","","circle","square","43","17","2","0.8837209302325582","","","","","","","",""
"null","1667527","SARL_v6","SARL_v6tqr8c9w0","5859285b73f2620001c21bb8","freq_resp","","","img/blue_2bandit_b.png","70","img/blue_2bandit_b.png","70","test","","","","","","","","","","","2","","","","","","","","",""
"null","1667696","SARL_v6","SARL_v6tqr8c9w0","5859285b73f2620001c21bb8","fixation","","","img/fixation.png","null","","","test","","","","","","","","","","","","","","","","","","","",""
"451.5","1668157","SARL_v6","SARL_v6tqr8c9w0","5859285b73f2620001c21bb8","freq","","","img/blue_2bandit_b2.png","70","","70","test","1","","45","","","","circle","square","44","18","2","0.8863636363636364","","","","","","","",""
"null","1668518","SARL_v6","SARL_v6tqr8c9w0","5859285b73f2620001c21bb8","freq_resp","","","img/blue_2bandit_b.png","70","img/blue_2bandit_b.png","70","test","","","","","","","","","","","2","","","","","","","","",""
"null","1668683","SARL_v6","SARL_v6tqr8c9w0","5859285b73f2620001c21bb8","fixation","","","img/fixation.png","null","","","test","","","","","","","","","","","","","","","","","","","",""
"389.09999999962747","1669082","SARL_v6","SARL_v6tqr8c9w0","5859285b73f2620001c21bb8","freq","","","img/blue_2bandit_b2.png","70","","70","test","1","","46","","","","circle","square","45","19","2","0.8888888888888888","","","","","","","",""
"null","1669517","SARL_v6","SARL_v6tqr8c9w0","5859285b73f2620001c21bb8","freq_resp","","","img/blue_2bandit_b.png","70","img/blue_2bandit_b.png","70","test","","","","","","","","","","","2","","","","","","","","",""
"null","1669681","SARL_v6","SARL_v6tqr8c9w0","5859285b73f2620001c21bb8","fixation","","","img/fixation.png","null","","","test","","","","","","","","","","","","","","","","","","","",""
"428.5","1670120","SARL_v6","SARL_v6tqr8c9w0","5859285b73f2620001c21bb8","freq","","","img/blue_2bandit_b2.png","70","","70","test","1","","47","","","","circle","square","46","20","2","0.8913043478260869","","","","","","","",""
"null","1670505","SARL_v6","SARL_v6tqr8c9w0","5859285b73f2620001c21bb8","freq_resp","","","img/blue_2bandit_b.png","70","img/blue_2bandit_b.png","70","test","","","","","","","","","","","2","","","","","","","","",""
"null","1670669","SARL_v6","SARL_v6tqr8c9w0","5859285b73f2620001c21bb8","fixation","","","img/fixation.png","null","","","test","","","","","","","","","","","","","","","","","","","",""
"378.70000000018626","1671057","SARL_v6","SARL_v6tqr8c9w0","5859285b73f2620001c21bb8","freq","","","img/blue_2bandit_b2.png","70","","70","test","1","","48","","","","circle","square","47","21","2","0.8936170212765957","","","","","","","",""
"null","1671502","SARL_v6","SARL_v6tqr8c9w0","5859285b73f2620001c21bb8","freq_resp","","","img/blue_2bandit_b.png","70","img/blue_2bandit_b.png","70","test","","","","","","","","","","","2","","","","","","","","",""
"null","1671672","SARL_v6","SARL_v6tqr8c9w0","5859285b73f2620001c21bb8","fixation","","","img/fixation.png","null","","","test","","","","","","","","","","","","","","","","","","","",""
"419.5","1672101","SARL_v6","SARL_v6tqr8c9w0","5859285b73f2620001c21bb8","freq","","","img/blue_2bandit_b2.png","70","","70","test","1","","49","","","","circle","square","48","22","2","0.8958333333333334","","","","","","","",""
"null","1672508","SARL_v6","SARL_v6tqr8c9w0","5859285b73f2620001c21bb8","freq_resp","","","img/blue_2bandit_b.png","70","img/blue_2bandit_b.png","70","test","","","","","","","","","","","2","","","","","","","","",""
"null","1672673","SARL_v6","SARL_v6tqr8c9w0","5859285b73f2620001c21bb8","fixation","","","img/fixation.png","null","","","test","","","","","","","","","","","","","","","","","","","",""
"357.8999999994412","1673040","SARL_v6","SARL_v6tqr8c9w0","5859285b73f2620001c21bb8","freq","","","img/blue_2bandit_b2.png","70","","70","test","1","","50","","","","circle","square","49","23","2","0.8979591836734694","","","","","","","",""
"null","1673502","SARL_v6","SARL_v6tqr8c9w0","5859285b73f2620001c21bb8","freq_resp","","","img/blue_2bandit_b.png","70","img/blue_2bandit_b.png","70","test","","","","","","","","","","","2","","","","","","","","",""
"null","1673675","SARL_v6","SARL_v6tqr8c9w0","5859285b73f2620001c21bb8","fixation","","","img/fixation.png","null","","","test","","","","","","","","","","","","","","","","","","","",""
"354.79999999981374","1674037","SARL_v6","SARL_v6tqr8c9w0","5859285b73f2620001c21bb8","freq","","","img/blue_2bandit_b2.png","70","","70","test","1","","51","","","","circle","square","50","24","2","0.9","","","","","","","",""
"null","1674500","SARL_v6","SARL_v6tqr8c9w0","5859285b73f2620001c21bb8","freq_resp","","","img/blue_2bandit_b.png","70","img/blue_2bandit_b.png","70","test","","","","","","","","","","","2","","","","","","","","",""
"null","1674673","SARL_v6","SARL_v6tqr8c9w0","5859285b73f2620001c21bb8","fixation","","","img/fixation.png","null","","","test","","","","","","","","","","","","","","","","","","","",""
"889.5","1675573","SARL_v6","SARL_v6tqr8c9w0","5859285b73f2620001c21bb8","rl","","","img/black_2bandit_b2.png","75","","0","test","","","52","","","-5","circle","square","","0","2","","75","-8","-5","-8","-5","square","2","0"
"null","1676338","SARL_v6","SARL_v6tqr8c9w0","5859285b73f2620001c21bb8","feedback","","","<div class=""verylowPoints_sq""> -5 </div>","null","","na","test","","","NaN","","","","","","","","2","","75","","","","","","2",""
"null","1677149","SARL_v6","SARL_v6tqr8c9w0","5859285b73f2620001c21bb8","freq","","","img/blue_2bandit_b2.png","null","","70","test","0","","53","","","","circle","square","51","1","3","0.8823529411764706","","","","","","","",""
"null","1677314","SARL_v6","SARL_v6tqr8c9w0","5859285b73f2620001c21bb8","fixation","","","img/fixation.png","null","","","test","","","","","","","","","","","","","","","","","","","",""
"598.2999999998137","1677922","SARL_v6","SARL_v6tqr8c9w0","5859285b73f2620001c21bb8","freq","","","img/blue_2bandit_b2.png","70","","70","test","1","","54","","","","circle","square","52","2","3","0.8846153846153846","","","","","","","",""
"null","1678133","SARL_v6","SARL_v6tqr8c9w0","5859285b73f2620001c21bb8","freq_resp","","","img/blue_2bandit_b.png","70","img/blue_2bandit_b.png","70","test","","","","","","","","","","","3","","","","","","","","",""
"null","1678301","SARL_v6","SARL_v6tqr8c9w0","5859285b73f2620001c21bb8","fixation","","","img/fixation.png","null","","","test","","","","","","","","","","","","","","","","","","","",""
"423.79999999981374","1678734","SARL_v6","SARL_v6tqr8c9w0","5859285b73f2620001c21bb8","freq","","","img/blue_2bandit_b2.png","70","","70","test","1","","55","","","","circle","square","53","3","3","0.8867924528301887","","","","","","","",""
"null","1679135","SARL_v6","SARL_v6tqr8c9w0","5859285b73f2620001c21bb8","freq_resp","","","img/blue_2bandit_b.png","70","img/blue_2bandit_b.png","70","test","","","","","","","","","","","3","","","","","","","","",""
"null","1679299","SARL_v6","SARL_v6tqr8c9w0","5859285b73f2620001c21bb8","fixation","","","img/fixation.png","null","","","test","","","","","","","","","","","","","","","","","","","",""
"314","1679623","SARL_v6","SARL_v6tqr8c9w0","5859285b73f2620001c21bb8","freq","","","img/blue_2bandit_b2.png","70","","70","test","1","","56","","","","circle","square","54","4","3","0.8888888888888888","","","","","","","",""
"null","1680128","SARL_v6","SARL_v6tqr8c9w0","5859285b73f2620001c21bb8","freq_resp","","","img/blue_2bandit_b.png","70","img/blue_2bandit_b.png","70","test","","","","","","","","","","","3","","","","","","","","",""
"null","1680302","SARL_v6","SARL_v6tqr8c9w0","5859285b73f2620001c21bb8","fixation","","","img/fixation.png","null","","","test","","","","","","","","","","","","","","","","","","","",""
"356.5","1680669","SARL_v6","SARL_v6tqr8c9w0","5859285b73f2620001c21bb8","freq","","","img/blue_2bandit_b2.png","70","","70","test","1","","57","","","","circle","square","55","5","3","0.8909090909090909","","","","","","","",""
"null","1681134","SARL_v6","SARL_v6tqr8c9w0","5859285b73f2620001c21bb8","freq_resp","","","img/blue_2bandit_b.png","70","img/blue_2bandit_b.png","70","test","","","","","","","","","","","3","","","","","","","","",""
"null","1681305","SARL_v6","SARL_v6tqr8c9w0","5859285b73f2620001c21bb8","fixation","","","img/fixation.png","null","","","test","","","","","","","","","","","","","","","","","","","",""
"346.09999999962747","1681660","SARL_v6","SARL_v6tqr8c9w0","5859285b73f2620001c21bb8","freq","","","img/blue_2bandit_b2.png","70","","70","test","1","","58","","","","circle","square","56","6","3","0.8928571428571429","","","","","","","",""
"null","1682131","SARL_v6","SARL_v6tqr8c9w0","5859285b73f2620001c21bb8","freq_resp","","","img/blue_2bandit_b.png","70","img/blue_2bandit_b.png","70","test","","","","","","","","","","","3","","","","","","","","",""
"null","1682303","SARL_v6","SARL_v6tqr8c9w0","5859285b73f2620001c21bb8","fixation","","","img/fixation.png","null","","","test","","","","","","","","","","","","","","","","","","","",""
"320.59999999962747","1682634","SARL_v6","SARL_v6tqr8c9w0","5859285b73f2620001c21bb8","freq","","","img/blue_2bandit_b2.png","70","","70","test","1","","59","","","","circle","square","57","7","3","0.8947368421052632","","","","","","","",""
"null","1683133","SARL_v6","SARL_v6tqr8c9w0","5859285b73f2620001c21bb8","freq_resp","","","img/blue_2bandit_b.png","70","img/blue_2bandit_b.png","70","test","","","","","","","","","","","3","","","","","","","","",""
"null","1683306","SARL_v6","SARL_v6tqr8c9w0","5859285b73f2620001c21bb8","fixation","","","img/fixation.png","null","","","test","","","","","","","","","","","","","","","","","","","",""
"491.40000000037253","1683804","SARL_v6","SARL_v6tqr8c9w0","5859285b73f2620001c21bb8","infreq","","","img/orange_2bandit_b2.png","68","","68","test","1","","60","","","","circle","square","58","8","3","0.896551724137931","","","","","","","",""
"null","1684128","SARL_v6","SARL_v6tqr8c9w0","5859285b73f2620001c21bb8","infreq_resp","","","img/orange_2bandit_b.png","68","img/orange_2bandit_b.png","68","test","","","","","","","","","","","3","","","","","","","","",""
"null","1684288","SARL_v6","SARL_v6tqr8c9w0","5859285b73f2620001c21bb8","fixation","","","img/fixation.png","null","","","test","","","","","","","","","","","","","","","","","","","",""
"451.90000000037253","1684747","SARL_v6","SARL_v6tqr8c9w0","5859285b73f2620001c21bb8","infreq","","","img/orange_2bandit_b2.png","68","","68","test","1","","61","","","","circle","square","59","9","3","0.8983050847457628","","","","","","","",""
"null","1685110","SARL_v6","SARL_v6tqr8c9w0","5859285b73f2620001c21bb8","infreq_resp","","","img/orange_2bandit_b.png","68","img/orange_2bandit_b.png","68","test","","","","","","","","","","","3","","","","","","","","",""
"null","1685291","SARL_v6","SARL_v6tqr8c9w0","5859285b73f2620001c21bb8","fixation","","","img/fixation.png","null","","","test","","","","","","","","","","","","","","","","","","","",""
"489.1000000005588","1685790","SARL_v6","SARL_v6tqr8c9w0","5859285b73f2620001c21bb8","freq","","","img/blue_2bandit_b2.png","70","","70","test","1","","62","","","","circle","square","60","10","3","0.9","","","","","","","",""
"null","1686117","SARL_v6","SARL_v6tqr8c9w0","5859285b73f2620001c21bb8","freq_resp","","","img/blue_2bandit_b.png","70","img/blue_2bandit_b.png","70","test","","","","","","","","","","","3","","","","","","","","",""
"null","1686282","SARL_v6","SARL_v6tqr8c9w0","5859285b73f2620001c21bb8","fixation","","","img/fixation.png","null","","","test","","","","","","","","","","","","","","","","","","","",""
"378.5","1686670","SARL_v6","SARL_v6tqr8c9w0","5859285b73f2620001c21bb8","freq","","","img/blue_2bandit_b2.png","70","","70","test","1","","63","","","","circle","square","61","11","3","0.9016393442622951","","","","","","","",""
"null","1687110","SARL_v6","SARL_v6tqr8c9w0","5859285b73f2620001c21bb8","freq_resp","","","img/blue_2bandit_b.png","70","img/blue_2bandit_b.png","70","test","","","","","","","","","","","3","","","","","","","","",""
"null","1687280","SARL_v6","SARL_v6tqr8c9w0","5859285b73f2620001c21bb8","fixation","","","img/fixation.png","null","","","test","","","","","","","","","","","","","","","","","","","",""
"367.3999999994412","1687657","SARL_v6","SARL_v6tqr8c9w0","5859285b73f2620001c21bb8","freq","","","img/blue_2bandit_b2.png","70","","70","test","1","","64","","","","circle","square","62","12","3","0.9032258064516129","","","","","","","",""
"null","1688110","SARL_v6","SARL_v6tqr8c9w0","5859285b73f2620001c21bb8","freq_resp","","","img/blue_2bandit_b.png","70","img/blue_2bandit_b.png","70","test","","","","","","","","","","","3","","","","","","","","",""
"null","1688279","SARL_v6","SARL_v6tqr8c9w0","5859285b73f2620001c21bb8","fixation","","","img/fixation.png","null","","","test","","","","","","","","","","","","","","","","","","","",""
"386","1688676","SARL_v6","SARL_v6tqr8c9w0","5859285b73f2620001c21bb8","freq","","","img/blue_2bandit_b2.png","70","","70","test","1","","65","","","","circle","square","63","13","3","0.9047619047619048","","","","","","","",""
"null","1689115","SARL_v6","SARL_v6tqr8c9w0","5859285b73f2620001c21bb8","freq_resp","","","img/blue_2bandit_b.png","70","img/blue_2bandit_b.png","70","test","","","","","","","","","","","3","","","","","","","","",""
"null","1689285","SARL_v6","SARL_v6tqr8c9w0","5859285b73f2620001c21bb8","fixation","","","img/fixation.png","null","","","test","","","","","","","","","","","","","","","","","","","",""
"378.70000000018626","1689673","SARL_v6","SARL_v6tqr8c9w0","5859285b73f2620001c21bb8","freq","","","img/blue_2bandit_b2.png","70","","70","test","1","","66","","","","circle","square","64","14","3","0.90625","","","","","","","",""
"null","1690116","SARL_v6","SARL_v6tqr8c9w0","5859285b73f2620001c21bb8","freq_resp","","","img/blue_2bandit_b.png","70","img/blue_2bandit_b.png","70","test","","","","","","","","","","","3","","","","","","","","",""
"null","1690286","SARL_v6","SARL_v6tqr8c9w0","5859285b73f2620001c21bb8","fixation","","","img/fixation.png","null","","","test","","","","","","","","","","","","","","","","","","","",""
"378.19999999925494","1690673","SARL_v6","SARL_v6tqr8c9w0","5859285b73f2620001c21bb8","freq","","","img/blue_2bandit_b2.png","70","","70","test","1","","67","","","","circle","square","65","15","3","0.9076923076923077","","","","","","","",""
"null","1691107","SARL_v6","SARL_v6tqr8c9w0","5859285b73f2620001c21bb8","freq_resp","","","img/blue_2bandit_b.png","70","img/blue_2bandit_b.png","70","test","","","","","","","","","","","3","","","","","","","","",""
"null","1691267","SARL_v6","SARL_v6tqr8c9w0","5859285b73f2620001c21bb8","fixation","","","img/fixation.png","null","","","test","","","","","","","","","","","","","","","","","","","",""
"341.3999999994412","1691618","SARL_v6","SARL_v6tqr8c9w0","5859285b73f2620001c21bb8","freq","","","img/blue_2bandit_b2.png","70","","70","test","1","","68","","","","circle","square","66","16","3","0.9090909090909091","","","","","","","",""
"null","1692098","SARL_v6","SARL_v6tqr8c9w0","5859285b73f2620001c21bb8","freq_resp","","","img/blue_2bandit_b.png","70","img/blue_2bandit_b.png","70","test","","","","","","","","","","","3","","","","","","","","",""
"null","1692273","SARL_v6","SARL_v6tqr8c9w0","5859285b73f2620001c21bb8","fixation","","","img/fixation.png","null","","","test","","","","","","","","","","","","","","","","","","","",""
"214.5","1692497","SARL_v6","SARL_v6tqr8c9w0","5859285b73f2620001c21bb8","freq","","","img/blue_2bandit_b2.png","70","","70","test","1","","69","","","","circle","square","67","17","3","0.9104477611940298","","","","","","","",""
"null","1693093","SARL_v6","SARL_v6tqr8c9w0","5859285b73f2620001c21bb8","freq_resp","","","img/blue_2bandit_b.png","70","img/blue_2bandit_b.png","70","test","","","","","","","","","","","3","","","","","","","","",""
"null","1693258","SARL_v6","SARL_v6tqr8c9w0","5859285b73f2620001c21bb8","fixation","","","img/fixation.png","null","","","test","","","","","","","","","","","","","","","","","","","",""
"190","1693458","SARL_v6","SARL_v6tqr8c9w0","5859285b73f2620001c21bb8","freq","","","img/blue_2bandit_b2.png","70","","70","test","1","","70","","","","circle","square","68","18","3","0.9117647058823529","","","","","","","",""
"null","1694078","SARL_v6","SARL_v6tqr8c9w0","5859285b73f2620001c21bb8","freq_resp","","","img/blue_2bandit_b.png","70","img/blue_2bandit_b.png","70","test","","","","","","","","","","","3","","","","","","","","",""
"null","1694239","SARL_v6","SARL_v6tqr8c9w0","5859285b73f2620001c21bb8","fixation","","","img/fixation.png","null","","","test","","","","","","","","","","","","","","","","","","","",""
"179.1000000005588","1694428","SARL_v6","SARL_v6tqr8c9w0","5859285b73f2620001c21bb8","freq","","","img/blue_2bandit_b2.png","70","","70","test","1","","71","","","","circle","square","69","19","3","0.9130434782608695","","","","","","","",""
"null","1695062","SARL_v6","SARL_v6tqr8c9w0","5859285b73f2620001c21bb8","freq_resp","","","img/blue_2bandit_b.png","70","img/blue_2bandit_b.png","70","test","","","","","","","","","","","3","","","","","","","","",""
"null","1695228","SARL_v6","SARL_v6tqr8c9w0","5859285b73f2620001c21bb8","fixation","","","img/fixation.png","null","","","test","","","","","","","","","","","","","","","","","","","",""
"233.59999999962747","1695471","SARL_v6","SARL_v6tqr8c9w0","5859285b73f2620001c21bb8","freq","","","img/blue_2bandit_b2.png","70","","70","test","1","","72","","","","circle","square","70","20","3","0.9142857142857143","","","","","","","",""
"null","1696050","SARL_v6","SARL_v6tqr8c9w0","5859285b73f2620001c21bb8","freq_resp","","","img/blue_2bandit_b.png","70","img/blue_2bandit_b.png","70","test","","","","","","","","","","","3","","","","","","","","",""
"null","1696213","SARL_v6","SARL_v6tqr8c9w0","5859285b73f2620001c21bb8","fixation","","","img/fixation.png","null","","","test","","","","","","","","","","","","","","","","","","","",""
"316.79999999981374","1696540","SARL_v6","SARL_v6tqr8c9w0","5859285b73f2620001c21bb8","freq","","","img/blue_2bandit_b2.png","70","","70","test","1","","73","","","","circle","square","71","21","3","0.9154929577464789","","","","","","","",""
"null","1697040","SARL_v6","SARL_v6tqr8c9w0","5859285b73f2620001c21bb8","freq_resp","","","img/blue_2bandit_b.png","70","img/blue_2bandit_b.png","70","test","","","","","","","","","","","3","","","","","","","","",""
"null","1697214","SARL_v6","SARL_v6tqr8c9w0","5859285b73f2620001c21bb8","fixation","","","img/fixation.png","null","","","test","","","","","","","","","","","","","","","","","","","",""
"296.59999999962747","1697520","SARL_v6","SARL_v6tqr8c9w0","5859285b73f2620001c21bb8","freq","","","img/blue_2bandit_b2.png","70","","70","test","1","","74","","","","circle","square","72","22","3","0.9166666666666666","","","","","","","",""
"null","1698040","SARL_v6","SARL_v6tqr8c9w0","5859285b73f2620001c21bb8","freq_resp","","","img/blue_2bandit_b.png","70","img/blue_2bandit_b.png","70","test","","","","","","","","","","","3","","","","","","","","",""
"null","1698215","SARL_v6","SARL_v6tqr8c9w0","5859285b73f2620001c21bb8","fixation","","","img/fixation.png","null","","","test","","","","","","","","","","","","","","","","","","","",""
"845","1699070","SARL_v6","SARL_v6tqr8c9w0","5859285b73f2620001c21bb8","rl","","","img/black_2bandit_b2.png","75","","0","test","","","75","","","-4","circle","square","","0","3","","75","-8","-4","-8","-4","square","3","0"
"null","1699842","SARL_v6","SARL_v6tqr8c9w0","5859285b73f2620001c21bb8","feedback","","","<div class=""verylowPoints_sq""> -4 </div>","null","","na","test","","","NaN","","","","","","","","3","","75","","","","","","3",""
"572","1700428","SARL_v6","SARL_v6tqr8c9w0","5859285b73f2620001c21bb8","freq","","","img/blue_2bandit_b2.png","70","","70","test","1","","76","","","","circle","square","73","1","4","0.9178082191780822","","","","","","","",""
"null","1700680","SARL_v6","SARL_v6tqr8c9w0","5859285b73f2620001c21bb8","freq_resp","","","img/blue_2bandit_b.png","70","img/blue_2bandit_b.png","70","test","","","","","","","","","","","4","","","","","","","","",""
"null","1700853","SARL_v6","SARL_v6tqr8c9w0","5859285b73f2620001c21bb8","fixation","","","img/fixation.png","null","","","test","","","","","","","","","","","","","","","","","","","",""
"418.79999999981374","1701282","SARL_v6","SARL_v6tqr8c9w0","5859285b73f2620001c21bb8","freq","","","img/blue_2bandit_b2.png","70","","70","test","1","","77","","","","circle","square","74","2","4","0.918918918918919","","","","","","","",""
"null","1701689","SARL_v6","SARL_v6tqr8c9w0","5859285b73f2620001c21bb8","freq_resp","","","img/blue_2bandit_b.png","70","img/blue_2bandit_b.png","70","test","","","","","","","","","","","4","","","","","","","","",""
"null","1701852","SARL_v6","SARL_v6tqr8c9w0","5859285b73f2620001c21bb8","fixation","","","img/fixation.png","null","","","test","","","","","","","","","","","","","","","","","","","",""
"313.1000000005588","1702175","SARL_v6","SARL_v6tqr8c9w0","5859285b73f2620001c21bb8","freq","","","img/blue_2bandit_b2.png","70","","70","test","1","","78","","","","circle","square","75","3","4","0.92","","","","","","","",""
"null","1702682","SARL_v6","SARL_v6tqr8c9w0","5859285b73f2620001c21bb8","freq_resp","","","img/blue_2bandit_b.png","70","img/blue_2bandit_b.png","70","test","","","","","","","","","","","4","","","","","","","","",""
"null","1702857","SARL_v6","SARL_v6tqr8c9w0","5859285b73f2620001c21bb8","fixation","","","img/fixation.png","null","","","test","","","","","","","","","","","","","","","","","","","",""
"503.79999999981374","1703369","SARL_v6","SARL_v6tqr8c9w0","5859285b73f2620001c21bb8","freq","","","img/blue_2bandit_b2.png","70","","70","test","1","","79","","","","circle","square","76","4","4","0.9210526315789473","","","","","","","",""
"null","1703681","SARL_v6","SARL_v6tqr8c9w0","5859285b73f2620001c21bb8","freq_resp","","","img/blue_2bandit_b.png","70","img/blue_2bandit_b.png","70","test","","","","","","","","","","","4","","","","","","","","",""
"null","1703842","SARL_v6","SARL_v6tqr8c9w0","5859285b73f2620001c21bb8","fixation","","","img/fixation.png","null","","","test","","","","","","","","","","","","","","","","","","","",""
"379.6000000005588","1704232","SARL_v6","SARL_v6tqr8c9w0","5859285b73f2620001c21bb8","freq","","","img/blue_2bandit_b2.png","70","","70","test","1","","80","","","","circle","square","77","5","4","0.922077922077922","","","","","","","",""
"null","1704675","SARL_v6","SARL_v6tqr8c9w0","5859285b73f2620001c21bb8","freq_resp","","","img/blue_2bandit_b.png","70","img/blue_2bandit_b.png","70","test","","","","","","","","","","","4","","","","","","","","",""
"null","1704843","SARL_v6","SARL_v6tqr8c9w0","5859285b73f2620001c21bb8","fixation","","","img/fixation.png","null","","","test","","","","","","","","","","","","","","","","","","","",""
"499.30000000074506","1705352","SARL_v6","SARL_v6tqr8c9w0","5859285b73f2620001c21bb8","infreq","","","img/orange_2bandit_b2.png","68","","68","test","1","","81","","","","circle","square","78","6","4","0.9230769230769231","","","","","","","",""
"null","1705668","SARL_v6","SARL_v6tqr8c9w0","5859285b73f2620001c21bb8","infreq_resp","","","img/orange_2bandit_b.png","68","img/orange_2bandit_b.png","68","test","","","","","","","","","","","4","","","","","","","","",""
"null","1705842","SARL_v6","SARL_v6tqr8c9w0","5859285b73f2620001c21bb8","fixation","","","img/fixation.png","null","","","test","","","","","","","","","","","","","","","","","","","",""
"452.5","1706304","SARL_v6","SARL_v6tqr8c9w0","5859285b73f2620001c21bb8","freq","","","img/blue_2bandit_b2.png","70","","70","test","1","","82","","","","circle","square","79","7","4","0.9240506329113924","","","","","","","",""
"null","1706667","SARL_v6","SARL_v6tqr8c9w0","5859285b73f2620001c21bb8","freq_resp","","","img/blue_2bandit_b.png","70","img/blue_2bandit_b.png","70","test","","","","","","","","","","","4","","","","","","","","",""
"null","1706831","SARL_v6","SARL_v6tqr8c9w0","5859285b73f2620001c21bb8","fixation","","","img/fixation.png","null","","","test","","","","","","","","","","","","","","","","","","","",""
"390","1707232","SARL_v6","SARL_v6tqr8c9w0","5859285b73f2620001c21bb8","freq","","","img/blue_2bandit_b2.png","70","","70","test","1","","83","","","","circle","square","80","8","4","0.925","","","","","","","",""
"null","1707666","SARL_v6","SARL_v6tqr8c9w0","5859285b73f2620001c21bb8","freq_resp","","","img/blue_2bandit_b.png","70","img/blue_2bandit_b.png","70","test","","","","","","","","","","","4","","","","","","","","",""
"null","1707832","SARL_v6","SARL_v6tqr8c9w0","5859285b73f2620001c21bb8","fixation","","","img/fixation.png","null","","","test","","","","","","","","","","","","","","","","","","","",""
"334.3999999994412","1708175","SARL_v6","SARL_v6tqr8c9w0","5859285b73f2620001c21bb8","freq","","","img/blue_2bandit_b2.png","70","","70","test","1","","84","","","","circle","square","81","9","4","0.9259259259259259","","","","","","","",""
"null","1708660","SARL_v6","SARL_v6tqr8c9w0","5859285b73f2620001c21bb8","freq_resp","","","img/blue_2bandit_b.png","70","img/blue_2bandit_b.png","70","test","","","","","","","","","","","4","","","","","","","","",""
"null","1708832","SARL_v6","SARL_v6tqr8c9w0","5859285b73f2620001c21bb8","fixation","","","img/fixation.png","null","","","test","","","","","","","","","","","","","","","","","","","",""
"325.20000000018626","1709167","SARL_v6","SARL_v6tqr8c9w0","5859285b73f2620001c21bb8","freq","","","img/blue_2bandit_b2.png","70","","70","test","1","","85","","","","circle","square","82","10","4","0.926829268292683","","","","","","","",""
"null","1709671","SARL_v6","SARL_v6tqr8c9w0","5859285b73f2620001c21bb8","freq_resp","","","img/blue_2bandit_b.png","70","img/blue_2bandit_b.png","70","test","","","","","","","","","","","4","","","","","","","","",""
"null","1709834","SARL_v6","SARL_v6tqr8c9w0","5859285b73f2620001c21bb8","fixation","","","img/fixation.png","null","","","test","","","","","","","","","","","","","","","","","","","",""
"361.79999999981374","1710205","SARL_v6","SARL_v6tqr8c9w0","5859285b73f2620001c21bb8","freq","","","img/blue_2bandit_b2.png","70","","70","test","1","","86","","","","circle","square","83","11","4","0.927710843373494","","","","","","","",""
"null","1710666","SARL_v6","SARL_v6tqr8c9w0","5859285b73f2620001c21bb8","freq_resp","","","img/blue_2bandit_b.png","70","img/blue_2bandit_b.png","70","test","","","","","","","","","","","4","","","","","","","","",""
"null","1710835","SARL_v6","SARL_v6tqr8c9w0","5859285b73f2620001c21bb8","fixation","","","img/fixation.png","null","","","test","","","","","","","","","","","","","","","","","","","",""
"358.19999999925494","1711204","SARL_v6","SARL_v6tqr8c9w0","5859285b73f2620001c21bb8","freq","","","img/blue_2bandit_b2.png","70","","70","test","1","","87","","","","circle","square","84","12","4","0.9285714285714286","","","","","","","",""
"null","1711667","SARL_v6","SARL_v6tqr8c9w0","5859285b73f2620001c21bb8","freq_resp","","","img/blue_2bandit_b.png","70","img/blue_2bandit_b.png","70","test","","","","","","","","","","","4","","","","","","","","",""
"null","1711836","SARL_v6","SARL_v6tqr8c9w0","5859285b73f2620001c21bb8","fixation","","","img/fixation.png","null","","","test","","","","","","","","","","","","","","","","","","","",""
"524.6000000005588","1712370","SARL_v6","SARL_v6tqr8c9w0","5859285b73f2620001c21bb8","infreq","","","img/orange_2bandit_b2.png","68","","68","test","1","","88","","","","circle","square","85","13","4","0.9294117647058824","","","","","","","",""
"null","1712666","SARL_v6","SARL_v6tqr8c9w0","5859285b73f2620001c21bb8","infreq_resp","","","img/orange_2bandit_b.png","68","img/orange_2bandit_b.png","68","test","","","","","","","","","","","4","","","","","","","","",""
"null","1712841","SARL_v6","SARL_v6tqr8c9w0","5859285b73f2620001c21bb8","fixation","","","img/fixation.png","null","","","test","","","","","","","","","","","","","","","","","","","",""
"411.40000000037253","1713262","SARL_v6","SARL_v6tqr8c9w0","5859285b73f2620001c21bb8","freq","","","img/blue_2bandit_b2.png","70","","70","test","1","","89","","","","circle","square","86","14","4","0.9302325581395349","","","","","","","",""
"null","1713675","SARL_v6","SARL_v6tqr8c9w0","5859285b73f2620001c21bb8","freq_resp","","","img/blue_2bandit_b.png","70","img/blue_2bandit_b.png","70","test","","","","","","","","","","","4","","","","","","","","",""
"null","1713837","SARL_v6","SARL_v6tqr8c9w0","5859285b73f2620001c21bb8","fixation","","","img/fixation.png","null","","","test","","","","","","","","","","","","","","","","","","","",""
"347.29999999981374","1714193","SARL_v6","SARL_v6tqr8c9w0","5859285b73f2620001c21bb8","freq","","","img/blue_2bandit_b2.png","70","","70","test","1","","90","","","","circle","square","87","15","4","0.9310344827586207","","","","","","","",""
"null","1714656","SARL_v6","SARL_v6tqr8c9w0","5859285b73f2620001c21bb8","freq_resp","","","img/blue_2bandit_b.png","70","img/blue_2bandit_b.png","70","test","","","","","","","","","","","4","","","","","","","","",""
"null","1714825","SARL_v6","SARL_v6tqr8c9w0","5859285b73f2620001c21bb8","fixation","","","img/fixation.png","null","","","test","","","","","","","","","","","","","","","","","","","",""
"357.20000000018626","1715192","SARL_v6","SARL_v6tqr8c9w0","5859285b73f2620001c21bb8","freq","","","img/blue_2bandit_b2.png","70","","70","test","1","","91","","","","circle","square","88","16","4","0.9318181818181818","","","","","","","",""
"null","1715660","SARL_v6","SARL_v6tqr8c9w0","5859285b73f2620001c21bb8","freq_resp","","","img/blue_2bandit_b.png","70","img/blue_2bandit_b.png","70","test","","","","","","","","","","","4","","","","","","","","",""
"null","1715828","SARL_v6","SARL_v6tqr8c9w0","5859285b73f2620001c21bb8","fixation","","","img/fixation.png","null","","","test","","","","","","","","","","","","","","","","","","","",""
"390","1716227","SARL_v6","SARL_v6tqr8c9w0","5859285b73f2620001c21bb8","freq","","","img/blue_2bandit_b2.png","70","","70","test","1","","92","","","","circle","square","89","17","4","0.9325842696629213","","","","","","","",""
"null","1716662","SARL_v6","SARL_v6tqr8c9w0","5859285b73f2620001c21bb8","freq_resp","","","img/blue_2bandit_b.png","70","img/blue_2bandit_b.png","70","test","","","","","","","","","","","4","","","","","","","","",""
"null","1716831","SARL_v6","SARL_v6tqr8c9w0","5859285b73f2620001c21bb8","fixation","","","img/fixation.png","null","","","test","","","","","","","","","","","","","","","","","","","",""
"356","1717197","SARL_v6","SARL_v6tqr8c9w0","5859285b73f2620001c21bb8","freq","","","img/blue_2bandit_b2.png","70","","70","test","1","","93","","","","circle","square","90","18","4","0.9333333333333333","","","","","","","",""
"null","1717663","SARL_v6","SARL_v6tqr8c9w0","5859285b73f2620001c21bb8","freq_resp","","","img/blue_2bandit_b.png","70","img/blue_2bandit_b.png","70","test","","","","","","","","","","","4","","","","","","","","",""
"null","1717829","SARL_v6","SARL_v6tqr8c9w0","5859285b73f2620001c21bb8","fixation","","","img/fixation.png","null","","","test","","","","","","","","","","","","","","","","","","","",""
"370","1718208","SARL_v6","SARL_v6tqr8c9w0","5859285b73f2620001c21bb8","freq","","","img/blue_2bandit_b2.png","70","","70","test","1","","94","","","","circle","square","91","19","4","0.9340659340659341","","","","","","","",""
"null","1718663","SARL_v6","SARL_v6tqr8c9w0","5859285b73f2620001c21bb8","freq_resp","","","img/blue_2bandit_b.png","70","img/blue_2bandit_b.png","70","test","","","","","","","","","","","4","","","","","","","","",""
"null","1718835","SARL_v6","SARL_v6tqr8c9w0","5859285b73f2620001c21bb8","fixation","","","img/fixation.png","null","","","test","","","","","","","","","","","","","","","","","","","",""
"484.90000000037253","1719330","SARL_v6","SARL_v6tqr8c9w0","5859285b73f2620001c21bb8","rl","","","img/black_2bandit_b2.png","75","","0","test","","","95","","","0","circle","square","","0","4","","75","-12","0","-12","0","square","4","0"
"null","1720093","SARL_v6","SARL_v6tqr8c9w0","5859285b73f2620001c21bb8","feedback","","","<div class=""verylowPoints_sq""> 0 </div>","null","","na","test","","","NaN","","","","","","","","4","","75","","","","","","4",""
"758.6999999992549","1720861","SARL_v6","SARL_v6tqr8c9w0","5859285b73f2620001c21bb8","freq","","","img/blue_2bandit_b2.png","70","","70","test","1","","96","","","","circle","square","92","1","5","0.9347826086956522","","","","","","","",""
"null","1720910","SARL_v6","SARL_v6tqr8c9w0","5859285b73f2620001c21bb8","freq_resp","","","img/blue_2bandit_b.png","70","img/blue_2bandit_b.png","70","test","","","","","","","","","","","5","","","","","","","","",""
"null","1721071","SARL_v6","SARL_v6tqr8c9w0","5859285b73f2620001c21bb8","fixation","","","img/fixation.png","null","","","test","","","","","","","","","","","","","","","","","","","",""
"718.2000000001863","1721799","SARL_v6","SARL_v6tqr8c9w0","5859285b73f2620001c21bb8","freq","","","img/blue_2bandit_b2.png","70","","70","test","1","","97","","","","circle","square","93","2","5","0.9354838709677419","","","","","","","",""
"null","1721893","SARL_v6","SARL_v6tqr8c9w0","5859285b73f2620001c21bb8","freq_resp","","","img/blue_2bandit_b.png","70","img/blue_2bandit_b.png","70","test","","","","","","","","","","","5","","","","","","","","",""
"null","1722059","SARL_v6","SARL_v6tqr8c9w0","5859285b73f2620001c21bb8","fixation","","","img/fixation.png","null","","","test","","","","","","","","","","","","","","","","","","","",""
"759.7999999998137","1722828","SARL_v6","SARL_v6tqr8c9w0","5859285b73f2620001c21bb8","freq","","","img/blue_2bandit_b2.png","70","","70","test","1","","98","","","","circle","square","94","3","5","0.9361702127659575","","","","","","","",""
"null","1722876","SARL_v6","SARL_v6tqr8c9w0","5859285b73f2620001c21bb8","freq_resp","","","img/blue_2bandit_b.png","70","img/blue_2bandit_b.png","70","test","","","","","","","","","","","5","","","","","","","","",""
"null","1723040","SARL_v6","SARL_v6tqr8c9w0","5859285b73f2620001c21bb8","fixation","","","img/fixation.png","null","","","test","","","","","","","","","","","","","","","","","","","",""
"588.5999999996275","1723638","SARL_v6","SARL_v6tqr8c9w0","5859285b73f2620001c21bb8","freq","","","img/blue_2bandit_b2.png","70","","70","test","1","","99","","","","circle","square","95","4","5","0.9368421052631579","","","","","","","",""
"null","1723870","SARL_v6","SARL_v6tqr8c9w0","5859285b73f2620001c21bb8","freq_resp","","","img/blue_2bandit_b.png","70","img/blue_2bandit_b.png","70","test","","","","","","","","","","","5","","","","","","","","",""
"null","1724039","SARL_v6","SARL_v6tqr8c9w0","5859285b73f2620001c21bb8","fixation","","","img/fixation.png","null","","","test","","","","","","","","","","","","","","","","","","","",""
"368.5","1724417","SARL_v6","SARL_v6tqr8c9w0","5859285b73f2620001c21bb8","freq","","","img/blue_2bandit_b2.png","70","","70","test","1","","100","","","","circle","square","96","5","5","0.9375","","","","","","","",""
"null","1724859","SARL_v6","SARL_v6tqr8c9w0","5859285b73f2620001c21bb8","freq_resp","","","img/blue_2bandit_b.png","70","img/blue_2bandit_b.png","70","test","","","","","","","","","","","5","","","","","","","","",""
"null","1725026","SARL_v6","SARL_v6tqr8c9w0","5859285b73f2620001c21bb8","fixation","","","img/fixation.png","null","","","test","","","","","","","","","","","","","","","","","","","",""
"345.90000000037253","1725382","SARL_v6","SARL_v6tqr8c9w0","5859285b73f2620001c21bb8","freq","","","img/blue_2bandit_b2.png","70","","70","test","1","","101","","","","circle","square","97","6","5","0.9381443298969072","","","","","","","",""
"null","1725858","SARL_v6","SARL_v6tqr8c9w0","5859285b73f2620001c21bb8","freq_resp","","","img/blue_2bandit_b.png","70","img/blue_2bandit_b.png","70","test","","","","","","","","","","","5","","","","","","","","",""
"null","1726028","SARL_v6","SARL_v6tqr8c9w0","5859285b73f2620001c21bb8","fixation","","","img/fixation.png","null","","","test","","","","","","","","","","","","","","","","","","","",""
"330.1000000005588","1726367","SARL_v6","SARL_v6tqr8c9w0","5859285b73f2620001c21bb8","freq","","","img/blue_2bandit_b2.png","70","","70","test","1","","102","","","","circle","square","98","7","5","0.9387755102040817","","","","","","","",""
"null","1726858","SARL_v6","SARL_v6tqr8c9w0","5859285b73f2620001c21bb8","freq_resp","","","img/blue_2bandit_b.png","70","img/blue_2bandit_b.png","70","test","","","","","","","","","","","5","","","","","","","","",""
"null","1727030","SARL_v6","SARL_v6tqr8c9w0","5859285b73f2620001c21bb8","fixation","","","img/fixation.png","null","","","test","","","","","","","","","","","","","","","","","","","",""
"303.20000000018626","1727342","SARL_v6","SARL_v6tqr8c9w0","5859285b73f2620001c21bb8","freq","","","img/blue_2bandit_b2.png","70","","70","test","1","","103","","","","circle","square","99","8","5","0.9393939393939394","","","","","","","",""
"null","1727859","SARL_v6","SARL_v6tqr8c9w0","5859285b73f2620001c21bb8","freq_resp","","","img/blue_2bandit_b.png","70","img/blue_2bandit_b.png","70","test","","","","","","","","","","","5","","","","","","","","",""
"null","1728032","SARL_v6","SARL_v6tqr8c9w0","5859285b73f2620001c21bb8","fixation","","","img/fixation.png","null","","","test","","","","","","","","","","","","","","","","","","","",""
"337.3999999994412","1728379","SARL_v6","SARL_v6tqr8c9w0","5859285b73f2620001c21bb8","freq","","","img/blue_2bandit_b2.png","70","","70","test","1","","104","","","","circle","square","100","9","5","0.94","","","","","","","",""
"null","1728871","SARL_v6","SARL_v6tqr8c9w0","5859285b73f2620001c21bb8","freq_resp","","","img/blue_2bandit_b.png","70","img/blue_2bandit_b.png","70","test","","","","","","","","","","","5","","","","","","","","",""
"null","1729034","SARL_v6","SARL_v6tqr8c9w0","5859285b73f2620001c21bb8","fixation","","","img/fixation.png","null","","","test","","","","","","","","","","","","","","","","","","","",""
"286.70000000018626","1729330","SARL_v6","SARL_v6tqr8c9w0","5859285b73f2620001c21bb8","freq","","","img/blue_2bandit_b2.png","70","","70","test","1","","105","","","","circle","square","101","10","5","0.9405940594059405","","","","","","","",""
"null","1729861","SARL_v6","SARL_v6tqr8c9w0","5859285b73f2620001c21bb8","freq_resp","","","img/blue_2bandit_b.png","70","img/blue_2bandit_b.png","70","test","","","","","","","","","","","5","","","","","","","","",""
"null","1730036","SARL_v6","SARL_v6tqr8c9w0","5859285b73f2620001c21bb8","fixation","","","img/fixation.png","null","","","test","","","","","","","","","","","","","","","","","","","",""
"506.40000000037253","1730553","SARL_v6","SARL_v6tqr8c9w0","5859285b73f2620001c21bb8","infreq","","","img/orange_2bandit_b2.png","68","","68","test","1","","106","","","","circle","square","102","11","5","0.9411764705882353","","","","","","","",""
"null","1730862","SARL_v6","SARL_v6tqr8c9w0","5859285b73f2620001c21bb8","infreq_resp","","","img/orange_2bandit_b.png","68","img/orange_2bandit_b.png","68","test","","","","","","","","","","","5","","","","","","","","",""
"null","1731037","SARL_v6","SARL_v6tqr8c9w0","5859285b73f2620001c21bb8","fixation","","","img/fixation.png","null","","","test","","","","","","","","","","","","","","","","","","","",""
"528.5","1731575","SARL_v6","SARL_v6tqr8c9w0","5859285b73f2620001c21bb8","freq","","","img/blue_2bandit_b2.png","70","","70","test","1","","107","","","","circle","square","103","12","5","0.941747572815534","","","","","","","",""
"null","1731864","SARL_v6","SARL_v6tqr8c9w0","5859285b73f2620001c21bb8","freq_resp","","","img/blue_2bandit_b.png","70","img/blue_2bandit_b.png","70","test","","","","","","","","","","","5","","","","","","","","",""
"null","1732037","SARL_v6","SARL_v6tqr8c9w0","5859285b73f2620001c21bb8","fixation","","","img/fixation.png","null","","","test","","","","","","","","","","","","","","","","","","","",""
"445.90000000037253","1732494","SARL_v6","SARL_v6tqr8c9w0","5859285b73f2620001c21bb8","freq","","","img/blue_2bandit_b2.png","70","","70","test","1","","108","","","","circle","square","104","13","5","0.9423076923076923","","","","","","","",""
"null","1732877","SARL_v6","SARL_v6tqr8c9w0","5859285b73f2620001c21bb8","freq_resp","","","img/blue_2bandit_b.png","70","img/blue_2bandit_b.png","70","test","","","","","","","","","","","5","","","","","","","","",""
"null","1733039","SARL_v6","SARL_v6tqr8c9w0","5859285b73f2620001c21bb8","fixation","","","img/fixation.png","null","","","test","","","","","","","","","","","","","","","","","","","",""
"368.20000000018626","1733415","SARL_v6","SARL_v6tqr8c9w0","5859285b73f2620001c21bb8","freq","","","img/blue_2bandit_b2.png","70","","70","test","1","","109","","","","circle","square","105","14","5","0.9428571428571428","","","","","","","",""
"null","1733858","SARL_v6","SARL_v6tqr8c9w0","5859285b73f2620001c21bb8","freq_resp","","","img/blue_2bandit_b.png","70","img/blue_2bandit_b.png","70","test","","","","","","","","","","","5","","","","","","","","",""
"null","1734026","SARL_v6","SARL_v6tqr8c9w0","5859285b73f2620001c21bb8","fixation","","","img/fixation.png","null","","","test","","","","","","","","","","","","","","","","","","","",""
"351.40000000037253","1734386","SARL_v6","SARL_v6tqr8c9w0","5859285b73f2620001c21bb8","freq","","","img/blue_2bandit_b2.png","70","","70","test","1","","110","","","","circle","square","106","15","5","0.9433962264150944","","","","","","","",""
"null","1734860","SARL_v6","SARL_v6tqr8c9w0","5859285b73f2620001c21bb8","freq_resp","","","img/blue_2bandit_b.png","70","img/blue_2bandit_b.png","70","test","","","","","","","","","","","5","","","","","","","","",""
"null","1735025","SARL_v6","SARL_v6tqr8c9w0","5859285b73f2620001c21bb8","fixation","","","img/fixation.png","null","","","test","","","","","","","","","","","","","","","","","","","",""
"334.6000000005588","1735369","SARL_v6","SARL_v6tqr8c9w0","5859285b73f2620001c21bb8","infreq","","","img/orange_2bandit_b2.png","70","","68","test","0","","111","","","","circle","square","107","16","5","0.9345794392523364","","","","","","","",""
"null","1735858","SARL_v6","SARL_v6tqr8c9w0","5859285b73f2620001c21bb8","infreq_resp","","","img/orange_2bandit_b.png","70","img/orange_2bandit_b.png","68","test","","","","","","","","","","","5","","","","","","","","",""
"null","1736029","SARL_v6","SARL_v6tqr8c9w0","5859285b73f2620001c21bb8","fixation","","","img/fixation.png","null","","","test","","","","","","","","","","","","","","","","","","","",""
"397.59999999962747","1736436","SARL_v6","SARL_v6tqr8c9w0","5859285b73f2620001c21bb8","freq","","","img/blue_2bandit_b2.png","70","","70","test","1","","112","","","","circle","square","108","17","5","0.9351851851851852","","","","","","","",""
"null","1736850","SARL_v6","SARL_v6tqr8c9w0","5859285b73f2620001c21bb8","freq_resp","","","img/blue_2bandit_b.png","70","img/blue_2bandit_b.png","70","test","","","","","","","","","","","5","","","","","","","","",""
"null","1737016","SARL_v6","SARL_v6tqr8c9w0","5859285b73f2620001c21bb8","fixation","","","img/fixation.png","null","","","test","","","","","","","","","","","","","","","","","","","",""
"388.40000000037253","1737412","SARL_v6","SARL_v6tqr8c9w0","5859285b73f2620001c21bb8","freq","","","img/blue_2bandit_b2.png","70","","70","test","1","","113","","","","circle","square","109","18","5","0.9357798165137615","","","","","","","",""
"null","1737834","SARL_v6","SARL_v6tqr8c9w0","5859285b73f2620001c21bb8","freq_resp","","","img/blue_2bandit_b.png","70","img/blue_2bandit_b.png","70","test","","","","","","","","","","","5","","","","","","","","",""
"null","1737999","SARL_v6","SARL_v6tqr8c9w0","5859285b73f2620001c21bb8","fixation","","","img/fixation.png","null","","","test","","","","","","","","","","","","","","","","","","","",""
"630.3999999994412","1738640","SARL_v6","SARL_v6tqr8c9w0","5859285b73f2620001c21bb8","freq","","","img/blue_2bandit_b2.png","70","","70","test","1","","114","","","","circle","square","110","19","5","0.9363636363636364","","","","","","","",""
"null","1738831","SARL_v6","SARL_v6tqr8c9w0","5859285b73f2620001c21bb8","freq_resp","","","img/blue_2bandit_b.png","70","img/blue_2bandit_b.png","70","test","","","","","","","","","","","5","","","","","","","","",""
"null","1739001","SARL_v6","SARL_v6tqr8c9w0","5859285b73f2620001c21bb8","fixation","","","img/fixation.png","null","","","test","","","","","","","","","","","","","","","","","","","",""
"714.5","1739724","SARL_v6","SARL_v6tqr8c9w0","5859285b73f2620001c21bb8","freq","","","img/blue_2bandit_b2.png","70","","70","test","1","","115","","","","circle","square","111","20","5","0.9369369369369369","","","","","","","",""
"null","1739823","SARL_v6","SARL_v6tqr8c9w0","5859285b73f2620001c21bb8","freq_resp","","","img/blue_2bandit_b.png","70","img/blue_2bandit_b.png","70","test","","","","","","","","","","","5","","","","","","","","",""
"null","1739986","SARL_v6","SARL_v6tqr8c9w0","5859285b73f2620001c21bb8","fixation","","","img/fixation.png","null","","","test","","","","","","","","","","","","","","","","","","","",""
"791.2999999998137","1740787","SARL_v6","SARL_v6tqr8c9w0","5859285b73f2620001c21bb8","freq","","","img/blue_2bandit_b2.png","70","","70","test","1","","116","","","","circle","square","112","21","5","0.9375","","","","","","","",""
"null","1740805","SARL_v6","SARL_v6tqr8c9w0","5859285b73f2620001c21bb8","freq_resp","","","img/blue_2bandit_b.png","70","img/blue_2bandit_b.png","70","test","","","","","","","","","","","5","","","","","","","","",""
"null","1740971","SARL_v6","SARL_v6tqr8c9w0","5859285b73f2620001c21bb8","fixation","","","img/fixation.png","null","","","test","","","","","","","","","","","","","","","","","","","",""
"797.7000000001863","1741778","SARL_v6","SARL_v6tqr8c9w0","5859285b73f2620001c21bb8","freq","","","img/blue_2bandit_b2.png","70","","70","test","1","","117","","","","circle","square","113","22","5","0.9380530973451328","","","","","","","",""
"null","1741790","SARL_v6","SARL_v6tqr8c9w0","5859285b73f2620001c21bb8","freq_resp","","","img/blue_2bandit_b.png","70","img/blue_2bandit_b.png","70","test","","","","","","","","","","","5","","","","","","","","",""
"null","1741955","SARL_v6","SARL_v6tqr8c9w0","5859285b73f2620001c21bb8","fixation","","","img/fixation.png","null","","","test","","","","","","","","","","","","","","","","","","","",""
"null","1742776","SARL_v6","SARL_v6tqr8c9w0","5859285b73f2620001c21bb8","freq","","","img/blue_2bandit_b2.png","null","","70","test","0","","118","","","","circle","square","114","23","5","0.9298245614035088","","","","","","","",""
"null","1742943","SARL_v6","SARL_v6tqr8c9w0","5859285b73f2620001c21bb8","fixation","","","img/fixation.png","null","","","test","","","","","","","","","","","","","","","","","","","",""
"893.5","1743847","SARL_v6","SARL_v6tqr8c9w0","5859285b73f2620001c21bb8","rl","","","img/black_2bandit_b2.png","75","","0","test","","","119","","","4","circle","square","","0","5","","75","-7","4","-7","4","square","5","0"
"null","1744617","SARL_v6","SARL_v6tqr8c9w0","5859285b73f2620001c21bb8","feedback","","","<div class=""veryhighPoints_sq""> 4 </div>","null","","na","test","","","NaN","","","","","","","","5","","75","","","","","","5",""
"null","1745428","SARL_v6","SARL_v6tqr8c9w0","5859285b73f2620001c21bb8","freq","","","img/blue_2bandit_b2.png","null","","70","test","0","","120","","","","circle","square","115","1","6","0.9217391304347826","","","","","","","",""
"null","1745592","SARL_v6","SARL_v6tqr8c9w0","5859285b73f2620001c21bb8","fixation","","","img/fixation.png","null","","","test","","","","","","","","","","","","","","","","","","","",""
"781.7000000001863","1746383","SARL_v6","SARL_v6tqr8c9w0","5859285b73f2620001c21bb8","freq","","","img/blue_2bandit_b2.png","70","","70","test","1","","121","","","","circle","square","116","2","6","0.9224137931034483","","","","","","","",""
"null","1746409","SARL_v6","SARL_v6tqr8c9w0","5859285b73f2620001c21bb8","freq_resp","","","img/blue_2bandit_b.png","70","img/blue_2bandit_b.png","70","test","","","","","","","","","","","6","","","","","","","","",""
"null","1746580","SARL_v6","SARL_v6tqr8c9w0","5859285b73f2620001c21bb8","fixation","","","img/fixation.png","null","","","test","","","","","","","","","","","","","","","","","","","",""
"565.2000000001863","1747155","SARL_v6","SARL_v6tqr8c9w0","5859285b73f2620001c21bb8","freq","","","img/blue_2bandit_b2.png","70","","70","test","1","","122","","","","circle","square","117","3","6","0.9230769230769231","","","","","","","",""
"null","1747407","SARL_v6","SARL_v6tqr8c9w0","5859285b73f2620001c21bb8","freq_resp","","","img/blue_2bandit_b.png","70","img/blue_2bandit_b.png","70","test","","","","","","","","","","","6","","","","","","","","",""
"null","1747582","SARL_v6","SARL_v6tqr8c9w0","5859285b73f2620001c21bb8","fixation","","","img/fixation.png","null","","","test","","","","","","","","","","","","","","","","","","","",""
"574.7999999998137","1748167","SARL_v6","SARL_v6tqr8c9w0","5859285b73f2620001c21bb8","freq","","","img/blue_2bandit_b2.png","70","","70","test","1","","123","","","","circle","square","118","4","6","0.923728813559322","","","","","","","",""
"null","1748412","SARL_v6","SARL_v6tqr8c9w0","5859285b73f2620001c21bb8","freq_resp","","","img/blue_2bandit_b.png","70","img/blue_2bandit_b.png","70","test","","","","","","","","","","","6","","","","","","","","",""
"null","1748585","SARL_v6","SARL_v6tqr8c9w0","5859285b73f2620001c21bb8","fixation","","","img/fixation.png","null","","","test","","","","","","","","","","","","","","","","","","","",""
"651.1000000005588","1749245","SARL_v6","SARL_v6tqr8c9w0","5859285b73f2620001c21bb8","freq","","","img/blue_2bandit_b2.png","70","","70","test","1","","124","","","","circle","square","119","5","6","0.9243697478991597","","","","","","","",""
"null","1749405","SARL_v6","SARL_v6tqr8c9w0","5859285b73f2620001c21bb8","freq_resp","","","img/blue_2bandit_b.png","70","img/blue_2bandit_b.png","70","test","","","","","","","","","","","6","","","","","","","","",""
"null","1749571","SARL_v6","SARL_v6tqr8c9w0","5859285b73f2620001c21bb8","fixation","","","img/fixation.png","null","","","test","","","","","","","","","","","","","","","","","","","",""
"444.20000000018626","1750026","SARL_v6","SARL_v6tqr8c9w0","5859285b73f2620001c21bb8","freq","","","img/blue_2bandit_b2.png","70","","70","test","1","","125","","","","circle","square","120","6","6","0.925","","","","","","","",""
"null","1750407","SARL_v6","SARL_v6tqr8c9w0","5859285b73f2620001c21bb8","freq_resp","","","img/blue_2bandit_b.png","70","img/blue_2bandit_b.png","70","test","","","","","","","","","","","6","","","","","","","","",""
"null","1750573","SARL_v6","SARL_v6tqr8c9w0","5859285b73f2620001c21bb8","fixation","","","img/fixation.png","null","","","test","","","","","","","","","","","","","","","","","","","",""
"360.29999999981374","1750943","SARL_v6","SARL_v6tqr8c9w0","5859285b73f2620001c21bb8","freq","","","img/blue_2bandit_b2.png","70","","70","test","1","","126","","","","circle","square","121","7","6","0.9256198347107438","","","","","","","",""
"null","1751403","SARL_v6","SARL_v6tqr8c9w0","5859285b73f2620001c21bb8","freq_resp","","","img/blue_2bandit_b.png","70","img/blue_2bandit_b.png","70","test","","","","","","","","","","","6","","","","","","","","",""
"null","1751574","SARL_v6","SARL_v6tqr8c9w0","5859285b73f2620001c21bb8","fixation","","","img/fixation.png","null","","","test","","","","","","","","","","","","","","","","","","","",""
"347.59999999962747","1751931","SARL_v6","SARL_v6tqr8c9w0","5859285b73f2620001c21bb8","freq","","","img/blue_2bandit_b2.png","70","","70","test","1","","127","","","","circle","square","122","8","6","0.9262295081967213","","","","","","","",""
"null","1752404","SARL_v6","SARL_v6tqr8c9w0","5859285b73f2620001c21bb8","freq_resp","","","img/blue_2bandit_b.png","70","img/blue_2bandit_b.png","70","test","","","","","","","","","","","6","","","","","","","","",""
"null","1752576","SARL_v6","SARL_v6tqr8c9w0","5859285b73f2620001c21bb8","fixation","","","img/fixation.png","null","","","test","","","","","","","","","","","","","","","","","","","",""
"332.29999999981374","1752918","SARL_v6","SARL_v6tqr8c9w0","5859285b73f2620001c21bb8","freq","","","img/blue_2bandit_b2.png","70","","70","test","1","","128","","","","circle","square","123","9","6","0.926829268292683","","","","","","","",""
"null","1753405","SARL_v6","SARL_v6tqr8c9w0","5859285b73f2620001c21bb8","freq_resp","","","img/blue_2bandit_b.png","70","img/blue_2bandit_b.png","70","test","","","","","","","","","","","6","","","","","","","","",""
"null","1753575","SARL_v6","SARL_v6tqr8c9w0","5859285b73f2620001c21bb8","fixation","","","img/fixation.png","null","","","test","","","","","","","","","","","","","","","","","","","",""
"382.30000000074506","1753966","SARL_v6","SARL_v6tqr8c9w0","5859285b73f2620001c21bb8","infreq","","","img/orange_2bandit_b2.png","68","","68","test","1","","129","","","","circle","square","124","10","6","0.9274193548387096","","","","","","","",""
"null","1754392","SARL_v6","SARL_v6tqr8c9w0","5859285b73f2620001c21bb8","infreq_resp","","","img/orange_2bandit_b.png","68","img/orange_2bandit_b.png","68","test","","","","","","","","","","","6","","","","","","","","",""
"null","1754561","SARL_v6","SARL_v6tqr8c9w0","5859285b73f2620001c21bb8","fixation","","","img/fixation.png","null","","","test","","","","","","","","","","","","","","","","","","","",""
"348.79999999981374","1754920","SARL_v6","SARL_v6tqr8c9w0","5859285b73f2620001c21bb8","freq","","","img/blue_2bandit_b2.png","70","","70","test","1","","130","","","","circle","square","125","11","6","0.928","","","","","","","",""
"null","1755383","SARL_v6","SARL_v6tqr8c9w0","5859285b73f2620001c21bb8","freq_resp","","","img/blue_2bandit_b.png","70","img/blue_2bandit_b.png","70","test","","","","","","","","","","","6","","","","","","","","",""
"null","1755549","SARL_v6","SARL_v6tqr8c9w0","5859285b73f2620001c21bb8","fixation","","","img/fixation.png","null","","","test","","","","","","","","","","","","","","","","","","","",""
"361","1755920","SARL_v6","SARL_v6tqr8c9w0","5859285b73f2620001c21bb8","freq","","","img/blue_2bandit_b2.png","70","","70","test","1","","131","","","","circle","square","126","12","6","0.9285714285714286","","","","","","","",""
"null","1756380","SARL_v6","SARL_v6tqr8c9w0","5859285b73f2620001c21bb8","freq_resp","","","img/blue_2bandit_b.png","70","img/blue_2bandit_b.png","70","test","","","","","","","","","","","6","","","","","","","","",""
"null","1756541","SARL_v6","SARL_v6tqr8c9w0","5859285b73f2620001c21bb8","fixation","","","img/fixation.png","null","","","test","","","","","","","","","","","","","","","","","","","",""
"562.0999999996275","1757112","SARL_v6","SARL_v6tqr8c9w0","5859285b73f2620001c21bb8","freq","","","img/blue_2bandit_b2.png","70","","70","test","1","","132","","","","circle","square","127","13","6","0.9291338582677166","","","","","","","",""
"null","1757362","SARL_v6","SARL_v6tqr8c9w0","5859285b73f2620001c21bb8","freq_resp","","","img/blue_2bandit_b.png","70","img/blue_2bandit_b.png","70","test","","","","","","","","","","","6","","","","","","","","",""
"null","1757531","SARL_v6","SARL_v6tqr8c9w0","5859285b73f2620001c21bb8","fixation","","","img/fixation.png","null","","","test","","","","","","","","","","","","","","","","","","","",""
