"rt","time_elapsed","expId","subject","prolificID","trialType","rlType","attType","stimulus","key_press","stim","corrresp","phase","corr","pracCounter","trialNum","rewardOne","rewardTwo","reward","bandOne","bandTwo","attentionNum","attentionRunNum","blockNum","performance","bandChosen","circleVal","squareVal","bandOneVal","bandTwoVal","shapeChosen","rlNum","badFlag"
"2457.800000000745","2470","SARL_v6","SARL_v6x6lsdvt6","5bc0cded8b8bfe000105ea82","","","","","","","","","","","","","","","","","","","","","","","","","","","",""
"","4825","SARL_v6","SARL_v6x6lsdvt6","5bc0cded8b8bfe000105ea82","fullscreen","fullscreen","fullscreen","","","","","","","","","","","","","","","","","","","","","","","","",""
"38081.29999999888","42914","SARL_v6","SARL_v6x6lsdvt6","5bc0cded8b8bfe000105ea82","","","","","","","","","","","","","","","","","","","","","","","","","","","",""
"null","43729","SARL_v6","SARL_v6x6lsdvt6","5bc0cded8b8bfe000105ea82","freqPrac","","","img/blue_2bandit_b2.png","null","img/blue_2bandit_b2.png","70","prac","0","1","","","","","","","","","","","","","","","","","",""
"null","44744","SARL_v6","SARL_v6x6lsdvt6","5bc0cded8b8bfe000105ea82","feedback","","","img/tooSlow.png","null","","na","prac","","","","","","","","","","","","","","","","","","","",""
"null","44909","SARL_v6","SARL_v6x6lsdvt6","5bc0cded8b8bfe000105ea82","fixation","","","img/fixation.png","null","","","prac","","","","","","","","","","","","","","","","","","","",""
"665.3000000007451","45581","SARL_v6","SARL_v6x6lsdvt6","5bc0cded8b8bfe000105ea82","infreqPrac","","","img/orange_2bandit_b2.png","70","img/orange_2bandit_b2.png","68","prac","0","2","","","","","","","","","","","","","","","","","",""
"665.3000000007451","45725","SARL_v6","SARL_v6x6lsdvt6","5bc0cded8b8bfe000105ea82","infreqPrac_resp","","","img/orange_2bandit_b.png","70","img/orange_2bandit_b.png","68","prac","","","","","","","","","","","","","","","","","","","",""
"null","46734","SARL_v6","SARL_v6x6lsdvt6","5bc0cded8b8bfe000105ea82","feedback","","","img/wrongKey.png","null","","na","prac","","","","","","","","","","","","","","","","","","","",""
"null","46893","SARL_v6","SARL_v6x6lsdvt6","5bc0cded8b8bfe000105ea82","fixation","","","img/fixation.png","null","","","prac","","","","","","","","","","","","","","","","","","","",""
"624.2000000011176","47524","SARL_v6","SARL_v6x6lsdvt6","5bc0cded8b8bfe000105ea82","freqPrac","","","img/blue_2bandit_b2.png","70","img/blue_2bandit_b2.png","70","prac","1","2","","","","","","","","","","","","","","","","","",""
"624.2000000011176","47709","SARL_v6","SARL_v6x6lsdvt6","5bc0cded8b8bfe000105ea82","freqPrac_resp","","","img/blue_2bandit_b.png","70","img/blue_2bandit_b.png","70","prac","","","","","","","","","","","","","","","","","","","",""
"null","47869","SARL_v6","SARL_v6x6lsdvt6","5bc0cded8b8bfe000105ea82","fixation","","","img/fixation.png","null","","","prac","","","","","","","","","","","","","","","","","","","",""
"548.5","48424","SARL_v6","SARL_v6x6lsdvt6","5bc0cded8b8bfe000105ea82","infreqPrac","","","img/orange_2bandit_b2.png","68","img/orange_2bandit_b2.png","68","prac","1","2","","","","","","","","","","","","","","","","","",""
"548.5","48685","SARL_v6","SARL_v6x6lsdvt6","5bc0cded8b8bfe000105ea82","infreqPrac_resp","","","img/orange_2bandit_b.png","68","img/orange_2bandit_b.png","68","prac","","","","","","","","","","","","","","","","","","","",""
"null","48845","SARL_v6","SARL_v6x6lsdvt6","5bc0cded8b8bfe000105ea82","fixation","","","img/fixation.png","null","","","prac","","","","","","","","","","","","","","","","","","","",""
"400.8999999985099","49252","SARL_v6","SARL_v6x6lsdvt6","5bc0cded8b8bfe000105ea82","infreqPrac","","","img/orange_2bandit_b2.png","68","img/orange_2bandit_b2.png","68","prac","1","2","","","","","","","","","","","","","","","","","",""
"400.8999999985099","49661","SARL_v6","SARL_v6x6lsdvt6","5bc0cded8b8bfe000105ea82","infreqPrac_resp","","","img/orange_2bandit_b.png","68","img/orange_2bandit_b.png","68","prac","","","","","","","","","","","","","","","","","","","",""
"null","49821","SARL_v6","SARL_v6x6lsdvt6","5bc0cded8b8bfe000105ea82","fixation","","","img/fixation.png","null","","","prac","","","","","","","","","","","","","","","","","","","",""
"307.19999999925494","50135","SARL_v6","SARL_v6x6lsdvt6","5bc0cded8b8bfe000105ea82","infreqPrac","","","img/orange_2bandit_b2.png","68","img/orange_2bandit_b2.png","68","prac","1","2","","","","","","","","","","","","","","","","","",""
"307.19999999925494","50637","SARL_v6","SARL_v6x6lsdvt6","5bc0cded8b8bfe000105ea82","infreqPrac_resp","","","img/orange_2bandit_b.png","68","img/orange_2bandit_b.png","68","prac","","","","","","","","","","","","","","","","","","","",""
"null","50797","SARL_v6","SARL_v6x6lsdvt6","5bc0cded8b8bfe000105ea82","fixation","","","img/fixation.png","null","","","prac","","","","","","","","","","","","","","","","","","","",""
"414.2000000011176","51217","SARL_v6","SARL_v6x6lsdvt6","5bc0cded8b8bfe000105ea82","freqPrac","","","img/blue_2bandit_b2.png","70","img/blue_2bandit_b2.png","70","prac","1","2","","","","","","","","","","","","","","","","","",""
"414.2000000011176","51613","SARL_v6","SARL_v6x6lsdvt6","5bc0cded8b8bfe000105ea82","freqPrac_resp","","","img/blue_2bandit_b.png","70","img/blue_2bandit_b.png","70","prac","","","","","","","","","","","","","","","","","","","",""
"null","51772","SARL_v6","SARL_v6x6lsdvt6","5bc0cded8b8bfe000105ea82","fixation","","","img/fixation.png","null","","","prac","","","","","","","","","","","","","","","","","","","",""
"338.2999999988824","52117","SARL_v6","SARL_v6x6lsdvt6","5bc0cded8b8bfe000105ea82","infreqPrac","","","img/orange_2bandit_b2.png","68","img/orange_2bandit_b2.png","68","prac","1","2","","","","","","","","","","","","","","","","","",""
"338.2999999988824","52589","SARL_v6","SARL_v6x6lsdvt6","5bc0cded8b8bfe000105ea82","infreqPrac_resp","","","img/orange_2bandit_b.png","68","img/orange_2bandit_b.png","68","prac","","","","","","","","","","","","","","","","","","","",""
"null","52749","SARL_v6","SARL_v6x6lsdvt6","5bc0cded8b8bfe000105ea82","fixation","","","img/fixation.png","null","","","prac","","","","","","","","","","","","","","","","","","","",""
"325.59999999962747","53081","SARL_v6","SARL_v6x6lsdvt6","5bc0cded8b8bfe000105ea82","freqPrac","","","img/blue_2bandit_b2.png","70","img/blue_2bandit_b2.png","70","prac","1","2","","","","","","","","","","","","","","","","","",""
"325.59999999962747","53565","SARL_v6","SARL_v6x6lsdvt6","5bc0cded8b8bfe000105ea82","freqPrac_resp","","","img/blue_2bandit_b.png","70","img/blue_2bandit_b.png","70","prac","","","","","","","","","","","","","","","","","","","",""
"null","53725","SARL_v6","SARL_v6x6lsdvt6","5bc0cded8b8bfe000105ea82","fixation","","","img/fixation.png","null","","","prac","","","","","","","","","","","","","","","","","","","",""
"335.5","54067","SARL_v6","SARL_v6x6lsdvt6","5bc0cded8b8bfe000105ea82","freqPrac","","","img/blue_2bandit_b2.png","70","img/blue_2bandit_b2.png","70","prac","1","2","","","","","","","","","","","","","","","","","",""
"335.5","54541","SARL_v6","SARL_v6x6lsdvt6","5bc0cded8b8bfe000105ea82","freqPrac_resp","","","img/blue_2bandit_b.png","70","img/blue_2bandit_b.png","70","prac","","","","","","","","","","","","","","","","","","","",""
"null","54701","SARL_v6","SARL_v6x6lsdvt6","5bc0cded8b8bfe000105ea82","fixation","","","img/fixation.png","null","","","prac","","","","","","","","","","","","","","","","","","","",""
"19706.900000000373","74416","SARL_v6","SARL_v6x6lsdvt6","5bc0cded8b8bfe000105ea82","","","","","","","","prac","","","","","","","","","","","","","","","","","","","",""
"1195.5","75619","SARL_v6","SARL_v6x6lsdvt6","5bc0cded8b8bfe000105ea82","rlPractice","","","img/black_2bandit_b2.png","75","img/black_2bandit_b2.png","","prac","","","0","","","","","","","","","","","","","","","","",""
"null","76381","SARL_v6","SARL_v6x6lsdvt6","5bc0cded8b8bfe000105ea82","feedback","","","<div class=""verylowPoints_sq""> -14 </div>","null","","na","prac","","","1","10","-14","10","","","","","","","","","","","","","",""
"null","76541","SARL_v6","SARL_v6x6lsdvt6","5bc0cded8b8bfe000105ea82","fixation","","","img/fixation.png","null","","","prac","","","","","","","","","","","","","","","","","","","",""
"688.6000000014901","77236","SARL_v6","SARL_v6x6lsdvt6","5bc0cded8b8bfe000105ea82","rlPractice","","","img/black_2bandit_b2.png","74","img/black_2bandit_b2.png","","prac","","","1","","","","","","","","","","","","","","","","",""
"null","77998","SARL_v6","SARL_v6x6lsdvt6","5bc0cded8b8bfe000105ea82","feedback","","","<div class=""veryhighPoints""> 5 </div>","null","","na","prac","","","2","5","-5","5","","","","","","","","","","","","","",""
"null","78157","SARL_v6","SARL_v6x6lsdvt6","5bc0cded8b8bfe000105ea82","fixation","","","img/fixation.png","null","","","prac","","","","","","","","","","","","","","","","","","","",""
"393.30000000074506","78557","SARL_v6","SARL_v6x6lsdvt6","5bc0cded8b8bfe000105ea82","rlPractice","","","img/black_2bandit_b2.png","74","img/black_2bandit_b2.png","","prac","","","2","","","","","","","","","","","","","","","","",""
"null","79317","SARL_v6","SARL_v6x6lsdvt6","5bc0cded8b8bfe000105ea82","feedback","","","<div class=""veryhighPoints""> 30 </div>","null","","na","prac","","","3","30","2","30","","","","","","","","","","","","","",""
"null","79476","SARL_v6","SARL_v6x6lsdvt6","5bc0cded8b8bfe000105ea82","fixation","","","img/fixation.png","null","","","prac","","","","","","","","","","","","","","","","","","","",""
"362.1000000014901","79846","SARL_v6","SARL_v6x6lsdvt6","5bc0cded8b8bfe000105ea82","rlPractice","","","img/black_2bandit_b2.png","74","img/black_2bandit_b2.png","","prac","","","3","","","","","","","","","","","","","","","","",""
"null","80605","SARL_v6","SARL_v6x6lsdvt6","5bc0cded8b8bfe000105ea82","feedback","","","<div class=""verylowPoints""> -2 </div>","null","","na","prac","","","4","-2","20","-2","","","","","","","","","","","","","",""
"null","80765","SARL_v6","SARL_v6x6lsdvt6","5bc0cded8b8bfe000105ea82","fixation","","","img/fixation.png","null","","","prac","","","","","","","","","","","","","","","","","","","",""
"7861.5999999996275","88632","SARL_v6","SARL_v6x6lsdvt6","5bc0cded8b8bfe000105ea82","","","","","","","","prac","","","","","","","","","","","","","","","","","","","",""
"null","89445","SARL_v6","SARL_v6x6lsdvt6","5bc0cded8b8bfe000105ea82","mixAttFreqPrac","","","img/blue_2bandit_b2.png","null","img/blue_2bandit_b2.png","70","prac","","","1","","","","","","","","","","","","","","","","",""
"95.30000000074506","89605","SARL_v6","SARL_v6x6lsdvt6","5bc0cded8b8bfe000105ea82","fixation","","","img/fixation.png","70","","","prac","","","","","","","","","","","","","","","","","","","",""
"null","90413","SARL_v6","SARL_v6x6lsdvt6","5bc0cded8b8bfe000105ea82","mixAttInfreqPrac","","","img/orange_2bandit_b2.png","null","img/orange_2bandit_b2.png","68","prac","","","2","","","","","","","","","","","","","","","","",""
"9.200000001117587","90573","SARL_v6","SARL_v6x6lsdvt6","5bc0cded8b8bfe000105ea82","fixation","","","img/fixation.png","68","","","prac","","","","","","","","","","","","","","","","","","","",""
"487.40000000037253","91066","SARL_v6","SARL_v6x6lsdvt6","5bc0cded8b8bfe000105ea82","mixAttInfreqPrac","","","img/orange_2bandit_b2.png","68","img/orange_2bandit_b2.png","68","prac","","","3","","","","","","","","","","","","","","","","",""
"487.40000000037253","91389","SARL_v6","SARL_v6x6lsdvt6","5bc0cded8b8bfe000105ea82","infreqPrac_resp","","","img/orange_2bandit_b.png","68","img/blue_2bandit_b.png","68","prac","","","3","","","","","","","","","","","","","","","","",""
"null","91549","SARL_v6","SARL_v6x6lsdvt6","5bc0cded8b8bfe000105ea82","fixation","","","img/fixation.png","null","","","prac","","","","","","","","","","","","","","","","","","","",""
"null","92356","SARL_v6","SARL_v6x6lsdvt6","5bc0cded8b8bfe000105ea82","mixAttInfreqPrac","","","img/orange_2bandit_b2.png","null","img/orange_2bandit_b2.png","68","prac","","","4","","","","","","","","","","","","","","","","",""
"61","92517","SARL_v6","SARL_v6x6lsdvt6","5bc0cded8b8bfe000105ea82","fixation","","","img/fixation.png","68","","","prac","","","","","","","","","","","","","","","","","","","",""
"547.8000000007451","93078","SARL_v6","SARL_v6x6lsdvt6","5bc0cded8b8bfe000105ea82","mixAttFreqPrac","","","img/blue_2bandit_b2.png","70","img/blue_2bandit_b2.png","70","prac","","","5","","","","","","","","","","","","","","","","",""
"547.8000000007451","93340","SARL_v6","SARL_v6x6lsdvt6","5bc0cded8b8bfe000105ea82","freqPrac_resp","","","img/blue_2bandit_b.png","70","img/blue_2bandit_b.png","70","prac","","","5","","","","","","","","","","","","","","","","",""
"null","93501","SARL_v6","SARL_v6x6lsdvt6","5bc0cded8b8bfe000105ea82","fixation","","","img/fixation.png","null","","","prac","","","","","","","","","","","","","","","","","","","",""
"1170.1000000014901","94677","SARL_v6","SARL_v6x6lsdvt6","5bc0cded8b8bfe000105ea82","mixRLPractice","","","img/black_2bandit_b2.png","75","img/black_2bandit_b2.png","","prac","","","5","","","","","","","","","","","","","","","","",""
"null","95437","SARL_v6","SARL_v6x6lsdvt6","5bc0cded8b8bfe000105ea82","feedback","","","<div class=""veryhighPoints_sq""> 10 </div>","null","","na","prac","","","6","-14","10","-14","","","","","","","","","","","","","",""
"null","95597","SARL_v6","SARL_v6x6lsdvt6","5bc0cded8b8bfe000105ea82","fixation","","","img/fixation.png","null","","","prac","","","","","","","","","","","","","","","","","","","",""
"523.9000000003725","96127","SARL_v6","SARL_v6x6lsdvt6","5bc0cded8b8bfe000105ea82","mixAttFreqPrac","","","img/blue_2bandit_b2.png","68","img/blue_2bandit_b2.png","70","prac","","","7","","","","","","","","","","","","","","","","",""
"523.9000000003725","96413","SARL_v6","SARL_v6x6lsdvt6","5bc0cded8b8bfe000105ea82","freqPrac_resp","","","img/blue_2bandit_b.png","68","img/blue_2bandit_b.png","70","prac","","","7","","","","","","","","","","","","","","","","",""
"null","96574","SARL_v6","SARL_v6x6lsdvt6","5bc0cded8b8bfe000105ea82","fixation","","","img/fixation.png","null","","","prac","","","","","","","","","","","","","","","","","","","",""
"0.5","96581","SARL_v6","SARL_v6x6lsdvt6","5bc0cded8b8bfe000105ea82","mixAttInfreqPrac","","","img/orange_2bandit_b2.png","70","img/orange_2bandit_b2.png","68","prac","","","8","","","","","","","","","","","","","","","","",""
"0.5","97389","SARL_v6","SARL_v6x6lsdvt6","5bc0cded8b8bfe000105ea82","infreqPrac_resp","","","img/orange_2bandit_b.png","70","img/blue_2bandit_b.png","68","prac","","","8","","","","","","","","","","","","","","","","",""
"69.40000000037253","97549","SARL_v6","SARL_v6x6lsdvt6","5bc0cded8b8bfe000105ea82","fixation","","","img/fixation.png","70","","","prac","","","","","","","","","","","","","","","","","","","",""
"null","98357","SARL_v6","SARL_v6x6lsdvt6","5bc0cded8b8bfe000105ea82","mixAttFreqPrac","","","img/blue_2bandit_b2.png","null","img/blue_2bandit_b2.png","70","prac","","","9","","","","","","","","","","","","","","","","",""
"12.5","98517","SARL_v6","SARL_v6x6lsdvt6","5bc0cded8b8bfe000105ea82","fixation","","","img/fixation.png","68","","","prac","","","","","","","","","","","","","","","","","","","",""
"499.7000000011176","99023","SARL_v6","SARL_v6x6lsdvt6","5bc0cded8b8bfe000105ea82","mixAttFreqPrac","","","img/blue_2bandit_b2.png","70","img/blue_2bandit_b2.png","70","prac","","","10","","","","","","","","","","","","","","","","",""
"499.7000000011176","99333","SARL_v6","SARL_v6x6lsdvt6","5bc0cded8b8bfe000105ea82","freqPrac_resp","","","img/blue_2bandit_b.png","70","img/blue_2bandit_b.png","70","prac","","","10","","","","","","","","","","","","","","","","",""
"null","99493","SARL_v6","SARL_v6x6lsdvt6","5bc0cded8b8bfe000105ea82","fixation","","","img/fixation.png","null","","","prac","","","","","","","","","","","","","","","","","","","",""
"567.2000000011176","100066","SARL_v6","SARL_v6x6lsdvt6","5bc0cded8b8bfe000105ea82","mixAttInfreqPrac","","","img/orange_2bandit_b2.png","68","img/orange_2bandit_b2.png","68","prac","","","11","","","","","","","","","","","","","","","","",""
"567.2000000011176","100309","SARL_v6","SARL_v6x6lsdvt6","5bc0cded8b8bfe000105ea82","infreqPrac_resp","","","img/orange_2bandit_b.png","68","img/blue_2bandit_b.png","68","prac","","","11","","","","","","","","","","","","","","","","",""
"null","100469","SARL_v6","SARL_v6x6lsdvt6","5bc0cded8b8bfe000105ea82","fixation","","","img/fixation.png","null","","","prac","","","","","","","","","","","","","","","","","","","",""
"749.6999999992549","101225","SARL_v6","SARL_v6x6lsdvt6","5bc0cded8b8bfe000105ea82","mixRLPractice","","","img/black_2bandit_b2.png","75","img/black_2bandit_b2.png","","prac","","","11","","","","","","","","","","","","","","","","",""
"null","101989","SARL_v6","SARL_v6x6lsdvt6","5bc0cded8b8bfe000105ea82","feedback","","","<div class=""verylowPoints_sq""> -5 </div>","null","","na","prac","","","12","5","-5","5","","","","","","","","","","","","","",""
"null","102149","SARL_v6","SARL_v6x6lsdvt6","5bc0cded8b8bfe000105ea82","fixation","","","img/fixation.png","null","","","prac","","","","","","","","","","","","","","","","","","","",""
"8258.099999999627","110412","SARL_v6","SARL_v6x6lsdvt6","5bc0cded8b8bfe000105ea82","","","","","","","","prac","","","","","","","","","","","","","","","","","","","",""
"null","111223","SARL_v6","SARL_v6x6lsdvt6","5bc0cded8b8bfe000105ea82","freq","","","img/blue_2bandit_b2.png","null","","70","test","0","","1","","","","circle","square","1","1","1","0","","","","","","","",""
"null","111380","SARL_v6","SARL_v6x6lsdvt6","5bc0cded8b8bfe000105ea82","fixation","","","img/fixation.png","null","","","test","","","","","","","","","","","","","","","","","","","",""
"407.19999999925494","111795","SARL_v6","SARL_v6x6lsdvt6","5bc0cded8b8bfe000105ea82","freq","","","img/blue_2bandit_b2.png","70","","70","test","1","","2","","","","circle","square","2","2","1","0.5","","","","","","","",""
"null","112197","SARL_v6","SARL_v6x6lsdvt6","5bc0cded8b8bfe000105ea82","freq_resp","","","img/blue_2bandit_b.png","70","img/blue_2bandit_b.png","70","test","","","","","","","","","","","1","","","","","","","","",""
"null","112357","SARL_v6","SARL_v6x6lsdvt6","5bc0cded8b8bfe000105ea82","fixation","","","img/fixation.png","null","","","test","","","","","","","","","","","","","","","","","","","",""
"438.5","112802","SARL_v6","SARL_v6x6lsdvt6","5bc0cded8b8bfe000105ea82","freq","","","img/blue_2bandit_b2.png","70","","70","test","1","","3","","","","circle","square","3","3","1","0.6666666666666666","","","","","","","",""
"null","113172","SARL_v6","SARL_v6x6lsdvt6","5bc0cded8b8bfe000105ea82","freq_resp","","","img/blue_2bandit_b.png","70","img/blue_2bandit_b.png","70","test","","","","","","","","","","","1","","","","","","","","",""
"null","113333","SARL_v6","SARL_v6x6lsdvt6","5bc0cded8b8bfe000105ea82","fixation","","","img/fixation.png","null","","","test","","","","","","","","","","","","","","","","","","","",""
"354.90000000037253","113694","SARL_v6","SARL_v6x6lsdvt6","5bc0cded8b8bfe000105ea82","freq","","","img/blue_2bandit_b2.png","70","","70","test","1","","4","","","","circle","square","4","4","1","0.75","","","","","","","",""
"null","114148","SARL_v6","SARL_v6x6lsdvt6","5bc0cded8b8bfe000105ea82","freq_resp","","","img/blue_2bandit_b.png","70","img/blue_2bandit_b.png","70","test","","","","","","","","","","","1","","","","","","","","",""
"null","114309","SARL_v6","SARL_v6x6lsdvt6","5bc0cded8b8bfe000105ea82","fixation","","","img/fixation.png","null","","","test","","","","","","","","","","","","","","","","","","","",""
"352.90000000037253","114668","SARL_v6","SARL_v6x6lsdvt6","5bc0cded8b8bfe000105ea82","freq","","","img/blue_2bandit_b2.png","70","","70","test","1","","5","","","","circle","square","5","5","1","0.8","","","","","","","",""
"null","115125","SARL_v6","SARL_v6x6lsdvt6","5bc0cded8b8bfe000105ea82","freq_resp","","","img/blue_2bandit_b.png","70","img/blue_2bandit_b.png","70","test","","","","","","","","","","","1","","","","","","","","",""
"null","115285","SARL_v6","SARL_v6x6lsdvt6","5bc0cded8b8bfe000105ea82","fixation","","","img/fixation.png","null","","","test","","","","","","","","","","","","","","","","","","","",""
"380.90000000037253","115672","SARL_v6","SARL_v6x6lsdvt6","5bc0cded8b8bfe000105ea82","freq","","","img/blue_2bandit_b2.png","70","","70","test","1","","6","","","","circle","square","6","6","1","0.8333333333333334","","","","","","","",""
"null","116101","SARL_v6","SARL_v6x6lsdvt6","5bc0cded8b8bfe000105ea82","freq_resp","","","img/blue_2bandit_b.png","70","img/blue_2bandit_b.png","70","test","","","","","","","","","","","1","","","","","","","","",""
"null","116260","SARL_v6","SARL_v6x6lsdvt6","5bc0cded8b8bfe000105ea82","fixation","","","img/fixation.png","null","","","test","","","","","","","","","","","","","","","","","","","",""
"382.69999999925494","116650","SARL_v6","SARL_v6x6lsdvt6","5bc0cded8b8bfe000105ea82","freq","","","img/blue_2bandit_b2.png","70","","70","test","1","","7","","","","circle","square","7","7","1","0.8571428571428571","","","","","","","",""
"null","117077","SARL_v6","SARL_v6x6lsdvt6","5bc0cded8b8bfe000105ea82","freq_resp","","","img/blue_2bandit_b.png","70","img/blue_2bandit_b.png","70","test","","","","","","","","","","","1","","","","","","","","",""
"null","117237","SARL_v6","SARL_v6x6lsdvt6","5bc0cded8b8bfe000105ea82","fixation","","","img/fixation.png","null","","","test","","","","","","","","","","","","","","","","","","","",""
"405.3999999985099","117649","SARL_v6","SARL_v6x6lsdvt6","5bc0cded8b8bfe000105ea82","freq","","","img/blue_2bandit_b2.png","70","","70","test","1","","8","","","","circle","square","8","8","1","0.875","","","","","","","",""
"null","118053","SARL_v6","SARL_v6x6lsdvt6","5bc0cded8b8bfe000105ea82","freq_resp","","","img/blue_2bandit_b.png","70","img/blue_2bandit_b.png","70","test","","","","","","","","","","","1","","","","","","","","",""
"null","118213","SARL_v6","SARL_v6x6lsdvt6","5bc0cded8b8bfe000105ea82","fixation","","","img/fixation.png","null","","","test","","","","","","","","","","","","","","","","","","","",""
"388.59999999962747","118608","SARL_v6","SARL_v6x6lsdvt6","5bc0cded8b8bfe000105ea82","freq","","","img/blue_2bandit_b2.png","70","","70","test","1","","9","","","","circle","square","9","9","1","0.8888888888888888","","","","","","","",""
"null","119029","SARL_v6","SARL_v6x6lsdvt6","5bc0cded8b8bfe000105ea82","freq_resp","","","img/blue_2bandit_b.png","70","img/blue_2bandit_b.png","70","test","","","","","","","","","","","1","","","","","","","","",""
"null","119189","SARL_v6","SARL_v6x6lsdvt6","5bc0cded8b8bfe000105ea82","fixation","","","img/fixation.png","null","","","test","","","","","","","","","","","","","","","","","","","",""
"456.2999999988824","119652","SARL_v6","SARL_v6x6lsdvt6","5bc0cded8b8bfe000105ea82","infreq","","","img/orange_2bandit_b2.png","68","","68","test","1","","10","","","","circle","square","10","10","1","0.9","","","","","","","",""
"null","120005","SARL_v6","SARL_v6x6lsdvt6","5bc0cded8b8bfe000105ea82","infreq_resp","","","img/orange_2bandit_b.png","68","img/orange_2bandit_b.png","68","test","","","","","","","","","","","1","","","","","","","","",""
"null","120165","SARL_v6","SARL_v6x6lsdvt6","5bc0cded8b8bfe000105ea82","fixation","","","img/fixation.png","null","","","test","","","","","","","","","","","","","","","","","","","",""
"801.6000000014901","120973","SARL_v6","SARL_v6x6lsdvt6","5bc0cded8b8bfe000105ea82","freq","","","img/blue_2bandit_b2.png","68","","70","test","0","","11","","","","circle","square","11","11","1","0.8181818181818182","","","","","","","",""
"null","121133","SARL_v6","SARL_v6x6lsdvt6","5bc0cded8b8bfe000105ea82","fixation","","","img/fixation.png","null","","","test","","","","","","","","","","","","","","","","","","","",""
"634.3000000007451","121774","SARL_v6","SARL_v6x6lsdvt6","5bc0cded8b8bfe000105ea82","freq","","","img/blue_2bandit_b2.png","70","","70","test","1","","12","","","","circle","square","12","12","1","0.8333333333333334","","","","","","","",""
"null","121950","SARL_v6","SARL_v6x6lsdvt6","5bc0cded8b8bfe000105ea82","freq_resp","","","img/blue_2bandit_b.png","70","img/blue_2bandit_b.png","70","test","","","","","","","","","","","1","","","","","","","","",""
"null","122110","SARL_v6","SARL_v6x6lsdvt6","5bc0cded8b8bfe000105ea82","fixation","","","img/fixation.png","null","","","test","","","","","","","","","","","","","","","","","","","",""
"433.5","122550","SARL_v6","SARL_v6x6lsdvt6","5bc0cded8b8bfe000105ea82","freq","","","img/blue_2bandit_b2.png","70","","70","test","1","","13","","","","circle","square","13","13","1","0.8461538461538461","","","","","","","",""
"null","122925","SARL_v6","SARL_v6x6lsdvt6","5bc0cded8b8bfe000105ea82","freq_resp","","","img/blue_2bandit_b.png","70","img/blue_2bandit_b.png","70","test","","","","","","","","","","","1","","","","","","","","",""
"null","123085","SARL_v6","SARL_v6x6lsdvt6","5bc0cded8b8bfe000105ea82","fixation","","","img/fixation.png","null","","","test","","","","","","","","","","","","","","","","","","","",""
"725.3000000007451","123816","SARL_v6","SARL_v6x6lsdvt6","5bc0cded8b8bfe000105ea82","infreq","","","img/orange_2bandit_b2.png","68","","68","test","1","","14","","","","circle","square","14","14","1","0.8571428571428571","","","","","","","",""
"null","123901","SARL_v6","SARL_v6x6lsdvt6","5bc0cded8b8bfe000105ea82","infreq_resp","","","img/orange_2bandit_b.png","68","img/orange_2bandit_b.png","68","test","","","","","","","","","","","1","","","","","","","","",""
"null","124060","SARL_v6","SARL_v6x6lsdvt6","5bc0cded8b8bfe000105ea82","fixation","","","img/fixation.png","null","","","test","","","","","","","","","","","","","","","","","","","",""
"583.4000000003725","124650","SARL_v6","SARL_v6x6lsdvt6","5bc0cded8b8bfe000105ea82","freq","","","img/blue_2bandit_b2.png","70","","70","test","1","","15","","","","circle","square","15","15","1","0.8666666666666667","","","","","","","",""
"null","124876","SARL_v6","SARL_v6x6lsdvt6","5bc0cded8b8bfe000105ea82","freq_resp","","","img/blue_2bandit_b.png","70","img/blue_2bandit_b.png","70","test","","","","","","","","","","","1","","","","","","","","",""
"null","125037","SARL_v6","SARL_v6x6lsdvt6","5bc0cded8b8bfe000105ea82","fixation","","","img/fixation.png","null","","","test","","","","","","","","","","","","","","","","","","","",""
"382.8999999985099","125428","SARL_v6","SARL_v6x6lsdvt6","5bc0cded8b8bfe000105ea82","freq","","","img/blue_2bandit_b2.png","70","","70","test","1","","16","","","","circle","square","16","16","1","0.875","","","","","","","",""
"null","125852","SARL_v6","SARL_v6x6lsdvt6","5bc0cded8b8bfe000105ea82","freq_resp","","","img/blue_2bandit_b.png","70","img/blue_2bandit_b.png","70","test","","","","","","","","","","","1","","","","","","","","",""
"null","126013","SARL_v6","SARL_v6x6lsdvt6","5bc0cded8b8bfe000105ea82","fixation","","","img/fixation.png","null","","","test","","","","","","","","","","","","","","","","","","","",""
"345.09999999962747","126364","SARL_v6","SARL_v6x6lsdvt6","5bc0cded8b8bfe000105ea82","freq","","","img/blue_2bandit_b2.png","70","","70","test","1","","17","","","","circle","square","17","17","1","0.8823529411764706","","","","","","","",""
"null","126829","SARL_v6","SARL_v6x6lsdvt6","5bc0cded8b8bfe000105ea82","freq_resp","","","img/blue_2bandit_b.png","70","img/blue_2bandit_b.png","70","test","","","","","","","","","","","1","","","","","","","","",""
"null","126989","SARL_v6","SARL_v6x6lsdvt6","5bc0cded8b8bfe000105ea82","fixation","","","img/fixation.png","null","","","test","","","","","","","","","","","","","","","","","","","",""
"352","127347","SARL_v6","SARL_v6x6lsdvt6","5bc0cded8b8bfe000105ea82","freq","","","img/blue_2bandit_b2.png","70","","70","test","1","","18","","","","circle","square","18","18","1","0.8888888888888888","","","","","","","",""
"null","127805","SARL_v6","SARL_v6x6lsdvt6","5bc0cded8b8bfe000105ea82","freq_resp","","","img/blue_2bandit_b.png","70","img/blue_2bandit_b.png","70","test","","","","","","","","","","","1","","","","","","","","",""
"null","127965","SARL_v6","SARL_v6x6lsdvt6","5bc0cded8b8bfe000105ea82","fixation","","","img/fixation.png","null","","","test","","","","","","","","","","","","","","","","","","","",""
"405.09999999962747","128376","SARL_v6","SARL_v6x6lsdvt6","5bc0cded8b8bfe000105ea82","freq","","","img/blue_2bandit_b2.png","70","","70","test","1","","19","","","","circle","square","19","19","1","0.8947368421052632","","","","","","","",""
"null","128781","SARL_v6","SARL_v6x6lsdvt6","5bc0cded8b8bfe000105ea82","freq_resp","","","img/blue_2bandit_b.png","70","img/blue_2bandit_b.png","70","test","","","","","","","","","","","1","","","","","","","","",""
"null","128941","SARL_v6","SARL_v6x6lsdvt6","5bc0cded8b8bfe000105ea82","fixation","","","img/fixation.png","null","","","test","","","","","","","","","","","","","","","","","","","",""
"315.2999999988824","129262","SARL_v6","SARL_v6x6lsdvt6","5bc0cded8b8bfe000105ea82","freq","","","img/blue_2bandit_b2.png","70","","70","test","1","","20","","","","circle","square","20","20","1","0.9","","","","","","","",""
"null","129757","SARL_v6","SARL_v6x6lsdvt6","5bc0cded8b8bfe000105ea82","freq_resp","","","img/blue_2bandit_b.png","70","img/blue_2bandit_b.png","70","test","","","","","","","","","","","1","","","","","","","","",""
"null","129916","SARL_v6","SARL_v6x6lsdvt6","5bc0cded8b8bfe000105ea82","fixation","","","img/fixation.png","null","","","test","","","","","","","","","","","","","","","","","","","",""
"354","130277","SARL_v6","SARL_v6x6lsdvt6","5bc0cded8b8bfe000105ea82","freq","","","img/blue_2bandit_b2.png","70","","70","test","1","","21","","","","circle","square","21","21","1","0.9047619047619048","","","","","","","",""
"null","130732","SARL_v6","SARL_v6x6lsdvt6","5bc0cded8b8bfe000105ea82","freq_resp","","","img/blue_2bandit_b.png","70","img/blue_2bandit_b.png","70","test","","","","","","","","","","","1","","","","","","","","",""
"null","130893","SARL_v6","SARL_v6x6lsdvt6","5bc0cded8b8bfe000105ea82","fixation","","","img/fixation.png","null","","","test","","","","","","","","","","","","","","","","","","","",""
"550.5","131450","SARL_v6","SARL_v6x6lsdvt6","5bc0cded8b8bfe000105ea82","rl","","","img/black_2bandit_b2.png","75","","0","test","","","22","","","-3","circle","square","","0","1","","75","-3","-3","-3","-3","square","1","0"
"null","132213","SARL_v6","SARL_v6x6lsdvt6","5bc0cded8b8bfe000105ea82","feedback","","","<div class=""verylowPoints_sq""> -3 </div>","null","","na","test","","","NaN","","","","","","","","1","","75","","","","","","1",""
"462.7999999988824","132683","SARL_v6","SARL_v6x6lsdvt6","5bc0cded8b8bfe000105ea82","freq","","","img/blue_2bandit_b2.png","70","","70","test","1","","23","","","","circle","square","22","1","2","0.9090909090909091","","","","","","","",""
"null","133029","SARL_v6","SARL_v6x6lsdvt6","5bc0cded8b8bfe000105ea82","freq_resp","","","img/blue_2bandit_b.png","70","img/blue_2bandit_b.png","70","test","","","","","","","","","","","2","","","","","","","","",""
"null","133188","SARL_v6","SARL_v6x6lsdvt6","5bc0cded8b8bfe000105ea82","fixation","","","img/fixation.png","null","","","test","","","","","","","","","","","","","","","","","","","",""
"361.8999999985099","133557","SARL_v6","SARL_v6x6lsdvt6","5bc0cded8b8bfe000105ea82","freq","","","img/blue_2bandit_b2.png","70","","70","test","1","","24","","","","circle","square","23","2","2","0.9130434782608695","","","","","","","",""
"null","134004","SARL_v6","SARL_v6x6lsdvt6","5bc0cded8b8bfe000105ea82","freq_resp","","","img/blue_2bandit_b.png","70","img/blue_2bandit_b.png","70","test","","","","","","","","","","","2","","","","","","","","",""
"null","134164","SARL_v6","SARL_v6x6lsdvt6","5bc0cded8b8bfe000105ea82","fixation","","","img/fixation.png","null","","","test","","","","","","","","","","","","","","","","","","","",""
"381.30000000074506","134552","SARL_v6","SARL_v6x6lsdvt6","5bc0cded8b8bfe000105ea82","freq","","","img/blue_2bandit_b2.png","70","","70","test","1","","25","","","","circle","square","24","3","2","0.9166666666666666","","","","","","","",""
"null","134980","SARL_v6","SARL_v6x6lsdvt6","5bc0cded8b8bfe000105ea82","freq_resp","","","img/blue_2bandit_b.png","70","img/blue_2bandit_b.png","70","test","","","","","","","","","","","2","","","","","","","","",""
"null","135141","SARL_v6","SARL_v6x6lsdvt6","5bc0cded8b8bfe000105ea82","fixation","","","img/fixation.png","null","","","test","","","","","","","","","","","","","","","","","","","",""
"309.40000000037253","135457","SARL_v6","SARL_v6x6lsdvt6","5bc0cded8b8bfe000105ea82","freq","","","img/blue_2bandit_b2.png","70","","70","test","1","","26","","","","circle","square","25","4","2","0.92","","","","","","","",""
"null","135956","SARL_v6","SARL_v6x6lsdvt6","5bc0cded8b8bfe000105ea82","freq_resp","","","img/blue_2bandit_b.png","70","img/blue_2bandit_b.png","70","test","","","","","","","","","","","2","","","","","","","","",""
"null","136117","SARL_v6","SARL_v6x6lsdvt6","5bc0cded8b8bfe000105ea82","fixation","","","img/fixation.png","null","","","test","","","","","","","","","","","","","","","","","","","",""
"343.8999999985099","136469","SARL_v6","SARL_v6x6lsdvt6","5bc0cded8b8bfe000105ea82","freq","","","img/blue_2bandit_b2.png","70","","70","test","1","","27","","","","circle","square","26","5","2","0.9230769230769231","","","","","","","",""
"null","136933","SARL_v6","SARL_v6x6lsdvt6","5bc0cded8b8bfe000105ea82","freq_resp","","","img/blue_2bandit_b.png","70","img/blue_2bandit_b.png","70","test","","","","","","","","","","","2","","","","","","","","",""
"null","137093","SARL_v6","SARL_v6x6lsdvt6","5bc0cded8b8bfe000105ea82","fixation","","","img/fixation.png","null","","","test","","","","","","","","","","","","","","","","","","","",""
"365.30000000074506","137465","SARL_v6","SARL_v6x6lsdvt6","5bc0cded8b8bfe000105ea82","freq","","","img/blue_2bandit_b2.png","70","","70","test","1","","28","","","","circle","square","27","6","2","0.9259259259259259","","","","","","","",""
"null","137909","SARL_v6","SARL_v6x6lsdvt6","5bc0cded8b8bfe000105ea82","freq_resp","","","img/blue_2bandit_b.png","70","img/blue_2bandit_b.png","70","test","","","","","","","","","","","2","","","","","","","","",""
"null","138068","SARL_v6","SARL_v6x6lsdvt6","5bc0cded8b8bfe000105ea82","fixation","","","img/fixation.png","null","","","test","","","","","","","","","","","","","","","","","","","",""
"339.5","138414","SARL_v6","SARL_v6x6lsdvt6","5bc0cded8b8bfe000105ea82","freq","","","img/blue_2bandit_b2.png","70","","70","test","1","","29","","","","circle","square","28","7","2","0.9285714285714286","","","","","","","",""
"null","138884","SARL_v6","SARL_v6x6lsdvt6","5bc0cded8b8bfe000105ea82","freq_resp","","","img/blue_2bandit_b.png","70","img/blue_2bandit_b.png","70","test","","","","","","","","","","","2","","","","","","","","",""
"null","139045","SARL_v6","SARL_v6x6lsdvt6","5bc0cded8b8bfe000105ea82","fixation","","","img/fixation.png","null","","","test","","","","","","","","","","","","","","","","","","","",""
"398.09999999962747","139449","SARL_v6","SARL_v6x6lsdvt6","5bc0cded8b8bfe000105ea82","freq","","","img/blue_2bandit_b2.png","70","","70","test","1","","30","","","","circle","square","29","8","2","0.9310344827586207","","","","","","","",""
"null","139860","SARL_v6","SARL_v6x6lsdvt6","5bc0cded8b8bfe000105ea82","freq_resp","","","img/blue_2bandit_b.png","70","img/blue_2bandit_b.png","70","test","","","","","","","","","","","2","","","","","","","","",""
"null","140021","SARL_v6","SARL_v6x6lsdvt6","5bc0cded8b8bfe000105ea82","fixation","","","img/fixation.png","null","","","test","","","","","","","","","","","","","","","","","","","",""
"357.09999999962747","140385","SARL_v6","SARL_v6x6lsdvt6","5bc0cded8b8bfe000105ea82","freq","","","img/blue_2bandit_b2.png","70","","70","test","1","","31","","","","circle","square","30","9","2","0.9333333333333333","","","","","","","",""
"null","140837","SARL_v6","SARL_v6x6lsdvt6","5bc0cded8b8bfe000105ea82","freq_resp","","","img/blue_2bandit_b.png","70","img/blue_2bandit_b.png","70","test","","","","","","","","","","","2","","","","","","","","",""
"null","140997","SARL_v6","SARL_v6x6lsdvt6","5bc0cded8b8bfe000105ea82","fixation","","","img/fixation.png","null","","","test","","","","","","","","","","","","","","","","","","","",""
"333.80000000074506","141337","SARL_v6","SARL_v6x6lsdvt6","5bc0cded8b8bfe000105ea82","infreq","","","img/orange_2bandit_b2.png","70","","68","test","0","","32","","","","circle","square","31","10","2","0.9032258064516129","","","","","","","",""
"null","141813","SARL_v6","SARL_v6x6lsdvt6","5bc0cded8b8bfe000105ea82","infreq_resp","","","img/orange_2bandit_b.png","70","img/orange_2bandit_b.png","68","test","","","","","","","","","","","2","","","","","","","","",""
"null","141973","SARL_v6","SARL_v6x6lsdvt6","5bc0cded8b8bfe000105ea82","fixation","","","img/fixation.png","null","","","test","","","","","","","","","","","","","","","","","","","",""
"518.4000000003725","142497","SARL_v6","SARL_v6x6lsdvt6","5bc0cded8b8bfe000105ea82","freq","","","img/blue_2bandit_b2.png","70","","70","test","1","","33","","","","circle","square","32","11","2","0.90625","","","","","","","",""
"null","142790","SARL_v6","SARL_v6x6lsdvt6","5bc0cded8b8bfe000105ea82","freq_resp","","","img/blue_2bandit_b.png","70","img/blue_2bandit_b.png","70","test","","","","","","","","","","","2","","","","","","","","",""
"null","142948","SARL_v6","SARL_v6x6lsdvt6","5bc0cded8b8bfe000105ea82","fixation","","","img/fixation.png","null","","","test","","","","","","","","","","","","","","","","","","","",""
"442.7999999988824","143398","SARL_v6","SARL_v6x6lsdvt6","5bc0cded8b8bfe000105ea82","freq","","","img/blue_2bandit_b2.png","70","","70","test","1","","34","","","","circle","square","33","12","2","0.9090909090909091","","","","","","","",""
"null","143764","SARL_v6","SARL_v6x6lsdvt6","5bc0cded8b8bfe000105ea82","freq_resp","","","img/blue_2bandit_b.png","70","img/blue_2bandit_b.png","70","test","","","","","","","","","","","2","","","","","","","","",""
"null","143925","SARL_v6","SARL_v6x6lsdvt6","5bc0cded8b8bfe000105ea82","fixation","","","img/fixation.png","null","","","test","","","","","","","","","","","","","","","","","","","",""
"514.4000000003725","144445","SARL_v6","SARL_v6x6lsdvt6","5bc0cded8b8bfe000105ea82","infreq","","","img/orange_2bandit_b2.png","68","","68","test","1","","35","","","","circle","square","34","13","2","0.9117647058823529","","","","","","","",""
"null","144741","SARL_v6","SARL_v6x6lsdvt6","5bc0cded8b8bfe000105ea82","infreq_resp","","","img/orange_2bandit_b.png","68","img/orange_2bandit_b.png","68","test","","","","","","","","","","","2","","","","","","","","",""
"null","144900","SARL_v6","SARL_v6x6lsdvt6","5bc0cded8b8bfe000105ea82","fixation","","","img/fixation.png","null","","","test","","","","","","","","","","","","","","","","","","","",""
"490.80000000074506","145398","SARL_v6","SARL_v6x6lsdvt6","5bc0cded8b8bfe000105ea82","freq","","","img/blue_2bandit_b2.png","70","","70","test","1","","36","","","","circle","square","35","14","2","0.9142857142857143","","","","","","","",""
"null","145717","SARL_v6","SARL_v6x6lsdvt6","5bc0cded8b8bfe000105ea82","freq_resp","","","img/blue_2bandit_b.png","70","img/blue_2bandit_b.png","70","test","","","","","","","","","","","2","","","","","","","","",""
"null","145877","SARL_v6","SARL_v6x6lsdvt6","5bc0cded8b8bfe000105ea82","fixation","","","img/fixation.png","null","","","test","","","","","","","","","","","","","","","","","","","",""
"347.2999999988824","146231","SARL_v6","SARL_v6x6lsdvt6","5bc0cded8b8bfe000105ea82","freq","","","img/blue_2bandit_b2.png","70","","70","test","1","","37","","","","circle","square","36","15","2","0.9166666666666666","","","","","","","",""
"null","146693","SARL_v6","SARL_v6x6lsdvt6","5bc0cded8b8bfe000105ea82","freq_resp","","","img/blue_2bandit_b.png","70","img/blue_2bandit_b.png","70","test","","","","","","","","","","","2","","","","","","","","",""
"null","146853","SARL_v6","SARL_v6x6lsdvt6","5bc0cded8b8bfe000105ea82","fixation","","","img/fixation.png","null","","","test","","","","","","","","","","","","","","","","","","","",""
"363","147222","SARL_v6","SARL_v6x6lsdvt6","5bc0cded8b8bfe000105ea82","freq","","","img/blue_2bandit_b2.png","70","","70","test","1","","38","","","","circle","square","37","16","2","0.918918918918919","","","","","","","",""
"null","147669","SARL_v6","SARL_v6x6lsdvt6","5bc0cded8b8bfe000105ea82","freq_resp","","","img/blue_2bandit_b.png","70","img/blue_2bandit_b.png","70","test","","","","","","","","","","","2","","","","","","","","",""
"null","147828","SARL_v6","SARL_v6x6lsdvt6","5bc0cded8b8bfe000105ea82","fixation","","","img/fixation.png","null","","","test","","","","","","","","","","","","","","","","","","","",""
"386.2999999988824","148221","SARL_v6","SARL_v6x6lsdvt6","5bc0cded8b8bfe000105ea82","freq","","","img/blue_2bandit_b2.png","70","","70","test","1","","39","","","","circle","square","38","17","2","0.9210526315789473","","","","","","","",""
"null","148644","SARL_v6","SARL_v6x6lsdvt6","5bc0cded8b8bfe000105ea82","freq_resp","","","img/blue_2bandit_b.png","70","img/blue_2bandit_b.png","70","test","","","","","","","","","","","2","","","","","","","","",""
"null","148805","SARL_v6","SARL_v6x6lsdvt6","5bc0cded8b8bfe000105ea82","fixation","","","img/fixation.png","null","","","test","","","","","","","","","","","","","","","","","","","",""
"323.90000000037253","149135","SARL_v6","SARL_v6x6lsdvt6","5bc0cded8b8bfe000105ea82","freq","","","img/blue_2bandit_b2.png","70","","70","test","1","","40","","","","circle","square","39","18","2","0.9230769230769231","","","","","","","",""
"null","149621","SARL_v6","SARL_v6x6lsdvt6","5bc0cded8b8bfe000105ea82","freq_resp","","","img/blue_2bandit_b.png","70","img/blue_2bandit_b.png","70","test","","","","","","","","","","","2","","","","","","","","",""
"null","149782","SARL_v6","SARL_v6x6lsdvt6","5bc0cded8b8bfe000105ea82","fixation","","","img/fixation.png","null","","","test","","","","","","","","","","","","","","","","","","","",""
"679.2000000011176","150469","SARL_v6","SARL_v6x6lsdvt6","5bc0cded8b8bfe000105ea82","infreq","","","img/orange_2bandit_b2.png","68","","68","test","1","","41","","","","circle","square","40","19","2","0.925","","","","","","","",""
"null","150596","SARL_v6","SARL_v6x6lsdvt6","5bc0cded8b8bfe000105ea82","infreq_resp","","","img/orange_2bandit_b.png","68","img/orange_2bandit_b.png","68","test","","","","","","","","","","","2","","","","","","","","",""
"null","150757","SARL_v6","SARL_v6x6lsdvt6","5bc0cded8b8bfe000105ea82","fixation","","","img/fixation.png","null","","","test","","","","","","","","","","","","","","","","","","","",""
"602.0999999996275","151366","SARL_v6","SARL_v6x6lsdvt6","5bc0cded8b8bfe000105ea82","freq","","","img/blue_2bandit_b2.png","70","","70","test","1","","42","","","","circle","square","41","20","2","0.926829268292683","","","","","","","",""
"null","151573","SARL_v6","SARL_v6x6lsdvt6","5bc0cded8b8bfe000105ea82","freq_resp","","","img/blue_2bandit_b.png","70","img/blue_2bandit_b.png","70","test","","","","","","","","","","","2","","","","","","","","",""
"null","151733","SARL_v6","SARL_v6x6lsdvt6","5bc0cded8b8bfe000105ea82","fixation","","","img/fixation.png","null","","","test","","","","","","","","","","","","","","","","","","","",""
"434.59999999962747","152174","SARL_v6","SARL_v6x6lsdvt6","5bc0cded8b8bfe000105ea82","freq","","","img/blue_2bandit_b2.png","70","","70","test","1","","43","","","","circle","square","42","21","2","0.9285714285714286","","","","","","","",""
"null","152549","SARL_v6","SARL_v6x6lsdvt6","5bc0cded8b8bfe000105ea82","freq_resp","","","img/blue_2bandit_b.png","70","img/blue_2bandit_b.png","70","test","","","","","","","","","","","2","","","","","","","","",""
"null","152708","SARL_v6","SARL_v6x6lsdvt6","5bc0cded8b8bfe000105ea82","fixation","","","img/fixation.png","null","","","test","","","","","","","","","","","","","","","","","","","",""
"388.5","153104","SARL_v6","SARL_v6x6lsdvt6","5bc0cded8b8bfe000105ea82","freq","","","img/blue_2bandit_b2.png","70","","70","test","1","","44","","","","circle","square","43","22","2","0.9302325581395349","","","","","","","",""
"null","153524","SARL_v6","SARL_v6x6lsdvt6","5bc0cded8b8bfe000105ea82","freq_resp","","","img/blue_2bandit_b.png","70","img/blue_2bandit_b.png","70","test","","","","","","","","","","","2","","","","","","","","",""
"null","153684","SARL_v6","SARL_v6x6lsdvt6","5bc0cded8b8bfe000105ea82","fixation","","","img/fixation.png","null","","","test","","","","","","","","","","","","","","","","","","","",""
"373.5","154064","SARL_v6","SARL_v6x6lsdvt6","5bc0cded8b8bfe000105ea82","freq","","","img/blue_2bandit_b2.png","70","","70","test","1","","45","","","","circle","square","44","23","2","0.9318181818181818","","","","","","","",""
"null","154500","SARL_v6","SARL_v6x6lsdvt6","5bc0cded8b8bfe000105ea82","freq_resp","","","img/blue_2bandit_b.png","70","img/blue_2bandit_b.png","70","test","","","","","","","","","","","2","","","","","","","","",""
"null","154661","SARL_v6","SARL_v6x6lsdvt6","5bc0cded8b8bfe000105ea82","fixation","","","img/fixation.png","null","","","test","","","","","","","","","","","","","","","","","","","",""
"315.7999999988824","154982","SARL_v6","SARL_v6x6lsdvt6","5bc0cded8b8bfe000105ea82","freq","","","img/blue_2bandit_b2.png","70","","70","test","1","","46","","","","circle","square","45","24","2","0.9333333333333333","","","","","","","",""
"null","155477","SARL_v6","SARL_v6x6lsdvt6","5bc0cded8b8bfe000105ea82","freq_resp","","","img/blue_2bandit_b.png","70","img/blue_2bandit_b.png","70","test","","","","","","","","","","","2","","","","","","","","",""
"null","155638","SARL_v6","SARL_v6x6lsdvt6","5bc0cded8b8bfe000105ea82","fixation","","","img/fixation.png","null","","","test","","","","","","","","","","","","","","","","","","","",""
"385.80000000074506","156030","SARL_v6","SARL_v6x6lsdvt6","5bc0cded8b8bfe000105ea82","freq","","","img/blue_2bandit_b2.png","70","","70","test","1","","47","","","","circle","square","46","25","2","0.9347826086956522","","","","","","","",""
"null","156453","SARL_v6","SARL_v6x6lsdvt6","5bc0cded8b8bfe000105ea82","freq_resp","","","img/blue_2bandit_b.png","70","img/blue_2bandit_b.png","70","test","","","","","","","","","","","2","","","","","","","","",""
"null","156612","SARL_v6","SARL_v6x6lsdvt6","5bc0cded8b8bfe000105ea82","fixation","","","img/fixation.png","null","","","test","","","","","","","","","","","","","","","","","","","",""
"704.6999999992549","157323","SARL_v6","SARL_v6x6lsdvt6","5bc0cded8b8bfe000105ea82","rl","","","img/black_2bandit_b2.png","75","","0","test","","","48","","","-8","circle","square","","0","2","","75","-5","-8","-5","-8","square","2","0"
"null","158085","SARL_v6","SARL_v6x6lsdvt6","5bc0cded8b8bfe000105ea82","feedback","","","<div class=""verylowPoints_sq""> -8 </div>","null","","na","test","","","NaN","","","","","","","","2","","75","","","","","","2",""
"null","158893","SARL_v6","SARL_v6x6lsdvt6","5bc0cded8b8bfe000105ea82","freq","","","img/blue_2bandit_b2.png","null","","70","test","0","","49","","","","circle","square","47","1","3","0.9148936170212766","","","","","","","",""
"null","159053","SARL_v6","SARL_v6x6lsdvt6","5bc0cded8b8bfe000105ea82","fixation","","","img/fixation.png","null","","","test","","","","","","","","","","","","","","","","","","","",""
"618.1999999992549","159677","SARL_v6","SARL_v6x6lsdvt6","5bc0cded8b8bfe000105ea82","freq","","","img/blue_2bandit_b2.png","70","","70","test","1","","50","","","","circle","square","48","2","3","0.9166666666666666","","","","","","","",""
"null","159869","SARL_v6","SARL_v6x6lsdvt6","5bc0cded8b8bfe000105ea82","freq_resp","","","img/blue_2bandit_b.png","70","img/blue_2bandit_b.png","70","test","","","","","","","","","","","3","","","","","","","","",""
"null","160029","SARL_v6","SARL_v6x6lsdvt6","5bc0cded8b8bfe000105ea82","fixation","","","img/fixation.png","null","","","test","","","","","","","","","","","","","","","","","","","",""
"433.90000000037253","160469","SARL_v6","SARL_v6x6lsdvt6","5bc0cded8b8bfe000105ea82","freq","","","img/blue_2bandit_b2.png","70","","70","test","1","","51","","","","circle","square","49","3","3","0.9183673469387755","","","","","","","",""
"null","160844","SARL_v6","SARL_v6x6lsdvt6","5bc0cded8b8bfe000105ea82","freq_resp","","","img/blue_2bandit_b.png","70","img/blue_2bandit_b.png","70","test","","","","","","","","","","","3","","","","","","","","",""
"null","161004","SARL_v6","SARL_v6x6lsdvt6","5bc0cded8b8bfe000105ea82","fixation","","","img/fixation.png","null","","","test","","","","","","","","","","","","","","","","","","","",""
"368.09999999962747","161379","SARL_v6","SARL_v6x6lsdvt6","5bc0cded8b8bfe000105ea82","freq","","","img/blue_2bandit_b2.png","70","","70","test","1","","52","","","","circle","square","50","4","3","0.92","","","","","","","",""
"null","161821","SARL_v6","SARL_v6x6lsdvt6","5bc0cded8b8bfe000105ea82","freq_resp","","","img/blue_2bandit_b.png","70","img/blue_2bandit_b.png","70","test","","","","","","","","","","","3","","","","","","","","",""
"null","161981","SARL_v6","SARL_v6x6lsdvt6","5bc0cded8b8bfe000105ea82","fixation","","","img/fixation.png","null","","","test","","","","","","","","","","","","","","","","","","","",""
"267","162255","SARL_v6","SARL_v6x6lsdvt6","5bc0cded8b8bfe000105ea82","infreq","","","img/orange_2bandit_b2.png","70","","68","test","0","","53","","","","circle","square","51","5","3","0.9019607843137255","","","","","","","",""
"null","162797","SARL_v6","SARL_v6x6lsdvt6","5bc0cded8b8bfe000105ea82","infreq_resp","","","img/orange_2bandit_b.png","70","img/orange_2bandit_b.png","68","test","","","","","","","","","","","3","","","","","","","","",""
"null","162957","SARL_v6","SARL_v6x6lsdvt6","5bc0cded8b8bfe000105ea82","fixation","","","img/fixation.png","null","","","test","","","","","","","","","","","","","","","","","","","",""
"499.09999999962747","163462","SARL_v6","SARL_v6x6lsdvt6","5bc0cded8b8bfe000105ea82","freq","","","img/blue_2bandit_b2.png","70","","70","test","1","","54","","","","circle","square","52","6","3","0.9038461538461539","","","","","","","",""
"null","163772","SARL_v6","SARL_v6x6lsdvt6","5bc0cded8b8bfe000105ea82","freq_resp","","","img/blue_2bandit_b.png","70","img/blue_2bandit_b.png","70","test","","","","","","","","","","","3","","","","","","","","",""
"null","163932","SARL_v6","SARL_v6x6lsdvt6","5bc0cded8b8bfe000105ea82","fixation","","","img/fixation.png","null","","","test","","","","","","","","","","","","","","","","","","","",""
"487","164426","SARL_v6","SARL_v6x6lsdvt6","5bc0cded8b8bfe000105ea82","freq","","","img/blue_2bandit_b2.png","70","","70","test","1","","55","","","","circle","square","53","7","3","0.9056603773584906","","","","","","","",""
"null","164749","SARL_v6","SARL_v6x6lsdvt6","5bc0cded8b8bfe000105ea82","freq_resp","","","img/blue_2bandit_b.png","70","img/blue_2bandit_b.png","70","test","","","","","","","","","","","3","","","","","","","","",""
"null","164909","SARL_v6","SARL_v6x6lsdvt6","5bc0cded8b8bfe000105ea82","fixation","","","img/fixation.png","null","","","test","","","","","","","","","","","","","","","","","","","",""
"383.2999999988824","165298","SARL_v6","SARL_v6x6lsdvt6","5bc0cded8b8bfe000105ea82","freq","","","img/blue_2bandit_b2.png","70","","70","test","1","","56","","","","circle","square","54","8","3","0.9074074074074074","","","","","","","",""
"null","165724","SARL_v6","SARL_v6x6lsdvt6","5bc0cded8b8bfe000105ea82","freq_resp","","","img/blue_2bandit_b.png","70","img/blue_2bandit_b.png","70","test","","","","","","","","","","","3","","","","","","","","",""
"null","165884","SARL_v6","SARL_v6x6lsdvt6","5bc0cded8b8bfe000105ea82","fixation","","","img/fixation.png","null","","","test","","","","","","","","","","","","","","","","","","","",""
"364.40000000037253","166255","SARL_v6","SARL_v6x6lsdvt6","5bc0cded8b8bfe000105ea82","freq","","","img/blue_2bandit_b2.png","70","","70","test","1","","57","","","","circle","square","55","9","3","0.9090909090909091","","","","","","","",""
"null","166701","SARL_v6","SARL_v6x6lsdvt6","5bc0cded8b8bfe000105ea82","freq_resp","","","img/blue_2bandit_b.png","70","img/blue_2bandit_b.png","70","test","","","","","","","","","","","3","","","","","","","","",""
"null","166861","SARL_v6","SARL_v6x6lsdvt6","5bc0cded8b8bfe000105ea82","fixation","","","img/fixation.png","null","","","test","","","","","","","","","","","","","","","","","","","",""
"352.7999999988824","167220","SARL_v6","SARL_v6x6lsdvt6","5bc0cded8b8bfe000105ea82","freq","","","img/blue_2bandit_b2.png","70","","70","test","1","","58","","","","circle","square","56","10","3","0.9107142857142857","","","","","","","",""
"null","167676","SARL_v6","SARL_v6x6lsdvt6","5bc0cded8b8bfe000105ea82","freq_resp","","","img/blue_2bandit_b.png","70","img/blue_2bandit_b.png","70","test","","","","","","","","","","","3","","","","","","","","",""
"null","167837","SARL_v6","SARL_v6x6lsdvt6","5bc0cded8b8bfe000105ea82","fixation","","","img/fixation.png","null","","","test","","","","","","","","","","","","","","","","","","","",""
"498.7000000011176","168342","SARL_v6","SARL_v6x6lsdvt6","5bc0cded8b8bfe000105ea82","infreq","","","img/orange_2bandit_b2.png","68","","68","test","1","","59","","","","circle","square","57","11","3","0.9122807017543859","","","","","","","",""
"null","168654","SARL_v6","SARL_v6x6lsdvt6","5bc0cded8b8bfe000105ea82","infreq_resp","","","img/orange_2bandit_b.png","68","img/orange_2bandit_b.png","68","test","","","","","","","","","","","3","","","","","","","","",""
"null","168813","SARL_v6","SARL_v6x6lsdvt6","5bc0cded8b8bfe000105ea82","fixation","","","img/fixation.png","null","","","test","","","","","","","","","","","","","","","","","","","",""
"447.69999999925494","169267","SARL_v6","SARL_v6x6lsdvt6","5bc0cded8b8bfe000105ea82","freq","","","img/blue_2bandit_b2.png","70","","70","test","1","","60","","","","circle","square","58","12","3","0.9137931034482759","","","","","","","",""
"null","169629","SARL_v6","SARL_v6x6lsdvt6","5bc0cded8b8bfe000105ea82","freq_resp","","","img/blue_2bandit_b.png","70","img/blue_2bandit_b.png","70","test","","","","","","","","","","","3","","","","","","","","",""
"null","169789","SARL_v6","SARL_v6x6lsdvt6","5bc0cded8b8bfe000105ea82","fixation","","","img/fixation.png","null","","","test","","","","","","","","","","","","","","","","","","","",""
"416.90000000037253","170211","SARL_v6","SARL_v6x6lsdvt6","5bc0cded8b8bfe000105ea82","freq","","","img/blue_2bandit_b2.png","70","","70","test","1","","61","","","","circle","square","59","13","3","0.9152542372881356","","","","","","","",""
"null","170604","SARL_v6","SARL_v6x6lsdvt6","5bc0cded8b8bfe000105ea82","freq_resp","","","img/blue_2bandit_b.png","70","img/blue_2bandit_b.png","70","test","","","","","","","","","","","3","","","","","","","","",""
"null","170765","SARL_v6","SARL_v6x6lsdvt6","5bc0cded8b8bfe000105ea82","fixation","","","img/fixation.png","null","","","test","","","","","","","","","","","","","","","","","","","",""
"359.7000000011176","171131","SARL_v6","SARL_v6x6lsdvt6","5bc0cded8b8bfe000105ea82","freq","","","img/blue_2bandit_b2.png","70","","70","test","1","","62","","","","circle","square","60","14","3","0.9166666666666666","","","","","","","",""
"null","171581","SARL_v6","SARL_v6x6lsdvt6","5bc0cded8b8bfe000105ea82","freq_resp","","","img/blue_2bandit_b.png","70","img/blue_2bandit_b.png","70","test","","","","","","","","","","","3","","","","","","","","",""
"null","171741","SARL_v6","SARL_v6x6lsdvt6","5bc0cded8b8bfe000105ea82","fixation","","","img/fixation.png","null","","","test","","","","","","","","","","","","","","","","","","","",""
"380.80000000074506","172129","SARL_v6","SARL_v6x6lsdvt6","5bc0cded8b8bfe000105ea82","freq","","","img/blue_2bandit_b2.png","70","","70","test","1","","63","","","","circle","square","61","15","3","0.9180327868852459","","","","","","","",""
"null","172557","SARL_v6","SARL_v6x6lsdvt6","5bc0cded8b8bfe000105ea82","freq_resp","","","img/blue_2bandit_b.png","70","img/blue_2bandit_b.png","70","test","","","","","","","","","","","3","","","","","","","","",""
"null","172717","SARL_v6","SARL_v6x6lsdvt6","5bc0cded8b8bfe000105ea82","fixation","","","img/fixation.png","null","","","test","","","","","","","","","","","","","","","","","","","",""
"428.90000000037253","173152","SARL_v6","SARL_v6x6lsdvt6","5bc0cded8b8bfe000105ea82","freq","","","img/blue_2bandit_b2.png","70","","70","test","1","","64","","","","circle","square","62","16","3","0.9193548387096774","","","","","","","",""
"null","173533","SARL_v6","SARL_v6x6lsdvt6","5bc0cded8b8bfe000105ea82","freq_resp","","","img/blue_2bandit_b.png","70","img/blue_2bandit_b.png","70","test","","","","","","","","","","","3","","","","","","","","",""
"null","173693","SARL_v6","SARL_v6x6lsdvt6","5bc0cded8b8bfe000105ea82","fixation","","","img/fixation.png","null","","","test","","","","","","","","","","","","","","","","","","","",""
"775.3000000007451","174475","SARL_v6","SARL_v6x6lsdvt6","5bc0cded8b8bfe000105ea82","freq","","","img/blue_2bandit_b2.png","70","","70","test","1","","65","","","","circle","square","63","17","3","0.9206349206349206","","","","","","","",""
"null","174509","SARL_v6","SARL_v6x6lsdvt6","5bc0cded8b8bfe000105ea82","freq_resp","","","img/blue_2bandit_b.png","70","img/blue_2bandit_b.png","70","test","","","","","","","","","","","3","","","","","","","","",""
"null","174669","SARL_v6","SARL_v6x6lsdvt6","5bc0cded8b8bfe000105ea82","fixation","","","img/fixation.png","null","","","test","","","","","","","","","","","","","","","","","","","",""
"518.5","175194","SARL_v6","SARL_v6x6lsdvt6","5bc0cded8b8bfe000105ea82","freq","","","img/blue_2bandit_b2.png","70","","70","test","1","","66","","","","circle","square","64","18","3","0.921875","","","","","","","",""
"null","175485","SARL_v6","SARL_v6x6lsdvt6","5bc0cded8b8bfe000105ea82","freq_resp","","","img/blue_2bandit_b.png","70","img/blue_2bandit_b.png","70","test","","","","","","","","","","","3","","","","","","","","",""
"null","175644","SARL_v6","SARL_v6x6lsdvt6","5bc0cded8b8bfe000105ea82","fixation","","","img/fixation.png","null","","","test","","","","","","","","","","","","","","","","","","","",""
"449.6000000014901","176100","SARL_v6","SARL_v6x6lsdvt6","5bc0cded8b8bfe000105ea82","freq","","","img/blue_2bandit_b2.png","70","","70","test","1","","67","","","","circle","square","65","19","3","0.9230769230769231","","","","","","","",""
"null","176460","SARL_v6","SARL_v6x6lsdvt6","5bc0cded8b8bfe000105ea82","freq_resp","","","img/blue_2bandit_b.png","70","img/blue_2bandit_b.png","70","test","","","","","","","","","","","3","","","","","","","","",""
"null","176621","SARL_v6","SARL_v6x6lsdvt6","5bc0cded8b8bfe000105ea82","fixation","","","img/fixation.png","null","","","test","","","","","","","","","","","","","","","","","","","",""
"383.8999999985099","177011","SARL_v6","SARL_v6x6lsdvt6","5bc0cded8b8bfe000105ea82","freq","","","img/blue_2bandit_b2.png","70","","70","test","1","","68","","","","circle","square","66","20","3","0.9242424242424242","","","","","","","",""
"null","177436","SARL_v6","SARL_v6x6lsdvt6","5bc0cded8b8bfe000105ea82","freq_resp","","","img/blue_2bandit_b.png","70","img/blue_2bandit_b.png","70","test","","","","","","","","","","","3","","","","","","","","",""
"null","177596","SARL_v6","SARL_v6x6lsdvt6","5bc0cded8b8bfe000105ea82","fixation","","","img/fixation.png","null","","","test","","","","","","","","","","","","","","","","","","","",""
"559.1999999992549","178162","SARL_v6","SARL_v6x6lsdvt6","5bc0cded8b8bfe000105ea82","rl","","","img/black_2bandit_b2.png","74","","0","test","","","69","","","-4","circle","square","","0","3","","74","-4","-8","-4","-8","circle","3","0"
"null","178925","SARL_v6","SARL_v6x6lsdvt6","5bc0cded8b8bfe000105ea82","feedback","","","<div class=""verylowPoints""> -4 </div>","null","","na","test","","","NaN","","","","","","","","3","","74","","","","","","3",""
"524.4000000003725","179455","SARL_v6","SARL_v6x6lsdvt6","5bc0cded8b8bfe000105ea82","freq","","","img/blue_2bandit_b2.png","70","","70","test","1","","70","","","","circle","square","67","1","4","0.9253731343283582","","","","","","","",""
"null","179741","SARL_v6","SARL_v6x6lsdvt6","5bc0cded8b8bfe000105ea82","freq_resp","","","img/blue_2bandit_b.png","70","img/blue_2bandit_b.png","70","test","","","","","","","","","","","4","","","","","","","","",""
"null","179902","SARL_v6","SARL_v6x6lsdvt6","5bc0cded8b8bfe000105ea82","fixation","","","img/fixation.png","null","","","test","","","","","","","","","","","","","","","","","","","",""
"414","180322","SARL_v6","SARL_v6x6lsdvt6","5bc0cded8b8bfe000105ea82","freq","","","img/blue_2bandit_b2.png","70","","70","test","1","","71","","","","circle","square","68","2","4","0.9264705882352942","","","","","","","",""
"null","180717","SARL_v6","SARL_v6x6lsdvt6","5bc0cded8b8bfe000105ea82","freq_resp","","","img/blue_2bandit_b.png","70","img/blue_2bandit_b.png","70","test","","","","","","","","","","","4","","","","","","","","",""
"null","180876","SARL_v6","SARL_v6x6lsdvt6","5bc0cded8b8bfe000105ea82","fixation","","","img/fixation.png","null","","","test","","","","","","","","","","","","","","","","","","","",""
"412.69999999925494","181296","SARL_v6","SARL_v6x6lsdvt6","5bc0cded8b8bfe000105ea82","freq","","","img/blue_2bandit_b2.png","70","","70","test","1","","72","","","","circle","square","69","3","4","0.927536231884058","","","","","","","",""
"null","181692","SARL_v6","SARL_v6x6lsdvt6","5bc0cded8b8bfe000105ea82","freq_resp","","","img/blue_2bandit_b.png","70","img/blue_2bandit_b.png","70","test","","","","","","","","","","","4","","","","","","","","",""
"null","181853","SARL_v6","SARL_v6x6lsdvt6","5bc0cded8b8bfe000105ea82","fixation","","","img/fixation.png","null","","","test","","","","","","","","","","","","","","","","","","","",""
"379.09999999962747","182238","SARL_v6","SARL_v6x6lsdvt6","5bc0cded8b8bfe000105ea82","freq","","","img/blue_2bandit_b2.png","70","","70","test","1","","73","","","","circle","square","70","4","4","0.9285714285714286","","","","","","","",""
"null","182668","SARL_v6","SARL_v6x6lsdvt6","5bc0cded8b8bfe000105ea82","freq_resp","","","img/blue_2bandit_b.png","70","img/blue_2bandit_b.png","70","test","","","","","","","","","","","4","","","","","","","","",""
"null","182829","SARL_v6","SARL_v6x6lsdvt6","5bc0cded8b8bfe000105ea82","fixation","","","img/fixation.png","null","","","test","","","","","","","","","","","","","","","","","","","",""
"551.4000000003725","183387","SARL_v6","SARL_v6x6lsdvt6","5bc0cded8b8bfe000105ea82","freq","","","img/blue_2bandit_b2.png","70","","70","test","1","","74","","","","circle","square","71","5","4","0.9295774647887324","","","","","","","",""
"null","183645","SARL_v6","SARL_v6x6lsdvt6","5bc0cded8b8bfe000105ea82","freq_resp","","","img/blue_2bandit_b.png","70","img/blue_2bandit_b.png","70","test","","","","","","","","","","","4","","","","","","","","",""
"null","183805","SARL_v6","SARL_v6x6lsdvt6","5bc0cded8b8bfe000105ea82","fixation","","","img/fixation.png","null","","","test","","","","","","","","","","","","","","","","","","","",""
"416.90000000037253","184228","SARL_v6","SARL_v6x6lsdvt6","5bc0cded8b8bfe000105ea82","freq","","","img/blue_2bandit_b2.png","70","","70","test","1","","75","","","","circle","square","72","6","4","0.9305555555555556","","","","","","","",""
"null","184621","SARL_v6","SARL_v6x6lsdvt6","5bc0cded8b8bfe000105ea82","freq_resp","","","img/blue_2bandit_b.png","70","img/blue_2bandit_b.png","70","test","","","","","","","","","","","4","","","","","","","","",""
"null","184781","SARL_v6","SARL_v6x6lsdvt6","5bc0cded8b8bfe000105ea82","fixation","","","img/fixation.png","null","","","test","","","","","","","","","","","","","","","","","","","",""
"531.1999999992549","185319","SARL_v6","SARL_v6x6lsdvt6","5bc0cded8b8bfe000105ea82","infreq","","","img/orange_2bandit_b2.png","68","","68","test","1","","76","","","","circle","square","73","7","4","0.9315068493150684","","","","","","","",""
"null","185597","SARL_v6","SARL_v6x6lsdvt6","5bc0cded8b8bfe000105ea82","infreq_resp","","","img/orange_2bandit_b.png","68","img/orange_2bandit_b.png","68","test","","","","","","","","","","","4","","","","","","","","",""
"null","185757","SARL_v6","SARL_v6x6lsdvt6","5bc0cded8b8bfe000105ea82","fixation","","","img/fixation.png","null","","","test","","","","","","","","","","","","","","","","","","","",""
"629.4000000003725","186393","SARL_v6","SARL_v6x6lsdvt6","5bc0cded8b8bfe000105ea82","freq","","","img/blue_2bandit_b2.png","70","","70","test","1","","77","","","","circle","square","74","8","4","0.9324324324324325","","","","","","","",""
"null","186573","SARL_v6","SARL_v6x6lsdvt6","5bc0cded8b8bfe000105ea82","freq_resp","","","img/blue_2bandit_b.png","70","img/blue_2bandit_b.png","70","test","","","","","","","","","","","4","","","","","","","","",""
"null","186734","SARL_v6","SARL_v6x6lsdvt6","5bc0cded8b8bfe000105ea82","fixation","","","img/fixation.png","null","","","test","","","","","","","","","","","","","","","","","","","",""
"485.30000000074506","187226","SARL_v6","SARL_v6x6lsdvt6","5bc0cded8b8bfe000105ea82","freq","","","img/blue_2bandit_b2.png","70","","70","test","1","","78","","","","circle","square","75","9","4","0.9333333333333333","","","","","","","",""
"null","187548","SARL_v6","SARL_v6x6lsdvt6","5bc0cded8b8bfe000105ea82","freq_resp","","","img/blue_2bandit_b.png","70","img/blue_2bandit_b.png","70","test","","","","","","","","","","","4","","","","","","","","",""
"null","187708","SARL_v6","SARL_v6x6lsdvt6","5bc0cded8b8bfe000105ea82","fixation","","","img/fixation.png","null","","","test","","","","","","","","","","","","","","","","","","","",""
"407.7999999988824","188123","SARL_v6","SARL_v6x6lsdvt6","5bc0cded8b8bfe000105ea82","freq","","","img/blue_2bandit_b2.png","70","","70","test","1","","79","","","","circle","square","76","10","4","0.9342105263157895","","","","","","","",""
"null","188524","SARL_v6","SARL_v6x6lsdvt6","5bc0cded8b8bfe000105ea82","freq_resp","","","img/blue_2bandit_b.png","70","img/blue_2bandit_b.png","70","test","","","","","","","","","","","4","","","","","","","","",""
"null","188685","SARL_v6","SARL_v6x6lsdvt6","5bc0cded8b8bfe000105ea82","fixation","","","img/fixation.png","null","","","test","","","","","","","","","","","","","","","","","","","",""
"321","189012","SARL_v6","SARL_v6x6lsdvt6","5bc0cded8b8bfe000105ea82","freq","","","img/blue_2bandit_b2.png","70","","70","test","1","","80","","","","circle","square","77","11","4","0.935064935064935","","","","","","","",""
"null","189501","SARL_v6","SARL_v6x6lsdvt6","5bc0cded8b8bfe000105ea82","freq_resp","","","img/blue_2bandit_b.png","70","img/blue_2bandit_b.png","70","test","","","","","","","","","","","4","","","","","","","","",""
"null","189661","SARL_v6","SARL_v6x6lsdvt6","5bc0cded8b8bfe000105ea82","fixation","","","img/fixation.png","null","","","test","","","","","","","","","","","","","","","","","","","",""
"333.7000000011176","190001","SARL_v6","SARL_v6x6lsdvt6","5bc0cded8b8bfe000105ea82","freq","","","img/blue_2bandit_b2.png","70","","70","test","1","","81","","","","circle","square","78","12","4","0.9358974358974359","","","","","","","",""
"null","190477","SARL_v6","SARL_v6x6lsdvt6","5bc0cded8b8bfe000105ea82","freq_resp","","","img/blue_2bandit_b.png","70","img/blue_2bandit_b.png","70","test","","","","","","","","","","","4","","","","","","","","",""
"null","190637","SARL_v6","SARL_v6x6lsdvt6","5bc0cded8b8bfe000105ea82","fixation","","","img/fixation.png","null","","","test","","","","","","","","","","","","","","","","","","","",""
"327.2999999988824","190970","SARL_v6","SARL_v6x6lsdvt6","5bc0cded8b8bfe000105ea82","freq","","","img/blue_2bandit_b2.png","70","","70","test","1","","82","","","","circle","square","79","13","4","0.9367088607594937","","","","","","","",""
"null","191453","SARL_v6","SARL_v6x6lsdvt6","5bc0cded8b8bfe000105ea82","freq_resp","","","img/blue_2bandit_b.png","70","img/blue_2bandit_b.png","70","test","","","","","","","","","","","4","","","","","","","","",""
"null","191613","SARL_v6","SARL_v6x6lsdvt6","5bc0cded8b8bfe000105ea82","fixation","","","img/fixation.png","null","","","test","","","","","","","","","","","","","","","","","","","",""
"549","192168","SARL_v6","SARL_v6x6lsdvt6","5bc0cded8b8bfe000105ea82","infreq","","","img/orange_2bandit_b2.png","68","","68","test","1","","83","","","","circle","square","80","14","4","0.9375","","","","","","","",""
"null","192428","SARL_v6","SARL_v6x6lsdvt6","5bc0cded8b8bfe000105ea82","infreq_resp","","","img/orange_2bandit_b.png","68","img/orange_2bandit_b.png","68","test","","","","","","","","","","","4","","","","","","","","",""
"null","192589","SARL_v6","SARL_v6x6lsdvt6","5bc0cded8b8bfe000105ea82","fixation","","","img/fixation.png","null","","","test","","","","","","","","","","","","","","","","","","","",""
"453","193048","SARL_v6","SARL_v6x6lsdvt6","5bc0cded8b8bfe000105ea82","freq","","","img/blue_2bandit_b2.png","70","","70","test","1","","84","","","","circle","square","81","15","4","0.9382716049382716","","","","","","","",""
"null","193405","SARL_v6","SARL_v6x6lsdvt6","5bc0cded8b8bfe000105ea82","freq_resp","","","img/blue_2bandit_b.png","70","img/blue_2bandit_b.png","70","test","","","","","","","","","","","4","","","","","","","","",""
"null","193564","SARL_v6","SARL_v6x6lsdvt6","5bc0cded8b8bfe000105ea82","fixation","","","img/fixation.png","null","","","test","","","","","","","","","","","","","","","","","","","",""
"360.59999999962747","193931","SARL_v6","SARL_v6x6lsdvt6","5bc0cded8b8bfe000105ea82","freq","","","img/blue_2bandit_b2.png","70","","70","test","1","","85","","","","circle","square","82","16","4","0.9390243902439024","","","","","","","",""
"null","194381","SARL_v6","SARL_v6x6lsdvt6","5bc0cded8b8bfe000105ea82","freq_resp","","","img/blue_2bandit_b.png","70","img/blue_2bandit_b.png","70","test","","","","","","","","","","","4","","","","","","","","",""
"null","194541","SARL_v6","SARL_v6x6lsdvt6","5bc0cded8b8bfe000105ea82","fixation","","","img/fixation.png","null","","","test","","","","","","","","","","","","","","","","","","","",""
"321.8999999985099","194870","SARL_v6","SARL_v6x6lsdvt6","5bc0cded8b8bfe000105ea82","freq","","","img/blue_2bandit_b2.png","70","","70","test","1","","86","","","","circle","square","83","17","4","0.9397590361445783","","","","","","","",""
"null","195357","SARL_v6","SARL_v6x6lsdvt6","5bc0cded8b8bfe000105ea82","freq_resp","","","img/blue_2bandit_b.png","70","img/blue_2bandit_b.png","70","test","","","","","","","","","","","4","","","","","","","","",""
"null","195517","SARL_v6","SARL_v6x6lsdvt6","5bc0cded8b8bfe000105ea82","fixation","","","img/fixation.png","null","","","test","","","","","","","","","","","","","","","","","","","",""
"398.59999999962747","195922","SARL_v6","SARL_v6x6lsdvt6","5bc0cded8b8bfe000105ea82","freq","","","img/blue_2bandit_b2.png","70","","70","test","1","","87","","","","circle","square","84","18","4","0.9404761904761905","","","","","","","",""
"null","196333","SARL_v6","SARL_v6x6lsdvt6","5bc0cded8b8bfe000105ea82","freq_resp","","","img/blue_2bandit_b.png","70","img/blue_2bandit_b.png","70","test","","","","","","","","","","","4","","","","","","","","",""
"null","196493","SARL_v6","SARL_v6x6lsdvt6","5bc0cded8b8bfe000105ea82","fixation","","","img/fixation.png","null","","","test","","","","","","","","","","","","","","","","","","","",""
"404.2999999988824","196904","SARL_v6","SARL_v6x6lsdvt6","5bc0cded8b8bfe000105ea82","freq","","","img/blue_2bandit_b2.png","70","","70","test","1","","88","","","","circle","square","85","19","4","0.9411764705882353","","","","","","","",""
"null","197309","SARL_v6","SARL_v6x6lsdvt6","5bc0cded8b8bfe000105ea82","freq_resp","","","img/blue_2bandit_b.png","70","img/blue_2bandit_b.png","70","test","","","","","","","","","","","4","","","","","","","","",""
"null","197469","SARL_v6","SARL_v6x6lsdvt6","5bc0cded8b8bfe000105ea82","fixation","","","img/fixation.png","null","","","test","","","","","","","","","","","","","","","","","","","",""
"405.5","197881","SARL_v6","SARL_v6x6lsdvt6","5bc0cded8b8bfe000105ea82","freq","","","img/blue_2bandit_b2.png","70","","70","test","1","","89","","","","circle","square","86","20","4","0.9418604651162791","","","","","","","",""
"null","198285","SARL_v6","SARL_v6x6lsdvt6","5bc0cded8b8bfe000105ea82","freq_resp","","","img/blue_2bandit_b.png","70","img/blue_2bandit_b.png","70","test","","","","","","","","","","","4","","","","","","","","",""
"null","198444","SARL_v6","SARL_v6x6lsdvt6","5bc0cded8b8bfe000105ea82","fixation","","","img/fixation.png","null","","","test","","","","","","","","","","","","","","","","","","","",""
"665.5","199117","SARL_v6","SARL_v6x6lsdvt6","5bc0cded8b8bfe000105ea82","rl","","","img/black_2bandit_b2.png","74","","0","test","","","90","","","0","circle","square","","0","4","","74","0","-12","0","-12","circle","4","0"
"null","199876","SARL_v6","SARL_v6x6lsdvt6","5bc0cded8b8bfe000105ea82","feedback","","","<div class=""verylowPoints""> 0 </div>","null","","na","test","","","NaN","","","","","","","","4","","74","","","","","","4",""
"null","200685","SARL_v6","SARL_v6x6lsdvt6","5bc0cded8b8bfe000105ea82","freq","","","img/blue_2bandit_b2.png","null","","70","test","0","","91","","","","circle","square","87","1","5","0.9310344827586207","","","","","","","",""
"null","200845","SARL_v6","SARL_v6x6lsdvt6","5bc0cded8b8bfe000105ea82","fixation","","","img/fixation.png","null","","","test","","","","","","","","","","","","","","","","","","","",""
"547.6999999992549","201400","SARL_v6","SARL_v6x6lsdvt6","5bc0cded8b8bfe000105ea82","freq","","","img/blue_2bandit_b2.png","70","","70","test","1","","92","","","","circle","square","88","2","5","0.9318181818181818","","","","","","","",""
"null","201660","SARL_v6","SARL_v6x6lsdvt6","5bc0cded8b8bfe000105ea82","freq_resp","","","img/blue_2bandit_b.png","70","img/blue_2bandit_b.png","70","test","","","","","","","","","","","5","","","","","","","","",""
"null","201821","SARL_v6","SARL_v6x6lsdvt6","5bc0cded8b8bfe000105ea82","fixation","","","img/fixation.png","null","","","test","","","","","","","","","","","","","","","","","","","",""
"371","202199","SARL_v6","SARL_v6x6lsdvt6","5bc0cded8b8bfe000105ea82","freq","","","img/blue_2bandit_b2.png","70","","70","test","1","","93","","","","circle","square","89","3","5","0.9325842696629213","","","","","","","",""
"null","202644","SARL_v6","SARL_v6x6lsdvt6","5bc0cded8b8bfe000105ea82","freq_resp","","","img/blue_2bandit_b.png","70","img/blue_2bandit_b.png","70","test","","","","","","","","","","","5","","","","","","","","",""
"null","202805","SARL_v6","SARL_v6x6lsdvt6","5bc0cded8b8bfe000105ea82","fixation","","","img/fixation.png","null","","","test","","","","","","","","","","","","","","","","","","","",""
"510.09999999962747","203322","SARL_v6","SARL_v6x6lsdvt6","5bc0cded8b8bfe000105ea82","infreq","","","img/orange_2bandit_b2.png","68","","68","test","1","","94","","","","circle","square","90","4","5","0.9333333333333333","","","","","","","",""
"null","203620","SARL_v6","SARL_v6x6lsdvt6","5bc0cded8b8bfe000105ea82","infreq_resp","","","img/orange_2bandit_b.png","68","img/orange_2bandit_b.png","68","test","","","","","","","","","","","5","","","","","","","","",""
"null","203782","SARL_v6","SARL_v6x6lsdvt6","5bc0cded8b8bfe000105ea82","fixation","","","img/fixation.png","null","","","test","","","","","","","","","","","","","","","","","","","",""
"448.2999999988824","204236","SARL_v6","SARL_v6x6lsdvt6","5bc0cded8b8bfe000105ea82","freq","","","img/blue_2bandit_b2.png","70","","70","test","1","","95","","","","circle","square","91","5","5","0.9340659340659341","","","","","","","",""
"null","204597","SARL_v6","SARL_v6x6lsdvt6","5bc0cded8b8bfe000105ea82","freq_resp","","","img/blue_2bandit_b.png","70","img/blue_2bandit_b.png","70","test","","","","","","","","","","","5","","","","","","","","",""
"null","204757","SARL_v6","SARL_v6x6lsdvt6","5bc0cded8b8bfe000105ea82","fixation","","","img/fixation.png","null","","","test","","","","","","","","","","","","","","","","","","","",""
"337.09999999962747","205100","SARL_v6","SARL_v6x6lsdvt6","5bc0cded8b8bfe000105ea82","freq","","","img/blue_2bandit_b2.png","70","","70","test","1","","96","","","","circle","square","92","6","5","0.9347826086956522","","","","","","","",""
"null","205574","SARL_v6","SARL_v6x6lsdvt6","5bc0cded8b8bfe000105ea82","freq_resp","","","img/blue_2bandit_b.png","70","img/blue_2bandit_b.png","70","test","","","","","","","","","","","5","","","","","","","","",""
"null","205733","SARL_v6","SARL_v6x6lsdvt6","5bc0cded8b8bfe000105ea82","fixation","","","img/fixation.png","null","","","test","","","","","","","","","","","","","","","","","","","",""
"255.39999999850988","205995","SARL_v6","SARL_v6x6lsdvt6","5bc0cded8b8bfe000105ea82","freq","","","img/blue_2bandit_b2.png","70","","70","test","1","","97","","","","circle","square","93","7","5","0.9354838709677419","","","","","","","",""
"null","206549","SARL_v6","SARL_v6x6lsdvt6","5bc0cded8b8bfe000105ea82","freq_resp","","","img/blue_2bandit_b.png","70","img/blue_2bandit_b.png","70","test","","","","","","","","","","","5","","","","","","","","",""
"null","206708","SARL_v6","SARL_v6x6lsdvt6","5bc0cded8b8bfe000105ea82","fixation","","","img/fixation.png","null","","","test","","","","","","","","","","","","","","","","","","","",""
"242.60000000149012","206958","SARL_v6","SARL_v6x6lsdvt6","5bc0cded8b8bfe000105ea82","freq","","","img/blue_2bandit_b2.png","70","","70","test","1","","98","","","","circle","square","94","8","5","0.9361702127659575","","","","","","","",""
"null","207524","SARL_v6","SARL_v6x6lsdvt6","5bc0cded8b8bfe000105ea82","freq_resp","","","img/blue_2bandit_b.png","70","img/blue_2bandit_b.png","70","test","","","","","","","","","","","5","","","","","","","","",""
"null","207685","SARL_v6","SARL_v6x6lsdvt6","5bc0cded8b8bfe000105ea82","fixation","","","img/fixation.png","null","","","test","","","","","","","","","","","","","","","","","","","",""
"165.80000000074506","207857","SARL_v6","SARL_v6x6lsdvt6","5bc0cded8b8bfe000105ea82","freq","","","img/blue_2bandit_b2.png","70","","70","test","1","","99","","","","circle","square","95","9","5","0.9368421052631579","","","","","","","",""
"null","208500","SARL_v6","SARL_v6x6lsdvt6","5bc0cded8b8bfe000105ea82","freq_resp","","","img/blue_2bandit_b.png","70","img/blue_2bandit_b.png","70","test","","","","","","","","","","","5","","","","","","","","",""
"null","208661","SARL_v6","SARL_v6x6lsdvt6","5bc0cded8b8bfe000105ea82","fixation","","","img/fixation.png","null","","","test","","","","","","","","","","","","","","","","","","","",""
"264.19999999925494","208932","SARL_v6","SARL_v6x6lsdvt6","5bc0cded8b8bfe000105ea82","freq","","","img/blue_2bandit_b2.png","70","","70","test","1","","100","","","","circle","square","96","10","5","0.9375","","","","","","","",""
"null","209476","SARL_v6","SARL_v6x6lsdvt6","5bc0cded8b8bfe000105ea82","freq_resp","","","img/blue_2bandit_b.png","70","img/blue_2bandit_b.png","70","test","","","","","","","","","","","5","","","","","","","","",""
"null","209637","SARL_v6","SARL_v6x6lsdvt6","5bc0cded8b8bfe000105ea82","fixation","","","img/fixation.png","null","","","test","","","","","","","","","","","","","","","","","","","",""
"313.5","209957","SARL_v6","SARL_v6x6lsdvt6","5bc0cded8b8bfe000105ea82","freq","","","img/blue_2bandit_b2.png","70","","70","test","1","","101","","","","circle","square","97","11","5","0.9381443298969072","","","","","","","",""
"null","210452","SARL_v6","SARL_v6x6lsdvt6","5bc0cded8b8bfe000105ea82","freq_resp","","","img/blue_2bandit_b.png","70","img/blue_2bandit_b.png","70","test","","","","","","","","","","","5","","","","","","","","",""
"null","210614","SARL_v6","SARL_v6x6lsdvt6","5bc0cded8b8bfe000105ea82","fixation","","","img/fixation.png","null","","","test","","","","","","","","","","","","","","","","","","","",""
"312.59999999962747","210933","SARL_v6","SARL_v6x6lsdvt6","5bc0cded8b8bfe000105ea82","infreq","","","img/orange_2bandit_b2.png","70","","68","test","0","","102","","","","circle","square","98","12","5","0.9285714285714286","","","","","","","",""
"null","211429","SARL_v6","SARL_v6x6lsdvt6","5bc0cded8b8bfe000105ea82","infreq_resp","","","img/orange_2bandit_b.png","70","img/orange_2bandit_b.png","68","test","","","","","","","","","","","5","","","","","","","","",""
"null","211588","SARL_v6","SARL_v6x6lsdvt6","5bc0cded8b8bfe000105ea82","fixation","","","img/fixation.png","null","","","test","","","","","","","","","","","","","","","","","","","",""
"511.7999999988824","212107","SARL_v6","SARL_v6x6lsdvt6","5bc0cded8b8bfe000105ea82","freq","","","img/blue_2bandit_b2.png","70","","70","test","1","","103","","","","circle","square","99","13","5","0.9292929292929293","","","","","","","",""
"null","212405","SARL_v6","SARL_v6x6lsdvt6","5bc0cded8b8bfe000105ea82","freq_resp","","","img/blue_2bandit_b.png","70","img/blue_2bandit_b.png","70","test","","","","","","","","","","","5","","","","","","","","",""
"null","212564","SARL_v6","SARL_v6x6lsdvt6","5bc0cded8b8bfe000105ea82","fixation","","","img/fixation.png","null","","","test","","","","","","","","","","","","","","","","","","","",""
"354.5","212925","SARL_v6","SARL_v6x6lsdvt6","5bc0cded8b8bfe000105ea82","freq","","","img/blue_2bandit_b2.png","70","","70","test","1","","104","","","","circle","square","100","14","5","0.93","","","","","","","",""
"null","213382","SARL_v6","SARL_v6x6lsdvt6","5bc0cded8b8bfe000105ea82","freq_resp","","","img/blue_2bandit_b.png","70","img/blue_2bandit_b.png","70","test","","","","","","","","","","","5","","","","","","","","",""
"null","213540","SARL_v6","SARL_v6x6lsdvt6","5bc0cded8b8bfe000105ea82","fixation","","","img/fixation.png","null","","","test","","","","","","","","","","","","","","","","","","","",""
"395.2999999988824","213942","SARL_v6","SARL_v6x6lsdvt6","5bc0cded8b8bfe000105ea82","freq","","","img/blue_2bandit_b2.png","70","","70","test","1","","105","","","","circle","square","101","15","5","0.9306930693069307","","","","","","","",""
"null","214356","SARL_v6","SARL_v6x6lsdvt6","5bc0cded8b8bfe000105ea82","freq_resp","","","img/blue_2bandit_b.png","70","img/blue_2bandit_b.png","70","test","","","","","","","","","","","5","","","","","","","","",""
"null","214517","SARL_v6","SARL_v6x6lsdvt6","5bc0cded8b8bfe000105ea82","fixation","","","img/fixation.png","null","","","test","","","","","","","","","","","","","","","","","","","",""
"345","214868","SARL_v6","SARL_v6x6lsdvt6","5bc0cded8b8bfe000105ea82","freq","","","img/blue_2bandit_b2.png","70","","70","test","1","","106","","","","circle","square","102","16","5","0.9313725490196079","","","","","","","",""
"null","215333","SARL_v6","SARL_v6x6lsdvt6","5bc0cded8b8bfe000105ea82","freq_resp","","","img/blue_2bandit_b.png","70","img/blue_2bandit_b.png","70","test","","","","","","","","","","","5","","","","","","","","",""
"null","215493","SARL_v6","SARL_v6x6lsdvt6","5bc0cded8b8bfe000105ea82","fixation","","","img/fixation.png","null","","","test","","","","","","","","","","","","","","","","","","","",""
"350.69999999925494","215851","SARL_v6","SARL_v6x6lsdvt6","5bc0cded8b8bfe000105ea82","freq","","","img/blue_2bandit_b2.png","70","","70","test","1","","107","","","","circle","square","103","17","5","0.9320388349514563","","","","","","","",""
"null","216309","SARL_v6","SARL_v6x6lsdvt6","5bc0cded8b8bfe000105ea82","freq_resp","","","img/blue_2bandit_b.png","70","img/blue_2bandit_b.png","70","test","","","","","","","","","","","5","","","","","","","","",""
"null","216469","SARL_v6","SARL_v6x6lsdvt6","5bc0cded8b8bfe000105ea82","fixation","","","img/fixation.png","null","","","test","","","","","","","","","","","","","","","","","","","",""
"311.30000000074506","216787","SARL_v6","SARL_v6x6lsdvt6","5bc0cded8b8bfe000105ea82","freq","","","img/blue_2bandit_b2.png","70","","70","test","1","","108","","","","circle","square","104","18","5","0.9326923076923077","","","","","","","",""
"null","217285","SARL_v6","SARL_v6x6lsdvt6","5bc0cded8b8bfe000105ea82","freq_resp","","","img/blue_2bandit_b.png","70","img/blue_2bandit_b.png","70","test","","","","","","","","","","","5","","","","","","","","",""
"null","217444","SARL_v6","SARL_v6x6lsdvt6","5bc0cded8b8bfe000105ea82","fixation","","","img/fixation.png","null","","","test","","","","","","","","","","","","","","","","","","","",""
"333.19999999925494","217784","SARL_v6","SARL_v6x6lsdvt6","5bc0cded8b8bfe000105ea82","freq","","","img/blue_2bandit_b2.png","70","","70","test","1","","109","","","","circle","square","105","19","5","0.9333333333333333","","","","","","","",""
"null","218261","SARL_v6","SARL_v6x6lsdvt6","5bc0cded8b8bfe000105ea82","freq_resp","","","img/blue_2bandit_b.png","70","img/blue_2bandit_b.png","70","test","","","","","","","","","","","5","","","","","","","","",""
"null","218420","SARL_v6","SARL_v6x6lsdvt6","5bc0cded8b8bfe000105ea82","fixation","","","img/fixation.png","null","","","test","","","","","","","","","","","","","","","","","","","",""
"463.40000000037253","218890","SARL_v6","SARL_v6x6lsdvt6","5bc0cded8b8bfe000105ea82","freq","","","img/blue_2bandit_b2.png","70","","70","test","1","","110","","","","circle","square","106","20","5","0.9339622641509434","","","","","","","",""
"null","219236","SARL_v6","SARL_v6x6lsdvt6","5bc0cded8b8bfe000105ea82","freq_resp","","","img/blue_2bandit_b.png","70","img/blue_2bandit_b.png","70","test","","","","","","","","","","","5","","","","","","","","",""
"null","219398","SARL_v6","SARL_v6x6lsdvt6","5bc0cded8b8bfe000105ea82","fixation","","","img/fixation.png","null","","","test","","","","","","","","","","","","","","","","","","","",""
"421","219825","SARL_v6","SARL_v6x6lsdvt6","5bc0cded8b8bfe000105ea82","freq","","","img/blue_2bandit_b2.png","70","","70","test","1","","111","","","","circle","square","107","21","5","0.9345794392523364","","","","","","","",""
"null","220212","SARL_v6","SARL_v6x6lsdvt6","5bc0cded8b8bfe000105ea82","freq_resp","","","img/blue_2bandit_b.png","70","img/blue_2bandit_b.png","70","test","","","","","","","","","","","5","","","","","","","","",""
"null","220373","SARL_v6","SARL_v6x6lsdvt6","5bc0cded8b8bfe000105ea82","fixation","","","img/fixation.png","null","","","test","","","","","","","","","","","","","","","","","","","",""
"419.69999999925494","220801","SARL_v6","SARL_v6x6lsdvt6","5bc0cded8b8bfe000105ea82","freq","","","img/blue_2bandit_b2.png","70","","70","test","1","","112","","","","circle","square","108","22","5","0.9351851851851852","","","","","","","",""
"null","221189","SARL_v6","SARL_v6x6lsdvt6","5bc0cded8b8bfe000105ea82","freq_resp","","","img/blue_2bandit_b.png","70","img/blue_2bandit_b.png","70","test","","","","","","","","","","","5","","","","","","","","",""
"null","221349","SARL_v6","SARL_v6x6lsdvt6","5bc0cded8b8bfe000105ea82","fixation","","","img/fixation.png","null","","","test","","","","","","","","","","","","","","","","","","","",""
"393.59999999962747","221750","SARL_v6","SARL_v6x6lsdvt6","5bc0cded8b8bfe000105ea82","freq","","","img/blue_2bandit_b2.png","70","","70","test","1","","113","","","","circle","square","109","23","5","0.9357798165137615","","","","","","","",""
"null","222165","SARL_v6","SARL_v6x6lsdvt6","5bc0cded8b8bfe000105ea82","freq_resp","","","img/blue_2bandit_b.png","70","img/blue_2bandit_b.png","70","test","","","","","","","","","","","5","","","","","","","","",""
"null","222325","SARL_v6","SARL_v6x6lsdvt6","5bc0cded8b8bfe000105ea82","fixation","","","img/fixation.png","null","","","test","","","","","","","","","","","","","","","","","","","",""
"727.5999999996275","223059","SARL_v6","SARL_v6x6lsdvt6","5bc0cded8b8bfe000105ea82","rl","","","img/black_2bandit_b2.png","74","","0","test","","","114","","","4","circle","square","","0","5","","74","4","-7","4","-7","circle","5","0"
"null","223820","SARL_v6","SARL_v6x6lsdvt6","5bc0cded8b8bfe000105ea82","feedback","","","<div class=""veryhighPoints""> 4 </div>","null","","na","test","","","NaN","","","","","","","","5","","74","","","","","","5",""
"685.6999999992549","224513","SARL_v6","SARL_v6x6lsdvt6","5bc0cded8b8bfe000105ea82","freq","","","img/blue_2bandit_b2.png","70","","70","test","1","","115","","","","circle","square","110","1","6","0.9363636363636364","","","","","","","",""
"null","224636","SARL_v6","SARL_v6x6lsdvt6","5bc0cded8b8bfe000105ea82","freq_resp","","","img/blue_2bandit_b.png","70","img/blue_2bandit_b.png","70","test","","","","","","","","","","","6","","","","","","","","",""
"null","224796","SARL_v6","SARL_v6x6lsdvt6","5bc0cded8b8bfe000105ea82","fixation","","","img/fixation.png","null","","","test","","","","","","","","","","","","","","","","","","","",""
"387.90000000037253","225192","SARL_v6","SARL_v6x6lsdvt6","5bc0cded8b8bfe000105ea82","freq","","","img/blue_2bandit_b2.png","70","","70","test","1","","116","","","","circle","square","111","2","6","0.9369369369369369","","","","","","","",""
"null","225613","SARL_v6","SARL_v6x6lsdvt6","5bc0cded8b8bfe000105ea82","freq_resp","","","img/blue_2bandit_b.png","70","img/blue_2bandit_b.png","70","test","","","","","","","","","","","6","","","","","","","","",""
"null","225772","SARL_v6","SARL_v6x6lsdvt6","5bc0cded8b8bfe000105ea82","fixation","","","img/fixation.png","null","","","test","","","","","","","","","","","","","","","","","","","",""
"550.0999999996275","226329","SARL_v6","SARL_v6x6lsdvt6","5bc0cded8b8bfe000105ea82","freq","","","img/blue_2bandit_b2.png","70","","70","test","1","","117","","","","circle","square","112","3","6","0.9375","","","","","","","",""
"null","226588","SARL_v6","SARL_v6x6lsdvt6","5bc0cded8b8bfe000105ea82","freq_resp","","","img/blue_2bandit_b.png","70","img/blue_2bandit_b.png","70","test","","","","","","","","","","","6","","","","","","","","",""
"null","226749","SARL_v6","SARL_v6x6lsdvt6","5bc0cded8b8bfe000105ea82","fixation","","","img/fixation.png","null","","","test","","","","","","","","","","","","","","","","","","","",""
"463","227218","SARL_v6","SARL_v6x6lsdvt6","5bc0cded8b8bfe000105ea82","freq","","","img/blue_2bandit_b2.png","70","","70","test","1","","118","","","","circle","square","113","4","6","0.9380530973451328","","","","","","","",""
"null","227565","SARL_v6","SARL_v6x6lsdvt6","5bc0cded8b8bfe000105ea82","freq_resp","","","img/blue_2bandit_b.png","70","img/blue_2bandit_b.png","70","test","","","","","","","","","","","6","","","","","","","","",""
"null","227725","SARL_v6","SARL_v6x6lsdvt6","5bc0cded8b8bfe000105ea82","fixation","","","img/fixation.png","null","","","test","","","","","","","","","","","","","","","","","","","",""
"375.1000000014901","228106","SARL_v6","SARL_v6x6lsdvt6","5bc0cded8b8bfe000105ea82","freq","","","img/blue_2bandit_b2.png","70","","70","test","1","","119","","","","circle","square","114","5","6","0.9385964912280702","","","","","","","",""
"null","228540","SARL_v6","SARL_v6x6lsdvt6","5bc0cded8b8bfe000105ea82","freq_resp","","","img/blue_2bandit_b.png","70","img/blue_2bandit_b.png","70","test","","","","","","","","","","","6","","","","","","","","",""
"null","228701","SARL_v6","SARL_v6x6lsdvt6","5bc0cded8b8bfe000105ea82","fixation","","","img/fixation.png","null","","","test","","","","","","","","","","","","","","","","","","","",""
"540.9000000003725","229249","SARL_v6","SARL_v6x6lsdvt6","5bc0cded8b8bfe000105ea82","infreq","","","img/orange_2bandit_b2.png","68","","68","test","1","","120","","","","circle","square","115","6","6","0.9391304347826087","","","","","","","",""
"null","229517","SARL_v6","SARL_v6x6lsdvt6","5bc0cded8b8bfe000105ea82","infreq_resp","","","img/orange_2bandit_b.png","68","img/orange_2bandit_b.png","68","test","","","","","","","","","","","6","","","","","","","","",""
"null","229676","SARL_v6","SARL_v6x6lsdvt6","5bc0cded8b8bfe000105ea82","fixation","","","img/fixation.png","null","","","test","","","","","","","","","","","","","","","","","","","",""
"563.1999999992549","230246","SARL_v6","SARL_v6x6lsdvt6","5bc0cded8b8bfe000105ea82","freq","","","img/blue_2bandit_b2.png","70","","70","test","1","","121","","","","circle","square","116","7","6","0.9396551724137931","","","","","","","",""
"null","230492","SARL_v6","SARL_v6x6lsdvt6","5bc0cded8b8bfe000105ea82","freq_resp","","","img/blue_2bandit_b.png","70","img/blue_2bandit_b.png","70","test","","","","","","","","","","","6","","","","","","","","",""
"null","230652","SARL_v6","SARL_v6x6lsdvt6","5bc0cded8b8bfe000105ea82","fixation","","","img/fixation.png","null","","","test","","","","","","","","","","","","","","","","","","","",""
"389.69999999925494","231049","SARL_v6","SARL_v6x6lsdvt6","5bc0cded8b8bfe000105ea82","freq","","","img/blue_2bandit_b2.png","70","","70","test","1","","122","","","","circle","square","117","8","6","0.9401709401709402","","","","","","","",""
"null","231468","SARL_v6","SARL_v6x6lsdvt6","5bc0cded8b8bfe000105ea82","freq_resp","","","img/blue_2bandit_b.png","70","img/blue_2bandit_b.png","70","test","","","","","","","","","","","6","","","","","","","","",""
"null","231630","SARL_v6","SARL_v6x6lsdvt6","5bc0cded8b8bfe000105ea82","fixation","","","img/fixation.png","null","","","test","","","","","","","","","","","","","","","","","","","",""
"551.9000000003725","232188","SARL_v6","SARL_v6x6lsdvt6","5bc0cded8b8bfe000105ea82","infreq","","","img/orange_2bandit_b2.png","68","","68","test","1","","123","","","","circle","square","118","9","6","0.940677966101695","","","","","","","",""
"null","232445","SARL_v6","SARL_v6x6lsdvt6","5bc0cded8b8bfe000105ea82","infreq_resp","","","img/orange_2bandit_b.png","68","img/orange_2bandit_b.png","68","test","","","","","","","","","","","6","","","","","","","","",""
"null","232605","SARL_v6","SARL_v6x6lsdvt6","5bc0cded8b8bfe000105ea82","fixation","","","img/fixation.png","null","","","test","","","","","","","","","","","","","","","","","","","",""
"290.2999999988824","232902","SARL_v6","SARL_v6x6lsdvt6","5bc0cded8b8bfe000105ea82","freq","","","img/blue_2bandit_b2.png","70","","70","test","1","","124","","","","circle","square","119","10","6","0.9411764705882353","","","","","","","",""
"null","233421","SARL_v6","SARL_v6x6lsdvt6","5bc0cded8b8bfe000105ea82","freq_resp","","","img/blue_2bandit_b.png","70","img/blue_2bandit_b.png","70","test","","","","","","","","","","","6","","","","","","","","",""
"null","233580","SARL_v6","SARL_v6x6lsdvt6","5bc0cded8b8bfe000105ea82","fixation","","","img/fixation.png","null","","","test","","","","","","","","","","","","","","","","","","","",""
"379.3999999985099","233967","SARL_v6","SARL_v6x6lsdvt6","5bc0cded8b8bfe000105ea82","freq","","","img/blue_2bandit_b2.png","70","","70","test","1","","125","","","","circle","square","120","11","6","0.9416666666666667","","","","","","","",""
"null","234397","SARL_v6","SARL_v6x6lsdvt6","5bc0cded8b8bfe000105ea82","freq_resp","","","img/blue_2bandit_b.png","70","img/blue_2bandit_b.png","70","test","","","","","","","","","","","6","","","","","","","","",""
"null","234557","SARL_v6","SARL_v6x6lsdvt6","5bc0cded8b8bfe000105ea82","fixation","","","img/fixation.png","null","","","test","","","","","","","","","","","","","","","","","","","",""
"336.5","234900","SARL_v6","SARL_v6x6lsdvt6","5bc0cded8b8bfe000105ea82","freq","","","img/blue_2bandit_b2.png","70","","70","test","1","","126","","","","circle","square","121","12","6","0.9421487603305785","","","","","","","",""
"null","235373","SARL_v6","SARL_v6x6lsdvt6","5bc0cded8b8bfe000105ea82","freq_resp","","","img/blue_2bandit_b.png","70","img/blue_2bandit_b.png","70","test","","","","","","","","","","","6","","","","","","","","",""
"null","235533","SARL_v6","SARL_v6x6lsdvt6","5bc0cded8b8bfe000105ea82","fixation","","","img/fixation.png","null","","","test","","","","","","","","","","","","","","","","","","","",""
"422.80000000074506","235963","SARL_v6","SARL_v6x6lsdvt6","5bc0cded8b8bfe000105ea82","freq","","","img/blue_2bandit_b2.png","70","","70","test","1","","127","","","","circle","square","122","13","6","0.9426229508196722","","","","","","","",""
"null","236348","SARL_v6","SARL_v6x6lsdvt6","5bc0cded8b8bfe000105ea82","freq_resp","","","img/blue_2bandit_b.png","70","img/blue_2bandit_b.png","70","test","","","","","","","","","","","6","","","","","","","","",""
"null","236509","SARL_v6","SARL_v6x6lsdvt6","5bc0cded8b8bfe000105ea82","fixation","","","img/fixation.png","null","","","test","","","","","","","","","","","","","","","","","","","",""
"598","237114","SARL_v6","SARL_v6x6lsdvt6","5bc0cded8b8bfe000105ea82","freq","","","img/blue_2bandit_b2.png","70","","70","test","1","","128","","","","circle","square","123","14","6","0.943089430894309","","","","","","","",""
"null","237325","SARL_v6","SARL_v6x6lsdvt6","5bc0cded8b8bfe000105ea82","freq_resp","","","img/blue_2bandit_b.png","70","img/blue_2bandit_b.png","70","test","","","","","","","","","","","6","","","","","","","","",""
"null","237485","SARL_v6","SARL_v6x6lsdvt6","5bc0cded8b8bfe000105ea82","fixation","","","img/fixation.png","null","","","test","","","","","","","","","","","","","","","","","","","",""
"622.1999999992549","238114","SARL_v6","SARL_v6x6lsdvt6","5bc0cded8b8bfe000105ea82","freq","","","img/blue_2bandit_b2.png","70","","70","test","1","","129","","","","circle","square","124","15","6","0.9435483870967742","","","","","","","",""
"null","238300","SARL_v6","SARL_v6x6lsdvt6","5bc0cded8b8bfe000105ea82","freq_resp","","","img/blue_2bandit_b.png","70","img/blue_2bandit_b.png","70","test","","","","","","","","","","","6","","","","","","","","",""
"null","238461","SARL_v6","SARL_v6x6lsdvt6","5bc0cded8b8bfe000105ea82","fixation","","","img/fixation.png","null","","","test","","","","","","","","","","","","","","","","","","","",""
"616.0999999996275","239084","SARL_v6","SARL_v6x6lsdvt6","5bc0cded8b8bfe000105ea82","freq","","","img/blue_2bandit_b2.png","70","","70","test","1","","130","","","","circle","square","125","16","6","0.944","","","","","","","",""
"null","239278","SARL_v6","SARL_v6x6lsdvt6","5bc0cded8b8bfe000105ea82","freq_resp","","","img/blue_2bandit_b.png","70","img/blue_2bandit_b.png","70","test","","","","","","","","","","","6","","","","","","","","",""
"null","239437","SARL_v6","SARL_v6x6lsdvt6","5bc0cded8b8bfe000105ea82","fixation","","","img/fixation.png","null","","","test","","","","","","","","","","","","","","","","","","","",""
"573.5999999996275","240017","SARL_v6","SARL_v6x6lsdvt6","5bc0cded8b8bfe000105ea82","infreq","","","img/orange_2bandit_b2.png","68","","68","test","1","","131","","","","circle","square","126","17","6","0.9444444444444444","","","","","","","",""
"null","240252","SARL_v6","SARL_v6x6lsdvt6","5bc0cded8b8bfe000105ea82","infreq_resp","","","img/orange_2bandit_b.png","68","img/orange_2bandit_b.png","68","test","","","","","","","","","","","6","","","","","","","","",""
"null","240414","SARL_v6","SARL_v6x6lsdvt6","5bc0cded8b8bfe000105ea82","fixation","","","img/fixation.png","null","","","test","","","","","","","","","","","","","","","","","","","",""
"571","240992","SARL_v6","SARL_v6x6lsdvt6","5bc0cded8b8bfe000105ea82","freq","","","img/blue_2bandit_b2.png","70","","70","test","1","","132","","","","circle","square","127","18","6","0.9448818897637795","","","","","","","",""
