"rt","time_elapsed","expId","subject","prolificID","trialType","rlType","attType","stimulus","key_press","stim","corrresp","phase","corr","pracCounter","trialNum","rewardOne","rewardTwo","reward","bandOne","bandTwo","attentionNum","attentionRunNum","blockNum","performance","bandChosen","circleVal","squareVal","bandOneVal","bandTwoVal","shapeChosen","rlNum","badFlag"
"25215.10000000894","25220","SARL_v6","SARL_v6g4q5asky","5dd72efa82569a6d38e06854","","","","","","","","","","","","","","","","","","","","","","","","","","","",""
"","27377","SARL_v6","SARL_v6g4q5asky","5dd72efa82569a6d38e06854","fullscreen","fullscreen","fullscreen","","","","","","","","","","","","","","","","","","","","","","","","",""
"77821.20000000298","105202","SARL_v6","SARL_v6g4q5asky","5dd72efa82569a6d38e06854","","","","","","","","","","","","","","","","","","","","","","","","","","","",""
"null","106012","SARL_v6","SARL_v6g4q5asky","5dd72efa82569a6d38e06854","freqPrac","","","img/orange_2bandit_a2.png","null","img/orange_2bandit_a2.png","70","prac","0","1","","","","","","","","","","","","","","","","","",""
"null","107024","SARL_v6","SARL_v6g4q5asky","5dd72efa82569a6d38e06854","feedback","","","img/tooSlow.png","null","","na","prac","","","","","","","","","","","","","","","","","","","",""
"null","107182","SARL_v6","SARL_v6g4q5asky","5dd72efa82569a6d38e06854","fixation","","","img/fixation.png","null","","","prac","","","","","","","","","","","","","","","","","","","",""
"597.8000000119209","107782","SARL_v6","SARL_v6g4q5asky","5dd72efa82569a6d38e06854","infreqPrac","","","img/blue_2bandit_a2.png","68","img/blue_2bandit_a2.png","68","prac","1","1","","","","","","","","","","","","","","","","","",""
"597.8000000119209","107993","SARL_v6","SARL_v6g4q5asky","5dd72efa82569a6d38e06854","infreqPrac_resp","","","img/blue_2bandit_a.png","68","img/blue_2bandit_a.png","68","prac","","","","","","","","","","","","","","","","","","","",""
"null","108152","SARL_v6","SARL_v6g4q5asky","5dd72efa82569a6d38e06854","fixation","","","img/fixation.png","null","","","prac","","","","","","","","","","","","","","","","","","","",""
"426.79999999701977","108581","SARL_v6","SARL_v6g4q5asky","5dd72efa82569a6d38e06854","freqPrac","","","img/orange_2bandit_a2.png","70","img/orange_2bandit_a2.png","70","prac","1","1","","","","","","","","","","","","","","","","","",""
"426.79999999701977","108963","SARL_v6","SARL_v6g4q5asky","5dd72efa82569a6d38e06854","freqPrac_resp","","","img/orange_2bandit_a.png","70","img/orange_2bandit_a.png","70","prac","","","","","","","","","","","","","","","","","","","",""
"null","109123","SARL_v6","SARL_v6g4q5asky","5dd72efa82569a6d38e06854","fixation","","","img/fixation.png","null","","","prac","","","","","","","","","","","","","","","","","","","",""
"314.59999999403954","109440","SARL_v6","SARL_v6g4q5asky","5dd72efa82569a6d38e06854","infreqPrac","","","img/blue_2bandit_a2.png","68","img/blue_2bandit_a2.png","68","prac","1","1","","","","","","","","","","","","","","","","","",""
"314.59999999403954","109934","SARL_v6","SARL_v6g4q5asky","5dd72efa82569a6d38e06854","infreqPrac_resp","","","img/blue_2bandit_a.png","68","img/blue_2bandit_a.png","68","prac","","","","","","","","","","","","","","","","","","","",""
"null","110098","SARL_v6","SARL_v6g4q5asky","5dd72efa82569a6d38e06854","fixation","","","img/fixation.png","null","","","prac","","","","","","","","","","","","","","","","","","","",""
"341.70000000298023","110442","SARL_v6","SARL_v6g4q5asky","5dd72efa82569a6d38e06854","infreqPrac","","","img/blue_2bandit_a2.png","70","img/blue_2bandit_a2.png","68","prac","0","2","","","","","","","","","","","","","","","","","",""
"341.70000000298023","110910","SARL_v6","SARL_v6g4q5asky","5dd72efa82569a6d38e06854","infreqPrac_resp","","","img/blue_2bandit_a.png","70","img/blue_2bandit_a.png","68","prac","","","","","","","","","","","","","","","","","","","",""
"null","111920","SARL_v6","SARL_v6g4q5asky","5dd72efa82569a6d38e06854","feedback","","","img/wrongKey.png","null","","na","prac","","","","","","","","","","","","","","","","","","","",""
"null","112080","SARL_v6","SARL_v6g4q5asky","5dd72efa82569a6d38e06854","fixation","","","img/fixation.png","null","","","prac","","","","","","","","","","","","","","","","","","","",""
"710.2999999970198","112792","SARL_v6","SARL_v6g4q5asky","5dd72efa82569a6d38e06854","infreqPrac","","","img/blue_2bandit_a2.png","68","img/blue_2bandit_a2.png","68","prac","1","2","","","","","","","","","","","","","","","","","",""
"710.2999999970198","112887","SARL_v6","SARL_v6g4q5asky","5dd72efa82569a6d38e06854","infreqPrac_resp","","","img/blue_2bandit_a.png","68","img/blue_2bandit_a.png","68","prac","","","","","","","","","","","","","","","","","","","",""
"null","113049","SARL_v6","SARL_v6g4q5asky","5dd72efa82569a6d38e06854","fixation","","","img/fixation.png","null","","","prac","","","","","","","","","","","","","","","","","","","",""
"536.2999999970198","113587","SARL_v6","SARL_v6g4q5asky","5dd72efa82569a6d38e06854","freqPrac","","","img/orange_2bandit_a2.png","70","img/orange_2bandit_a2.png","70","prac","1","2","","","","","","","","","","","","","","","","","",""
"536.2999999970198","113856","SARL_v6","SARL_v6g4q5asky","5dd72efa82569a6d38e06854","freqPrac_resp","","","img/orange_2bandit_a.png","70","img/orange_2bandit_a.png","70","prac","","","","","","","","","","","","","","","","","","","",""
"null","114018","SARL_v6","SARL_v6g4q5asky","5dd72efa82569a6d38e06854","fixation","","","img/fixation.png","null","","","prac","","","","","","","","","","","","","","","","","","","",""
"514.9000000059605","114535","SARL_v6","SARL_v6g4q5asky","5dd72efa82569a6d38e06854","infreqPrac","","","img/blue_2bandit_a2.png","68","img/blue_2bandit_a2.png","68","prac","1","2","","","","","","","","","","","","","","","","","",""
"514.9000000059605","114831","SARL_v6","SARL_v6g4q5asky","5dd72efa82569a6d38e06854","infreqPrac_resp","","","img/blue_2bandit_a.png","68","img/blue_2bandit_a.png","68","prac","","","","","","","","","","","","","","","","","","","",""
"null","114993","SARL_v6","SARL_v6g4q5asky","5dd72efa82569a6d38e06854","fixation","","","img/fixation.png","null","","","prac","","","","","","","","","","","","","","","","","","","",""
"451.90000000596046","115447","SARL_v6","SARL_v6g4q5asky","5dd72efa82569a6d38e06854","freqPrac","","","img/orange_2bandit_a2.png","70","img/orange_2bandit_a2.png","70","prac","1","2","","","","","","","","","","","","","","","","","",""
"451.90000000596046","115799","SARL_v6","SARL_v6g4q5asky","5dd72efa82569a6d38e06854","freqPrac_resp","","","img/orange_2bandit_a.png","70","img/orange_2bandit_a.png","70","prac","","","","","","","","","","","","","","","","","","","",""
"null","115955","SARL_v6","SARL_v6g4q5asky","5dd72efa82569a6d38e06854","fixation","","","img/fixation.png","null","","","prac","","","","","","","","","","","","","","","","","","","",""
"449.5","116407","SARL_v6","SARL_v6g4q5asky","5dd72efa82569a6d38e06854","freqPrac","","","img/orange_2bandit_a2.png","70","img/orange_2bandit_a2.png","70","prac","1","2","","","","","","","","","","","","","","","","","",""
"449.5","116766","SARL_v6","SARL_v6g4q5asky","5dd72efa82569a6d38e06854","freqPrac_resp","","","img/orange_2bandit_a.png","70","img/orange_2bandit_a.png","70","prac","","","","","","","","","","","","","","","","","","","",""
"null","116929","SARL_v6","SARL_v6g4q5asky","5dd72efa82569a6d38e06854","fixation","","","img/fixation.png","null","","","prac","","","","","","","","","","","","","","","","","","","",""
"32898.39999999106","149830","SARL_v6","SARL_v6g4q5asky","5dd72efa82569a6d38e06854","","","","","","","","prac","","","","","","","","","","","","","","","","","","","",""
"442.40000000596046","150275","SARL_v6","SARL_v6g4q5asky","5dd72efa82569a6d38e06854","rlPractice","","","img/black_2bandit_a2.png","74","img/black_2bandit_a2.png","","prac","","","0","","","","","","","","","","","","","","","","",""
"null","151035","SARL_v6","SARL_v6g4q5asky","5dd72efa82569a6d38e06854","feedback","","","<div class=""verylowPoints_sq""> -14 </div>","null","","na","prac","","","1","10","-14","10","","","","","","","","","","","","","",""
"null","151193","SARL_v6","SARL_v6g4q5asky","5dd72efa82569a6d38e06854","fixation","","","img/fixation.png","null","","","prac","","","","","","","","","","","","","","","","","","","",""
"319.29999999701977","151515","SARL_v6","SARL_v6g4q5asky","5dd72efa82569a6d38e06854","rlPractice","","","img/black_2bandit_a2.png","75","img/black_2bandit_a2.png","","prac","","","1","","","","","","","","","","","","","","","","",""
"null","152276","SARL_v6","SARL_v6g4q5asky","5dd72efa82569a6d38e06854","feedback","","","<div class=""veryhighPoints""> 5 </div>","null","","na","prac","","","2","5","-5","5","","","","","","","","","","","","","",""
"null","152435","SARL_v6","SARL_v6g4q5asky","5dd72efa82569a6d38e06854","fixation","","","img/fixation.png","null","","","prac","","","","","","","","","","","","","","","","","","","",""
"505.29999999701977","152943","SARL_v6","SARL_v6g4q5asky","5dd72efa82569a6d38e06854","rlPractice","","","img/black_2bandit_a2.png","75","img/black_2bandit_a2.png","","prac","","","2","","","","","","","","","","","","","","","","",""
"null","153708","SARL_v6","SARL_v6g4q5asky","5dd72efa82569a6d38e06854","feedback","","","<div class=""veryhighPoints""> 30 </div>","null","","na","prac","","","3","30","2","30","","","","","","","","","","","","","",""
"null","153866","SARL_v6","SARL_v6g4q5asky","5dd72efa82569a6d38e06854","fixation","","","img/fixation.png","null","","","prac","","","","","","","","","","","","","","","","","","","",""
"429.79999999701977","154297","SARL_v6","SARL_v6g4q5asky","5dd72efa82569a6d38e06854","rlPractice","","","img/black_2bandit_a2.png","75","img/black_2bandit_a2.png","","prac","","","3","","","","","","","","","","","","","","","","",""
"null","155055","SARL_v6","SARL_v6g4q5asky","5dd72efa82569a6d38e06854","feedback","","","<div class=""verylowPoints""> -2 </div>","null","","na","prac","","","4","-2","20","-2","","","","","","","","","","","","","",""
"null","155220","SARL_v6","SARL_v6g4q5asky","5dd72efa82569a6d38e06854","fixation","","","img/fixation.png","null","","","prac","","","","","","","","","","","","","","","","","","","",""
"19046.19999998808","174268","SARL_v6","SARL_v6g4q5asky","5dd72efa82569a6d38e06854","","","","","","","","prac","","","","","","","","","","","","","","","","","","","",""
"null","175076","SARL_v6","SARL_v6g4q5asky","5dd72efa82569a6d38e06854","mixAttFreqPrac","","","img/orange_2bandit_a2.png","null","img/orange_2bandit_a2.png","70","prac","","","1","","","","","","","","","","","","","","","","",""
"51","175236","SARL_v6","SARL_v6g4q5asky","5dd72efa82569a6d38e06854","fixation","","","img/fixation.png","68","","","prac","","","","","","","","","","","","","","","","","","","",""
"null","176044","SARL_v6","SARL_v6g4q5asky","5dd72efa82569a6d38e06854","mixAttInfreqPrac","","","img/blue_2bandit_a2.png","null","img/blue_2bandit_a2.png","68","prac","","","2","","","","","","","","","","","","","","","","",""
"150.70000000298023","176197","SARL_v6","SARL_v6g4q5asky","5dd72efa82569a6d38e06854","fixation","","","img/fixation.png","68","","","prac","","","","","","","","","","","","","","","","","","","",""
"501.90000000596046","176700","SARL_v6","SARL_v6g4q5asky","5dd72efa82569a6d38e06854","mixAttInfreqPrac","","","img/blue_2bandit_a2.png","70","img/blue_2bandit_a2.png","68","prac","","","3","","","","","","","","","","","","","","","","",""
"501.90000000596046","177012","SARL_v6","SARL_v6g4q5asky","5dd72efa82569a6d38e06854","infreqPrac_resp","","","img/blue_2bandit_a.png","70","img/orange_2bandit_a.png","68","prac","","","3","","","","","","","","","","","","","","","","",""
"null","177172","SARL_v6","SARL_v6g4q5asky","5dd72efa82569a6d38e06854","fixation","","","img/fixation.png","null","","","prac","","","","","","","","","","","","","","","","","","","",""
"744.5","177919","SARL_v6","SARL_v6g4q5asky","5dd72efa82569a6d38e06854","mixAttInfreqPrac","","","img/blue_2bandit_a2.png","70","img/blue_2bandit_a2.png","68","prac","","","4","","","","","","","","","","","","","","","","",""
"744.5","177988","SARL_v6","SARL_v6g4q5asky","5dd72efa82569a6d38e06854","infreqPrac_resp","","","img/blue_2bandit_a.png","70","img/orange_2bandit_a.png","68","prac","","","4","","","","","","","","","","","","","","","","",""
"null","178144","SARL_v6","SARL_v6g4q5asky","5dd72efa82569a6d38e06854","fixation","","","img/fixation.png","null","","","prac","","","","","","","","","","","","","","","","","","","",""
"646.2999999970198","178792","SARL_v6","SARL_v6g4q5asky","5dd72efa82569a6d38e06854","mixAttFreqPrac","","","img/orange_2bandit_a2.png","68","img/orange_2bandit_a2.png","70","prac","","","5","","","","","","","","","","","","","","","","",""
"646.2999999970198","178956","SARL_v6","SARL_v6g4q5asky","5dd72efa82569a6d38e06854","freqPrac_resp","","","img/orange_2bandit_a.png","68","img/orange_2bandit_a.png","70","prac","","","5","","","","","","","","","","","","","","","","",""
"null","179112","SARL_v6","SARL_v6g4q5asky","5dd72efa82569a6d38e06854","fixation","","","img/fixation.png","null","","","prac","","","","","","","","","","","","","","","","","","","",""
"674.0999999940395","179788","SARL_v6","SARL_v6g4q5asky","5dd72efa82569a6d38e06854","mixRLPractice","","","img/black_2bandit_a2.png","75","img/black_2bandit_a2.png","","prac","","","5","","","","","","","","","","","","","","","","",""
"null","180544","SARL_v6","SARL_v6g4q5asky","5dd72efa82569a6d38e06854","feedback","","","<div class=""verylowPoints""> -14 </div>","null","","na","prac","","","6","-14","10","-14","","","","","","","","","","","","","",""
"null","180708","SARL_v6","SARL_v6g4q5asky","5dd72efa82569a6d38e06854","fixation","","","img/fixation.png","null","","","prac","","","","","","","","","","","","","","","","","","","",""
"695.3000000119209","181405","SARL_v6","SARL_v6g4q5asky","5dd72efa82569a6d38e06854","mixAttFreqPrac","","","img/orange_2bandit_a2.png","70","img/orange_2bandit_a2.png","70","prac","","","7","","","","","","","","","","","","","","","","",""
"695.3000000119209","181516","SARL_v6","SARL_v6g4q5asky","5dd72efa82569a6d38e06854","freqPrac_resp","","","img/orange_2bandit_a.png","70","img/orange_2bandit_a.png","70","prac","","","7","","","","","","","","","","","","","","","","",""
"null","181676","SARL_v6","SARL_v6g4q5asky","5dd72efa82569a6d38e06854","fixation","","","img/fixation.png","null","","","prac","","","","","","","","","","","","","","","","","","","",""
"null","182484","SARL_v6","SARL_v6g4q5asky","5dd72efa82569a6d38e06854","mixAttInfreqPrac","","","img/blue_2bandit_a2.png","null","img/blue_2bandit_a2.png","68","prac","","","8","","","","","","","","","","","","","","","","",""
"null","182644","SARL_v6","SARL_v6g4q5asky","5dd72efa82569a6d38e06854","fixation","","","img/fixation.png","null","","","prac","","","","","","","","","","","","","","","","","","","",""
"63.900000005960464","182710","SARL_v6","SARL_v6g4q5asky","5dd72efa82569a6d38e06854","mixAttFreqPrac","","","img/orange_2bandit_a2.png","68","img/orange_2bandit_a2.png","70","prac","","","9","","","","","","","","","","","","","","","","",""
"63.900000005960464","183455","SARL_v6","SARL_v6g4q5asky","5dd72efa82569a6d38e06854","freqPrac_resp","","","img/orange_2bandit_a.png","68","img/orange_2bandit_a.png","70","prac","","","9","","","","","","","","","","","","","","","","",""
"0.7000000029802322","183617","SARL_v6","SARL_v6g4q5asky","5dd72efa82569a6d38e06854","fixation","","","img/fixation.png","70","","","prac","","","","","","","","","","","","","","","","","","","",""
"null","184424","SARL_v6","SARL_v6g4q5asky","5dd72efa82569a6d38e06854","mixAttFreqPrac","","","img/orange_2bandit_a2.png","null","img/orange_2bandit_a2.png","70","prac","","","10","","","","","","","","","","","","","","","","",""
"null","184587","SARL_v6","SARL_v6g4q5asky","5dd72efa82569a6d38e06854","fixation","","","img/fixation.png","null","","","prac","","","","","","","","","","","","","","","","","","","",""
"110","184699","SARL_v6","SARL_v6g4q5asky","5dd72efa82569a6d38e06854","mixAttInfreqPrac","","","img/blue_2bandit_a2.png","70","img/blue_2bandit_a2.png","68","prac","","","11","","","","","","","","","","","","","","","","",""
"110","185403","SARL_v6","SARL_v6g4q5asky","5dd72efa82569a6d38e06854","infreqPrac_resp","","","img/blue_2bandit_a.png","70","img/orange_2bandit_a.png","68","prac","","","11","","","","","","","","","","","","","","","","",""
"null","185560","SARL_v6","SARL_v6g4q5asky","5dd72efa82569a6d38e06854","fixation","","","img/fixation.png","null","","","prac","","","","","","","","","","","","","","","","","","","",""
"584.7000000029802","186147","SARL_v6","SARL_v6g4q5asky","5dd72efa82569a6d38e06854","mixRLPractice","","","img/black_2bandit_a2.png","75","img/black_2bandit_a2.png","","prac","","","11","","","","","","","","","","","","","","","","",""
"null","186903","SARL_v6","SARL_v6g4q5asky","5dd72efa82569a6d38e06854","feedback","","","<div class=""veryhighPoints""> 5 </div>","null","","na","prac","","","12","5","-5","5","","","","","","","","","","","","","",""
"null","187060","SARL_v6","SARL_v6g4q5asky","5dd72efa82569a6d38e06854","fixation","","","img/fixation.png","null","","","prac","","","","","","","","","","","","","","","","","","","",""
"10521.699999988079","197584","SARL_v6","SARL_v6g4q5asky","5dd72efa82569a6d38e06854","","","","","","","","prac","","","","","","","","","","","","","","","","","","","",""
"568.9000000059605","198155","SARL_v6","SARL_v6g4q5asky","5dd72efa82569a6d38e06854","freq","","","img/orange_2bandit_a2.png","70","","70","test","1","","1","","","","square","circle","1","1","1","1","","","","","","","",""
"null","198394","SARL_v6","SARL_v6g4q5asky","5dd72efa82569a6d38e06854","freq_resp","","","img/orange_2bandit_a.png","70","img/orange_2bandit_a.png","70","test","","","","","","","","","","","1","","","","","","","","",""
"null","198553","SARL_v6","SARL_v6g4q5asky","5dd72efa82569a6d38e06854","fixation","","","img/fixation.png","null","","","test","","","","","","","","","","","","","","","","","","","",""
"421.8999999910593","198977","SARL_v6","SARL_v6g4q5asky","5dd72efa82569a6d38e06854","freq","","","img/orange_2bandit_a2.png","70","","70","test","1","","2","","","","square","circle","2","2","1","1","","","","","","","",""
"null","199360","SARL_v6","SARL_v6g4q5asky","5dd72efa82569a6d38e06854","freq_resp","","","img/orange_2bandit_a.png","70","img/orange_2bandit_a.png","70","test","","","","","","","","","","","1","","","","","","","","",""
"null","199519","SARL_v6","SARL_v6g4q5asky","5dd72efa82569a6d38e06854","fixation","","","img/fixation.png","null","","","test","","","","","","","","","","","","","","","","","","","",""
"413.8999999910593","199935","SARL_v6","SARL_v6g4q5asky","5dd72efa82569a6d38e06854","freq","","","img/orange_2bandit_a2.png","70","","70","test","1","","3","","","","square","circle","3","3","1","1","","","","","","","",""
"null","200327","SARL_v6","SARL_v6g4q5asky","5dd72efa82569a6d38e06854","freq_resp","","","img/orange_2bandit_a.png","70","img/orange_2bandit_a.png","70","test","","","","","","","","","","","1","","","","","","","","",""
"null","200488","SARL_v6","SARL_v6g4q5asky","5dd72efa82569a6d38e06854","fixation","","","img/fixation.png","null","","","test","","","","","","","","","","","","","","","","","","","",""
"325","200815","SARL_v6","SARL_v6g4q5asky","5dd72efa82569a6d38e06854","freq","","","img/orange_2bandit_a2.png","70","","70","test","1","","4","","","","square","circle","4","4","1","1","","","","","","","",""
"null","201297","SARL_v6","SARL_v6g4q5asky","5dd72efa82569a6d38e06854","freq_resp","","","img/orange_2bandit_a.png","70","img/orange_2bandit_a.png","70","test","","","","","","","","","","","1","","","","","","","","",""
"null","201461","SARL_v6","SARL_v6g4q5asky","5dd72efa82569a6d38e06854","fixation","","","img/fixation.png","null","","","test","","","","","","","","","","","","","","","","","","","",""
"218.8999999910593","201681","SARL_v6","SARL_v6g4q5asky","5dd72efa82569a6d38e06854","freq","","","img/orange_2bandit_a2.png","70","","70","test","1","","5","","","","square","circle","5","5","1","1","","","","","","","",""
"null","202276","SARL_v6","SARL_v6g4q5asky","5dd72efa82569a6d38e06854","freq_resp","","","img/orange_2bandit_a.png","70","img/orange_2bandit_a.png","70","test","","","","","","","","","","","1","","","","","","","","",""
"null","202431","SARL_v6","SARL_v6g4q5asky","5dd72efa82569a6d38e06854","fixation","","","img/fixation.png","null","","","test","","","","","","","","","","","","","","","","","","","",""
"216.8999999910593","202650","SARL_v6","SARL_v6g4q5asky","5dd72efa82569a6d38e06854","freq","","","img/orange_2bandit_a2.png","70","","70","test","1","","6","","","","square","circle","6","6","1","1","","","","","","","",""
"null","203240","SARL_v6","SARL_v6g4q5asky","5dd72efa82569a6d38e06854","freq_resp","","","img/orange_2bandit_a.png","70","img/orange_2bandit_a.png","70","test","","","","","","","","","","","1","","","","","","","","",""
"null","203400","SARL_v6","SARL_v6g4q5asky","5dd72efa82569a6d38e06854","fixation","","","img/fixation.png","null","","","test","","","","","","","","","","","","","","","","","","","",""
"166.70000000298023","203569","SARL_v6","SARL_v6g4q5asky","5dd72efa82569a6d38e06854","freq","","","img/orange_2bandit_a2.png","70","","70","test","1","","7","","","","square","circle","7","7","1","1","","","","","","","",""
"null","204213","SARL_v6","SARL_v6g4q5asky","5dd72efa82569a6d38e06854","freq_resp","","","img/orange_2bandit_a.png","70","img/orange_2bandit_a.png","70","test","","","","","","","","","","","1","","","","","","","","",""
"null","204372","SARL_v6","SARL_v6g4q5asky","5dd72efa82569a6d38e06854","fixation","","","img/fixation.png","null","","","test","","","","","","","","","","","","","","","","","","","",""
"159.20000000298023","204533","SARL_v6","SARL_v6g4q5asky","5dd72efa82569a6d38e06854","infreq","","","img/blue_2bandit_a2.png","70","","68","test","0","","8","","","","square","circle","8","8","1","0.875","","","","","","","",""
"null","205181","SARL_v6","SARL_v6g4q5asky","5dd72efa82569a6d38e06854","infreq_resp","","","img/blue_2bandit_a.png","70","img/blue_2bandit_a.png","68","test","","","","","","","","","","","1","","","","","","","","",""
"null","205337","SARL_v6","SARL_v6g4q5asky","5dd72efa82569a6d38e06854","fixation","","","img/fixation.png","null","","","test","","","","","","","","","","","","","","","","","","","",""
"551.1000000089407","205890","SARL_v6","SARL_v6g4q5asky","5dd72efa82569a6d38e06854","freq","","","img/orange_2bandit_a2.png","70","","70","test","1","","9","","","","square","circle","9","9","1","0.8888888888888888","","","","","","","",""
"null","206144","SARL_v6","SARL_v6g4q5asky","5dd72efa82569a6d38e06854","freq_resp","","","img/orange_2bandit_a.png","70","img/orange_2bandit_a.png","70","test","","","","","","","","","","","1","","","","","","","","",""
"null","206309","SARL_v6","SARL_v6g4q5asky","5dd72efa82569a6d38e06854","fixation","","","img/fixation.png","null","","","test","","","","","","","","","","","","","","","","","","","",""
"396.40000000596046","206707","SARL_v6","SARL_v6g4q5asky","5dd72efa82569a6d38e06854","freq","","","img/orange_2bandit_a2.png","70","","70","test","1","","10","","","","square","circle","10","10","1","0.9","","","","","","","",""
"null","207125","SARL_v6","SARL_v6g4q5asky","5dd72efa82569a6d38e06854","freq_resp","","","img/orange_2bandit_a.png","70","img/orange_2bandit_a.png","70","test","","","","","","","","","","","1","","","","","","","","",""
"null","207285","SARL_v6","SARL_v6g4q5asky","5dd72efa82569a6d38e06854","fixation","","","img/fixation.png","null","","","test","","","","","","","","","","","","","","","","","","","",""
"369.20000000298023","207656","SARL_v6","SARL_v6g4q5asky","5dd72efa82569a6d38e06854","freq","","","img/orange_2bandit_a2.png","70","","70","test","1","","11","","","","square","circle","11","11","1","0.9090909090909091","","","","","","","",""
"null","208101","SARL_v6","SARL_v6g4q5asky","5dd72efa82569a6d38e06854","freq_resp","","","img/orange_2bandit_a.png","70","img/orange_2bandit_a.png","70","test","","","","","","","","","","","1","","","","","","","","",""
"null","208261","SARL_v6","SARL_v6g4q5asky","5dd72efa82569a6d38e06854","fixation","","","img/fixation.png","null","","","test","","","","","","","","","","","","","","","","","","","",""
"327.79999999701977","208590","SARL_v6","SARL_v6g4q5asky","5dd72efa82569a6d38e06854","freq","","","img/orange_2bandit_a2.png","70","","70","test","1","","12","","","","square","circle","12","12","1","0.9166666666666666","","","","","","","",""
"null","209077","SARL_v6","SARL_v6g4q5asky","5dd72efa82569a6d38e06854","freq_resp","","","img/orange_2bandit_a.png","70","img/orange_2bandit_a.png","70","test","","","","","","","","","","","1","","","","","","","","",""
"null","209237","SARL_v6","SARL_v6g4q5asky","5dd72efa82569a6d38e06854","fixation","","","img/fixation.png","null","","","test","","","","","","","","","","","","","","","","","","","",""
"331.40000000596046","209570","SARL_v6","SARL_v6g4q5asky","5dd72efa82569a6d38e06854","freq","","","img/orange_2bandit_a2.png","70","","70","test","1","","13","","","","square","circle","13","13","1","0.9230769230769231","","","","","","","",""
"null","210053","SARL_v6","SARL_v6g4q5asky","5dd72efa82569a6d38e06854","freq_resp","","","img/orange_2bandit_a.png","70","img/orange_2bandit_a.png","70","test","","","","","","","","","","","1","","","","","","","","",""
"null","210209","SARL_v6","SARL_v6g4q5asky","5dd72efa82569a6d38e06854","fixation","","","img/fixation.png","null","","","test","","","","","","","","","","","","","","","","","","","",""
"345.6000000089407","210557","SARL_v6","SARL_v6g4q5asky","5dd72efa82569a6d38e06854","freq","","","img/orange_2bandit_a2.png","70","","70","test","1","","14","","","","square","circle","14","14","1","0.9285714285714286","","","","","","","",""
"null","211018","SARL_v6","SARL_v6g4q5asky","5dd72efa82569a6d38e06854","freq_resp","","","img/orange_2bandit_a.png","70","img/orange_2bandit_a.png","70","test","","","","","","","","","","","1","","","","","","","","",""
"null","211180","SARL_v6","SARL_v6g4q5asky","5dd72efa82569a6d38e06854","fixation","","","img/fixation.png","null","","","test","","","","","","","","","","","","","","","","","","","",""
"470","211652","SARL_v6","SARL_v6g4q5asky","5dd72efa82569a6d38e06854","infreq","","","img/blue_2bandit_a2.png","68","","68","test","1","","15","","","","square","circle","15","15","1","0.9333333333333333","","","","","","","",""
"null","211994","SARL_v6","SARL_v6g4q5asky","5dd72efa82569a6d38e06854","infreq_resp","","","img/blue_2bandit_a.png","68","img/blue_2bandit_a.png","68","test","","","","","","","","","","","1","","","","","","","","",""
"null","212157","SARL_v6","SARL_v6g4q5asky","5dd72efa82569a6d38e06854","fixation","","","img/fixation.png","null","","","test","","","","","","","","","","","","","","","","","","","",""
"552.2000000029802","212711","SARL_v6","SARL_v6g4q5asky","5dd72efa82569a6d38e06854","freq","","","img/orange_2bandit_a2.png","70","","70","test","1","","16","","","","square","circle","16","16","1","0.9375","","","","","","","",""
"null","212968","SARL_v6","SARL_v6g4q5asky","5dd72efa82569a6d38e06854","freq_resp","","","img/orange_2bandit_a.png","70","img/orange_2bandit_a.png","70","test","","","","","","","","","","","1","","","","","","","","",""
"null","213133","SARL_v6","SARL_v6g4q5asky","5dd72efa82569a6d38e06854","fixation","","","img/fixation.png","null","","","test","","","","","","","","","","","","","","","","","","","",""
"364.29999999701977","213499","SARL_v6","SARL_v6g4q5asky","5dd72efa82569a6d38e06854","freq","","","img/orange_2bandit_a2.png","70","","70","test","1","","17","","","","square","circle","17","17","1","0.9411764705882353","","","","","","","",""
"null","213945","SARL_v6","SARL_v6g4q5asky","5dd72efa82569a6d38e06854","freq_resp","","","img/orange_2bandit_a.png","70","img/orange_2bandit_a.png","70","test","","","","","","","","","","","1","","","","","","","","",""
"null","214108","SARL_v6","SARL_v6g4q5asky","5dd72efa82569a6d38e06854","fixation","","","img/fixation.png","null","","","test","","","","","","","","","","","","","","","","","","","",""
"399.5","214510","SARL_v6","SARL_v6g4q5asky","5dd72efa82569a6d38e06854","freq","","","img/orange_2bandit_a2.png","70","","70","test","1","","18","","","","square","circle","18","18","1","0.9444444444444444","","","","","","","",""
"null","214922","SARL_v6","SARL_v6g4q5asky","5dd72efa82569a6d38e06854","freq_resp","","","img/orange_2bandit_a.png","70","img/orange_2bandit_a.png","70","test","","","","","","","","","","","1","","","","","","","","",""
"null","215082","SARL_v6","SARL_v6g4q5asky","5dd72efa82569a6d38e06854","fixation","","","img/fixation.png","null","","","test","","","","","","","","","","","","","","","","","","","",""
"342.09999999403954","215426","SARL_v6","SARL_v6g4q5asky","5dd72efa82569a6d38e06854","freq","","","img/orange_2bandit_a2.png","70","","70","test","1","","19","","","","square","circle","19","19","1","0.9473684210526315","","","","","","","",""
"null","215892","SARL_v6","SARL_v6g4q5asky","5dd72efa82569a6d38e06854","freq_resp","","","img/orange_2bandit_a.png","70","img/orange_2bandit_a.png","70","test","","","","","","","","","","","1","","","","","","","","",""
"null","216052","SARL_v6","SARL_v6g4q5asky","5dd72efa82569a6d38e06854","fixation","","","img/fixation.png","null","","","test","","","","","","","","","","","","","","","","","","","",""
"233.29999999701977","216287","SARL_v6","SARL_v6g4q5asky","5dd72efa82569a6d38e06854","freq","","","img/orange_2bandit_a2.png","70","","70","test","1","","20","","","","square","circle","20","20","1","0.95","","","","","","","",""
"null","216865","SARL_v6","SARL_v6g4q5asky","5dd72efa82569a6d38e06854","freq_resp","","","img/orange_2bandit_a.png","70","img/orange_2bandit_a.png","70","test","","","","","","","","","","","1","","","","","","","","",""
"null","217029","SARL_v6","SARL_v6g4q5asky","5dd72efa82569a6d38e06854","fixation","","","img/fixation.png","null","","","test","","","","","","","","","","","","","","","","","","","",""
"167.20000000298023","217198","SARL_v6","SARL_v6g4q5asky","5dd72efa82569a6d38e06854","freq","","","img/orange_2bandit_a2.png","70","","70","test","1","","21","","","","square","circle","21","21","1","0.9523809523809523","","","","","","","",""
"null","217845","SARL_v6","SARL_v6g4q5asky","5dd72efa82569a6d38e06854","freq_resp","","","img/orange_2bandit_a.png","70","img/orange_2bandit_a.png","70","test","","","","","","","","","","","1","","","","","","","","",""
"null","218005","SARL_v6","SARL_v6g4q5asky","5dd72efa82569a6d38e06854","fixation","","","img/fixation.png","null","","","test","","","","","","","","","","","","","","","","","","","",""
"156.79999999701977","218164","SARL_v6","SARL_v6g4q5asky","5dd72efa82569a6d38e06854","freq","","","img/orange_2bandit_a2.png","70","","70","test","1","","22","","","","square","circle","22","22","1","0.9545454545454546","","","","","","","",""
"null","218818","SARL_v6","SARL_v6g4q5asky","5dd72efa82569a6d38e06854","freq_resp","","","img/orange_2bandit_a.png","70","img/orange_2bandit_a.png","70","test","","","","","","","","","","","1","","","","","","","","",""
"null","218981","SARL_v6","SARL_v6g4q5asky","5dd72efa82569a6d38e06854","fixation","","","img/fixation.png","null","","","test","","","","","","","","","","","","","","","","","","","",""
"607.3999999910593","219591","SARL_v6","SARL_v6g4q5asky","5dd72efa82569a6d38e06854","rl","","","img/black_2bandit_a2.png","75","","0","test","","","23","","","-3","square","circle","","0","1","","75","-3","-3","-3","-3","circle","1","0"
"null","220345","SARL_v6","SARL_v6g4q5asky","5dd72efa82569a6d38e06854","feedback","","","<div class=""verylowPoints""> -3 </div>","null","","na","test","","","NaN","","","","","","","","1","","75","","","","","","1",""
"583.5999999940395","220931","SARL_v6","SARL_v6g4q5asky","5dd72efa82569a6d38e06854","freq","","","img/orange_2bandit_a2.png","70","","70","test","1","","24","","","","square","circle","23","1","2","0.9565217391304348","","","","","","","",""
"null","221153","SARL_v6","SARL_v6g4q5asky","5dd72efa82569a6d38e06854","freq_resp","","","img/orange_2bandit_a.png","70","img/orange_2bandit_a.png","70","test","","","","","","","","","","","2","","","","","","","","",""
"null","221317","SARL_v6","SARL_v6g4q5asky","5dd72efa82569a6d38e06854","fixation","","","img/fixation.png","null","","","test","","","","","","","","","","","","","","","","","","","",""
"456.70000000298023","221775","SARL_v6","SARL_v6g4q5asky","5dd72efa82569a6d38e06854","freq","","","img/orange_2bandit_a2.png","70","","70","test","1","","25","","","","square","circle","24","2","2","0.9583333333333334","","","","","","","",""
"null","222130","SARL_v6","SARL_v6g4q5asky","5dd72efa82569a6d38e06854","freq_resp","","","img/orange_2bandit_a.png","70","img/orange_2bandit_a.png","70","test","","","","","","","","","","","2","","","","","","","","",""
"null","222282","SARL_v6","SARL_v6g4q5asky","5dd72efa82569a6d38e06854","fixation","","","img/fixation.png","null","","","test","","","","","","","","","","","","","","","","","","","",""
"389.70000000298023","222674","SARL_v6","SARL_v6g4q5asky","5dd72efa82569a6d38e06854","freq","","","img/orange_2bandit_a2.png","70","","70","test","1","","26","","","","square","circle","25","3","2","0.96","","","","","","","",""
"null","223091","SARL_v6","SARL_v6g4q5asky","5dd72efa82569a6d38e06854","freq_resp","","","img/orange_2bandit_a.png","70","img/orange_2bandit_a.png","70","test","","","","","","","","","","","2","","","","","","","","",""
"null","223251","SARL_v6","SARL_v6g4q5asky","5dd72efa82569a6d38e06854","fixation","","","img/fixation.png","null","","","test","","","","","","","","","","","","","","","","","","","",""
"270.5","223524","SARL_v6","SARL_v6g4q5asky","5dd72efa82569a6d38e06854","freq","","","img/orange_2bandit_a2.png","70","","70","test","1","","27","","","","square","circle","26","4","2","0.9615384615384616","","","","","","","",""
"null","224060","SARL_v6","SARL_v6g4q5asky","5dd72efa82569a6d38e06854","freq_resp","","","img/orange_2bandit_a.png","70","img/orange_2bandit_a.png","70","test","","","","","","","","","","","2","","","","","","","","",""
"null","224218","SARL_v6","SARL_v6g4q5asky","5dd72efa82569a6d38e06854","fixation","","","img/fixation.png","null","","","test","","","","","","","","","","","","","","","","","","","",""
"183.40000000596046","224404","SARL_v6","SARL_v6g4q5asky","5dd72efa82569a6d38e06854","freq","","","img/orange_2bandit_a2.png","70","","70","test","1","","28","","","","square","circle","27","5","2","0.9629629629629629","","","","","","","",""
"null","225029","SARL_v6","SARL_v6g4q5asky","5dd72efa82569a6d38e06854","freq_resp","","","img/orange_2bandit_a.png","70","img/orange_2bandit_a.png","70","test","","","","","","","","","","","2","","","","","","","","",""
"null","225185","SARL_v6","SARL_v6g4q5asky","5dd72efa82569a6d38e06854","fixation","","","img/fixation.png","null","","","test","","","","","","","","","","","","","","","","","","","",""
"382.09999999403954","225569","SARL_v6","SARL_v6g4q5asky","5dd72efa82569a6d38e06854","freq","","","img/orange_2bandit_a2.png","70","","70","test","1","","29","","","","square","circle","28","6","2","0.9642857142857143","","","","","","","",""
"null","225995","SARL_v6","SARL_v6g4q5asky","5dd72efa82569a6d38e06854","freq_resp","","","img/orange_2bandit_a.png","70","img/orange_2bandit_a.png","70","test","","","","","","","","","","","2","","","","","","","","",""
"null","226157","SARL_v6","SARL_v6g4q5asky","5dd72efa82569a6d38e06854","fixation","","","img/fixation.png","null","","","test","","","","","","","","","","","","","","","","","","","",""
"455.5","226615","SARL_v6","SARL_v6g4q5asky","5dd72efa82569a6d38e06854","freq","","","img/orange_2bandit_a2.png","70","","70","test","1","","30","","","","square","circle","29","7","2","0.9655172413793104","","","","","","","",""
"null","226968","SARL_v6","SARL_v6g4q5asky","5dd72efa82569a6d38e06854","freq_resp","","","img/orange_2bandit_a.png","70","img/orange_2bandit_a.png","70","test","","","","","","","","","","","2","","","","","","","","",""
"null","227125","SARL_v6","SARL_v6g4q5asky","5dd72efa82569a6d38e06854","fixation","","","img/fixation.png","null","","","test","","","","","","","","","","","","","","","","","","","",""
"400.1000000089407","227528","SARL_v6","SARL_v6g4q5asky","5dd72efa82569a6d38e06854","freq","","","img/orange_2bandit_a2.png","70","","70","test","1","","31","","","","square","circle","30","8","2","0.9666666666666667","","","","","","","",""
"null","227941","SARL_v6","SARL_v6g4q5asky","5dd72efa82569a6d38e06854","freq_resp","","","img/orange_2bandit_a.png","70","img/orange_2bandit_a.png","70","test","","","","","","","","","","","2","","","","","","","","",""
"null","228096","SARL_v6","SARL_v6g4q5asky","5dd72efa82569a6d38e06854","fixation","","","img/fixation.png","null","","","test","","","","","","","","","","","","","","","","","","","",""
"357.5","228456","SARL_v6","SARL_v6g4q5asky","5dd72efa82569a6d38e06854","freq","","","img/orange_2bandit_a2.png","70","","70","test","1","","32","","","","square","circle","31","9","2","0.967741935483871","","","","","","","",""
"null","228904","SARL_v6","SARL_v6g4q5asky","5dd72efa82569a6d38e06854","freq_resp","","","img/orange_2bandit_a.png","70","img/orange_2bandit_a.png","70","test","","","","","","","","","","","2","","","","","","","","",""
"null","229065","SARL_v6","SARL_v6g4q5asky","5dd72efa82569a6d38e06854","fixation","","","img/fixation.png","null","","","test","","","","","","","","","","","","","","","","","","","",""
"261.3999999910593","229329","SARL_v6","SARL_v6g4q5asky","5dd72efa82569a6d38e06854","freq","","","img/orange_2bandit_a2.png","70","","70","test","1","","33","","","","square","circle","32","10","2","0.96875","","","","","","","",""
"null","229873","SARL_v6","SARL_v6g4q5asky","5dd72efa82569a6d38e06854","freq_resp","","","img/orange_2bandit_a.png","70","img/orange_2bandit_a.png","70","test","","","","","","","","","","","2","","","","","","","","",""
"null","230034","SARL_v6","SARL_v6g4q5asky","5dd72efa82569a6d38e06854","fixation","","","img/fixation.png","null","","","test","","","","","","","","","","","","","","","","","","","",""
"245.70000000298023","230282","SARL_v6","SARL_v6g4q5asky","5dd72efa82569a6d38e06854","freq","","","img/orange_2bandit_a2.png","70","","70","test","1","","34","","","","square","circle","33","11","2","0.9696969696969697","","","","","","","",""
"null","230841","SARL_v6","SARL_v6g4q5asky","5dd72efa82569a6d38e06854","freq_resp","","","img/orange_2bandit_a.png","70","img/orange_2bandit_a.png","70","test","","","","","","","","","","","2","","","","","","","","",""
"null","231002","SARL_v6","SARL_v6g4q5asky","5dd72efa82569a6d38e06854","fixation","","","img/fixation.png","null","","","test","","","","","","","","","","","","","","","","","","","",""
"257.5","231262","SARL_v6","SARL_v6g4q5asky","5dd72efa82569a6d38e06854","infreq","","","img/blue_2bandit_a2.png","70","","68","test","0","","35","","","","square","circle","34","12","2","0.9411764705882353","","","","","","","",""
"null","231808","SARL_v6","SARL_v6g4q5asky","5dd72efa82569a6d38e06854","infreq_resp","","","img/blue_2bandit_a.png","70","img/blue_2bandit_a.png","68","test","","","","","","","","","","","2","","","","","","","","",""
"null","231968","SARL_v6","SARL_v6g4q5asky","5dd72efa82569a6d38e06854","fixation","","","img/fixation.png","null","","","test","","","","","","","","","","","","","","","","","","","",""
"602.0999999940395","232572","SARL_v6","SARL_v6g4q5asky","5dd72efa82569a6d38e06854","freq","","","img/orange_2bandit_a2.png","70","","70","test","1","","36","","","","square","circle","35","13","2","0.9428571428571428","","","","","","","",""
"null","232780","SARL_v6","SARL_v6g4q5asky","5dd72efa82569a6d38e06854","freq_resp","","","img/orange_2bandit_a.png","70","img/orange_2bandit_a.png","70","test","","","","","","","","","","","2","","","","","","","","",""
"null","232936","SARL_v6","SARL_v6g4q5asky","5dd72efa82569a6d38e06854","fixation","","","img/fixation.png","null","","","test","","","","","","","","","","","","","","","","","","","",""
"507.5","233445","SARL_v6","SARL_v6g4q5asky","5dd72efa82569a6d38e06854","freq","","","img/orange_2bandit_a2.png","70","","70","test","1","","37","","","","square","circle","36","14","2","0.9444444444444444","","","","","","","",""
"null","233745","SARL_v6","SARL_v6g4q5asky","5dd72efa82569a6d38e06854","freq_resp","","","img/orange_2bandit_a.png","70","img/orange_2bandit_a.png","70","test","","","","","","","","","","","2","","","","","","","","",""
"null","233905","SARL_v6","SARL_v6g4q5asky","5dd72efa82569a6d38e06854","fixation","","","img/fixation.png","null","","","test","","","","","","","","","","","","","","","","","","","",""
"490.5","234398","SARL_v6","SARL_v6g4q5asky","5dd72efa82569a6d38e06854","freq","","","img/orange_2bandit_a2.png","70","","70","test","1","","38","","","","square","circle","37","15","2","0.9459459459459459","","","","","","","",""
"null","234717","SARL_v6","SARL_v6g4q5asky","5dd72efa82569a6d38e06854","freq_resp","","","img/orange_2bandit_a.png","70","img/orange_2bandit_a.png","70","test","","","","","","","","","","","2","","","","","","","","",""
"null","234873","SARL_v6","SARL_v6g4q5asky","5dd72efa82569a6d38e06854","fixation","","","img/fixation.png","null","","","test","","","","","","","","","","","","","","","","","","","",""
"374.8999999910593","235250","SARL_v6","SARL_v6g4q5asky","5dd72efa82569a6d38e06854","freq","","","img/orange_2bandit_a2.png","70","","70","test","1","","39","","","","square","circle","38","16","2","0.9473684210526315","","","","","","","",""
"null","235681","SARL_v6","SARL_v6g4q5asky","5dd72efa82569a6d38e06854","freq_resp","","","img/orange_2bandit_a.png","70","img/orange_2bandit_a.png","70","test","","","","","","","","","","","2","","","","","","","","",""
"null","235845","SARL_v6","SARL_v6g4q5asky","5dd72efa82569a6d38e06854","fixation","","","img/fixation.png","null","","","test","","","","","","","","","","","","","","","","","","","",""
"517.9000000059605","236365","SARL_v6","SARL_v6g4q5asky","5dd72efa82569a6d38e06854","infreq","","","img/blue_2bandit_a2.png","68","","68","test","1","","40","","","","square","circle","39","17","2","0.9487179487179487","","","","","","","",""
"null","236656","SARL_v6","SARL_v6g4q5asky","5dd72efa82569a6d38e06854","infreq_resp","","","img/blue_2bandit_a.png","68","img/blue_2bandit_a.png","68","test","","","","","","","","","","","2","","","","","","","","",""
"null","236821","SARL_v6","SARL_v6g4q5asky","5dd72efa82569a6d38e06854","fixation","","","img/fixation.png","null","","","test","","","","","","","","","","","","","","","","","","","",""
"331.09999999403954","237154","SARL_v6","SARL_v6g4q5asky","5dd72efa82569a6d38e06854","freq","","","img/orange_2bandit_a2.png","70","","70","test","1","","41","","","","square","circle","40","18","2","0.95","","","","","","","",""
"null","237637","SARL_v6","SARL_v6g4q5asky","5dd72efa82569a6d38e06854","freq_resp","","","img/orange_2bandit_a.png","70","img/orange_2bandit_a.png","70","test","","","","","","","","","","","2","","","","","","","","",""
"null","237797","SARL_v6","SARL_v6g4q5asky","5dd72efa82569a6d38e06854","fixation","","","img/fixation.png","null","","","test","","","","","","","","","","","","","","","","","","","",""
"256.70000000298023","238056","SARL_v6","SARL_v6g4q5asky","5dd72efa82569a6d38e06854","freq","","","img/orange_2bandit_a2.png","70","","70","test","1","","42","","","","square","circle","41","19","2","0.9512195121951219","","","","","","","",""
"null","238609","SARL_v6","SARL_v6g4q5asky","5dd72efa82569a6d38e06854","freq_resp","","","img/orange_2bandit_a.png","70","img/orange_2bandit_a.png","70","test","","","","","","","","","","","2","","","","","","","","",""
"null","238768","SARL_v6","SARL_v6g4q5asky","5dd72efa82569a6d38e06854","fixation","","","img/fixation.png","null","","","test","","","","","","","","","","","","","","","","","","","",""
"147","238918","SARL_v6","SARL_v6g4q5asky","5dd72efa82569a6d38e06854","freq","","","img/orange_2bandit_a2.png","70","","70","test","1","","43","","","","square","circle","42","20","2","0.9523809523809523","","","","","","","",""
"null","239577","SARL_v6","SARL_v6g4q5asky","5dd72efa82569a6d38e06854","freq_resp","","","img/orange_2bandit_a.png","70","img/orange_2bandit_a.png","70","test","","","","","","","","","","","2","","","","","","","","",""
"null","239737","SARL_v6","SARL_v6g4q5asky","5dd72efa82569a6d38e06854","fixation","","","img/fixation.png","null","","","test","","","","","","","","","","","","","","","","","","","",""
"576.1999999880791","240315","SARL_v6","SARL_v6g4q5asky","5dd72efa82569a6d38e06854","rl","","","img/black_2bandit_a2.png","75","","0","test","","","44","","","-8","square","circle","","0","2","","75","-8","-5","-5","-8","circle","2","0"
"null","241076","SARL_v6","SARL_v6g4q5asky","5dd72efa82569a6d38e06854","feedback","","","<div class=""verylowPoints""> -8 </div>","null","","na","test","","","NaN","","","","","","","","2","","75","","","","","","2",""
"503.90000000596046","241582","SARL_v6","SARL_v6g4q5asky","5dd72efa82569a6d38e06854","freq","","","img/orange_2bandit_a2.png","70","","70","test","1","","45","","","","square","circle","43","1","3","0.9534883720930233","","","","","","","",""
"null","241892","SARL_v6","SARL_v6g4q5asky","5dd72efa82569a6d38e06854","freq_resp","","","img/orange_2bandit_a.png","70","img/orange_2bandit_a.png","70","test","","","","","","","","","","","3","","","","","","","","",""
"null","242052","SARL_v6","SARL_v6g4q5asky","5dd72efa82569a6d38e06854","fixation","","","img/fixation.png","null","","","test","","","","","","","","","","","","","","","","","","","",""
"501.3999999910593","242556","SARL_v6","SARL_v6g4q5asky","5dd72efa82569a6d38e06854","freq","","","img/orange_2bandit_a2.png","70","","70","test","1","","46","","","","square","circle","44","2","3","0.9545454545454546","","","","","","","",""
"null","242867","SARL_v6","SARL_v6g4q5asky","5dd72efa82569a6d38e06854","freq_resp","","","img/orange_2bandit_a.png","70","img/orange_2bandit_a.png","70","test","","","","","","","","","","","3","","","","","","","","",""
"null","243029","SARL_v6","SARL_v6g4q5asky","5dd72efa82569a6d38e06854","fixation","","","img/fixation.png","null","","","test","","","","","","","","","","","","","","","","","","","",""
"370.40000000596046","243401","SARL_v6","SARL_v6g4q5asky","5dd72efa82569a6d38e06854","freq","","","img/orange_2bandit_a2.png","70","","70","test","1","","47","","","","square","circle","45","3","3","0.9555555555555556","","","","","","","",""
"null","243845","SARL_v6","SARL_v6g4q5asky","5dd72efa82569a6d38e06854","freq_resp","","","img/orange_2bandit_a.png","70","img/orange_2bandit_a.png","70","test","","","","","","","","","","","3","","","","","","","","",""
"null","244001","SARL_v6","SARL_v6g4q5asky","5dd72efa82569a6d38e06854","fixation","","","img/fixation.png","null","","","test","","","","","","","","","","","","","","","","","","","",""
"362.90000000596046","244366","SARL_v6","SARL_v6g4q5asky","5dd72efa82569a6d38e06854","freq","","","img/orange_2bandit_a2.png","70","","70","test","1","","48","","","","square","circle","46","4","3","0.9565217391304348","","","","","","","",""
"null","244811","SARL_v6","SARL_v6g4q5asky","5dd72efa82569a6d38e06854","freq_resp","","","img/orange_2bandit_a.png","70","img/orange_2bandit_a.png","70","test","","","","","","","","","","","3","","","","","","","","",""
"null","244968","SARL_v6","SARL_v6g4q5asky","5dd72efa82569a6d38e06854","fixation","","","img/fixation.png","null","","","test","","","","","","","","","","","","","","","","","","","",""
"373.79999999701977","245344","SARL_v6","SARL_v6g4q5asky","5dd72efa82569a6d38e06854","freq","","","img/orange_2bandit_a2.png","70","","70","test","1","","49","","","","square","circle","47","5","3","0.9574468085106383","","","","","","","",""
"null","245781","SARL_v6","SARL_v6g4q5asky","5dd72efa82569a6d38e06854","freq_resp","","","img/orange_2bandit_a.png","70","img/orange_2bandit_a.png","70","test","","","","","","","","","","","3","","","","","","","","",""
"null","245936","SARL_v6","SARL_v6g4q5asky","5dd72efa82569a6d38e06854","fixation","","","img/fixation.png","null","","","test","","","","","","","","","","","","","","","","","","","",""
"405.79999999701977","246344","SARL_v6","SARL_v6g4q5asky","5dd72efa82569a6d38e06854","freq","","","img/orange_2bandit_a2.png","70","","70","test","1","","50","","","","square","circle","48","6","3","0.9583333333333334","","","","","","","",""
"null","246745","SARL_v6","SARL_v6g4q5asky","5dd72efa82569a6d38e06854","freq_resp","","","img/orange_2bandit_a.png","70","img/orange_2bandit_a.png","70","test","","","","","","","","","","","3","","","","","","","","",""
"null","246905","SARL_v6","SARL_v6g4q5asky","5dd72efa82569a6d38e06854","fixation","","","img/fixation.png","null","","","test","","","","","","","","","","","","","","","","","","","",""
"366.5","247273","SARL_v6","SARL_v6g4q5asky","5dd72efa82569a6d38e06854","freq","","","img/orange_2bandit_a2.png","70","","70","test","1","","51","","","","square","circle","49","7","3","0.9591836734693877","","","","","","","",""
"null","247717","SARL_v6","SARL_v6g4q5asky","5dd72efa82569a6d38e06854","freq_resp","","","img/orange_2bandit_a.png","70","img/orange_2bandit_a.png","70","test","","","","","","","","","","","3","","","","","","","","",""
"null","247873","SARL_v6","SARL_v6g4q5asky","5dd72efa82569a6d38e06854","fixation","","","img/fixation.png","null","","","test","","","","","","","","","","","","","","","","","","","",""
"346.6000000089407","248221","SARL_v6","SARL_v6g4q5asky","5dd72efa82569a6d38e06854","freq","","","img/orange_2bandit_a2.png","70","","70","test","1","","52","","","","square","circle","50","8","3","0.96","","","","","","","",""
"null","248681","SARL_v6","SARL_v6g4q5asky","5dd72efa82569a6d38e06854","freq_resp","","","img/orange_2bandit_a.png","70","img/orange_2bandit_a.png","70","test","","","","","","","","","","","3","","","","","","","","",""
"null","248845","SARL_v6","SARL_v6g4q5asky","5dd72efa82569a6d38e06854","fixation","","","img/fixation.png","null","","","test","","","","","","","","","","","","","","","","","","","",""
"452.1000000089407","249299","SARL_v6","SARL_v6g4q5asky","5dd72efa82569a6d38e06854","infreq","","","img/blue_2bandit_a2.png","68","","68","test","1","","53","","","","square","circle","51","9","3","0.9607843137254902","","","","","","","",""
"null","249657","SARL_v6","SARL_v6g4q5asky","5dd72efa82569a6d38e06854","infreq_resp","","","img/blue_2bandit_a.png","68","img/blue_2bandit_a.png","68","test","","","","","","","","","","","3","","","","","","","","",""
"null","249819","SARL_v6","SARL_v6g4q5asky","5dd72efa82569a6d38e06854","fixation","","","img/fixation.png","null","","","test","","","","","","","","","","","","","","","","","","","",""
"377.1000000089407","250198","SARL_v6","SARL_v6g4q5asky","5dd72efa82569a6d38e06854","freq","","","img/orange_2bandit_a2.png","70","","70","test","1","","54","","","","square","circle","52","10","3","0.9615384615384616","","","","","","","",""
"null","250628","SARL_v6","SARL_v6g4q5asky","5dd72efa82569a6d38e06854","freq_resp","","","img/orange_2bandit_a.png","70","img/orange_2bandit_a.png","70","test","","","","","","","","","","","3","","","","","","","","",""
"null","250788","SARL_v6","SARL_v6g4q5asky","5dd72efa82569a6d38e06854","fixation","","","img/fixation.png","null","","","test","","","","","","","","","","","","","","","","","","","",""
"293.79999999701977","251084","SARL_v6","SARL_v6g4q5asky","5dd72efa82569a6d38e06854","freq","","","img/orange_2bandit_a2.png","70","","70","test","1","","55","","","","square","circle","53","11","3","0.9622641509433962","","","","","","","",""
"null","251593","SARL_v6","SARL_v6g4q5asky","5dd72efa82569a6d38e06854","freq_resp","","","img/orange_2bandit_a.png","70","img/orange_2bandit_a.png","70","test","","","","","","","","","","","3","","","","","","","","",""
"null","251757","SARL_v6","SARL_v6g4q5asky","5dd72efa82569a6d38e06854","fixation","","","img/fixation.png","null","","","test","","","","","","","","","","","","","","","","","","","",""
"336","252096","SARL_v6","SARL_v6g4q5asky","5dd72efa82569a6d38e06854","infreq","","","img/blue_2bandit_a2.png","70","","68","test","0","","56","","","","square","circle","54","12","3","0.9444444444444444","","","","","","","",""
"null","252568","SARL_v6","SARL_v6g4q5asky","5dd72efa82569a6d38e06854","infreq_resp","","","img/blue_2bandit_a.png","70","img/blue_2bandit_a.png","68","test","","","","","","","","","","","3","","","","","","","","",""
"null","252733","SARL_v6","SARL_v6g4q5asky","5dd72efa82569a6d38e06854","fixation","","","img/fixation.png","null","","","test","","","","","","","","","","","","","","","","","","","",""
"569.9000000059605","253305","SARL_v6","SARL_v6g4q5asky","5dd72efa82569a6d38e06854","freq","","","img/orange_2bandit_a2.png","70","","70","test","1","","57","","","","square","circle","55","13","3","0.9454545454545454","","","","","","","",""
"null","253542","SARL_v6","SARL_v6g4q5asky","5dd72efa82569a6d38e06854","freq_resp","","","img/orange_2bandit_a.png","70","img/orange_2bandit_a.png","70","test","","","","","","","","","","","3","","","","","","","","",""
"null","253701","SARL_v6","SARL_v6g4q5asky","5dd72efa82569a6d38e06854","fixation","","","img/fixation.png","null","","","test","","","","","","","","","","","","","","","","","","","",""
"649","254352","SARL_v6","SARL_v6g4q5asky","5dd72efa82569a6d38e06854","freq","","","img/orange_2bandit_a2.png","70","","70","test","1","","58","","","","square","circle","56","14","3","0.9464285714285714","","","","","","","",""
"null","254512","SARL_v6","SARL_v6g4q5asky","5dd72efa82569a6d38e06854","freq_resp","","","img/orange_2bandit_a.png","70","img/orange_2bandit_a.png","70","test","","","","","","","","","","","3","","","","","","","","",""
"null","254677","SARL_v6","SARL_v6g4q5asky","5dd72efa82569a6d38e06854","fixation","","","img/fixation.png","null","","","test","","","","","","","","","","","","","","","","","","","",""
"415.90000000596046","255095","SARL_v6","SARL_v6g4q5asky","5dd72efa82569a6d38e06854","freq","","","img/orange_2bandit_a2.png","70","","70","test","1","","59","","","","square","circle","57","15","3","0.9473684210526315","","","","","","","",""
"null","255494","SARL_v6","SARL_v6g4q5asky","5dd72efa82569a6d38e06854","freq_resp","","","img/orange_2bandit_a.png","70","img/orange_2bandit_a.png","70","test","","","","","","","","","","","3","","","","","","","","",""
"null","255648","SARL_v6","SARL_v6g4q5asky","5dd72efa82569a6d38e06854","fixation","","","img/fixation.png","null","","","test","","","","","","","","","","","","","","","","","","","",""
"357.3999999910593","256008","SARL_v6","SARL_v6g4q5asky","5dd72efa82569a6d38e06854","freq","","","img/orange_2bandit_a2.png","70","","70","test","1","","60","","","","square","circle","58","16","3","0.9482758620689655","","","","","","","",""
"null","256457","SARL_v6","SARL_v6g4q5asky","5dd72efa82569a6d38e06854","freq_resp","","","img/orange_2bandit_a.png","70","img/orange_2bandit_a.png","70","test","","","","","","","","","","","3","","","","","","","","",""
"null","256622","SARL_v6","SARL_v6g4q5asky","5dd72efa82569a6d38e06854","fixation","","","img/fixation.png","null","","","test","","","","","","","","","","","","","","","","","","","",""
"251.40000000596046","256875","SARL_v6","SARL_v6g4q5asky","5dd72efa82569a6d38e06854","freq","","","img/orange_2bandit_a2.png","70","","70","test","1","","61","","","","square","circle","59","17","3","0.9491525423728814","","","","","","","",""
"null","257432","SARL_v6","SARL_v6g4q5asky","5dd72efa82569a6d38e06854","freq_resp","","","img/orange_2bandit_a.png","70","img/orange_2bandit_a.png","70","test","","","","","","","","","","","3","","","","","","","","",""
"null","257595","SARL_v6","SARL_v6g4q5asky","5dd72efa82569a6d38e06854","fixation","","","img/fixation.png","null","","","test","","","","","","","","","","","","","","","","","","","",""
"213.3999999910593","257811","SARL_v6","SARL_v6g4q5asky","5dd72efa82569a6d38e06854","freq","","","img/orange_2bandit_a2.png","70","","70","test","1","","62","","","","square","circle","60","18","3","0.95","","","","","","","",""
"null","258401","SARL_v6","SARL_v6g4q5asky","5dd72efa82569a6d38e06854","freq_resp","","","img/orange_2bandit_a.png","70","img/orange_2bandit_a.png","70","test","","","","","","","","","","","3","","","","","","","","",""
"null","258562","SARL_v6","SARL_v6g4q5asky","5dd72efa82569a6d38e06854","fixation","","","img/fixation.png","null","","","test","","","","","","","","","","","","","","","","","","","",""
"501.40000000596046","259065","SARL_v6","SARL_v6g4q5asky","5dd72efa82569a6d38e06854","freq","","","img/orange_2bandit_a2.png","70","","70","test","1","","63","","","","square","circle","61","19","3","0.9508196721311475","","","","","","","",""
"null","259369","SARL_v6","SARL_v6g4q5asky","5dd72efa82569a6d38e06854","freq_resp","","","img/orange_2bandit_a.png","70","img/orange_2bandit_a.png","70","test","","","","","","","","","","","3","","","","","","","","",""
"null","259529","SARL_v6","SARL_v6g4q5asky","5dd72efa82569a6d38e06854","fixation","","","img/fixation.png","null","","","test","","","","","","","","","","","","","","","","","","","",""
"375.3999999910593","259906","SARL_v6","SARL_v6g4q5asky","5dd72efa82569a6d38e06854","freq","","","img/orange_2bandit_a2.png","70","","70","test","1","","64","","","","square","circle","62","20","3","0.9516129032258065","","","","","","","",""
"null","260340","SARL_v6","SARL_v6g4q5asky","5dd72efa82569a6d38e06854","freq_resp","","","img/orange_2bandit_a.png","70","img/orange_2bandit_a.png","70","test","","","","","","","","","","","3","","","","","","","","",""
"null","260499","SARL_v6","SARL_v6g4q5asky","5dd72efa82569a6d38e06854","fixation","","","img/fixation.png","null","","","test","","","","","","","","","","","","","","","","","","","",""
"380.59999999403954","260882","SARL_v6","SARL_v6g4q5asky","5dd72efa82569a6d38e06854","freq","","","img/orange_2bandit_a2.png","70","","70","test","1","","65","","","","square","circle","63","21","3","0.9523809523809523","","","","","","","",""
"null","261306","SARL_v6","SARL_v6g4q5asky","5dd72efa82569a6d38e06854","freq_resp","","","img/orange_2bandit_a.png","70","img/orange_2bandit_a.png","70","test","","","","","","","","","","","3","","","","","","","","",""
"null","261469","SARL_v6","SARL_v6g4q5asky","5dd72efa82569a6d38e06854","fixation","","","img/fixation.png","null","","","test","","","","","","","","","","","","","","","","","","","",""
"349.8999999910593","261821","SARL_v6","SARL_v6g4q5asky","5dd72efa82569a6d38e06854","freq","","","img/orange_2bandit_a2.png","70","","70","test","1","","66","","","","square","circle","64","22","3","0.953125","","","","","","","",""
"null","262284","SARL_v6","SARL_v6g4q5asky","5dd72efa82569a6d38e06854","freq_resp","","","img/orange_2bandit_a.png","70","img/orange_2bandit_a.png","70","test","","","","","","","","","","","3","","","","","","","","",""
"null","262445","SARL_v6","SARL_v6g4q5asky","5dd72efa82569a6d38e06854","fixation","","","img/fixation.png","null","","","test","","","","","","","","","","","","","","","","","","","",""
"532.0999999940395","262979","SARL_v6","SARL_v6g4q5asky","5dd72efa82569a6d38e06854","freq","","","img/orange_2bandit_a2.png","70","","70","test","1","","67","","","","square","circle","65","23","3","0.9538461538461539","","","","","","","",""
"null","263253","SARL_v6","SARL_v6g4q5asky","5dd72efa82569a6d38e06854","freq_resp","","","img/orange_2bandit_a.png","70","img/orange_2bandit_a.png","70","test","","","","","","","","","","","3","","","","","","","","",""
"null","263413","SARL_v6","SARL_v6g4q5asky","5dd72efa82569a6d38e06854","fixation","","","img/fixation.png","null","","","test","","","","","","","","","","","","","","","","","","","",""
"583","263998","SARL_v6","SARL_v6g4q5asky","5dd72efa82569a6d38e06854","rl","","","img/black_2bandit_a2.png","74","","0","test","","","68","","","-4","square","circle","","0","3","","74","-8","-4","-4","-8","square","3","0"
"null","264758","SARL_v6","SARL_v6g4q5asky","5dd72efa82569a6d38e06854","feedback","","","<div class=""verylowPoints_sq""> -4 </div>","null","","na","test","","","NaN","","","","","","","","3","","74","","","","","","3",""
"415.79999999701977","265176","SARL_v6","SARL_v6g4q5asky","5dd72efa82569a6d38e06854","freq","","","img/orange_2bandit_a2.png","70","","70","test","1","","69","","","","square","circle","66","1","4","0.9545454545454546","","","","","","","",""
"null","265573","SARL_v6","SARL_v6g4q5asky","5dd72efa82569a6d38e06854","freq_resp","","","img/orange_2bandit_a.png","70","img/orange_2bandit_a.png","70","test","","","","","","","","","","","4","","","","","","","","",""
"null","265733","SARL_v6","SARL_v6g4q5asky","5dd72efa82569a6d38e06854","fixation","","","img/fixation.png","null","","","test","","","","","","","","","","","","","","","","","","","",""
"456","266190","SARL_v6","SARL_v6g4q5asky","5dd72efa82569a6d38e06854","freq","","","img/orange_2bandit_a2.png","70","","70","test","1","","70","","","","square","circle","67","2","4","0.9552238805970149","","","","","","","",""
"null","266545","SARL_v6","SARL_v6g4q5asky","5dd72efa82569a6d38e06854","freq_resp","","","img/orange_2bandit_a.png","70","img/orange_2bandit_a.png","70","test","","","","","","","","","","","4","","","","","","","","",""
"null","266702","SARL_v6","SARL_v6g4q5asky","5dd72efa82569a6d38e06854","fixation","","","img/fixation.png","null","","","test","","","","","","","","","","","","","","","","","","","",""
"375.79999999701977","267079","SARL_v6","SARL_v6g4q5asky","5dd72efa82569a6d38e06854","freq","","","img/orange_2bandit_a2.png","70","","70","test","1","","71","","","","square","circle","68","3","4","0.9558823529411765","","","","","","","",""
"null","267513","SARL_v6","SARL_v6g4q5asky","5dd72efa82569a6d38e06854","freq_resp","","","img/orange_2bandit_a.png","70","img/orange_2bandit_a.png","70","test","","","","","","","","","","","4","","","","","","","","",""
"null","267673","SARL_v6","SARL_v6g4q5asky","5dd72efa82569a6d38e06854","fixation","","","img/fixation.png","null","","","test","","","","","","","","","","","","","","","","","","","",""
"487.90000000596046","268163","SARL_v6","SARL_v6g4q5asky","5dd72efa82569a6d38e06854","infreq","","","img/blue_2bandit_a2.png","68","","68","test","1","","72","","","","square","circle","69","4","4","0.9565217391304348","","","","","","","",""
"null","268482","SARL_v6","SARL_v6g4q5asky","5dd72efa82569a6d38e06854","infreq_resp","","","img/blue_2bandit_a.png","68","img/blue_2bandit_a.png","68","test","","","","","","","","","","","4","","","","","","","","",""
"null","268646","SARL_v6","SARL_v6g4q5asky","5dd72efa82569a6d38e06854","fixation","","","img/fixation.png","null","","","test","","","","","","","","","","","","","","","","","","","",""
"341.5","268989","SARL_v6","SARL_v6g4q5asky","5dd72efa82569a6d38e06854","freq","","","img/orange_2bandit_a2.png","70","","70","test","1","","73","","","","square","circle","70","5","4","0.9571428571428572","","","","","","","",""
"null","269457","SARL_v6","SARL_v6g4q5asky","5dd72efa82569a6d38e06854","freq_resp","","","img/orange_2bandit_a.png","70","img/orange_2bandit_a.png","70","test","","","","","","","","","","","4","","","","","","","","",""
"null","269617","SARL_v6","SARL_v6g4q5asky","5dd72efa82569a6d38e06854","fixation","","","img/fixation.png","null","","","test","","","","","","","","","","","","","","","","","","","",""
"286.59999999403954","269906","SARL_v6","SARL_v6g4q5asky","5dd72efa82569a6d38e06854","freq","","","img/orange_2bandit_a2.png","70","","70","test","1","","74","","","","square","circle","71","6","4","0.9577464788732394","","","","","","","",""
"null","270429","SARL_v6","SARL_v6g4q5asky","5dd72efa82569a6d38e06854","freq_resp","","","img/orange_2bandit_a.png","70","img/orange_2bandit_a.png","70","test","","","","","","","","","","","4","","","","","","","","",""
"null","270590","SARL_v6","SARL_v6g4q5asky","5dd72efa82569a6d38e06854","fixation","","","img/fixation.png","null","","","test","","","","","","","","","","","","","","","","","","","",""
"241.70000000298023","270833","SARL_v6","SARL_v6g4q5asky","5dd72efa82569a6d38e06854","freq","","","img/orange_2bandit_a2.png","70","","70","test","1","","75","","","","square","circle","72","7","4","0.9583333333333334","","","","","","","",""
"null","271406","SARL_v6","SARL_v6g4q5asky","5dd72efa82569a6d38e06854","freq_resp","","","img/orange_2bandit_a.png","70","img/orange_2bandit_a.png","70","test","","","","","","","","","","","4","","","","","","","","",""
"null","271561","SARL_v6","SARL_v6g4q5asky","5dd72efa82569a6d38e06854","fixation","","","img/fixation.png","null","","","test","","","","","","","","","","","","","","","","","","","",""
"692.6999999880791","272256","SARL_v6","SARL_v6g4q5asky","5dd72efa82569a6d38e06854","freq","","","img/orange_2bandit_a2.png","70","","70","test","1","","76","","","","square","circle","73","8","4","0.958904109589041","","","","","","","",""
"null","272369","SARL_v6","SARL_v6g4q5asky","5dd72efa82569a6d38e06854","freq_resp","","","img/orange_2bandit_a.png","70","img/orange_2bandit_a.png","70","test","","","","","","","","","","","4","","","","","","","","",""
"null","272534","SARL_v6","SARL_v6g4q5asky","5dd72efa82569a6d38e06854","fixation","","","img/fixation.png","null","","","test","","","","","","","","","","","","","","","","","","","",""
"485.5","273022","SARL_v6","SARL_v6g4q5asky","5dd72efa82569a6d38e06854","freq","","","img/orange_2bandit_a2.png","70","","70","test","1","","77","","","","square","circle","74","9","4","0.9594594594594594","","","","","","","",""
"null","273346","SARL_v6","SARL_v6g4q5asky","5dd72efa82569a6d38e06854","freq_resp","","","img/orange_2bandit_a.png","70","img/orange_2bandit_a.png","70","test","","","","","","","","","","","4","","","","","","","","",""
"null","273510","SARL_v6","SARL_v6g4q5asky","5dd72efa82569a6d38e06854","fixation","","","img/fixation.png","null","","","test","","","","","","","","","","","","","","","","","","","",""
"401.59999999403954","273913","SARL_v6","SARL_v6g4q5asky","5dd72efa82569a6d38e06854","freq","","","img/orange_2bandit_a2.png","70","","70","test","1","","78","","","","square","circle","75","10","4","0.96","","","","","","","",""
"null","274321","SARL_v6","SARL_v6g4q5asky","5dd72efa82569a6d38e06854","freq_resp","","","img/orange_2bandit_a.png","70","img/orange_2bandit_a.png","70","test","","","","","","","","","","","4","","","","","","","","",""
"null","274481","SARL_v6","SARL_v6g4q5asky","5dd72efa82569a6d38e06854","fixation","","","img/fixation.png","null","","","test","","","","","","","","","","","","","","","","","","","",""
"445.8999999910593","274929","SARL_v6","SARL_v6g4q5asky","5dd72efa82569a6d38e06854","freq","","","img/orange_2bandit_a2.png","70","","70","test","1","","79","","","","square","circle","76","11","4","0.9605263157894737","","","","","","","",""
"null","275291","SARL_v6","SARL_v6g4q5asky","5dd72efa82569a6d38e06854","freq_resp","","","img/orange_2bandit_a.png","70","img/orange_2bandit_a.png","70","test","","","","","","","","","","","4","","","","","","","","",""
"null","275450","SARL_v6","SARL_v6g4q5asky","5dd72efa82569a6d38e06854","fixation","","","img/fixation.png","null","","","test","","","","","","","","","","","","","","","","","","","",""
"286.40000000596046","275738","SARL_v6","SARL_v6g4q5asky","5dd72efa82569a6d38e06854","freq","","","img/orange_2bandit_a2.png","70","","70","test","1","","80","","","","square","circle","77","12","4","0.961038961038961","","","","","","","",""
"null","276259","SARL_v6","SARL_v6g4q5asky","5dd72efa82569a6d38e06854","freq_resp","","","img/orange_2bandit_a.png","70","img/orange_2bandit_a.png","70","test","","","","","","","","","","","4","","","","","","","","",""
"null","276418","SARL_v6","SARL_v6g4q5asky","5dd72efa82569a6d38e06854","fixation","","","img/fixation.png","null","","","test","","","","","","","","","","","","","","","","","","","",""
"208.20000000298023","276629","SARL_v6","SARL_v6g4q5asky","5dd72efa82569a6d38e06854","freq","","","img/orange_2bandit_a2.png","70","","70","test","1","","81","","","","square","circle","78","13","4","0.9615384615384616","","","","","","","",""
"null","277226","SARL_v6","SARL_v6g4q5asky","5dd72efa82569a6d38e06854","freq_resp","","","img/orange_2bandit_a.png","70","img/orange_2bandit_a.png","70","test","","","","","","","","","","","4","","","","","","","","",""
"null","277385","SARL_v6","SARL_v6g4q5asky","5dd72efa82569a6d38e06854","fixation","","","img/fixation.png","null","","","test","","","","","","","","","","","","","","","","","","","",""
"229.90000000596046","277617","SARL_v6","SARL_v6g4q5asky","5dd72efa82569a6d38e06854","freq","","","img/orange_2bandit_a2.png","70","","70","test","1","","82","","","","square","circle","79","14","4","0.9620253164556962","","","","","","","",""
"null","278196","SARL_v6","SARL_v6g4q5asky","5dd72efa82569a6d38e06854","freq_resp","","","img/orange_2bandit_a.png","70","img/orange_2bandit_a.png","70","test","","","","","","","","","","","4","","","","","","","","",""
"null","278356","SARL_v6","SARL_v6g4q5asky","5dd72efa82569a6d38e06854","fixation","","","img/fixation.png","null","","","test","","","","","","","","","","","","","","","","","","","",""
"385.90000000596046","278744","SARL_v6","SARL_v6g4q5asky","5dd72efa82569a6d38e06854","freq","","","img/orange_2bandit_a2.png","70","","70","test","1","","83","","","","square","circle","80","15","4","0.9625","","","","","","","",""
"null","279164","SARL_v6","SARL_v6g4q5asky","5dd72efa82569a6d38e06854","freq_resp","","","img/orange_2bandit_a.png","70","img/orange_2bandit_a.png","70","test","","","","","","","","","","","4","","","","","","","","",""
"null","279326","SARL_v6","SARL_v6g4q5asky","5dd72efa82569a6d38e06854","fixation","","","img/fixation.png","null","","","test","","","","","","","","","","","","","","","","","","","",""
"407","279735","SARL_v6","SARL_v6g4q5asky","5dd72efa82569a6d38e06854","freq","","","img/orange_2bandit_a2.png","70","","70","test","1","","84","","","","square","circle","81","16","4","0.9629629629629629","","","","","","","",""
"null","280142","SARL_v6","SARL_v6g4q5asky","5dd72efa82569a6d38e06854","freq_resp","","","img/orange_2bandit_a.png","70","img/orange_2bandit_a.png","70","test","","","","","","","","","","","4","","","","","","","","",""
"null","280298","SARL_v6","SARL_v6g4q5asky","5dd72efa82569a6d38e06854","fixation","","","img/fixation.png","null","","","test","","","","","","","","","","","","","","","","","","","",""
"492.5","280792","SARL_v6","SARL_v6g4q5asky","5dd72efa82569a6d38e06854","infreq","","","img/blue_2bandit_a2.png","68","","68","test","1","","85","","","","square","circle","82","17","4","0.9634146341463414","","","","","","","",""
"null","281110","SARL_v6","SARL_v6g4q5asky","5dd72efa82569a6d38e06854","infreq_resp","","","img/blue_2bandit_a.png","68","img/blue_2bandit_a.png","68","test","","","","","","","","","","","4","","","","","","","","",""
"null","281269","SARL_v6","SARL_v6g4q5asky","5dd72efa82569a6d38e06854","fixation","","","img/fixation.png","null","","","test","","","","","","","","","","","","","","","","","","","",""
"376.90000000596046","281648","SARL_v6","SARL_v6g4q5asky","5dd72efa82569a6d38e06854","freq","","","img/orange_2bandit_a2.png","70","","70","test","1","","86","","","","square","circle","83","18","4","0.963855421686747","","","","","","","",""
"null","282083","SARL_v6","SARL_v6g4q5asky","5dd72efa82569a6d38e06854","freq_resp","","","img/orange_2bandit_a.png","70","img/orange_2bandit_a.png","70","test","","","","","","","","","","","4","","","","","","","","",""
"null","282244","SARL_v6","SARL_v6g4q5asky","5dd72efa82569a6d38e06854","fixation","","","img/fixation.png","null","","","test","","","","","","","","","","","","","","","","","","","",""
"515","282761","SARL_v6","SARL_v6g4q5asky","5dd72efa82569a6d38e06854","freq","","","img/orange_2bandit_a2.png","70","","70","test","1","","87","","","","square","circle","84","19","4","0.9642857142857143","","","","","","","",""
"null","283049","SARL_v6","SARL_v6g4q5asky","5dd72efa82569a6d38e06854","freq_resp","","","img/orange_2bandit_a.png","70","img/orange_2bandit_a.png","70","test","","","","","","","","","","","4","","","","","","","","",""
"null","283210","SARL_v6","SARL_v6g4q5asky","5dd72efa82569a6d38e06854","fixation","","","img/fixation.png","null","","","test","","","","","","","","","","","","","","","","","","","",""
"398","283610","SARL_v6","SARL_v6g4q5asky","5dd72efa82569a6d38e06854","freq","","","img/orange_2bandit_a2.png","70","","70","test","1","","88","","","","square","circle","85","20","4","0.9647058823529412","","","","","","","",""
"null","284019","SARL_v6","SARL_v6g4q5asky","5dd72efa82569a6d38e06854","freq_resp","","","img/orange_2bandit_a.png","70","img/orange_2bandit_a.png","70","test","","","","","","","","","","","4","","","","","","","","",""
"null","284182","SARL_v6","SARL_v6g4q5asky","5dd72efa82569a6d38e06854","fixation","","","img/fixation.png","null","","","test","","","","","","","","","","","","","","","","","","","",""
"400","284584","SARL_v6","SARL_v6g4q5asky","5dd72efa82569a6d38e06854","freq","","","img/orange_2bandit_a2.png","70","","70","test","1","","89","","","","square","circle","86","21","4","0.9651162790697675","","","","","","","",""
"null","284996","SARL_v6","SARL_v6g4q5asky","5dd72efa82569a6d38e06854","freq_resp","","","img/orange_2bandit_a.png","70","img/orange_2bandit_a.png","70","test","","","","","","","","","","","4","","","","","","","","",""
"null","285158","SARL_v6","SARL_v6g4q5asky","5dd72efa82569a6d38e06854","fixation","","","img/fixation.png","null","","","test","","","","","","","","","","","","","","","","","","","",""
"305.8999999910593","285466","SARL_v6","SARL_v6g4q5asky","5dd72efa82569a6d38e06854","freq","","","img/orange_2bandit_a2.png","70","","70","test","1","","90","","","","square","circle","87","22","4","0.9655172413793104","","","","","","","",""
"null","285968","SARL_v6","SARL_v6g4q5asky","5dd72efa82569a6d38e06854","freq_resp","","","img/orange_2bandit_a.png","70","img/orange_2bandit_a.png","70","test","","","","","","","","","","","4","","","","","","","","",""
"null","286122","SARL_v6","SARL_v6g4q5asky","5dd72efa82569a6d38e06854","fixation","","","img/fixation.png","null","","","test","","","","","","","","","","","","","","","","","","","",""
"711.5","286836","SARL_v6","SARL_v6g4q5asky","5dd72efa82569a6d38e06854","rl","","","img/black_2bandit_a2.png","75","","0","test","","","91","","","-12","square","circle","","0","4","","75","-12","0","0","-12","circle","4","0"
"null","287596","SARL_v6","SARL_v6g4q5asky","5dd72efa82569a6d38e06854","feedback","","","<div class=""verylowPoints""> -12 </div>","null","","na","test","","","NaN","","","","","","","","4","","75","","","","","","4",""
"565.7000000029802","288163","SARL_v6","SARL_v6g4q5asky","5dd72efa82569a6d38e06854","freq","","","img/orange_2bandit_a2.png","70","","70","test","1","","92","","","","square","circle","88","1","5","0.9659090909090909","","","","","","","",""
"null","288401","SARL_v6","SARL_v6g4q5asky","5dd72efa82569a6d38e06854","freq_resp","","","img/orange_2bandit_a.png","70","img/orange_2bandit_a.png","70","test","","","","","","","","","","","5","","","","","","","","",""
"null","288561","SARL_v6","SARL_v6g4q5asky","5dd72efa82569a6d38e06854","fixation","","","img/fixation.png","null","","","test","","","","","","","","","","","","","","","","","","","",""
"462.70000000298023","289026","SARL_v6","SARL_v6g4q5asky","5dd72efa82569a6d38e06854","freq","","","img/orange_2bandit_a2.png","70","","70","test","1","","93","","","","square","circle","89","2","5","0.9662921348314607","","","","","","","",""
"null","289369","SARL_v6","SARL_v6g4q5asky","5dd72efa82569a6d38e06854","freq_resp","","","img/orange_2bandit_a.png","70","img/orange_2bandit_a.png","70","test","","","","","","","","","","","5","","","","","","","","",""
"null","289530","SARL_v6","SARL_v6g4q5asky","5dd72efa82569a6d38e06854","fixation","","","img/fixation.png","null","","","test","","","","","","","","","","","","","","","","","","","",""
"342.20000000298023","289874","SARL_v6","SARL_v6g4q5asky","5dd72efa82569a6d38e06854","freq","","","img/orange_2bandit_a2.png","70","","70","test","1","","94","","","","square","circle","90","3","5","0.9666666666666667","","","","","","","",""
"null","290339","SARL_v6","SARL_v6g4q5asky","5dd72efa82569a6d38e06854","freq_resp","","","img/orange_2bandit_a.png","70","img/orange_2bandit_a.png","70","test","","","","","","","","","","","5","","","","","","","","",""
"null","290499","SARL_v6","SARL_v6g4q5asky","5dd72efa82569a6d38e06854","fixation","","","img/fixation.png","null","","","test","","","","","","","","","","","","","","","","","","","",""
"334.1000000089407","290835","SARL_v6","SARL_v6g4q5asky","5dd72efa82569a6d38e06854","freq","","","img/orange_2bandit_a2.png","70","","70","test","1","","95","","","","square","circle","91","4","5","0.967032967032967","","","","","","","",""
"null","291306","SARL_v6","SARL_v6g4q5asky","5dd72efa82569a6d38e06854","freq_resp","","","img/orange_2bandit_a.png","70","img/orange_2bandit_a.png","70","test","","","","","","","","","","","5","","","","","","","","",""
"null","291469","SARL_v6","SARL_v6g4q5asky","5dd72efa82569a6d38e06854","fixation","","","img/fixation.png","null","","","test","","","","","","","","","","","","","","","","","","","",""
"291.69999998807907","291762","SARL_v6","SARL_v6g4q5asky","5dd72efa82569a6d38e06854","freq","","","img/orange_2bandit_a2.png","70","","70","test","1","","96","","","","square","circle","92","5","5","0.967391304347826","","","","","","","",""
"null","292274","SARL_v6","SARL_v6g4q5asky","5dd72efa82569a6d38e06854","freq_resp","","","img/orange_2bandit_a.png","70","img/orange_2bandit_a.png","70","test","","","","","","","","","","","5","","","","","","","","",""
"null","292435","SARL_v6","SARL_v6g4q5asky","5dd72efa82569a6d38e06854","fixation","","","img/fixation.png","null","","","test","","","","","","","","","","","","","","","","","","","",""
"150.20000000298023","292587","SARL_v6","SARL_v6g4q5asky","5dd72efa82569a6d38e06854","freq","","","img/orange_2bandit_a2.png","70","","70","test","1","","97","","","","square","circle","93","6","5","0.967741935483871","","","","","","","",""
"null","293246","SARL_v6","SARL_v6g4q5asky","5dd72efa82569a6d38e06854","freq_resp","","","img/orange_2bandit_a.png","70","img/orange_2bandit_a.png","70","test","","","","","","","","","","","5","","","","","","","","",""
"null","293402","SARL_v6","SARL_v6g4q5asky","5dd72efa82569a6d38e06854","fixation","","","img/fixation.png","null","","","test","","","","","","","","","","","","","","","","","","","",""
"72","293476","SARL_v6","SARL_v6g4q5asky","5dd72efa82569a6d38e06854","freq","","","img/orange_2bandit_a2.png","70","","70","test","1","","98","","","","square","circle","94","7","5","0.9680851063829787","","","","","","","",""
"null","294213","SARL_v6","SARL_v6g4q5asky","5dd72efa82569a6d38e06854","freq_resp","","","img/orange_2bandit_a.png","70","img/orange_2bandit_a.png","70","test","","","","","","","","","","","5","","","","","","","","",""
"null","294369","SARL_v6","SARL_v6g4q5asky","5dd72efa82569a6d38e06854","fixation","","","img/fixation.png","null","","","test","","","","","","","","","","","","","","","","","","","",""
"25.700000002980232","294397","SARL_v6","SARL_v6g4q5asky","5dd72efa82569a6d38e06854","freq","","","img/orange_2bandit_a2.png","70","","70","test","1","","99","","","","square","circle","95","8","5","0.968421052631579","","","","","","","",""
"null","295182","SARL_v6","SARL_v6g4q5asky","5dd72efa82569a6d38e06854","freq_resp","","","img/orange_2bandit_a.png","70","img/orange_2bandit_a.png","70","test","","","","","","","","","","","5","","","","","","","","",""
"null","295340","SARL_v6","SARL_v6g4q5asky","5dd72efa82569a6d38e06854","fixation","","","img/fixation.png","null","","","test","","","","","","","","","","","","","","","","","","","",""
"136.09999999403954","295479","SARL_v6","SARL_v6g4q5asky","5dd72efa82569a6d38e06854","freq","","","img/orange_2bandit_a2.png","70","","70","test","1","","100","","","","square","circle","96","9","5","0.96875","","","","","","","",""
"null","296146","SARL_v6","SARL_v6g4q5asky","5dd72efa82569a6d38e06854","freq_resp","","","img/orange_2bandit_a.png","70","img/orange_2bandit_a.png","70","test","","","","","","","","","","","5","","","","","","","","",""
"null","296310","SARL_v6","SARL_v6g4q5asky","5dd72efa82569a6d38e06854","fixation","","","img/fixation.png","null","","","test","","","","","","","","","","","","","","","","","","","",""
"22","296334","SARL_v6","SARL_v6g4q5asky","5dd72efa82569a6d38e06854","freq","","","img/orange_2bandit_a2.png","70","","70","test","1","","101","","","","square","circle","97","10","5","0.9690721649484536","","","","","","","",""
"null","297126","SARL_v6","SARL_v6g4q5asky","5dd72efa82569a6d38e06854","freq_resp","","","img/orange_2bandit_a.png","70","img/orange_2bandit_a.png","70","test","","","","","","","","","","","5","","","","","","","","",""
"null","297286","SARL_v6","SARL_v6g4q5asky","5dd72efa82569a6d38e06854","fixation","","","img/fixation.png","null","","","test","","","","","","","","","","","","","","","","","","","",""
"null","298094","SARL_v6","SARL_v6g4q5asky","5dd72efa82569a6d38e06854","freq","","","img/orange_2bandit_a2.png","null","","70","test","0","","102","","","","square","circle","98","11","5","0.9591836734693877","","","","","","","",""
"null","298252","SARL_v6","SARL_v6g4q5asky","5dd72efa82569a6d38e06854","fixation","","","img/fixation.png","null","","","test","","","","","","","","","","","","","","","","","","","",""
"null","299058","SARL_v6","SARL_v6g4q5asky","5dd72efa82569a6d38e06854","freq","","","img/orange_2bandit_a2.png","null","","70","test","0","","103","","","","square","circle","99","12","5","0.9494949494949495","","","","","","","",""
"null","299222","SARL_v6","SARL_v6g4q5asky","5dd72efa82569a6d38e06854","fixation","","","img/fixation.png","null","","","test","","","","","","","","","","","","","","","","","","","",""
"null","300030","SARL_v6","SARL_v6g4q5asky","5dd72efa82569a6d38e06854","freq","","","img/orange_2bandit_a2.png","null","","70","test","0","","104","","","","square","circle","100","13","5","0.94","","","","","","","",""
"null","300186","SARL_v6","SARL_v6g4q5asky","5dd72efa82569a6d38e06854","fixation","","","img/fixation.png","null","","","test","","","","","","","","","","","","","","","","","","","",""
"null","300992","SARL_v6","SARL_v6g4q5asky","5dd72efa82569a6d38e06854","freq","","","img/orange_2bandit_a2.png","null","","70","test","0","","105","","","","square","circle","101","14","5","0.9306930693069307","","","","","","","",""
"null","301147","SARL_v6","SARL_v6g4q5asky","5dd72efa82569a6d38e06854","fixation","","","img/fixation.png","null","","","test","","","","","","","","","","","","","","","","","","","",""
"null","301958","SARL_v6","SARL_v6g4q5asky","5dd72efa82569a6d38e06854","freq","","","img/orange_2bandit_a2.png","null","","70","test","0","","106","","","","square","circle","102","15","5","0.9215686274509803","","","","","","","",""
"null","302113","SARL_v6","SARL_v6g4q5asky","5dd72efa82569a6d38e06854","fixation","","","img/fixation.png","null","","","test","","","","","","","","","","","","","","","","","","","",""
"null","302924","SARL_v6","SARL_v6g4q5asky","5dd72efa82569a6d38e06854","freq","","","img/orange_2bandit_a2.png","null","","70","test","0","","107","","","","square","circle","103","16","5","0.912621359223301","","","","","","","",""
"null","303086","SARL_v6","SARL_v6g4q5asky","5dd72efa82569a6d38e06854","fixation","","","img/fixation.png","null","","","test","","","","","","","","","","","","","","","","","","","",""
"464.70000000298023","303553","SARL_v6","SARL_v6g4q5asky","5dd72efa82569a6d38e06854","infreq","","","img/blue_2bandit_a2.png","68","","68","test","1","","108","","","","square","circle","104","17","5","0.9134615384615384","","","","","","","",""
"null","303902","SARL_v6","SARL_v6g4q5asky","5dd72efa82569a6d38e06854","infreq_resp","","","img/blue_2bandit_a.png","68","img/blue_2bandit_a.png","68","test","","","","","","","","","","","5","","","","","","","","",""
"null","304062","SARL_v6","SARL_v6g4q5asky","5dd72efa82569a6d38e06854","fixation","","","img/fixation.png","null","","","test","","","","","","","","","","","","","","","","","","","",""
"406.30000001192093","304471","SARL_v6","SARL_v6g4q5asky","5dd72efa82569a6d38e06854","infreq","","","img/blue_2bandit_a2.png","70","","68","test","0","","109","","","","square","circle","105","18","5","0.9047619047619048","","","","","","","",""
"null","304878","SARL_v6","SARL_v6g4q5asky","5dd72efa82569a6d38e06854","infreq_resp","","","img/blue_2bandit_a.png","70","img/blue_2bandit_a.png","68","test","","","","","","","","","","","5","","","","","","","","",""
"null","305037","SARL_v6","SARL_v6g4q5asky","5dd72efa82569a6d38e06854","fixation","","","img/fixation.png","null","","","test","","","","","","","","","","","","","","","","","","","",""
"453.29999999701977","305493","SARL_v6","SARL_v6g4q5asky","5dd72efa82569a6d38e06854","freq","","","img/orange_2bandit_a2.png","70","","70","test","1","","110","","","","square","circle","106","19","5","0.9056603773584906","","","","","","","",""
"null","305846","SARL_v6","SARL_v6g4q5asky","5dd72efa82569a6d38e06854","freq_resp","","","img/orange_2bandit_a.png","70","img/orange_2bandit_a.png","70","test","","","","","","","","","","","5","","","","","","","","",""
"null","306006","SARL_v6","SARL_v6g4q5asky","5dd72efa82569a6d38e06854","fixation","","","img/fixation.png","null","","","test","","","","","","","","","","","","","","","","","","","",""
"287.1000000089407","306296","SARL_v6","SARL_v6g4q5asky","5dd72efa82569a6d38e06854","infreq","","","img/blue_2bandit_a2.png","70","","68","test","0","","111","","","","square","circle","107","20","5","0.897196261682243","","","","","","","",""
"null","306818","SARL_v6","SARL_v6g4q5asky","5dd72efa82569a6d38e06854","infreq_resp","","","img/blue_2bandit_a.png","70","img/blue_2bandit_a.png","68","test","","","","","","","","","","","5","","","","","","","","",""
"null","306981","SARL_v6","SARL_v6g4q5asky","5dd72efa82569a6d38e06854","fixation","","","img/fixation.png","null","","","test","","","","","","","","","","","","","","","","","","","",""
"484.20000000298023","307467","SARL_v6","SARL_v6g4q5asky","5dd72efa82569a6d38e06854","freq","","","img/orange_2bandit_a2.png","70","","70","test","1","","112","","","","square","circle","108","21","5","0.8981481481481481","","","","","","","",""
"null","307785","SARL_v6","SARL_v6g4q5asky","5dd72efa82569a6d38e06854","freq_resp","","","img/orange_2bandit_a.png","70","img/orange_2bandit_a.png","70","test","","","","","","","","","","","5","","","","","","","","",""
"null","307946","SARL_v6","SARL_v6g4q5asky","5dd72efa82569a6d38e06854","fixation","","","img/fixation.png","null","","","test","","","","","","","","","","","","","","","","","","","",""
"390","308338","SARL_v6","SARL_v6g4q5asky","5dd72efa82569a6d38e06854","freq","","","img/orange_2bandit_a2.png","70","","70","test","1","","113","","","","square","circle","109","22","5","0.8990825688073395","","","","","","","",""
"null","308755","SARL_v6","SARL_v6g4q5asky","5dd72efa82569a6d38e06854","freq_resp","","","img/orange_2bandit_a.png","70","img/orange_2bandit_a.png","70","test","","","","","","","","","","","5","","","","","","","","",""
"null","308915","SARL_v6","SARL_v6g4q5asky","5dd72efa82569a6d38e06854","fixation","","","img/fixation.png","null","","","test","","","","","","","","","","","","","","","","","","","",""
"440.90000000596046","309358","SARL_v6","SARL_v6g4q5asky","5dd72efa82569a6d38e06854","freq","","","img/orange_2bandit_a2.png","70","","70","test","1","","114","","","","square","circle","110","23","5","0.9","","","","","","","",""
"null","309723","SARL_v6","SARL_v6g4q5asky","5dd72efa82569a6d38e06854","freq_resp","","","img/orange_2bandit_a.png","70","img/orange_2bandit_a.png","70","test","","","","","","","","","","","5","","","","","","","","",""
"null","309883","SARL_v6","SARL_v6g4q5asky","5dd72efa82569a6d38e06854","fixation","","","img/fixation.png","null","","","test","","","","","","","","","","","","","","","","","","","",""
"345.40000000596046","310231","SARL_v6","SARL_v6g4q5asky","5dd72efa82569a6d38e06854","freq","","","img/orange_2bandit_a2.png","70","","70","test","1","","115","","","","square","circle","111","24","5","0.9009009009009009","","","","","","","",""
"null","310692","SARL_v6","SARL_v6g4q5asky","5dd72efa82569a6d38e06854","freq_resp","","","img/orange_2bandit_a.png","70","img/orange_2bandit_a.png","70","test","","","","","","","","","","","5","","","","","","","","",""
"null","310851","SARL_v6","SARL_v6g4q5asky","5dd72efa82569a6d38e06854","fixation","","","img/fixation.png","null","","","test","","","","","","","","","","","","","","","","","","","",""
"464.5","311318","SARL_v6","SARL_v6g4q5asky","5dd72efa82569a6d38e06854","freq","","","img/orange_2bandit_a2.png","70","","70","test","1","","116","","","","square","circle","112","25","5","0.9017857142857143","","","","","","","",""
"null","311658","SARL_v6","SARL_v6g4q5asky","5dd72efa82569a6d38e06854","freq_resp","","","img/orange_2bandit_a.png","70","img/orange_2bandit_a.png","70","test","","","","","","","","","","","5","","","","","","","","",""
"null","311823","SARL_v6","SARL_v6g4q5asky","5dd72efa82569a6d38e06854","fixation","","","img/fixation.png","null","","","test","","","","","","","","","","","","","","","","","","","",""
"692.5999999940395","312517","SARL_v6","SARL_v6g4q5asky","5dd72efa82569a6d38e06854","rl","","","img/black_2bandit_a2.png","74","","0","test","","","117","","","4","square","circle","","0","5","","74","-7","4","4","-7","square","5","0"
"null","313273","SARL_v6","SARL_v6g4q5asky","5dd72efa82569a6d38e06854","feedback","","","<div class=""veryhighPoints_sq""> 4 </div>","null","","na","test","","","NaN","","","","","","","","5","","74","","","","","","5",""
"661","313936","SARL_v6","SARL_v6g4q5asky","5dd72efa82569a6d38e06854","freq","","","img/orange_2bandit_a2.png","70","","70","test","1","","118","","","","square","circle","113","1","6","0.9026548672566371","","","","","","","",""
"null","314086","SARL_v6","SARL_v6g4q5asky","5dd72efa82569a6d38e06854","freq_resp","","","img/orange_2bandit_a.png","70","img/orange_2bandit_a.png","70","test","","","","","","","","","","","6","","","","","","","","",""
"null","314246","SARL_v6","SARL_v6g4q5asky","5dd72efa82569a6d38e06854","fixation","","","img/fixation.png","null","","","test","","","","","","","","","","","","","","","","","","","",""
"538.9000000059605","314788","SARL_v6","SARL_v6g4q5asky","5dd72efa82569a6d38e06854","freq","","","img/orange_2bandit_a2.png","70","","70","test","1","","119","","","","square","circle","114","2","6","0.9035087719298246","","","","","","","",""
"null","315062","SARL_v6","SARL_v6g4q5asky","5dd72efa82569a6d38e06854","freq_resp","","","img/orange_2bandit_a.png","70","img/orange_2bandit_a.png","70","test","","","","","","","","","","","6","","","","","","","","",""
"null","315222","SARL_v6","SARL_v6g4q5asky","5dd72efa82569a6d38e06854","fixation","","","img/fixation.png","null","","","test","","","","","","","","","","","","","","","","","","","",""
"556.7999999970198","315781","SARL_v6","SARL_v6g4q5asky","5dd72efa82569a6d38e06854","freq","","","img/orange_2bandit_a2.png","70","","70","test","1","","120","","","","square","circle","115","3","6","0.9043478260869565","","","","","","","",""
"null","316039","SARL_v6","SARL_v6g4q5asky","5dd72efa82569a6d38e06854","freq_resp","","","img/orange_2bandit_a.png","70","img/orange_2bandit_a.png","70","test","","","","","","","","","","","6","","","","","","","","",""
"null","316196","SARL_v6","SARL_v6g4q5asky","5dd72efa82569a6d38e06854","fixation","","","img/fixation.png","null","","","test","","","","","","","","","","","","","","","","","","","",""
"573.4000000059605","316772","SARL_v6","SARL_v6g4q5asky","5dd72efa82569a6d38e06854","freq","","","img/orange_2bandit_a2.png","70","","70","test","1","","121","","","","square","circle","116","4","6","0.9051724137931034","","","","","","","",""
"null","317007","SARL_v6","SARL_v6g4q5asky","5dd72efa82569a6d38e06854","freq_resp","","","img/orange_2bandit_a.png","70","img/orange_2bandit_a.png","70","test","","","","","","","","","","","6","","","","","","","","",""
"null","317167","SARL_v6","SARL_v6g4q5asky","5dd72efa82569a6d38e06854","fixation","","","img/fixation.png","null","","","test","","","","","","","","","","","","","","","","","","","",""
"617.2000000029802","317786","SARL_v6","SARL_v6g4q5asky","5dd72efa82569a6d38e06854","freq","","","img/orange_2bandit_a2.png","70","","70","test","1","","122","","","","square","circle","117","5","6","0.905982905982906","","","","","","","",""
"null","317981","SARL_v6","SARL_v6g4q5asky","5dd72efa82569a6d38e06854","freq_resp","","","img/orange_2bandit_a.png","70","img/orange_2bandit_a.png","70","test","","","","","","","","","","","6","","","","","","","","",""
"null","318140","SARL_v6","SARL_v6g4q5asky","5dd72efa82569a6d38e06854","fixation","","","img/fixation.png","null","","","test","","","","","","","","","","","","","","","","","","","",""
"617.4000000059605","318759","SARL_v6","SARL_v6g4q5asky","5dd72efa82569a6d38e06854","freq","","","img/orange_2bandit_a2.png","70","","70","test","1","","123","","","","square","circle","118","6","6","0.9067796610169492","","","","","","","",""
"null","318946","SARL_v6","SARL_v6g4q5asky","5dd72efa82569a6d38e06854","freq_resp","","","img/orange_2bandit_a.png","70","img/orange_2bandit_a.png","70","test","","","","","","","","","","","6","","","","","","","","",""
"null","319106","SARL_v6","SARL_v6g4q5asky","5dd72efa82569a6d38e06854","fixation","","","img/fixation.png","null","","","test","","","","","","","","","","","","","","","","","","","",""
"529.8999999910593","319637","SARL_v6","SARL_v6g4q5asky","5dd72efa82569a6d38e06854","freq","","","img/orange_2bandit_a2.png","70","","70","test","1","","124","","","","square","circle","119","7","6","0.907563025210084","","","","","","","",""
"null","319917","SARL_v6","SARL_v6g4q5asky","5dd72efa82569a6d38e06854","freq_resp","","","img/orange_2bandit_a.png","70","img/orange_2bandit_a.png","70","test","","","","","","","","","","","6","","","","","","","","",""
"null","320074","SARL_v6","SARL_v6g4q5asky","5dd72efa82569a6d38e06854","fixation","","","img/fixation.png","null","","","test","","","","","","","","","","","","","","","","","","","",""
"562.2000000029802","320639","SARL_v6","SARL_v6g4q5asky","5dd72efa82569a6d38e06854","freq","","","img/orange_2bandit_a2.png","70","","70","test","1","","125","","","","square","circle","120","8","6","0.9083333333333333","","","","","","","",""
"null","320884","SARL_v6","SARL_v6g4q5asky","5dd72efa82569a6d38e06854","freq_resp","","","img/orange_2bandit_a.png","70","img/orange_2bandit_a.png","70","test","","","","","","","","","","","6","","","","","","","","",""
"null","321046","SARL_v6","SARL_v6g4q5asky","5dd72efa82569a6d38e06854","fixation","","","img/fixation.png","null","","","test","","","","","","","","","","","","","","","","","","","",""
"443.40000000596046","321492","SARL_v6","SARL_v6g4q5asky","5dd72efa82569a6d38e06854","freq","","","img/orange_2bandit_a2.png","70","","70","test","1","","126","","","","square","circle","121","9","6","0.9090909090909091","","","","","","","",""
"null","321863","SARL_v6","SARL_v6g4q5asky","5dd72efa82569a6d38e06854","freq_resp","","","img/orange_2bandit_a.png","70","img/orange_2bandit_a.png","70","test","","","","","","","","","","","6","","","","","","","","",""
"null","322020","SARL_v6","SARL_v6g4q5asky","5dd72efa82569a6d38e06854","fixation","","","img/fixation.png","null","","","test","","","","","","","","","","","","","","","","","","","",""
"413.1000000089407","322435","SARL_v6","SARL_v6g4q5asky","5dd72efa82569a6d38e06854","freq","","","img/orange_2bandit_a2.png","70","","70","test","1","","127","","","","square","circle","122","10","6","0.9098360655737705","","","","","","","",""
"null","322827","SARL_v6","SARL_v6g4q5asky","5dd72efa82569a6d38e06854","freq_resp","","","img/orange_2bandit_a.png","70","img/orange_2bandit_a.png","70","test","","","","","","","","","","","6","","","","","","","","",""
"null","322985","SARL_v6","SARL_v6g4q5asky","5dd72efa82569a6d38e06854","fixation","","","img/fixation.png","null","","","test","","","","","","","","","","","","","","","","","","","",""
"435.09999999403954","323423","SARL_v6","SARL_v6g4q5asky","5dd72efa82569a6d38e06854","freq","","","img/orange_2bandit_a2.png","70","","70","test","1","","128","","","","square","circle","123","11","6","0.9105691056910569","","","","","","","",""
"null","323796","SARL_v6","SARL_v6g4q5asky","5dd72efa82569a6d38e06854","freq_resp","","","img/orange_2bandit_a.png","70","img/orange_2bandit_a.png","70","test","","","","","","","","","","","6","","","","","","","","",""
"null","323958","SARL_v6","SARL_v6g4q5asky","5dd72efa82569a6d38e06854","fixation","","","img/fixation.png","null","","","test","","","","","","","","","","","","","","","","","","","",""
"395.20000000298023","324356","SARL_v6","SARL_v6g4q5asky","5dd72efa82569a6d38e06854","freq","","","img/orange_2bandit_a2.png","70","","70","test","1","","129","","","","square","circle","124","12","6","0.9112903225806451","","","","","","","",""
"null","324770","SARL_v6","SARL_v6g4q5asky","5dd72efa82569a6d38e06854","freq_resp","","","img/orange_2bandit_a.png","70","img/orange_2bandit_a.png","70","test","","","","","","","","","","","6","","","","","","","","",""
"null","324935","SARL_v6","SARL_v6g4q5asky","5dd72efa82569a6d38e06854","fixation","","","img/fixation.png","null","","","test","","","","","","","","","","","","","","","","","","","",""
"315.79999999701977","325252","SARL_v6","SARL_v6g4q5asky","5dd72efa82569a6d38e06854","freq","","","img/orange_2bandit_a2.png","70","","70","test","1","","130","","","","square","circle","125","13","6","0.912","","","","","","","",""
"null","325746","SARL_v6","SARL_v6g4q5asky","5dd72efa82569a6d38e06854","freq_resp","","","img/orange_2bandit_a.png","70","img/orange_2bandit_a.png","70","test","","","","","","","","","","","6","","","","","","","","",""
"null","325906","SARL_v6","SARL_v6g4q5asky","5dd72efa82569a6d38e06854","fixation","","","img/fixation.png","null","","","test","","","","","","","","","","","","","","","","","","","",""
"282.6000000089407","326190","SARL_v6","SARL_v6g4q5asky","5dd72efa82569a6d38e06854","infreq","","","img/blue_2bandit_a2.png","70","","68","test","0","","131","","","","square","circle","126","14","6","0.9047619047619048","","","","","","","",""
"null","326715","SARL_v6","SARL_v6g4q5asky","5dd72efa82569a6d38e06854","infreq_resp","","","img/blue_2bandit_a.png","70","img/blue_2bandit_a.png","68","test","","","","","","","","","","","6","","","","","","","","",""
"null","326875","SARL_v6","SARL_v6g4q5asky","5dd72efa82569a6d38e06854","fixation","","","img/fixation.png","null","","","test","","","","","","","","","","","","","","","","","","","",""
