"rt","time_elapsed","expId","subject","prolificID","trialType","rlType","attType","stimulus","key_press","stim","corrresp","phase","corr","pracCounter","trialNum","rewardOne","rewardTwo","reward","bandOne","bandTwo","attentionNum","attentionRunNum","blockNum","performance","bandChosen","circleVal","squareVal","bandOneVal","bandTwoVal","shapeChosen","rlNum","badFlag"
"17863.700000047684","17878","SARL_v6","SARL_v65kwx5sq0","633f4f203450d46b01e3d16b","","","","","","","","","","","","","","","","","","","","","","","","","","","",""
"","20342","SARL_v6","SARL_v65kwx5sq0","633f4f203450d46b01e3d16b","fullscreen","fullscreen","fullscreen","","","","","","","","","","","","","","","","","","","","","","","","",""
"60696","81054","SARL_v6","SARL_v65kwx5sq0","633f4f203450d46b01e3d16b","","","","","","","","","","","","","","","","","","","","","","","","","","","",""
"null","81887","SARL_v6","SARL_v65kwx5sq0","633f4f203450d46b01e3d16b","freqPrac","","","img/orange_2bandit_a2.png","null","img/orange_2bandit_a2.png","70","prac","0","1","","","","","","","","","","","","","","","","","",""
"null","82904","SARL_v6","SARL_v65kwx5sq0","633f4f203450d46b01e3d16b","feedback","","","img/tooSlow.png","null","","na","prac","","","","","","","","","","","","","","","","","","","",""
"null","83078","SARL_v6","SARL_v65kwx5sq0","633f4f203450d46b01e3d16b","fixation","","","img/fixation.png","null","","","prac","","","","","","","","","","","","","","","","","","","",""
"525.5999999046326","83614","SARL_v6","SARL_v65kwx5sq0","633f4f203450d46b01e3d16b","infreqPrac","","","img/blue_2bandit_a2.png","68","img/blue_2bandit_a2.png","68","prac","1","1","","","","","","","","","","","","","","","","","",""
"525.5999999046326","83907","SARL_v6","SARL_v65kwx5sq0","633f4f203450d46b01e3d16b","infreqPrac_resp","","","img/blue_2bandit_a.png","68","img/blue_2bandit_a.png","68","prac","","","","","","","","","","","","","","","","","","","",""
"null","84067","SARL_v6","SARL_v65kwx5sq0","633f4f203450d46b01e3d16b","fixation","","","img/fixation.png","null","","","prac","","","","","","","","","","","","","","","","","","","",""
"353.5","84431","SARL_v6","SARL_v65kwx5sq0","633f4f203450d46b01e3d16b","freqPrac","","","img/orange_2bandit_a2.png","70","img/orange_2bandit_a2.png","70","prac","1","1","","","","","","","","","","","","","","","","","",""
"353.5","84889","SARL_v6","SARL_v65kwx5sq0","633f4f203450d46b01e3d16b","freqPrac_resp","","","img/orange_2bandit_a.png","70","img/orange_2bandit_a.png","70","prac","","","","","","","","","","","","","","","","","","","",""
"null","85064","SARL_v6","SARL_v65kwx5sq0","633f4f203450d46b01e3d16b","fixation","","","img/fixation.png","null","","","prac","","","","","","","","","","","","","","","","","","","",""
"401.5","85476","SARL_v6","SARL_v65kwx5sq0","633f4f203450d46b01e3d16b","infreqPrac","","","img/blue_2bandit_a2.png","68","img/blue_2bandit_a2.png","68","prac","1","1","","","","","","","","","","","","","","","","","",""
"401.5","85885","SARL_v6","SARL_v65kwx5sq0","633f4f203450d46b01e3d16b","infreqPrac_resp","","","img/blue_2bandit_a.png","68","img/blue_2bandit_a.png","68","prac","","","","","","","","","","","","","","","","","","","",""
"null","86064","SARL_v6","SARL_v65kwx5sq0","633f4f203450d46b01e3d16b","fixation","","","img/fixation.png","null","","","prac","","","","","","","","","","","","","","","","","","","",""
"452.60000014305115","86525","SARL_v6","SARL_v65kwx5sq0","633f4f203450d46b01e3d16b","infreqPrac","","","img/blue_2bandit_a2.png","68","img/blue_2bandit_a2.png","68","prac","1","1","","","","","","","","","","","","","","","","","",""
"452.60000014305115","86888","SARL_v6","SARL_v65kwx5sq0","633f4f203450d46b01e3d16b","infreqPrac_resp","","","img/blue_2bandit_a.png","68","img/blue_2bandit_a.png","68","prac","","","","","","","","","","","","","","","","","","","",""
"null","87053","SARL_v6","SARL_v65kwx5sq0","633f4f203450d46b01e3d16b","fixation","","","img/fixation.png","null","","","prac","","","","","","","","","","","","","","","","","","","",""
"366.39999985694885","87429","SARL_v6","SARL_v65kwx5sq0","633f4f203450d46b01e3d16b","infreqPrac","","","img/blue_2bandit_a2.png","68","img/blue_2bandit_a2.png","68","prac","1","1","","","","","","","","","","","","","","","","","",""
"366.39999985694885","87886","SARL_v6","SARL_v65kwx5sq0","633f4f203450d46b01e3d16b","infreqPrac_resp","","","img/blue_2bandit_a.png","68","img/blue_2bandit_a.png","68","prac","","","","","","","","","","","","","","","","","","","",""
"null","88047","SARL_v6","SARL_v65kwx5sq0","633f4f203450d46b01e3d16b","fixation","","","img/fixation.png","null","","","prac","","","","","","","","","","","","","","","","","","","",""
"346.10000014305115","88404","SARL_v6","SARL_v65kwx5sq0","633f4f203450d46b01e3d16b","freqPrac","","","img/orange_2bandit_a2.png","70","img/orange_2bandit_a2.png","70","prac","1","1","","","","","","","","","","","","","","","","","",""
"346.10000014305115","88878","SARL_v6","SARL_v65kwx5sq0","633f4f203450d46b01e3d16b","freqPrac_resp","","","img/orange_2bandit_a.png","70","img/orange_2bandit_a.png","70","prac","","","","","","","","","","","","","","","","","","","",""
"null","89038","SARL_v6","SARL_v65kwx5sq0","633f4f203450d46b01e3d16b","fixation","","","img/fixation.png","null","","","prac","","","","","","","","","","","","","","","","","","","",""
"454.90000009536743","89503","SARL_v6","SARL_v65kwx5sq0","633f4f203450d46b01e3d16b","infreqPrac","","","img/blue_2bandit_a2.png","68","img/blue_2bandit_a2.png","68","prac","1","1","","","","","","","","","","","","","","","","","",""
"454.90000009536743","89858","SARL_v6","SARL_v65kwx5sq0","633f4f203450d46b01e3d16b","infreqPrac_resp","","","img/blue_2bandit_a.png","68","img/blue_2bandit_a.png","68","prac","","","","","","","","","","","","","","","","","","","",""
"null","90020","SARL_v6","SARL_v65kwx5sq0","633f4f203450d46b01e3d16b","fixation","","","img/fixation.png","null","","","prac","","","","","","","","","","","","","","","","","","","",""
"412.39999985694885","90442","SARL_v6","SARL_v65kwx5sq0","633f4f203450d46b01e3d16b","freqPrac","","","img/orange_2bandit_a2.png","70","img/orange_2bandit_a2.png","70","prac","1","1","","","","","","","","","","","","","","","","","",""
"412.39999985694885","90839","SARL_v6","SARL_v65kwx5sq0","633f4f203450d46b01e3d16b","freqPrac_resp","","","img/orange_2bandit_a.png","70","img/orange_2bandit_a.png","70","prac","","","","","","","","","","","","","","","","","","","",""
"null","91002","SARL_v6","SARL_v65kwx5sq0","633f4f203450d46b01e3d16b","fixation","","","img/fixation.png","null","","","prac","","","","","","","","","","","","","","","","","","","",""
"354.7000000476837","91366","SARL_v6","SARL_v65kwx5sq0","633f4f203450d46b01e3d16b","freqPrac","","","img/orange_2bandit_a2.png","70","img/orange_2bandit_a2.png","70","prac","1","1","","","","","","","","","","","","","","","","","",""
"354.7000000476837","91822","SARL_v6","SARL_v65kwx5sq0","633f4f203450d46b01e3d16b","freqPrac_resp","","","img/orange_2bandit_a.png","70","img/orange_2bandit_a.png","70","prac","","","","","","","","","","","","","","","","","","","",""
"null","91995","SARL_v6","SARL_v65kwx5sq0","633f4f203450d46b01e3d16b","fixation","","","img/fixation.png","null","","","prac","","","","","","","","","","","","","","","","","","","",""
"30657.400000095367","122661","SARL_v6","SARL_v65kwx5sq0","633f4f203450d46b01e3d16b","","","","","","","","prac","","","","","","","","","","","","","","","","","","","",""
"670.5999999046326","123341","SARL_v6","SARL_v65kwx5sq0","633f4f203450d46b01e3d16b","rlPractice","","","img/black_2bandit_a2.png","74","img/black_2bandit_a2.png","","prac","","","0","","","","","","","","","","","","","","","","",""
"null","124117","SARL_v6","SARL_v65kwx5sq0","633f4f203450d46b01e3d16b","feedback","","","<div class=""verylowPoints_sq""> -14 </div>","null","","na","prac","","","1","10","-14","10","","","","","","","","","","","","","",""
"null","124278","SARL_v6","SARL_v65kwx5sq0","633f4f203450d46b01e3d16b","fixation","","","img/fixation.png","null","","","prac","","","","","","","","","","","","","","","","","","","",""
"1347.2000000476837","125635","SARL_v6","SARL_v65kwx5sq0","633f4f203450d46b01e3d16b","rlPractice","","","img/black_2bandit_a2.png","75","img/black_2bandit_a2.png","","prac","","","1","","","","","","","","","","","","","","","","",""
"null","126412","SARL_v6","SARL_v65kwx5sq0","633f4f203450d46b01e3d16b","feedback","","","<div class=""veryhighPoints""> 5 </div>","null","","na","prac","","","2","5","-5","5","","","","","","","","","","","","","",""
"null","126584","SARL_v6","SARL_v65kwx5sq0","633f4f203450d46b01e3d16b","fixation","","","img/fixation.png","null","","","prac","","","","","","","","","","","","","","","","","","","",""
"1296","127890","SARL_v6","SARL_v65kwx5sq0","633f4f203450d46b01e3d16b","rlPractice","","","img/black_2bandit_a2.png","75","img/black_2bandit_a2.png","","prac","","","2","","","","","","","","","","","","","","","","",""
"null","128654","SARL_v6","SARL_v65kwx5sq0","633f4f203450d46b01e3d16b","feedback","","","<div class=""veryhighPoints""> 30 </div>","null","","na","prac","","","3","30","2","30","","","","","","","","","","","","","",""
"null","128823","SARL_v6","SARL_v65kwx5sq0","633f4f203450d46b01e3d16b","fixation","","","img/fixation.png","null","","","prac","","","","","","","","","","","","","","","","","","","",""
"864.4000000953674","129697","SARL_v6","SARL_v65kwx5sq0","633f4f203450d46b01e3d16b","rlPractice","","","img/black_2bandit_a2.png","75","img/black_2bandit_a2.png","","prac","","","3","","","","","","","","","","","","","","","","",""
"null","130465","SARL_v6","SARL_v65kwx5sq0","633f4f203450d46b01e3d16b","feedback","","","<div class=""verylowPoints""> -2 </div>","null","","na","prac","","","4","-2","20","-2","","","","","","","","","","","","","",""
"null","130625","SARL_v6","SARL_v65kwx5sq0","633f4f203450d46b01e3d16b","fixation","","","img/fixation.png","null","","","prac","","","","","","","","","","","","","","","","","","","",""
"21095.5","151728","SARL_v6","SARL_v65kwx5sq0","633f4f203450d46b01e3d16b","","","","","","","","prac","","","","","","","","","","","","","","","","","","","",""
"null","152542","SARL_v6","SARL_v65kwx5sq0","633f4f203450d46b01e3d16b","mixAttFreqPrac","","","img/orange_2bandit_a2.png","null","img/orange_2bandit_a2.png","70","prac","","","1","","","","","","","","","","","","","","","","",""
"null","152714","SARL_v6","SARL_v65kwx5sq0","633f4f203450d46b01e3d16b","fixation","","","img/fixation.png","null","","","prac","","","","","","","","","","","","","","","","","","","",""
"73.89999985694885","152797","SARL_v6","SARL_v65kwx5sq0","633f4f203450d46b01e3d16b","mixAttInfreqPrac","","","img/blue_2bandit_a2.png","70","img/blue_2bandit_a2.png","68","prac","","","2","","","","","","","","","","","","","","","","",""
"73.89999985694885","153548","SARL_v6","SARL_v65kwx5sq0","633f4f203450d46b01e3d16b","infreqPrac_resp","","","img/blue_2bandit_a.png","70","img/orange_2bandit_a.png","68","prac","","","2","","","","","","","","","","","","","","","","",""
"null","153718","SARL_v6","SARL_v65kwx5sq0","633f4f203450d46b01e3d16b","fixation","","","img/fixation.png","null","","","prac","","","","","","","","","","","","","","","","","","","",""
"652.0999999046326","154379","SARL_v6","SARL_v65kwx5sq0","633f4f203450d46b01e3d16b","mixAttInfreqPrac","","","img/blue_2bandit_a2.png","68","img/blue_2bandit_a2.png","68","prac","","","3","","","","","","","","","","","","","","","","",""
"652.0999999046326","154539","SARL_v6","SARL_v65kwx5sq0","633f4f203450d46b01e3d16b","infreqPrac_resp","","","img/blue_2bandit_a.png","68","img/orange_2bandit_a.png","68","prac","","","3","","","","","","","","","","","","","","","","",""
"null","154706","SARL_v6","SARL_v65kwx5sq0","633f4f203450d46b01e3d16b","fixation","","","img/fixation.png","null","","","prac","","","","","","","","","","","","","","","","","","","",""
"512","155227","SARL_v6","SARL_v65kwx5sq0","633f4f203450d46b01e3d16b","mixAttInfreqPrac","","","img/blue_2bandit_a2.png","68","img/blue_2bandit_a2.png","68","prac","","","4","","","","","","","","","","","","","","","","",""
"512","155540","SARL_v6","SARL_v65kwx5sq0","633f4f203450d46b01e3d16b","infreqPrac_resp","","","img/blue_2bandit_a.png","68","img/orange_2bandit_a.png","68","prac","","","4","","","","","","","","","","","","","","","","",""
"null","155715","SARL_v6","SARL_v65kwx5sq0","633f4f203450d46b01e3d16b","fixation","","","img/fixation.png","null","","","prac","","","","","","","","","","","","","","","","","","","",""
"543.3000001907349","156267","SARL_v6","SARL_v65kwx5sq0","633f4f203450d46b01e3d16b","mixAttFreqPrac","","","img/orange_2bandit_a2.png","70","img/orange_2bandit_a2.png","70","prac","","","5","","","","","","","","","","","","","","","","",""
"543.3000001907349","156544","SARL_v6","SARL_v65kwx5sq0","633f4f203450d46b01e3d16b","freqPrac_resp","","","img/orange_2bandit_a.png","70","img/orange_2bandit_a.png","70","prac","","","5","","","","","","","","","","","","","","","","",""
"null","156718","SARL_v6","SARL_v65kwx5sq0","633f4f203450d46b01e3d16b","fixation","","","img/fixation.png","null","","","prac","","","","","","","","","","","","","","","","","","","",""
"584.5","157311","SARL_v6","SARL_v65kwx5sq0","633f4f203450d46b01e3d16b","mixRLPractice","","","img/black_2bandit_a2.png","74","img/black_2bandit_a2.png","","prac","","","5","","","","","","","","","","","","","","","","",""
"null","158076","SARL_v6","SARL_v65kwx5sq0","633f4f203450d46b01e3d16b","feedback","","","<div class=""veryhighPoints_sq""> 10 </div>","null","","na","prac","","","6","-14","10","-14","","","","","","","","","","","","","",""
"null","158241","SARL_v6","SARL_v65kwx5sq0","633f4f203450d46b01e3d16b","fixation","","","img/fixation.png","null","","","prac","","","","","","","","","","","","","","","","","","","",""
"null","159064","SARL_v6","SARL_v65kwx5sq0","633f4f203450d46b01e3d16b","mixAttFreqPrac","","","img/orange_2bandit_a2.png","null","img/orange_2bandit_a2.png","70","prac","","","7","","","","","","","","","","","","","","","","",""
"41.5","159224","SARL_v6","SARL_v65kwx5sq0","633f4f203450d46b01e3d16b","fixation","","","img/fixation.png","70","","","prac","","","","","","","","","","","","","","","","","","","",""
"483.7000000476837","159717","SARL_v6","SARL_v65kwx5sq0","633f4f203450d46b01e3d16b","mixAttInfreqPrac","","","img/blue_2bandit_a2.png","68","img/blue_2bandit_a2.png","68","prac","","","8","","","","","","","","","","","","","","","","",""
"483.7000000476837","160044","SARL_v6","SARL_v65kwx5sq0","633f4f203450d46b01e3d16b","infreqPrac_resp","","","img/blue_2bandit_a.png","68","img/orange_2bandit_a.png","68","prac","","","8","","","","","","","","","","","","","","","","",""
"null","160206","SARL_v6","SARL_v65kwx5sq0","633f4f203450d46b01e3d16b","fixation","","","img/fixation.png","null","","","prac","","","","","","","","","","","","","","","","","","","",""
"456.2000000476837","160671","SARL_v6","SARL_v65kwx5sq0","633f4f203450d46b01e3d16b","mixAttFreqPrac","","","img/orange_2bandit_a2.png","70","img/orange_2bandit_a2.png","70","prac","","","9","","","","","","","","","","","","","","","","",""
"456.2000000476837","161028","SARL_v6","SARL_v65kwx5sq0","633f4f203450d46b01e3d16b","freqPrac_resp","","","img/orange_2bandit_a.png","70","img/orange_2bandit_a.png","70","prac","","","9","","","","","","","","","","","","","","","","",""
"null","161197","SARL_v6","SARL_v65kwx5sq0","633f4f203450d46b01e3d16b","fixation","","","img/fixation.png","null","","","prac","","","","","","","","","","","","","","","","","","","",""
"555.0999999046326","161761","SARL_v6","SARL_v65kwx5sq0","633f4f203450d46b01e3d16b","mixAttFreqPrac","","","img/orange_2bandit_a2.png","70","img/orange_2bandit_a2.png","70","prac","","","10","","","","","","","","","","","","","","","","",""
"555.0999999046326","162022","SARL_v6","SARL_v65kwx5sq0","633f4f203450d46b01e3d16b","freqPrac_resp","","","img/orange_2bandit_a.png","70","img/orange_2bandit_a.png","70","prac","","","10","","","","","","","","","","","","","","","","",""
"null","162190","SARL_v6","SARL_v65kwx5sq0","633f4f203450d46b01e3d16b","fixation","","","img/fixation.png","null","","","prac","","","","","","","","","","","","","","","","","","","",""
"496.10000014305115","162695","SARL_v6","SARL_v65kwx5sq0","633f4f203450d46b01e3d16b","mixAttInfreqPrac","","","img/blue_2bandit_a2.png","68","img/blue_2bandit_a2.png","68","prac","","","11","","","","","","","","","","","","","","","","",""
"496.10000014305115","163014","SARL_v6","SARL_v65kwx5sq0","633f4f203450d46b01e3d16b","infreqPrac_resp","","","img/blue_2bandit_a.png","68","img/orange_2bandit_a.png","68","prac","","","11","","","","","","","","","","","","","","","","",""
"null","163189","SARL_v6","SARL_v65kwx5sq0","633f4f203450d46b01e3d16b","fixation","","","img/fixation.png","null","","","prac","","","","","","","","","","","","","","","","","","","",""
"596.5999999046326","163794","SARL_v6","SARL_v65kwx5sq0","633f4f203450d46b01e3d16b","mixRLPractice","","","img/black_2bandit_a2.png","74","img/black_2bandit_a2.png","","prac","","","11","","","","","","","","","","","","","","","","",""
"null","164566","SARL_v6","SARL_v65kwx5sq0","633f4f203450d46b01e3d16b","feedback","","","<div class=""verylowPoints_sq""> -5 </div>","null","","na","prac","","","12","5","-5","5","","","","","","","","","","","","","",""
"null","164729","SARL_v6","SARL_v65kwx5sq0","633f4f203450d46b01e3d16b","fixation","","","img/fixation.png","null","","","prac","","","","","","","","","","","","","","","","","","","",""
"10575.900000095367","175313","SARL_v6","SARL_v65kwx5sq0","633f4f203450d46b01e3d16b","","","","","","","","prac","","","","","","","","","","","","","","","","","","","",""
"694.4000000953674","176019","SARL_v6","SARL_v65kwx5sq0","633f4f203450d46b01e3d16b","freq","","","img/orange_2bandit_a2.png","70","","70","test","1","","1","","","","square","circle","1","1","1","1","","","","","","","",""
"null","176141","SARL_v6","SARL_v65kwx5sq0","633f4f203450d46b01e3d16b","freq_resp","","","img/orange_2bandit_a.png","70","img/orange_2bandit_a.png","70","test","","","","","","","","","","","1","","","","","","","","",""
"null","176315","SARL_v6","SARL_v65kwx5sq0","633f4f203450d46b01e3d16b","fixation","","","img/fixation.png","null","","","test","","","","","","","","","","","","","","","","","","","",""
"492.2000000476837","176817","SARL_v6","SARL_v65kwx5sq0","633f4f203450d46b01e3d16b","freq","","","img/orange_2bandit_a2.png","70","","70","test","1","","2","","","","square","circle","2","2","1","1","","","","","","","",""
"null","177141","SARL_v6","SARL_v65kwx5sq0","633f4f203450d46b01e3d16b","freq_resp","","","img/orange_2bandit_a.png","70","img/orange_2bandit_a.png","70","test","","","","","","","","","","","1","","","","","","","","",""
"null","177304","SARL_v6","SARL_v65kwx5sq0","633f4f203450d46b01e3d16b","fixation","","","img/fixation.png","null","","","test","","","","","","","","","","","","","","","","","","","",""
"401","177716","SARL_v6","SARL_v65kwx5sq0","633f4f203450d46b01e3d16b","freq","","","img/orange_2bandit_a2.png","70","","70","test","1","","3","","","","square","circle","3","3","1","1","","","","","","","",""
"null","178137","SARL_v6","SARL_v65kwx5sq0","633f4f203450d46b01e3d16b","freq_resp","","","img/orange_2bandit_a.png","70","img/orange_2bandit_a.png","70","test","","","","","","","","","","","1","","","","","","","","",""
"null","178309","SARL_v6","SARL_v65kwx5sq0","633f4f203450d46b01e3d16b","fixation","","","img/fixation.png","null","","","test","","","","","","","","","","","","","","","","","","","",""
"474.90000009536743","178795","SARL_v6","SARL_v65kwx5sq0","633f4f203450d46b01e3d16b","infreq","","","img/blue_2bandit_a2.png","68","","68","test","1","","4","","","","square","circle","4","4","1","1","","","","","","","",""
"null","179131","SARL_v6","SARL_v65kwx5sq0","633f4f203450d46b01e3d16b","infreq_resp","","","img/blue_2bandit_a.png","68","img/blue_2bandit_a.png","68","test","","","","","","","","","","","1","","","","","","","","",""
"null","179290","SARL_v6","SARL_v65kwx5sq0","633f4f203450d46b01e3d16b","fixation","","","img/fixation.png","null","","","test","","","","","","","","","","","","","","","","","","","",""
"584.7999999523163","179886","SARL_v6","SARL_v65kwx5sq0","633f4f203450d46b01e3d16b","freq","","","img/orange_2bandit_a2.png","70","","70","test","1","","5","","","","square","circle","5","5","1","1","","","","","","","",""
"null","180118","SARL_v6","SARL_v65kwx5sq0","633f4f203450d46b01e3d16b","freq_resp","","","img/orange_2bandit_a.png","70","img/orange_2bandit_a.png","70","test","","","","","","","","","","","1","","","","","","","","",""
"null","180287","SARL_v6","SARL_v65kwx5sq0","633f4f203450d46b01e3d16b","fixation","","","img/fixation.png","null","","","test","","","","","","","","","","","","","","","","","","","",""
"410.89999985694885","180709","SARL_v6","SARL_v65kwx5sq0","633f4f203450d46b01e3d16b","freq","","","img/orange_2bandit_a2.png","70","","70","test","1","","6","","","","square","circle","6","6","1","1","","","","","","","",""
"null","181110","SARL_v6","SARL_v65kwx5sq0","633f4f203450d46b01e3d16b","freq_resp","","","img/orange_2bandit_a.png","70","img/orange_2bandit_a.png","70","test","","","","","","","","","","","1","","","","","","","","",""
"null","181273","SARL_v6","SARL_v65kwx5sq0","633f4f203450d46b01e3d16b","fixation","","","img/fixation.png","null","","","test","","","","","","","","","","","","","","","","","","","",""
"450.19999980926514","181734","SARL_v6","SARL_v65kwx5sq0","633f4f203450d46b01e3d16b","infreq","","","img/blue_2bandit_a2.png","68","","68","test","1","","7","","","","square","circle","7","7","1","1","","","","","","","",""
"null","182093","SARL_v6","SARL_v65kwx5sq0","633f4f203450d46b01e3d16b","infreq_resp","","","img/blue_2bandit_a.png","68","img/blue_2bandit_a.png","68","test","","","","","","","","","","","1","","","","","","","","",""
"null","182265","SARL_v6","SARL_v65kwx5sq0","633f4f203450d46b01e3d16b","fixation","","","img/fixation.png","null","","","test","","","","","","","","","","","","","","","","","","","",""
"502.60000014305115","182772","SARL_v6","SARL_v65kwx5sq0","633f4f203450d46b01e3d16b","freq","","","img/orange_2bandit_a2.png","70","","70","test","1","","8","","","","square","circle","8","8","1","1","","","","","","","",""
"null","183084","SARL_v6","SARL_v65kwx5sq0","633f4f203450d46b01e3d16b","freq_resp","","","img/orange_2bandit_a.png","70","img/orange_2bandit_a.png","70","test","","","","","","","","","","","1","","","","","","","","",""
"null","183259","SARL_v6","SARL_v65kwx5sq0","633f4f203450d46b01e3d16b","fixation","","","img/fixation.png","null","","","test","","","","","","","","","","","","","","","","","","","",""
"451.89999985694885","183721","SARL_v6","SARL_v65kwx5sq0","633f4f203450d46b01e3d16b","freq","","","img/orange_2bandit_a2.png","70","","70","test","1","","9","","","","square","circle","9","9","1","1","","","","","","","",""
"null","184084","SARL_v6","SARL_v65kwx5sq0","633f4f203450d46b01e3d16b","freq_resp","","","img/orange_2bandit_a.png","70","img/orange_2bandit_a.png","70","test","","","","","","","","","","","1","","","","","","","","",""
"null","184259","SARL_v6","SARL_v65kwx5sq0","633f4f203450d46b01e3d16b","fixation","","","img/fixation.png","null","","","test","","","","","","","","","","","","","","","","","","","",""
"405.40000009536743","184675","SARL_v6","SARL_v65kwx5sq0","633f4f203450d46b01e3d16b","freq","","","img/orange_2bandit_a2.png","70","","70","test","1","","10","","","","square","circle","10","10","1","1","","","","","","","",""
"null","185087","SARL_v6","SARL_v65kwx5sq0","633f4f203450d46b01e3d16b","freq_resp","","","img/orange_2bandit_a.png","70","img/orange_2bandit_a.png","70","test","","","","","","","","","","","1","","","","","","","","",""
"null","185248","SARL_v6","SARL_v65kwx5sq0","633f4f203450d46b01e3d16b","fixation","","","img/fixation.png","null","","","test","","","","","","","","","","","","","","","","","","","",""
"376.40000009536743","185635","SARL_v6","SARL_v65kwx5sq0","633f4f203450d46b01e3d16b","freq","","","img/orange_2bandit_a2.png","70","","70","test","1","","11","","","","square","circle","11","11","1","1","","","","","","","",""
"null","186068","SARL_v6","SARL_v65kwx5sq0","633f4f203450d46b01e3d16b","freq_resp","","","img/orange_2bandit_a.png","70","img/orange_2bandit_a.png","70","test","","","","","","","","","","","1","","","","","","","","",""
"null","186232","SARL_v6","SARL_v65kwx5sq0","633f4f203450d46b01e3d16b","fixation","","","img/fixation.png","null","","","test","","","","","","","","","","","","","","","","","","","",""
"431.69999980926514","186674","SARL_v6","SARL_v65kwx5sq0","633f4f203450d46b01e3d16b","freq","","","img/orange_2bandit_a2.png","70","","70","test","1","","12","","","","square","circle","12","12","1","1","","","","","","","",""
"null","187053","SARL_v6","SARL_v65kwx5sq0","633f4f203450d46b01e3d16b","freq_resp","","","img/orange_2bandit_a.png","70","img/orange_2bandit_a.png","70","test","","","","","","","","","","","1","","","","","","","","",""
"null","187224","SARL_v6","SARL_v65kwx5sq0","633f4f203450d46b01e3d16b","fixation","","","img/fixation.png","null","","","test","","","","","","","","","","","","","","","","","","","",""
"383.7000000476837","187618","SARL_v6","SARL_v65kwx5sq0","633f4f203450d46b01e3d16b","freq","","","img/orange_2bandit_a2.png","70","","70","test","1","","13","","","","square","circle","13","13","1","1","","","","","","","",""
"null","188051","SARL_v6","SARL_v65kwx5sq0","633f4f203450d46b01e3d16b","freq_resp","","","img/orange_2bandit_a.png","70","img/orange_2bandit_a.png","70","test","","","","","","","","","","","1","","","","","","","","",""
"null","188227","SARL_v6","SARL_v65kwx5sq0","633f4f203450d46b01e3d16b","fixation","","","img/fixation.png","null","","","test","","","","","","","","","","","","","","","","","","","",""
"355.40000009536743","188593","SARL_v6","SARL_v65kwx5sq0","633f4f203450d46b01e3d16b","freq","","","img/orange_2bandit_a2.png","70","","70","test","1","","14","","","","square","circle","14","14","1","1","","","","","","","",""
"null","189048","SARL_v6","SARL_v65kwx5sq0","633f4f203450d46b01e3d16b","freq_resp","","","img/orange_2bandit_a.png","70","img/orange_2bandit_a.png","70","test","","","","","","","","","","","1","","","","","","","","",""
"null","189215","SARL_v6","SARL_v65kwx5sq0","633f4f203450d46b01e3d16b","fixation","","","img/fixation.png","null","","","test","","","","","","","","","","","","","","","","","","","",""
"356.59999990463257","189582","SARL_v6","SARL_v65kwx5sq0","633f4f203450d46b01e3d16b","freq","","","img/orange_2bandit_a2.png","70","","70","test","1","","15","","","","square","circle","15","15","1","1","","","","","","","",""
"null","190035","SARL_v6","SARL_v65kwx5sq0","633f4f203450d46b01e3d16b","freq_resp","","","img/orange_2bandit_a.png","70","img/orange_2bandit_a.png","70","test","","","","","","","","","","","1","","","","","","","","",""
"null","190198","SARL_v6","SARL_v65kwx5sq0","633f4f203450d46b01e3d16b","fixation","","","img/fixation.png","null","","","test","","","","","","","","","","","","","","","","","","","",""
"407.2999999523163","190614","SARL_v6","SARL_v65kwx5sq0","633f4f203450d46b01e3d16b","infreq","","","img/blue_2bandit_a2.png","68","","68","test","1","","16","","","","square","circle","16","16","1","1","","","","","","","",""
"null","191015","SARL_v6","SARL_v65kwx5sq0","633f4f203450d46b01e3d16b","infreq_resp","","","img/blue_2bandit_a.png","68","img/blue_2bandit_a.png","68","test","","","","","","","","","","","1","","","","","","","","",""
"null","191179","SARL_v6","SARL_v65kwx5sq0","633f4f203450d46b01e3d16b","fixation","","","img/fixation.png","null","","","test","","","","","","","","","","","","","","","","","","","",""
"471.09999990463257","191661","SARL_v6","SARL_v65kwx5sq0","633f4f203450d46b01e3d16b","freq","","","img/orange_2bandit_a2.png","70","","70","test","1","","17","","","","square","circle","17","17","1","1","","","","","","","",""
"null","192011","SARL_v6","SARL_v65kwx5sq0","633f4f203450d46b01e3d16b","freq_resp","","","img/orange_2bandit_a.png","70","img/orange_2bandit_a.png","70","test","","","","","","","","","","","1","","","","","","","","",""
"null","192177","SARL_v6","SARL_v65kwx5sq0","633f4f203450d46b01e3d16b","fixation","","","img/fixation.png","null","","","test","","","","","","","","","","","","","","","","","","","",""
"363.2000000476837","192550","SARL_v6","SARL_v65kwx5sq0","633f4f203450d46b01e3d16b","freq","","","img/orange_2bandit_a2.png","70","","70","test","1","","18","","","","square","circle","18","18","1","1","","","","","","","",""
"null","193010","SARL_v6","SARL_v65kwx5sq0","633f4f203450d46b01e3d16b","freq_resp","","","img/orange_2bandit_a.png","70","img/orange_2bandit_a.png","70","test","","","","","","","","","","","1","","","","","","","","",""
"null","193182","SARL_v6","SARL_v65kwx5sq0","633f4f203450d46b01e3d16b","fixation","","","img/fixation.png","null","","","test","","","","","","","","","","","","","","","","","","","",""
"316.39999985694885","193509","SARL_v6","SARL_v65kwx5sq0","633f4f203450d46b01e3d16b","freq","","","img/orange_2bandit_a2.png","70","","70","test","1","","19","","","","square","circle","19","19","1","1","","","","","","","",""
"null","194003","SARL_v6","SARL_v65kwx5sq0","633f4f203450d46b01e3d16b","freq_resp","","","img/orange_2bandit_a.png","70","img/orange_2bandit_a.png","70","test","","","","","","","","","","","1","","","","","","","","",""
"null","194161","SARL_v6","SARL_v65kwx5sq0","633f4f203450d46b01e3d16b","fixation","","","img/fixation.png","null","","","test","","","","","","","","","","","","","","","","","","","",""
"321.09999990463257","194493","SARL_v6","SARL_v65kwx5sq0","633f4f203450d46b01e3d16b","freq","","","img/orange_2bandit_a2.png","70","","70","test","1","","20","","","","square","circle","20","20","1","1","","","","","","","",""
"null","194988","SARL_v6","SARL_v65kwx5sq0","633f4f203450d46b01e3d16b","freq_resp","","","img/orange_2bandit_a.png","70","img/orange_2bandit_a.png","70","test","","","","","","","","","","","1","","","","","","","","",""
"null","195158","SARL_v6","SARL_v65kwx5sq0","633f4f203450d46b01e3d16b","fixation","","","img/fixation.png","null","","","test","","","","","","","","","","","","","","","","","","","",""
"518.6000001430511","195688","SARL_v6","SARL_v65kwx5sq0","633f4f203450d46b01e3d16b","rl","","","img/black_2bandit_a2.png","74","","0","test","","","21","","","-3","square","circle","","0","1","","74","-3","-3","-3","-3","square","1","0"
"null","196455","SARL_v6","SARL_v65kwx5sq0","633f4f203450d46b01e3d16b","feedback","","","<div class=""verylowPoints_sq""> -3 </div>","null","","na","test","","","NaN","","","","","","","","1","","74","","","","","","1",""
"768.5999999046326","197235","SARL_v6","SARL_v65kwx5sq0","633f4f203450d46b01e3d16b","freq","","","img/orange_2bandit_a2.png","70","","70","test","1","","22","","","","square","circle","21","1","2","1","","","","","","","",""
"null","197279","SARL_v6","SARL_v65kwx5sq0","633f4f203450d46b01e3d16b","freq_resp","","","img/orange_2bandit_a.png","70","img/orange_2bandit_a.png","70","test","","","","","","","","","","","2","","","","","","","","",""
"null","197438","SARL_v6","SARL_v65kwx5sq0","633f4f203450d46b01e3d16b","fixation","","","img/fixation.png","null","","","test","","","","","","","","","","","","","","","","","","","",""
"509.5","197959","SARL_v6","SARL_v65kwx5sq0","633f4f203450d46b01e3d16b","freq","","","img/orange_2bandit_a2.png","70","","70","test","1","","23","","","","square","circle","22","2","2","1","","","","","","","",""
"null","198274","SARL_v6","SARL_v65kwx5sq0","633f4f203450d46b01e3d16b","freq_resp","","","img/orange_2bandit_a.png","70","img/orange_2bandit_a.png","70","test","","","","","","","","","","","2","","","","","","","","",""
"null","198433","SARL_v6","SARL_v65kwx5sq0","633f4f203450d46b01e3d16b","fixation","","","img/fixation.png","null","","","test","","","","","","","","","","","","","","","","","","","",""
"474.2999999523163","198917","SARL_v6","SARL_v65kwx5sq0","633f4f203450d46b01e3d16b","freq","","","img/orange_2bandit_a2.png","70","","70","test","1","","24","","","","square","circle","23","3","2","1","","","","","","","",""
"null","199261","SARL_v6","SARL_v65kwx5sq0","633f4f203450d46b01e3d16b","freq_resp","","","img/orange_2bandit_a.png","70","img/orange_2bandit_a.png","70","test","","","","","","","","","","","2","","","","","","","","",""
"null","199434","SARL_v6","SARL_v65kwx5sq0","633f4f203450d46b01e3d16b","fixation","","","img/fixation.png","null","","","test","","","","","","","","","","","","","","","","","","","",""
"472.59999990463257","199917","SARL_v6","SARL_v65kwx5sq0","633f4f203450d46b01e3d16b","freq","","","img/orange_2bandit_a2.png","70","","70","test","1","","25","","","","square","circle","24","4","2","1","","","","","","","",""
"null","200261","SARL_v6","SARL_v65kwx5sq0","633f4f203450d46b01e3d16b","freq_resp","","","img/orange_2bandit_a.png","70","img/orange_2bandit_a.png","70","test","","","","","","","","","","","2","","","","","","","","",""
"null","200433","SARL_v6","SARL_v65kwx5sq0","633f4f203450d46b01e3d16b","fixation","","","img/fixation.png","null","","","test","","","","","","","","","","","","","","","","","","","",""
"402.5","200846","SARL_v6","SARL_v65kwx5sq0","633f4f203450d46b01e3d16b","freq","","","img/orange_2bandit_a2.png","70","","70","test","1","","26","","","","square","circle","25","5","2","1","","","","","","","",""
"null","201259","SARL_v6","SARL_v65kwx5sq0","633f4f203450d46b01e3d16b","freq_resp","","","img/orange_2bandit_a.png","70","img/orange_2bandit_a.png","70","test","","","","","","","","","","","2","","","","","","","","",""
"null","201424","SARL_v6","SARL_v65kwx5sq0","633f4f203450d46b01e3d16b","fixation","","","img/fixation.png","null","","","test","","","","","","","","","","","","","","","","","","","",""
"410.7999999523163","201845","SARL_v6","SARL_v65kwx5sq0","633f4f203450d46b01e3d16b","freq","","","img/orange_2bandit_a2.png","70","","70","test","1","","27","","","","square","circle","26","6","2","1","","","","","","","",""
"null","202251","SARL_v6","SARL_v65kwx5sq0","633f4f203450d46b01e3d16b","freq_resp","","","img/orange_2bandit_a.png","70","img/orange_2bandit_a.png","70","test","","","","","","","","","","","2","","","","","","","","",""
"null","202411","SARL_v6","SARL_v65kwx5sq0","633f4f203450d46b01e3d16b","fixation","","","img/fixation.png","null","","","test","","","","","","","","","","","","","","","","","","","",""
"367.2999999523163","202790","SARL_v6","SARL_v65kwx5sq0","633f4f203450d46b01e3d16b","freq","","","img/orange_2bandit_a2.png","70","","70","test","1","","28","","","","square","circle","27","7","2","1","","","","","","","",""
"null","203243","SARL_v6","SARL_v65kwx5sq0","633f4f203450d46b01e3d16b","freq_resp","","","img/orange_2bandit_a.png","70","img/orange_2bandit_a.png","70","test","","","","","","","","","","","2","","","","","","","","",""
"null","203402","SARL_v6","SARL_v65kwx5sq0","633f4f203450d46b01e3d16b","fixation","","","img/fixation.png","null","","","test","","","","","","","","","","","","","","","","","","","",""
"355.5","203768","SARL_v6","SARL_v65kwx5sq0","633f4f203450d46b01e3d16b","freq","","","img/orange_2bandit_a2.png","70","","70","test","1","","29","","","","square","circle","28","8","2","1","","","","","","","",""
"null","204238","SARL_v6","SARL_v65kwx5sq0","633f4f203450d46b01e3d16b","freq_resp","","","img/orange_2bandit_a.png","70","img/orange_2bandit_a.png","70","test","","","","","","","","","","","2","","","","","","","","",""
"null","204405","SARL_v6","SARL_v65kwx5sq0","633f4f203450d46b01e3d16b","fixation","","","img/fixation.png","null","","","test","","","","","","","","","","","","","","","","","","","",""
"332","204748","SARL_v6","SARL_v65kwx5sq0","633f4f203450d46b01e3d16b","freq","","","img/orange_2bandit_a2.png","70","","70","test","1","","30","","","","square","circle","29","9","2","1","","","","","","","",""
"null","205231","SARL_v6","SARL_v65kwx5sq0","633f4f203450d46b01e3d16b","freq_resp","","","img/orange_2bandit_a.png","70","img/orange_2bandit_a.png","70","test","","","","","","","","","","","2","","","","","","","","",""
"null","205391","SARL_v6","SARL_v65kwx5sq0","633f4f203450d46b01e3d16b","fixation","","","img/fixation.png","null","","","test","","","","","","","","","","","","","","","","","","","",""
"296.2999999523163","205697","SARL_v6","SARL_v65kwx5sq0","633f4f203450d46b01e3d16b","freq","","","img/orange_2bandit_a2.png","70","","70","test","1","","31","","","","square","circle","30","10","2","1","","","","","","","",""
"null","206226","SARL_v6","SARL_v65kwx5sq0","633f4f203450d46b01e3d16b","freq_resp","","","img/orange_2bandit_a.png","70","img/orange_2bandit_a.png","70","test","","","","","","","","","","","2","","","","","","","","",""
"null","206400","SARL_v6","SARL_v65kwx5sq0","633f4f203450d46b01e3d16b","fixation","","","img/fixation.png","null","","","test","","","","","","","","","","","","","","","","","","","",""
"325.59999990463257","206736","SARL_v6","SARL_v65kwx5sq0","633f4f203450d46b01e3d16b","freq","","","img/orange_2bandit_a2.png","70","","70","test","1","","32","","","","square","circle","31","11","2","1","","","","","","","",""
"null","207226","SARL_v6","SARL_v65kwx5sq0","633f4f203450d46b01e3d16b","freq_resp","","","img/orange_2bandit_a.png","70","img/orange_2bandit_a.png","70","test","","","","","","","","","","","2","","","","","","","","",""
"null","207390","SARL_v6","SARL_v65kwx5sq0","633f4f203450d46b01e3d16b","fixation","","","img/fixation.png","null","","","test","","","","","","","","","","","","","","","","","","","",""
"340.2999999523163","207742","SARL_v6","SARL_v65kwx5sq0","633f4f203450d46b01e3d16b","freq","","","img/orange_2bandit_a2.png","70","","70","test","1","","33","","","","square","circle","32","12","2","1","","","","","","","",""
"null","208226","SARL_v6","SARL_v65kwx5sq0","633f4f203450d46b01e3d16b","freq_resp","","","img/orange_2bandit_a.png","70","img/orange_2bandit_a.png","70","test","","","","","","","","","","","2","","","","","","","","",""
"null","208397","SARL_v6","SARL_v65kwx5sq0","633f4f203450d46b01e3d16b","fixation","","","img/fixation.png","null","","","test","","","","","","","","","","","","","","","","","","","",""
"313.7000000476837","208721","SARL_v6","SARL_v65kwx5sq0","633f4f203450d46b01e3d16b","freq","","","img/orange_2bandit_a2.png","70","","70","test","1","","34","","","","square","circle","33","13","2","1","","","","","","","",""
"null","209217","SARL_v6","SARL_v65kwx5sq0","633f4f203450d46b01e3d16b","freq_resp","","","img/orange_2bandit_a.png","70","img/orange_2bandit_a.png","70","test","","","","","","","","","","","2","","","","","","","","",""
"null","209381","SARL_v6","SARL_v65kwx5sq0","633f4f203450d46b01e3d16b","fixation","","","img/fixation.png","null","","","test","","","","","","","","","","","","","","","","","","","",""
"294","209685","SARL_v6","SARL_v65kwx5sq0","633f4f203450d46b01e3d16b","freq","","","img/orange_2bandit_a2.png","70","","70","test","1","","35","","","","square","circle","34","14","2","1","","","","","","","",""
"null","210216","SARL_v6","SARL_v65kwx5sq0","633f4f203450d46b01e3d16b","freq_resp","","","img/orange_2bandit_a.png","70","img/orange_2bandit_a.png","70","test","","","","","","","","","","","2","","","","","","","","",""
"null","210376","SARL_v6","SARL_v65kwx5sq0","633f4f203450d46b01e3d16b","fixation","","","img/fixation.png","null","","","test","","","","","","","","","","","","","","","","","","","",""
"303.7000000476837","210690","SARL_v6","SARL_v65kwx5sq0","633f4f203450d46b01e3d16b","freq","","","img/orange_2bandit_a2.png","70","","70","test","1","","36","","","","square","circle","35","15","2","1","","","","","","","",""
"null","211200","SARL_v6","SARL_v65kwx5sq0","633f4f203450d46b01e3d16b","freq_resp","","","img/orange_2bandit_a.png","70","img/orange_2bandit_a.png","70","test","","","","","","","","","","","2","","","","","","","","",""
"null","211375","SARL_v6","SARL_v65kwx5sq0","633f4f203450d46b01e3d16b","fixation","","","img/fixation.png","null","","","test","","","","","","","","","","","","","","","","","","","",""
"308.40000009536743","211695","SARL_v6","SARL_v65kwx5sq0","633f4f203450d46b01e3d16b","freq","","","img/orange_2bandit_a2.png","70","","70","test","1","","37","","","","square","circle","36","16","2","1","","","","","","","",""
"null","212210","SARL_v6","SARL_v65kwx5sq0","633f4f203450d46b01e3d16b","freq_resp","","","img/orange_2bandit_a.png","70","img/orange_2bandit_a.png","70","test","","","","","","","","","","","2","","","","","","","","",""
"null","212375","SARL_v6","SARL_v65kwx5sq0","633f4f203450d46b01e3d16b","fixation","","","img/fixation.png","null","","","test","","","","","","","","","","","","","","","","","","","",""
"439.2999999523163","212825","SARL_v6","SARL_v65kwx5sq0","633f4f203450d46b01e3d16b","infreq","","","img/blue_2bandit_a2.png","68","","68","test","1","","38","","","","square","circle","37","17","2","1","","","","","","","",""
"null","213200","SARL_v6","SARL_v65kwx5sq0","633f4f203450d46b01e3d16b","infreq_resp","","","img/blue_2bandit_a.png","68","img/blue_2bandit_a.png","68","test","","","","","","","","","","","2","","","","","","","","",""
"null","213367","SARL_v6","SARL_v65kwx5sq0","633f4f203450d46b01e3d16b","fixation","","","img/fixation.png","null","","","test","","","","","","","","","","","","","","","","","","","",""
"440.5","213818","SARL_v6","SARL_v65kwx5sq0","633f4f203450d46b01e3d16b","freq","","","img/orange_2bandit_a2.png","70","","70","test","1","","39","","","","square","circle","38","18","2","1","","","","","","","",""
"null","214191","SARL_v6","SARL_v65kwx5sq0","633f4f203450d46b01e3d16b","freq_resp","","","img/orange_2bandit_a.png","70","img/orange_2bandit_a.png","70","test","","","","","","","","","","","2","","","","","","","","",""
"null","214356","SARL_v6","SARL_v65kwx5sq0","633f4f203450d46b01e3d16b","fixation","","","img/fixation.png","null","","","test","","","","","","","","","","","","","","","","","","","",""
"374.7000000476837","214742","SARL_v6","SARL_v65kwx5sq0","633f4f203450d46b01e3d16b","freq","","","img/orange_2bandit_a2.png","70","","70","test","1","","40","","","","square","circle","39","19","2","1","","","","","","","",""
"null","215178","SARL_v6","SARL_v65kwx5sq0","633f4f203450d46b01e3d16b","freq_resp","","","img/orange_2bandit_a.png","70","img/orange_2bandit_a.png","70","test","","","","","","","","","","","2","","","","","","","","",""
"null","215351","SARL_v6","SARL_v65kwx5sq0","633f4f203450d46b01e3d16b","fixation","","","img/fixation.png","null","","","test","","","","","","","","","","","","","","","","","","","",""
"376.89999985694885","215739","SARL_v6","SARL_v65kwx5sq0","633f4f203450d46b01e3d16b","freq","","","img/orange_2bandit_a2.png","70","","70","test","1","","41","","","","square","circle","40","20","2","1","","","","","","","",""
"null","216180","SARL_v6","SARL_v65kwx5sq0","633f4f203450d46b01e3d16b","freq_resp","","","img/orange_2bandit_a.png","70","img/orange_2bandit_a.png","70","test","","","","","","","","","","","2","","","","","","","","",""
"null","216355","SARL_v6","SARL_v65kwx5sq0","633f4f203450d46b01e3d16b","fixation","","","img/fixation.png","null","","","test","","","","","","","","","","","","","","","","","","","",""
"290.39999985694885","216656","SARL_v6","SARL_v65kwx5sq0","633f4f203450d46b01e3d16b","freq","","","img/orange_2bandit_a2.png","70","","70","test","1","","42","","","","square","circle","41","21","2","1","","","","","","","",""
"null","217187","SARL_v6","SARL_v65kwx5sq0","633f4f203450d46b01e3d16b","freq_resp","","","img/orange_2bandit_a.png","70","img/orange_2bandit_a.png","70","test","","","","","","","","","","","2","","","","","","","","",""
"null","217358","SARL_v6","SARL_v65kwx5sq0","633f4f203450d46b01e3d16b","fixation","","","img/fixation.png","null","","","test","","","","","","","","","","","","","","","","","","","",""
"270.7999999523163","217640","SARL_v6","SARL_v65kwx5sq0","633f4f203450d46b01e3d16b","freq","","","img/orange_2bandit_a2.png","70","","70","test","1","","43","","","","square","circle","42","22","2","1","","","","","","","",""
"null","218184","SARL_v6","SARL_v65kwx5sq0","633f4f203450d46b01e3d16b","freq_resp","","","img/orange_2bandit_a.png","70","img/orange_2bandit_a.png","70","test","","","","","","","","","","","2","","","","","","","","",""
"null","218355","SARL_v6","SARL_v65kwx5sq0","633f4f203450d46b01e3d16b","fixation","","","img/fixation.png","null","","","test","","","","","","","","","","","","","","","","","","","",""
"278.19999980926514","218644","SARL_v6","SARL_v65kwx5sq0","633f4f203450d46b01e3d16b","freq","","","img/orange_2bandit_a2.png","70","","70","test","1","","44","","","","square","circle","43","23","2","1","","","","","","","",""
"null","219176","SARL_v6","SARL_v65kwx5sq0","633f4f203450d46b01e3d16b","freq_resp","","","img/orange_2bandit_a.png","70","img/orange_2bandit_a.png","70","test","","","","","","","","","","","2","","","","","","","","",""
"null","219335","SARL_v6","SARL_v65kwx5sq0","633f4f203450d46b01e3d16b","fixation","","","img/fixation.png","null","","","test","","","","","","","","","","","","","","","","","","","",""
"288","219633","SARL_v6","SARL_v65kwx5sq0","633f4f203450d46b01e3d16b","freq","","","img/orange_2bandit_a2.png","70","","70","test","1","","45","","","","square","circle","44","24","2","1","","","","","","","",""
"null","220167","SARL_v6","SARL_v65kwx5sq0","633f4f203450d46b01e3d16b","freq_resp","","","img/orange_2bandit_a.png","70","img/orange_2bandit_a.png","70","test","","","","","","","","","","","2","","","","","","","","",""
"null","220333","SARL_v6","SARL_v65kwx5sq0","633f4f203450d46b01e3d16b","fixation","","","img/fixation.png","null","","","test","","","","","","","","","","","","","","","","","","","",""
"283.80000019073486","220628","SARL_v6","SARL_v65kwx5sq0","633f4f203450d46b01e3d16b","infreq","","","img/blue_2bandit_a2.png","70","","68","test","0","","46","","","","square","circle","45","25","2","0.9777777777777777","","","","","","","",""
"null","221159","SARL_v6","SARL_v65kwx5sq0","633f4f203450d46b01e3d16b","infreq_resp","","","img/blue_2bandit_a.png","70","img/blue_2bandit_a.png","68","test","","","","","","","","","","","2","","","","","","","","",""
"null","221327","SARL_v6","SARL_v65kwx5sq0","633f4f203450d46b01e3d16b","fixation","","","img/fixation.png","null","","","test","","","","","","","","","","","","","","","","","","","",""
"445.39999985694885","221783","SARL_v6","SARL_v65kwx5sq0","633f4f203450d46b01e3d16b","freq","","","img/orange_2bandit_a2.png","70","","70","test","1","","47","","","","square","circle","46","26","2","0.9782608695652174","","","","","","","",""
"null","222157","SARL_v6","SARL_v65kwx5sq0","633f4f203450d46b01e3d16b","freq_resp","","","img/orange_2bandit_a.png","70","img/orange_2bandit_a.png","70","test","","","","","","","","","","","2","","","","","","","","",""
"null","222322","SARL_v6","SARL_v65kwx5sq0","633f4f203450d46b01e3d16b","fixation","","","img/fixation.png","null","","","test","","","","","","","","","","","","","","","","","","","",""
"764.8999998569489","223099","SARL_v6","SARL_v65kwx5sq0","633f4f203450d46b01e3d16b","rl","","","img/black_2bandit_a2.png","75","","0","test","","","48","","","-8","square","circle","","0","2","","75","-8","-5","-5","-8","circle","2","0"
"null","223866","SARL_v6","SARL_v65kwx5sq0","633f4f203450d46b01e3d16b","feedback","","","<div class=""verylowPoints""> -8 </div>","null","","na","test","","","NaN","","","","","","","","2","","75","","","","","","2",""
"552.8999998569489","224429","SARL_v6","SARL_v65kwx5sq0","633f4f203450d46b01e3d16b","freq","","","img/orange_2bandit_a2.png","70","","70","test","1","","49","","","","square","circle","47","1","3","0.9787234042553191","","","","","","","",""
"null","224695","SARL_v6","SARL_v65kwx5sq0","633f4f203450d46b01e3d16b","freq_resp","","","img/orange_2bandit_a.png","70","img/orange_2bandit_a.png","70","test","","","","","","","","","","","3","","","","","","","","",""
"null","224857","SARL_v6","SARL_v65kwx5sq0","633f4f203450d46b01e3d16b","fixation","","","img/fixation.png","null","","","test","","","","","","","","","","","","","","","","","","","",""
"375.5","225243","SARL_v6","SARL_v65kwx5sq0","633f4f203450d46b01e3d16b","freq","","","img/orange_2bandit_a2.png","70","","70","test","1","","50","","","","square","circle","48","2","3","0.9791666666666666","","","","","","","",""
"null","225680","SARL_v6","SARL_v65kwx5sq0","633f4f203450d46b01e3d16b","freq_resp","","","img/orange_2bandit_a.png","70","img/orange_2bandit_a.png","70","test","","","","","","","","","","","3","","","","","","","","",""
"null","225840","SARL_v6","SARL_v65kwx5sq0","633f4f203450d46b01e3d16b","fixation","","","img/fixation.png","null","","","test","","","","","","","","","","","","","","","","","","","",""
"311.7000000476837","226162","SARL_v6","SARL_v65kwx5sq0","633f4f203450d46b01e3d16b","freq","","","img/orange_2bandit_a2.png","70","","70","test","1","","51","","","","square","circle","49","3","3","0.9795918367346939","","","","","","","",""
"null","226661","SARL_v6","SARL_v65kwx5sq0","633f4f203450d46b01e3d16b","freq_resp","","","img/orange_2bandit_a.png","70","img/orange_2bandit_a.png","70","test","","","","","","","","","","","3","","","","","","","","",""
"null","226832","SARL_v6","SARL_v65kwx5sq0","633f4f203450d46b01e3d16b","fixation","","","img/fixation.png","null","","","test","","","","","","","","","","","","","","","","","","","",""
"315","227157","SARL_v6","SARL_v65kwx5sq0","633f4f203450d46b01e3d16b","freq","","","img/orange_2bandit_a2.png","70","","70","test","1","","52","","","","square","circle","50","4","3","0.98","","","","","","","",""
"null","227654","SARL_v6","SARL_v65kwx5sq0","633f4f203450d46b01e3d16b","freq_resp","","","img/orange_2bandit_a.png","70","img/orange_2bandit_a.png","70","test","","","","","","","","","","","3","","","","","","","","",""
"null","227813","SARL_v6","SARL_v65kwx5sq0","633f4f203450d46b01e3d16b","fixation","","","img/fixation.png","null","","","test","","","","","","","","","","","","","","","","","","","",""
"307.7000000476837","228131","SARL_v6","SARL_v65kwx5sq0","633f4f203450d46b01e3d16b","freq","","","img/orange_2bandit_a2.png","70","","70","test","1","","53","","","","square","circle","51","5","3","0.9803921568627451","","","","","","","",""
"null","228647","SARL_v6","SARL_v65kwx5sq0","633f4f203450d46b01e3d16b","freq_resp","","","img/orange_2bandit_a.png","70","img/orange_2bandit_a.png","70","test","","","","","","","","","","","3","","","","","","","","",""
"null","228808","SARL_v6","SARL_v65kwx5sq0","633f4f203450d46b01e3d16b","fixation","","","img/fixation.png","null","","","test","","","","","","","","","","","","","","","","","","","",""
"302.09999990463257","229120","SARL_v6","SARL_v65kwx5sq0","633f4f203450d46b01e3d16b","freq","","","img/orange_2bandit_a2.png","70","","70","test","1","","54","","","","square","circle","52","6","3","0.9807692307692307","","","","","","","",""
"null","229640","SARL_v6","SARL_v65kwx5sq0","633f4f203450d46b01e3d16b","freq_resp","","","img/orange_2bandit_a.png","70","img/orange_2bandit_a.png","70","test","","","","","","","","","","","3","","","","","","","","",""
"null","229806","SARL_v6","SARL_v65kwx5sq0","633f4f203450d46b01e3d16b","fixation","","","img/fixation.png","null","","","test","","","","","","","","","","","","","","","","","","","",""
"288","230105","SARL_v6","SARL_v65kwx5sq0","633f4f203450d46b01e3d16b","freq","","","img/orange_2bandit_a2.png","70","","70","test","1","","55","","","","square","circle","53","7","3","0.9811320754716981","","","","","","","",""
"null","230630","SARL_v6","SARL_v65kwx5sq0","633f4f203450d46b01e3d16b","freq_resp","","","img/orange_2bandit_a.png","70","img/orange_2bandit_a.png","70","test","","","","","","","","","","","3","","","","","","","","",""
"null","230791","SARL_v6","SARL_v65kwx5sq0","633f4f203450d46b01e3d16b","fixation","","","img/fixation.png","null","","","test","","","","","","","","","","","","","","","","","","","",""
"448.2000000476837","231250","SARL_v6","SARL_v65kwx5sq0","633f4f203450d46b01e3d16b","infreq","","","img/blue_2bandit_a2.png","68","","68","test","1","","56","","","","square","circle","54","8","3","0.9814814814814815","","","","","","","",""
"null","231620","SARL_v6","SARL_v65kwx5sq0","633f4f203450d46b01e3d16b","infreq_resp","","","img/blue_2bandit_a.png","68","img/blue_2bandit_a.png","68","test","","","","","","","","","","","3","","","","","","","","",""
"null","231793","SARL_v6","SARL_v65kwx5sq0","633f4f203450d46b01e3d16b","fixation","","","img/fixation.png","null","","","test","","","","","","","","","","","","","","","","","","","",""
"420.2000000476837","232224","SARL_v6","SARL_v65kwx5sq0","633f4f203450d46b01e3d16b","freq","","","img/orange_2bandit_a2.png","70","","70","test","1","","57","","","","square","circle","55","9","3","0.9818181818181818","","","","","","","",""
"null","232613","SARL_v6","SARL_v65kwx5sq0","633f4f203450d46b01e3d16b","freq_resp","","","img/orange_2bandit_a.png","70","img/orange_2bandit_a.png","70","test","","","","","","","","","","","3","","","","","","","","",""
"null","232774","SARL_v6","SARL_v65kwx5sq0","633f4f203450d46b01e3d16b","fixation","","","img/fixation.png","null","","","test","","","","","","","","","","","","","","","","","","","",""
"334.30000019073486","233118","SARL_v6","SARL_v65kwx5sq0","633f4f203450d46b01e3d16b","freq","","","img/orange_2bandit_a2.png","70","","70","test","1","","58","","","","square","circle","56","10","3","0.9821428571428571","","","","","","","",""
"null","233606","SARL_v6","SARL_v65kwx5sq0","633f4f203450d46b01e3d16b","freq_resp","","","img/orange_2bandit_a.png","70","img/orange_2bandit_a.png","70","test","","","","","","","","","","","3","","","","","","","","",""
"null","233779","SARL_v6","SARL_v65kwx5sq0","633f4f203450d46b01e3d16b","fixation","","","img/fixation.png","null","","","test","","","","","","","","","","","","","","","","","","","",""
"318.59999990463257","234108","SARL_v6","SARL_v65kwx5sq0","633f4f203450d46b01e3d16b","freq","","","img/orange_2bandit_a2.png","70","","70","test","1","","59","","","","square","circle","57","11","3","0.9824561403508771","","","","","","","",""
"null","234609","SARL_v6","SARL_v65kwx5sq0","633f4f203450d46b01e3d16b","freq_resp","","","img/orange_2bandit_a.png","70","img/orange_2bandit_a.png","70","test","","","","","","","","","","","3","","","","","","","","",""
"null","234784","SARL_v6","SARL_v65kwx5sq0","633f4f203450d46b01e3d16b","fixation","","","img/fixation.png","null","","","test","","","","","","","","","","","","","","","","","","","",""
"332.90000009536743","235127","SARL_v6","SARL_v65kwx5sq0","633f4f203450d46b01e3d16b","freq","","","img/orange_2bandit_a2.png","70","","70","test","1","","60","","","","square","circle","58","12","3","0.9827586206896551","","","","","","","",""
"null","235605","SARL_v6","SARL_v65kwx5sq0","633f4f203450d46b01e3d16b","freq_resp","","","img/orange_2bandit_a.png","70","img/orange_2bandit_a.png","70","test","","","","","","","","","","","3","","","","","","","","",""
"null","235766","SARL_v6","SARL_v65kwx5sq0","633f4f203450d46b01e3d16b","fixation","","","img/fixation.png","null","","","test","","","","","","","","","","","","","","","","","","","",""
"310.2999999523163","236086","SARL_v6","SARL_v65kwx5sq0","633f4f203450d46b01e3d16b","freq","","","img/orange_2bandit_a2.png","70","","70","test","1","","61","","","","square","circle","59","13","3","0.9830508474576272","","","","","","","",""
"null","236598","SARL_v6","SARL_v65kwx5sq0","633f4f203450d46b01e3d16b","freq_resp","","","img/orange_2bandit_a.png","70","img/orange_2bandit_a.png","70","test","","","","","","","","","","","3","","","","","","","","",""
"null","236759","SARL_v6","SARL_v65kwx5sq0","633f4f203450d46b01e3d16b","fixation","","","img/fixation.png","null","","","test","","","","","","","","","","","","","","","","","","","",""
"311.5","237081","SARL_v6","SARL_v65kwx5sq0","633f4f203450d46b01e3d16b","freq","","","img/orange_2bandit_a2.png","70","","70","test","1","","62","","","","square","circle","60","14","3","0.9833333333333333","","","","","","","",""
"null","237582","SARL_v6","SARL_v65kwx5sq0","633f4f203450d46b01e3d16b","freq_resp","","","img/orange_2bandit_a.png","70","img/orange_2bandit_a.png","70","test","","","","","","","","","","","3","","","","","","","","",""
"null","237757","SARL_v6","SARL_v65kwx5sq0","633f4f203450d46b01e3d16b","fixation","","","img/fixation.png","null","","","test","","","","","","","","","","","","","","","","","","","",""
"292.60000014305115","238060","SARL_v6","SARL_v65kwx5sq0","633f4f203450d46b01e3d16b","freq","","","img/orange_2bandit_a2.png","70","","70","test","1","","63","","","","square","circle","61","15","3","0.9836065573770492","","","","","","","",""
"null","238581","SARL_v6","SARL_v65kwx5sq0","633f4f203450d46b01e3d16b","freq_resp","","","img/orange_2bandit_a.png","70","img/orange_2bandit_a.png","70","test","","","","","","","","","","","3","","","","","","","","",""
"null","238741","SARL_v6","SARL_v65kwx5sq0","633f4f203450d46b01e3d16b","fixation","","","img/fixation.png","null","","","test","","","","","","","","","","","","","","","","","","","",""
"288.2000000476837","239040","SARL_v6","SARL_v65kwx5sq0","633f4f203450d46b01e3d16b","freq","","","img/orange_2bandit_a2.png","70","","70","test","1","","64","","","","square","circle","62","16","3","0.9838709677419355","","","","","","","",""
"null","239565","SARL_v6","SARL_v65kwx5sq0","633f4f203450d46b01e3d16b","freq_resp","","","img/orange_2bandit_a.png","70","img/orange_2bandit_a.png","70","test","","","","","","","","","","","3","","","","","","","","",""
"null","239725","SARL_v6","SARL_v65kwx5sq0","633f4f203450d46b01e3d16b","fixation","","","img/fixation.png","null","","","test","","","","","","","","","","","","","","","","","","","",""
"308.80000019073486","240044","SARL_v6","SARL_v65kwx5sq0","633f4f203450d46b01e3d16b","freq","","","img/orange_2bandit_a2.png","70","","70","test","1","","65","","","","square","circle","63","17","3","0.9841269841269841","","","","","","","",""
"null","240552","SARL_v6","SARL_v65kwx5sq0","633f4f203450d46b01e3d16b","freq_resp","","","img/orange_2bandit_a.png","70","img/orange_2bandit_a.png","70","test","","","","","","","","","","","3","","","","","","","","",""
"null","240714","SARL_v6","SARL_v65kwx5sq0","633f4f203450d46b01e3d16b","fixation","","","img/fixation.png","null","","","test","","","","","","","","","","","","","","","","","","","",""
"299.2000000476837","241024","SARL_v6","SARL_v65kwx5sq0","633f4f203450d46b01e3d16b","freq","","","img/orange_2bandit_a2.png","70","","70","test","1","","66","","","","square","circle","64","18","3","0.984375","","","","","","","",""
"null","241543","SARL_v6","SARL_v65kwx5sq0","633f4f203450d46b01e3d16b","freq_resp","","","img/orange_2bandit_a.png","70","img/orange_2bandit_a.png","70","test","","","","","","","","","","","3","","","","","","","","",""
"null","241702","SARL_v6","SARL_v65kwx5sq0","633f4f203450d46b01e3d16b","fixation","","","img/fixation.png","null","","","test","","","","","","","","","","","","","","","","","","","",""
"300.2999999523163","242012","SARL_v6","SARL_v65kwx5sq0","633f4f203450d46b01e3d16b","freq","","","img/orange_2bandit_a2.png","70","","70","test","1","","67","","","","square","circle","65","19","3","0.9846153846153847","","","","","","","",""
"null","242526","SARL_v6","SARL_v65kwx5sq0","633f4f203450d46b01e3d16b","freq_resp","","","img/orange_2bandit_a.png","70","img/orange_2bandit_a.png","70","test","","","","","","","","","","","3","","","","","","","","",""
"null","242700","SARL_v6","SARL_v65kwx5sq0","633f4f203450d46b01e3d16b","fixation","","","img/fixation.png","null","","","test","","","","","","","","","","","","","","","","","","","",""
"306.90000009536743","243022","SARL_v6","SARL_v65kwx5sq0","633f4f203450d46b01e3d16b","freq","","","img/orange_2bandit_a2.png","70","","70","test","1","","68","","","","square","circle","66","20","3","0.9848484848484849","","","","","","","",""
"null","243533","SARL_v6","SARL_v65kwx5sq0","633f4f203450d46b01e3d16b","freq_resp","","","img/orange_2bandit_a.png","70","img/orange_2bandit_a.png","70","test","","","","","","","","","","","3","","","","","","","","",""
"null","243696","SARL_v6","SARL_v65kwx5sq0","633f4f203450d46b01e3d16b","fixation","","","img/fixation.png","null","","","test","","","","","","","","","","","","","","","","","","","",""
"460.2000000476837","244167","SARL_v6","SARL_v65kwx5sq0","633f4f203450d46b01e3d16b","infreq","","","img/blue_2bandit_a2.png","68","","68","test","1","","69","","","","square","circle","67","21","3","0.9850746268656716","","","","","","","",""
"null","244523","SARL_v6","SARL_v65kwx5sq0","633f4f203450d46b01e3d16b","infreq_resp","","","img/blue_2bandit_a.png","68","img/blue_2bandit_a.png","68","test","","","","","","","","","","","3","","","","","","","","",""
"null","244682","SARL_v6","SARL_v65kwx5sq0","633f4f203450d46b01e3d16b","fixation","","","img/fixation.png","null","","","test","","","","","","","","","","","","","","","","","","","",""
"394","245086","SARL_v6","SARL_v65kwx5sq0","633f4f203450d46b01e3d16b","freq","","","img/orange_2bandit_a2.png","70","","70","test","1","","70","","","","square","circle","68","22","3","0.9852941176470589","","","","","","","",""
"null","245503","SARL_v6","SARL_v65kwx5sq0","633f4f203450d46b01e3d16b","freq_resp","","","img/orange_2bandit_a.png","70","img/orange_2bandit_a.png","70","test","","","","","","","","","","","3","","","","","","","","",""
"null","245662","SARL_v6","SARL_v65kwx5sq0","633f4f203450d46b01e3d16b","fixation","","","img/fixation.png","null","","","test","","","","","","","","","","","","","","","","","","","",""
"498.2999999523163","246171","SARL_v6","SARL_v65kwx5sq0","633f4f203450d46b01e3d16b","freq","","","img/orange_2bandit_a2.png","70","","70","test","1","","71","","","","square","circle","69","23","3","0.9855072463768116","","","","","","","",""
"null","246493","SARL_v6","SARL_v65kwx5sq0","633f4f203450d46b01e3d16b","freq_resp","","","img/orange_2bandit_a.png","70","img/orange_2bandit_a.png","70","test","","","","","","","","","","","3","","","","","","","","",""
"null","246667","SARL_v6","SARL_v65kwx5sq0","633f4f203450d46b01e3d16b","fixation","","","img/fixation.png","null","","","test","","","","","","","","","","","","","","","","","","","",""
"591.9000000953674","247271","SARL_v6","SARL_v65kwx5sq0","633f4f203450d46b01e3d16b","rl","","","img/black_2bandit_a2.png","75","","0","test","","","72","","","-8","square","circle","","0","3","","75","-8","-4","-4","-8","circle","3","0"
"null","248043","SARL_v6","SARL_v65kwx5sq0","633f4f203450d46b01e3d16b","feedback","","","<div class=""verylowPoints""> -8 </div>","null","","na","test","","","NaN","","","","","","","","3","","75","","","","","","3",""
"482.90000009536743","248537","SARL_v6","SARL_v65kwx5sq0","633f4f203450d46b01e3d16b","freq","","","img/orange_2bandit_a2.png","70","","70","test","1","","73","","","","square","circle","70","1","4","0.9857142857142858","","","","","","","",""
"null","248873","SARL_v6","SARL_v65kwx5sq0","633f4f203450d46b01e3d16b","freq_resp","","","img/orange_2bandit_a.png","70","img/orange_2bandit_a.png","70","test","","","","","","","","","","","4","","","","","","","","",""
"null","249036","SARL_v6","SARL_v65kwx5sq0","633f4f203450d46b01e3d16b","fixation","","","img/fixation.png","null","","","test","","","","","","","","","","","","","","","","","","","",""
"334.2000000476837","249381","SARL_v6","SARL_v65kwx5sq0","633f4f203450d46b01e3d16b","freq","","","img/orange_2bandit_a2.png","70","","70","test","1","","74","","","","square","circle","71","2","4","0.9859154929577465","","","","","","","",""
"null","249857","SARL_v6","SARL_v65kwx5sq0","633f4f203450d46b01e3d16b","freq_resp","","","img/orange_2bandit_a.png","70","img/orange_2bandit_a.png","70","test","","","","","","","","","","","4","","","","","","","","",""
"null","250018","SARL_v6","SARL_v65kwx5sq0","633f4f203450d46b01e3d16b","fixation","","","img/fixation.png","null","","","test","","","","","","","","","","","","","","","","","","","",""
"326.89999985694885","250355","SARL_v6","SARL_v65kwx5sq0","633f4f203450d46b01e3d16b","freq","","","img/orange_2bandit_a2.png","70","","70","test","1","","75","","","","square","circle","72","3","4","0.9861111111111112","","","","","","","",""
"null","250842","SARL_v6","SARL_v65kwx5sq0","633f4f203450d46b01e3d16b","freq_resp","","","img/orange_2bandit_a.png","70","img/orange_2bandit_a.png","70","test","","","","","","","","","","","4","","","","","","","","",""
"null","251005","SARL_v6","SARL_v65kwx5sq0","633f4f203450d46b01e3d16b","fixation","","","img/fixation.png","null","","","test","","","","","","","","","","","","","","","","","","","",""
"312.69999980926514","251329","SARL_v6","SARL_v65kwx5sq0","633f4f203450d46b01e3d16b","freq","","","img/orange_2bandit_a2.png","70","","70","test","1","","76","","","","square","circle","73","4","4","0.9863013698630136","","","","","","","",""
"null","251842","SARL_v6","SARL_v65kwx5sq0","633f4f203450d46b01e3d16b","freq_resp","","","img/orange_2bandit_a.png","70","img/orange_2bandit_a.png","70","test","","","","","","","","","","","4","","","","","","","","",""
"null","252016","SARL_v6","SARL_v65kwx5sq0","633f4f203450d46b01e3d16b","fixation","","","img/fixation.png","null","","","test","","","","","","","","","","","","","","","","","","","",""
"306.59999990463257","252334","SARL_v6","SARL_v65kwx5sq0","633f4f203450d46b01e3d16b","freq","","","img/orange_2bandit_a2.png","70","","70","test","1","","77","","","","square","circle","74","5","4","0.9864864864864865","","","","","","","",""
"null","252838","SARL_v6","SARL_v65kwx5sq0","633f4f203450d46b01e3d16b","freq_resp","","","img/orange_2bandit_a.png","70","img/orange_2bandit_a.png","70","test","","","","","","","","","","","4","","","","","","","","",""
"null","253002","SARL_v6","SARL_v65kwx5sq0","633f4f203450d46b01e3d16b","fixation","","","img/fixation.png","null","","","test","","","","","","","","","","","","","","","","","","","",""
"275.2999999523163","253288","SARL_v6","SARL_v65kwx5sq0","633f4f203450d46b01e3d16b","freq","","","img/orange_2bandit_a2.png","70","","70","test","1","","78","","","","square","circle","75","6","4","0.9866666666666667","","","","","","","",""
"null","253823","SARL_v6","SARL_v65kwx5sq0","633f4f203450d46b01e3d16b","freq_resp","","","img/orange_2bandit_a.png","70","img/orange_2bandit_a.png","70","test","","","","","","","","","","","4","","","","","","","","",""
"null","253982","SARL_v6","SARL_v65kwx5sq0","633f4f203450d46b01e3d16b","fixation","","","img/fixation.png","null","","","test","","","","","","","","","","","","","","","","","","","",""
"299.7999999523163","254292","SARL_v6","SARL_v65kwx5sq0","633f4f203450d46b01e3d16b","freq","","","img/orange_2bandit_a2.png","70","","70","test","1","","79","","","","square","circle","76","7","4","0.9868421052631579","","","","","","","",""
"null","254816","SARL_v6","SARL_v65kwx5sq0","633f4f203450d46b01e3d16b","freq_resp","","","img/orange_2bandit_a.png","70","img/orange_2bandit_a.png","70","test","","","","","","","","","","","4","","","","","","","","",""
"null","254976","SARL_v6","SARL_v65kwx5sq0","633f4f203450d46b01e3d16b","fixation","","","img/fixation.png","null","","","test","","","","","","","","","","","","","","","","","","","",""
"451.09999990463257","255438","SARL_v6","SARL_v65kwx5sq0","633f4f203450d46b01e3d16b","infreq","","","img/blue_2bandit_a2.png","68","","68","test","1","","80","","","","square","circle","77","8","4","0.987012987012987","","","","","","","",""
"null","255812","SARL_v6","SARL_v65kwx5sq0","633f4f203450d46b01e3d16b","infreq_resp","","","img/blue_2bandit_a.png","68","img/blue_2bandit_a.png","68","test","","","","","","","","","","","4","","","","","","","","",""
"null","255983","SARL_v6","SARL_v65kwx5sq0","633f4f203450d46b01e3d16b","fixation","","","img/fixation.png","null","","","test","","","","","","","","","","","","","","","","","","","",""
"388.5","256381","SARL_v6","SARL_v65kwx5sq0","633f4f203450d46b01e3d16b","freq","","","img/orange_2bandit_a2.png","70","","70","test","1","","81","","","","square","circle","78","9","4","0.9871794871794872","","","","","","","",""
"null","256817","SARL_v6","SARL_v65kwx5sq0","633f4f203450d46b01e3d16b","freq_resp","","","img/orange_2bandit_a.png","70","img/orange_2bandit_a.png","70","test","","","","","","","","","","","4","","","","","","","","",""
"null","256988","SARL_v6","SARL_v65kwx5sq0","633f4f203450d46b01e3d16b","fixation","","","img/fixation.png","null","","","test","","","","","","","","","","","","","","","","","","","",""
"352.7000000476837","257351","SARL_v6","SARL_v65kwx5sq0","633f4f203450d46b01e3d16b","freq","","","img/orange_2bandit_a2.png","70","","70","test","1","","82","","","","square","circle","79","10","4","0.9873417721518988","","","","","","","",""
"null","257817","SARL_v6","SARL_v65kwx5sq0","633f4f203450d46b01e3d16b","freq_resp","","","img/orange_2bandit_a.png","70","img/orange_2bandit_a.png","70","test","","","","","","","","","","","4","","","","","","","","",""
"null","257983","SARL_v6","SARL_v65kwx5sq0","633f4f203450d46b01e3d16b","fixation","","","img/fixation.png","null","","","test","","","","","","","","","","","","","","","","","","","",""
"342.09999990463257","258335","SARL_v6","SARL_v65kwx5sq0","633f4f203450d46b01e3d16b","freq","","","img/orange_2bandit_a2.png","70","","70","test","1","","83","","","","square","circle","80","11","4","0.9875","","","","","","","",""
"null","258809","SARL_v6","SARL_v65kwx5sq0","633f4f203450d46b01e3d16b","freq_resp","","","img/orange_2bandit_a.png","70","img/orange_2bandit_a.png","70","test","","","","","","","","","","","4","","","","","","","","",""
"null","258983","SARL_v6","SARL_v65kwx5sq0","633f4f203450d46b01e3d16b","fixation","","","img/fixation.png","null","","","test","","","","","","","","","","","","","","","","","","","",""
"295.89999985694885","259289","SARL_v6","SARL_v65kwx5sq0","633f4f203450d46b01e3d16b","freq","","","img/orange_2bandit_a2.png","70","","70","test","1","","84","","","","square","circle","81","12","4","0.9876543209876543","","","","","","","",""
"null","259806","SARL_v6","SARL_v65kwx5sq0","633f4f203450d46b01e3d16b","freq_resp","","","img/orange_2bandit_a.png","70","img/orange_2bandit_a.png","70","test","","","","","","","","","","","4","","","","","","","","",""
"null","259976","SARL_v6","SARL_v65kwx5sq0","633f4f203450d46b01e3d16b","fixation","","","img/fixation.png","null","","","test","","","","","","","","","","","","","","","","","","","",""
"317.09999990463257","260304","SARL_v6","SARL_v65kwx5sq0","633f4f203450d46b01e3d16b","freq","","","img/orange_2bandit_a2.png","70","","70","test","1","","85","","","","square","circle","82","13","4","0.9878048780487805","","","","","","","",""
"null","260797","SARL_v6","SARL_v65kwx5sq0","633f4f203450d46b01e3d16b","freq_resp","","","img/orange_2bandit_a.png","70","img/orange_2bandit_a.png","70","test","","","","","","","","","","","4","","","","","","","","",""
"null","260956","SARL_v6","SARL_v65kwx5sq0","633f4f203450d46b01e3d16b","fixation","","","img/fixation.png","null","","","test","","","","","","","","","","","","","","","","","","","",""
"427.09999990463257","261394","SARL_v6","SARL_v65kwx5sq0","633f4f203450d46b01e3d16b","freq","","","img/orange_2bandit_a2.png","70","","70","test","1","","86","","","","square","circle","83","14","4","0.9879518072289156","","","","","","","",""
"null","261786","SARL_v6","SARL_v65kwx5sq0","633f4f203450d46b01e3d16b","freq_resp","","","img/orange_2bandit_a.png","70","img/orange_2bandit_a.png","70","test","","","","","","","","","","","4","","","","","","","","",""
"null","261953","SARL_v6","SARL_v65kwx5sq0","633f4f203450d46b01e3d16b","fixation","","","img/fixation.png","null","","","test","","","","","","","","","","","","","","","","","","","",""
"329","262293","SARL_v6","SARL_v65kwx5sq0","633f4f203450d46b01e3d16b","freq","","","img/orange_2bandit_a2.png","70","","70","test","1","","87","","","","square","circle","84","15","4","0.9880952380952381","","","","","","","",""
"null","262782","SARL_v6","SARL_v65kwx5sq0","633f4f203450d46b01e3d16b","freq_resp","","","img/orange_2bandit_a.png","70","img/orange_2bandit_a.png","70","test","","","","","","","","","","","4","","","","","","","","",""
"null","262956","SARL_v6","SARL_v65kwx5sq0","633f4f203450d46b01e3d16b","fixation","","","img/fixation.png","null","","","test","","","","","","","","","","","","","","","","","","","",""
"405.60000014305115","263372","SARL_v6","SARL_v65kwx5sq0","633f4f203450d46b01e3d16b","infreq","","","img/blue_2bandit_a2.png","68","","68","test","1","","88","","","","square","circle","85","16","4","0.9882352941176471","","","","","","","",""
"null","263789","SARL_v6","SARL_v65kwx5sq0","633f4f203450d46b01e3d16b","infreq_resp","","","img/blue_2bandit_a.png","68","img/blue_2bandit_a.png","68","test","","","","","","","","","","","4","","","","","","","","",""
"null","263948","SARL_v6","SARL_v65kwx5sq0","633f4f203450d46b01e3d16b","fixation","","","img/fixation.png","null","","","test","","","","","","","","","","","","","","","","","","","",""
"402.7000000476837","264362","SARL_v6","SARL_v65kwx5sq0","633f4f203450d46b01e3d16b","freq","","","img/orange_2bandit_a2.png","70","","70","test","1","","89","","","","square","circle","86","17","4","0.9883720930232558","","","","","","","",""
"null","264780","SARL_v6","SARL_v65kwx5sq0","633f4f203450d46b01e3d16b","freq_resp","","","img/orange_2bandit_a.png","70","img/orange_2bandit_a.png","70","test","","","","","","","","","","","4","","","","","","","","",""
"null","264950","SARL_v6","SARL_v65kwx5sq0","633f4f203450d46b01e3d16b","fixation","","","img/fixation.png","null","","","test","","","","","","","","","","","","","","","","","","","",""
"345.2000000476837","265306","SARL_v6","SARL_v65kwx5sq0","633f4f203450d46b01e3d16b","freq","","","img/orange_2bandit_a2.png","70","","70","test","1","","90","","","","square","circle","87","18","4","0.9885057471264368","","","","","","","",""
"null","265777","SARL_v6","SARL_v65kwx5sq0","633f4f203450d46b01e3d16b","freq_resp","","","img/orange_2bandit_a.png","70","img/orange_2bandit_a.png","70","test","","","","","","","","","","","4","","","","","","","","",""
"null","265950","SARL_v6","SARL_v65kwx5sq0","633f4f203450d46b01e3d16b","fixation","","","img/fixation.png","null","","","test","","","","","","","","","","","","","","","","","","","",""
"325.10000014305115","266285","SARL_v6","SARL_v65kwx5sq0","633f4f203450d46b01e3d16b","freq","","","img/orange_2bandit_a2.png","70","","70","test","1","","91","","","","square","circle","88","19","4","0.9886363636363636","","","","","","","",""
"null","266771","SARL_v6","SARL_v65kwx5sq0","633f4f203450d46b01e3d16b","freq_resp","","","img/orange_2bandit_a.png","70","img/orange_2bandit_a.png","70","test","","","","","","","","","","","4","","","","","","","","",""
"null","266945","SARL_v6","SARL_v65kwx5sq0","633f4f203450d46b01e3d16b","fixation","","","img/fixation.png","null","","","test","","","","","","","","","","","","","","","","","","","",""
"309","267264","SARL_v6","SARL_v65kwx5sq0","633f4f203450d46b01e3d16b","freq","","","img/orange_2bandit_a2.png","70","","70","test","1","","92","","","","square","circle","89","20","4","0.9887640449438202","","","","","","","",""
"null","267767","SARL_v6","SARL_v65kwx5sq0","633f4f203450d46b01e3d16b","freq_resp","","","img/orange_2bandit_a.png","70","img/orange_2bandit_a.png","70","test","","","","","","","","","","","4","","","","","","","","",""
"null","267934","SARL_v6","SARL_v65kwx5sq0","633f4f203450d46b01e3d16b","fixation","","","img/fixation.png","null","","","test","","","","","","","","","","","","","","","","","","","",""
"578.8000001907349","268526","SARL_v6","SARL_v65kwx5sq0","633f4f203450d46b01e3d16b","rl","","","img/black_2bandit_a2.png","75","","0","test","","","93","","","-12","square","circle","","0","4","","75","-12","0","0","-12","circle","4","0"
"null","269292","SARL_v6","SARL_v65kwx5sq0","633f4f203450d46b01e3d16b","feedback","","","<div class=""verylowPoints""> -12 </div>","null","","na","test","","","NaN","","","","","","","","4","","75","","","","","","4",""
"478.2000000476837","269780","SARL_v6","SARL_v65kwx5sq0","633f4f203450d46b01e3d16b","freq","","","img/orange_2bandit_a2.png","70","","70","test","1","","94","","","","square","circle","90","1","5","0.9888888888888889","","","","","","","",""
"null","270114","SARL_v6","SARL_v65kwx5sq0","633f4f203450d46b01e3d16b","freq_resp","","","img/orange_2bandit_a.png","70","img/orange_2bandit_a.png","70","test","","","","","","","","","","","5","","","","","","","","",""
"null","270285","SARL_v6","SARL_v65kwx5sq0","633f4f203450d46b01e3d16b","fixation","","","img/fixation.png","null","","","test","","","","","","","","","","","","","","","","","","","",""
"389.19999980926514","270684","SARL_v6","SARL_v65kwx5sq0","633f4f203450d46b01e3d16b","freq","","","img/orange_2bandit_a2.png","70","","70","test","1","","95","","","","square","circle","91","2","5","0.989010989010989","","","","","","","",""
"null","271105","SARL_v6","SARL_v65kwx5sq0","633f4f203450d46b01e3d16b","freq_resp","","","img/orange_2bandit_a.png","70","img/orange_2bandit_a.png","70","test","","","","","","","","","","","5","","","","","","","","",""
"null","271264","SARL_v6","SARL_v65kwx5sq0","633f4f203450d46b01e3d16b","fixation","","","img/fixation.png","null","","","test","","","","","","","","","","","","","","","","","","","",""
"320.2000000476837","271594","SARL_v6","SARL_v65kwx5sq0","633f4f203450d46b01e3d16b","freq","","","img/orange_2bandit_a2.png","70","","70","test","1","","96","","","","square","circle","92","3","5","0.9891304347826086","","","","","","","",""
"null","272083","SARL_v6","SARL_v65kwx5sq0","633f4f203450d46b01e3d16b","freq_resp","","","img/orange_2bandit_a.png","70","img/orange_2bandit_a.png","70","test","","","","","","","","","","","5","","","","","","","","",""
"null","272246","SARL_v6","SARL_v65kwx5sq0","633f4f203450d46b01e3d16b","fixation","","","img/fixation.png","null","","","test","","","","","","","","","","","","","","","","","","","",""
"336.5","272593","SARL_v6","SARL_v65kwx5sq0","633f4f203450d46b01e3d16b","freq","","","img/orange_2bandit_a2.png","70","","70","test","1","","97","","","","square","circle","93","4","5","0.989247311827957","","","","","","","",""
"null","273070","SARL_v6","SARL_v65kwx5sq0","633f4f203450d46b01e3d16b","freq_resp","","","img/orange_2bandit_a.png","70","img/orange_2bandit_a.png","70","test","","","","","","","","","","","5","","","","","","","","",""
"null","273240","SARL_v6","SARL_v65kwx5sq0","633f4f203450d46b01e3d16b","fixation","","","img/fixation.png","null","","","test","","","","","","","","","","","","","","","","","","","",""
"330.59999990463257","273582","SARL_v6","SARL_v65kwx5sq0","633f4f203450d46b01e3d16b","freq","","","img/orange_2bandit_a2.png","70","","70","test","1","","98","","","","square","circle","94","5","5","0.9893617021276596","","","","","","","",""
"null","274070","SARL_v6","SARL_v65kwx5sq0","633f4f203450d46b01e3d16b","freq_resp","","","img/orange_2bandit_a.png","70","img/orange_2bandit_a.png","70","test","","","","","","","","","","","5","","","","","","","","",""
"null","274231","SARL_v6","SARL_v65kwx5sq0","633f4f203450d46b01e3d16b","fixation","","","img/fixation.png","null","","","test","","","","","","","","","","","","","","","","","","","",""
"344.59999990463257","274586","SARL_v6","SARL_v65kwx5sq0","633f4f203450d46b01e3d16b","freq","","","img/orange_2bandit_a2.png","70","","70","test","1","","99","","","","square","circle","95","6","5","0.9894736842105263","","","","","","","",""
"null","275061","SARL_v6","SARL_v65kwx5sq0","633f4f203450d46b01e3d16b","freq_resp","","","img/orange_2bandit_a.png","70","img/orange_2bandit_a.png","70","test","","","","","","","","","","","5","","","","","","","","",""
"null","275235","SARL_v6","SARL_v65kwx5sq0","633f4f203450d46b01e3d16b","fixation","","","img/fixation.png","null","","","test","","","","","","","","","","","","","","","","","","","",""
"305.2000000476837","275551","SARL_v6","SARL_v65kwx5sq0","633f4f203450d46b01e3d16b","freq","","","img/orange_2bandit_a2.png","70","","70","test","1","","100","","","","square","circle","96","7","5","0.9895833333333334","","","","","","","",""
"null","276068","SARL_v6","SARL_v65kwx5sq0","633f4f203450d46b01e3d16b","freq_resp","","","img/orange_2bandit_a.png","70","img/orange_2bandit_a.png","70","test","","","","","","","","","","","5","","","","","","","","",""
"null","276240","SARL_v6","SARL_v65kwx5sq0","633f4f203450d46b01e3d16b","fixation","","","img/fixation.png","null","","","test","","","","","","","","","","","","","","","","","","","",""
"319.10000014305115","276571","SARL_v6","SARL_v65kwx5sq0","633f4f203450d46b01e3d16b","freq","","","img/orange_2bandit_a2.png","70","","70","test","1","","101","","","","square","circle","97","8","5","0.9896907216494846","","","","","","","",""
"null","277069","SARL_v6","SARL_v65kwx5sq0","633f4f203450d46b01e3d16b","freq_resp","","","img/orange_2bandit_a.png","70","img/orange_2bandit_a.png","70","test","","","","","","","","","","","5","","","","","","","","",""
"null","277244","SARL_v6","SARL_v65kwx5sq0","633f4f203450d46b01e3d16b","fixation","","","img/fixation.png","null","","","test","","","","","","","","","","","","","","","","","","","",""
"295.09999990463257","277549","SARL_v6","SARL_v65kwx5sq0","633f4f203450d46b01e3d16b","freq","","","img/orange_2bandit_a2.png","70","","70","test","1","","102","","","","square","circle","98","9","5","0.9897959183673469","","","","","","","",""
"null","278069","SARL_v6","SARL_v65kwx5sq0","633f4f203450d46b01e3d16b","freq_resp","","","img/orange_2bandit_a.png","70","img/orange_2bandit_a.png","70","test","","","","","","","","","","","5","","","","","","","","",""
"null","278239","SARL_v6","SARL_v65kwx5sq0","633f4f203450d46b01e3d16b","fixation","","","img/fixation.png","null","","","test","","","","","","","","","","","","","","","","","","","",""
"314.7999999523163","278564","SARL_v6","SARL_v65kwx5sq0","633f4f203450d46b01e3d16b","freq","","","img/orange_2bandit_a2.png","70","","70","test","1","","103","","","","square","circle","99","10","5","0.98989898989899","","","","","","","",""
"null","279064","SARL_v6","SARL_v65kwx5sq0","633f4f203450d46b01e3d16b","freq_resp","","","img/orange_2bandit_a.png","70","img/orange_2bandit_a.png","70","test","","","","","","","","","","","5","","","","","","","","",""
"null","279229","SARL_v6","SARL_v65kwx5sq0","633f4f203450d46b01e3d16b","fixation","","","img/fixation.png","null","","","test","","","","","","","","","","","","","","","","","","","",""
"293.2000000476837","279533","SARL_v6","SARL_v65kwx5sq0","633f4f203450d46b01e3d16b","freq","","","img/orange_2bandit_a2.png","70","","70","test","1","","104","","","","square","circle","100","11","5","0.99","","","","","","","",""
"null","280055","SARL_v6","SARL_v65kwx5sq0","633f4f203450d46b01e3d16b","freq_resp","","","img/orange_2bandit_a.png","70","img/orange_2bandit_a.png","70","test","","","","","","","","","","","5","","","","","","","","",""
"null","280230","SARL_v6","SARL_v65kwx5sq0","633f4f203450d46b01e3d16b","fixation","","","img/fixation.png","null","","","test","","","","","","","","","","","","","","","","","","","",""
"317.09999990463257","280558","SARL_v6","SARL_v65kwx5sq0","633f4f203450d46b01e3d16b","freq","","","img/orange_2bandit_a2.png","70","","70","test","1","","105","","","","square","circle","101","12","5","0.9900990099009901","","","","","","","",""
"null","281056","SARL_v6","SARL_v65kwx5sq0","633f4f203450d46b01e3d16b","freq_resp","","","img/orange_2bandit_a.png","70","img/orange_2bandit_a.png","70","test","","","","","","","","","","","5","","","","","","","","",""
"null","281216","SARL_v6","SARL_v65kwx5sq0","633f4f203450d46b01e3d16b","fixation","","","img/fixation.png","null","","","test","","","","","","","","","","","","","","","","","","","",""
"315","281542","SARL_v6","SARL_v65kwx5sq0","633f4f203450d46b01e3d16b","freq","","","img/orange_2bandit_a2.png","70","","70","test","1","","106","","","","square","circle","102","13","5","0.9901960784313726","","","","","","","",""
"null","282053","SARL_v6","SARL_v65kwx5sq0","633f4f203450d46b01e3d16b","freq_resp","","","img/orange_2bandit_a.png","70","img/orange_2bandit_a.png","70","test","","","","","","","","","","","5","","","","","","","","",""
"null","282221","SARL_v6","SARL_v65kwx5sq0","633f4f203450d46b01e3d16b","fixation","","","img/fixation.png","null","","","test","","","","","","","","","","","","","","","","","","","",""
"304.5","282536","SARL_v6","SARL_v65kwx5sq0","633f4f203450d46b01e3d16b","freq","","","img/orange_2bandit_a2.png","70","","70","test","1","","107","","","","square","circle","103","14","5","0.9902912621359223","","","","","","","",""
"null","283052","SARL_v6","SARL_v65kwx5sq0","633f4f203450d46b01e3d16b","freq_resp","","","img/orange_2bandit_a.png","70","img/orange_2bandit_a.png","70","test","","","","","","","","","","","5","","","","","","","","",""
"null","283220","SARL_v6","SARL_v65kwx5sq0","633f4f203450d46b01e3d16b","fixation","","","img/fixation.png","null","","","test","","","","","","","","","","","","","","","","","","","",""
"310.90000009536743","283541","SARL_v6","SARL_v65kwx5sq0","633f4f203450d46b01e3d16b","freq","","","img/orange_2bandit_a2.png","70","","70","test","1","","108","","","","square","circle","104","15","5","0.9903846153846154","","","","","","","",""
"null","284041","SARL_v6","SARL_v65kwx5sq0","633f4f203450d46b01e3d16b","freq_resp","","","img/orange_2bandit_a.png","70","img/orange_2bandit_a.png","70","test","","","","","","","","","","","5","","","","","","","","",""
"null","284204","SARL_v6","SARL_v65kwx5sq0","633f4f203450d46b01e3d16b","fixation","","","img/fixation.png","null","","","test","","","","","","","","","","","","","","","","","","","",""
"319.7000000476837","284535","SARL_v6","SARL_v65kwx5sq0","633f4f203450d46b01e3d16b","freq","","","img/orange_2bandit_a2.png","70","","70","test","1","","109","","","","square","circle","105","16","5","0.9904761904761905","","","","","","","",""
"null","285026","SARL_v6","SARL_v65kwx5sq0","633f4f203450d46b01e3d16b","freq_resp","","","img/orange_2bandit_a.png","70","img/orange_2bandit_a.png","70","test","","","","","","","","","","","5","","","","","","","","",""
"null","285190","SARL_v6","SARL_v65kwx5sq0","633f4f203450d46b01e3d16b","fixation","","","img/fixation.png","null","","","test","","","","","","","","","","","","","","","","","","","",""
"288.7000000476837","285489","SARL_v6","SARL_v65kwx5sq0","633f4f203450d46b01e3d16b","freq","","","img/orange_2bandit_a2.png","70","","70","test","1","","110","","","","square","circle","106","17","5","0.9905660377358491","","","","","","","",""
"null","286021","SARL_v6","SARL_v65kwx5sq0","633f4f203450d46b01e3d16b","freq_resp","","","img/orange_2bandit_a.png","70","img/orange_2bandit_a.png","70","test","","","","","","","","","","","5","","","","","","","","",""
"null","286189","SARL_v6","SARL_v65kwx5sq0","633f4f203450d46b01e3d16b","fixation","","","img/fixation.png","null","","","test","","","","","","","","","","","","","","","","","","","",""
"298.19999980926514","286498","SARL_v6","SARL_v65kwx5sq0","633f4f203450d46b01e3d16b","freq","","","img/orange_2bandit_a2.png","70","","70","test","1","","111","","","","square","circle","107","18","5","0.9906542056074766","","","","","","","",""
"null","287025","SARL_v6","SARL_v65kwx5sq0","633f4f203450d46b01e3d16b","freq_resp","","","img/orange_2bandit_a.png","70","img/orange_2bandit_a.png","70","test","","","","","","","","","","","5","","","","","","","","",""
"null","287199","SARL_v6","SARL_v65kwx5sq0","633f4f203450d46b01e3d16b","fixation","","","img/fixation.png","null","","","test","","","","","","","","","","","","","","","","","","","",""
"504.40000009536743","287715","SARL_v6","SARL_v65kwx5sq0","633f4f203450d46b01e3d16b","infreq","","","img/blue_2bandit_a2.png","68","","68","test","1","","112","","","","square","circle","108","19","5","0.9907407407407407","","","","","","","",""
"null","288030","SARL_v6","SARL_v65kwx5sq0","633f4f203450d46b01e3d16b","infreq_resp","","","img/blue_2bandit_a.png","68","img/blue_2bandit_a.png","68","test","","","","","","","","","","","5","","","","","","","","",""
"null","288191","SARL_v6","SARL_v65kwx5sq0","633f4f203450d46b01e3d16b","fixation","","","img/fixation.png","null","","","test","","","","","","","","","","","","","","","","","","","",""
"386.89999985694885","288588","SARL_v6","SARL_v65kwx5sq0","633f4f203450d46b01e3d16b","infreq","","","img/blue_2bandit_a2.png","68","","68","test","1","","113","","","","square","circle","109","20","5","0.9908256880733946","","","","","","","",""
"null","289022","SARL_v6","SARL_v65kwx5sq0","633f4f203450d46b01e3d16b","infreq_resp","","","img/blue_2bandit_a.png","68","img/blue_2bandit_a.png","68","test","","","","","","","","","","","5","","","","","","","","",""
"null","289204","SARL_v6","SARL_v65kwx5sq0","633f4f203450d46b01e3d16b","fixation","","","img/fixation.png","null","","","test","","","","","","","","","","","","","","","","","","","",""
"532.5","289747","SARL_v6","SARL_v65kwx5sq0","633f4f203450d46b01e3d16b","freq","","","img/orange_2bandit_a2.png","70","","70","test","1","","114","","","","square","circle","110","21","5","0.990909090909091","","","","","","","",""
"null","290037","SARL_v6","SARL_v65kwx5sq0","633f4f203450d46b01e3d16b","freq_resp","","","img/orange_2bandit_a.png","70","img/orange_2bandit_a.png","70","test","","","","","","","","","","","5","","","","","","","","",""
"null","290200","SARL_v6","SARL_v65kwx5sq0","633f4f203450d46b01e3d16b","fixation","","","img/fixation.png","null","","","test","","","","","","","","","","","","","","","","","","","",""
"380.89999985694885","290591","SARL_v6","SARL_v65kwx5sq0","633f4f203450d46b01e3d16b","freq","","","img/orange_2bandit_a2.png","70","","70","test","1","","115","","","","square","circle","111","22","5","0.990990990990991","","","","","","","",""
"null","291034","SARL_v6","SARL_v65kwx5sq0","633f4f203450d46b01e3d16b","freq_resp","","","img/orange_2bandit_a.png","70","img/orange_2bandit_a.png","70","test","","","","","","","","","","","5","","","","","","","","",""
"null","291201","SARL_v6","SARL_v65kwx5sq0","633f4f203450d46b01e3d16b","fixation","","","img/fixation.png","null","","","test","","","","","","","","","","","","","","","","","","","",""
"323.7999999523163","291535","SARL_v6","SARL_v65kwx5sq0","633f4f203450d46b01e3d16b","freq","","","img/orange_2bandit_a2.png","70","","70","test","1","","116","","","","square","circle","112","23","5","0.9910714285714286","","","","","","","",""
"null","292024","SARL_v6","SARL_v65kwx5sq0","633f4f203450d46b01e3d16b","freq_resp","","","img/orange_2bandit_a.png","70","img/orange_2bandit_a.png","70","test","","","","","","","","","","","5","","","","","","","","",""
"null","292190","SARL_v6","SARL_v65kwx5sq0","633f4f203450d46b01e3d16b","fixation","","","img/fixation.png","null","","","test","","","","","","","","","","","","","","","","","","","",""
"294","292495","SARL_v6","SARL_v65kwx5sq0","633f4f203450d46b01e3d16b","freq","","","img/orange_2bandit_a2.png","70","","70","test","1","","117","","","","square","circle","113","24","5","0.9911504424778761","","","","","","","",""
"null","293016","SARL_v6","SARL_v65kwx5sq0","633f4f203450d46b01e3d16b","freq_resp","","","img/orange_2bandit_a.png","70","img/orange_2bandit_a.png","70","test","","","","","","","","","","","5","","","","","","","","",""
"null","293191","SARL_v6","SARL_v65kwx5sq0","633f4f203450d46b01e3d16b","fixation","","","img/fixation.png","null","","","test","","","","","","","","","","","","","","","","","","","",""
"804.5","294008","SARL_v6","SARL_v65kwx5sq0","633f4f203450d46b01e3d16b","rl","","","img/black_2bandit_a2.png","74","","0","test","","","118","","","4","square","circle","","0","5","","74","-7","4","4","-7","square","5","0"
"null","294778","SARL_v6","SARL_v65kwx5sq0","633f4f203450d46b01e3d16b","feedback","","","<div class=""veryhighPoints_sq""> 4 </div>","null","","na","test","","","NaN","","","","","","","","5","","74","","","","","","5",""
"514.1000001430511","295302","SARL_v6","SARL_v65kwx5sq0","633f4f203450d46b01e3d16b","freq","","","img/orange_2bandit_a2.png","70","","70","test","1","","119","","","","square","circle","114","1","6","0.9912280701754386","","","","","","","",""
"null","295597","SARL_v6","SARL_v65kwx5sq0","633f4f203450d46b01e3d16b","freq_resp","","","img/orange_2bandit_a.png","70","img/orange_2bandit_a.png","70","test","","","","","","","","","","","6","","","","","","","","",""
"null","295762","SARL_v6","SARL_v65kwx5sq0","633f4f203450d46b01e3d16b","fixation","","","img/fixation.png","null","","","test","","","","","","","","","","","","","","","","","","","",""
"539.2999999523163","296312","SARL_v6","SARL_v65kwx5sq0","633f4f203450d46b01e3d16b","infreq","","","img/blue_2bandit_a2.png","68","","68","test","1","","120","","","","square","circle","115","2","6","0.991304347826087","","","","","","","",""
"null","296584","SARL_v6","SARL_v65kwx5sq0","633f4f203450d46b01e3d16b","infreq_resp","","","img/blue_2bandit_a.png","68","img/blue_2bandit_a.png","68","test","","","","","","","","","","","6","","","","","","","","",""
"null","296759","SARL_v6","SARL_v65kwx5sq0","633f4f203450d46b01e3d16b","fixation","","","img/fixation.png","null","","","test","","","","","","","","","","","","","","","","","","","",""
"470.19999980926514","297240","SARL_v6","SARL_v65kwx5sq0","633f4f203450d46b01e3d16b","infreq","","","img/blue_2bandit_a2.png","68","","68","test","1","","121","","","","square","circle","116","3","6","0.9913793103448276","","","","","","","",""
"null","297591","SARL_v6","SARL_v65kwx5sq0","633f4f203450d46b01e3d16b","infreq_resp","","","img/blue_2bandit_a.png","68","img/blue_2bandit_a.png","68","test","","","","","","","","","","","6","","","","","","","","",""
"null","297761","SARL_v6","SARL_v65kwx5sq0","633f4f203450d46b01e3d16b","fixation","","","img/fixation.png","null","","","test","","","","","","","","","","","","","","","","","","","",""
"434.59999990463257","298206","SARL_v6","SARL_v65kwx5sq0","633f4f203450d46b01e3d16b","freq","","","img/orange_2bandit_a2.png","70","","70","test","1","","122","","","","square","circle","117","4","6","0.9914529914529915","","","","","","","",""
"null","298588","SARL_v6","SARL_v65kwx5sq0","633f4f203450d46b01e3d16b","freq_resp","","","img/orange_2bandit_a.png","70","img/orange_2bandit_a.png","70","test","","","","","","","","","","","6","","","","","","","","",""
"null","298762","SARL_v6","SARL_v65kwx5sq0","633f4f203450d46b01e3d16b","fixation","","","img/fixation.png","null","","","test","","","","","","","","","","","","","","","","","","","",""
"346","299119","SARL_v6","SARL_v65kwx5sq0","633f4f203450d46b01e3d16b","freq","","","img/orange_2bandit_a2.png","70","","70","test","1","","123","","","","square","circle","118","5","6","0.9915254237288136","","","","","","","",""
"null","299598","SARL_v6","SARL_v65kwx5sq0","633f4f203450d46b01e3d16b","freq_resp","","","img/orange_2bandit_a.png","70","img/orange_2bandit_a.png","70","test","","","","","","","","","","","6","","","","","","","","",""
"null","299762","SARL_v6","SARL_v65kwx5sq0","633f4f203450d46b01e3d16b","fixation","","","img/fixation.png","null","","","test","","","","","","","","","","","","","","","","","","","",""
"350.5","300122","SARL_v6","SARL_v65kwx5sq0","633f4f203450d46b01e3d16b","freq","","","img/orange_2bandit_a2.png","70","","70","test","1","","124","","","","square","circle","119","6","6","0.9915966386554622","","","","","","","",""
"null","300585","SARL_v6","SARL_v65kwx5sq0","633f4f203450d46b01e3d16b","freq_resp","","","img/orange_2bandit_a.png","70","img/orange_2bandit_a.png","70","test","","","","","","","","","","","6","","","","","","","","",""
"null","300756","SARL_v6","SARL_v65kwx5sq0","633f4f203450d46b01e3d16b","fixation","","","img/fixation.png","null","","","test","","","","","","","","","","","","","","","","","","","",""
"320.90000009536743","301087","SARL_v6","SARL_v65kwx5sq0","633f4f203450d46b01e3d16b","freq","","","img/orange_2bandit_a2.png","70","","70","test","1","","125","","","","square","circle","120","7","6","0.9916666666666667","","","","","","","",""
"null","301585","SARL_v6","SARL_v65kwx5sq0","633f4f203450d46b01e3d16b","freq_resp","","","img/orange_2bandit_a.png","70","img/orange_2bandit_a.png","70","test","","","","","","","","","","","6","","","","","","","","",""
"null","301751","SARL_v6","SARL_v65kwx5sq0","633f4f203450d46b01e3d16b","fixation","","","img/fixation.png","null","","","test","","","","","","","","","","","","","","","","","","","",""
"305.2000000476837","302067","SARL_v6","SARL_v65kwx5sq0","633f4f203450d46b01e3d16b","freq","","","img/orange_2bandit_a2.png","70","","70","test","1","","126","","","","square","circle","121","8","6","0.9917355371900827","","","","","","","",""
"null","302573","SARL_v6","SARL_v65kwx5sq0","633f4f203450d46b01e3d16b","freq_resp","","","img/orange_2bandit_a.png","70","img/orange_2bandit_a.png","70","test","","","","","","","","","","","6","","","","","","","","",""
"null","302745","SARL_v6","SARL_v65kwx5sq0","633f4f203450d46b01e3d16b","fixation","","","img/fixation.png","null","","","test","","","","","","","","","","","","","","","","","","","",""
"335.7999999523163","303086","SARL_v6","SARL_v65kwx5sq0","633f4f203450d46b01e3d16b","freq","","","img/orange_2bandit_a2.png","70","","70","test","1","","127","","","","square","circle","122","9","6","0.9918032786885246","","","","","","","",""
"null","303572","SARL_v6","SARL_v65kwx5sq0","633f4f203450d46b01e3d16b","freq_resp","","","img/orange_2bandit_a.png","70","img/orange_2bandit_a.png","70","test","","","","","","","","","","","6","","","","","","","","",""
"null","303738","SARL_v6","SARL_v65kwx5sq0","633f4f203450d46b01e3d16b","fixation","","","img/fixation.png","null","","","test","","","","","","","","","","","","","","","","","","","",""
"326.89999985694885","304075","SARL_v6","SARL_v65kwx5sq0","633f4f203450d46b01e3d16b","freq","","","img/orange_2bandit_a2.png","70","","70","test","1","","128","","","","square","circle","123","10","6","0.991869918699187","","","","","","","",""
"null","304566","SARL_v6","SARL_v65kwx5sq0","633f4f203450d46b01e3d16b","freq_resp","","","img/orange_2bandit_a.png","70","img/orange_2bandit_a.png","70","test","","","","","","","","","","","6","","","","","","","","",""
"null","304740","SARL_v6","SARL_v65kwx5sq0","633f4f203450d46b01e3d16b","fixation","","","img/fixation.png","null","","","test","","","","","","","","","","","","","","","","","","","",""
"308.90000009536743","305060","SARL_v6","SARL_v65kwx5sq0","633f4f203450d46b01e3d16b","freq","","","img/orange_2bandit_a2.png","70","","70","test","1","","129","","","","square","circle","124","11","6","0.9919354838709677","","","","","","","",""
"null","305566","SARL_v6","SARL_v65kwx5sq0","633f4f203450d46b01e3d16b","freq_resp","","","img/orange_2bandit_a.png","70","img/orange_2bandit_a.png","70","test","","","","","","","","","","","6","","","","","","","","",""
"null","305737","SARL_v6","SARL_v65kwx5sq0","633f4f203450d46b01e3d16b","fixation","","","img/fixation.png","null","","","test","","","","","","","","","","","","","","","","","","","",""
"280.2999999523163","306028","SARL_v6","SARL_v65kwx5sq0","633f4f203450d46b01e3d16b","freq","","","img/orange_2bandit_a2.png","70","","70","test","1","","130","","","","square","circle","125","12","6","0.992","","","","","","","",""
