"rt","time_elapsed","expId","subject","prolificID","trialType","rlType","attType","stimulus","key_press","stim","corrresp","phase","corr","pracCounter","trialNum","rewardOne","rewardTwo","reward","bandOne","bandTwo","attentionNum","attentionRunNum","blockNum","performance","bandChosen","circleVal","squareVal","bandOneVal","bandTwoVal","shapeChosen","rlNum","badFlag"
"6246.899999976158","6267","SARL_v6","SARL_v6r71xj02p","62b068bbd9bcb120d812de65","","","","","","","","","","","","","","","","","","","","","","","","","","","",""
"","10555","SARL_v6","SARL_v6r71xj02p","62b068bbd9bcb120d812de65","fullscreen","fullscreen","fullscreen","","","","","","","","","","","","","","","","","","","","","","","","",""
"73457.40000003576","84033","SARL_v6","SARL_v6r71xj02p","62b068bbd9bcb120d812de65","","","","","","","","","","","","","","","","","","","","","","","","","","","",""
"null","84880","SARL_v6","SARL_v6r71xj02p","62b068bbd9bcb120d812de65","freqPrac","","","img/orange_2bandit_a2.png","null","img/orange_2bandit_a2.png","70","prac","0","1","","","","","","","","","","","","","","","","","",""
"null","85918","SARL_v6","SARL_v6r71xj02p","62b068bbd9bcb120d812de65","feedback","","","img/tooSlow.png","null","","na","prac","","","","","","","","","","","","","","","","","","","",""
"null","86102","SARL_v6","SARL_v6r71xj02p","62b068bbd9bcb120d812de65","fixation","","","img/fixation.png","null","","","prac","","","","","","","","","","","","","","","","","","","",""
"769.1000000238419","86886","SARL_v6","SARL_v6r71xj02p","62b068bbd9bcb120d812de65","infreqPrac","","","img/blue_2bandit_a2.png","68","img/blue_2bandit_a2.png","68","prac","1","1","","","","","","","","","","","","","","","","","",""
"769.1000000238419","86938","SARL_v6","SARL_v6r71xj02p","62b068bbd9bcb120d812de65","infreqPrac_resp","","","img/blue_2bandit_a.png","68","img/blue_2bandit_a.png","68","prac","","","","","","","","","","","","","","","","","","","",""
"null","87117","SARL_v6","SARL_v6r71xj02p","62b068bbd9bcb120d812de65","fixation","","","img/fixation.png","null","","","prac","","","","","","","","","","","","","","","","","","","",""
"450.2999999523163","87582","SARL_v6","SARL_v6r71xj02p","62b068bbd9bcb120d812de65","freqPrac","","","img/orange_2bandit_a2.png","70","img/orange_2bandit_a2.png","70","prac","1","1","","","","","","","","","","","","","","","","","",""
"450.2999999523163","87954","SARL_v6","SARL_v6r71xj02p","62b068bbd9bcb120d812de65","freqPrac_resp","","","img/orange_2bandit_a.png","70","img/orange_2bandit_a.png","70","prac","","","","","","","","","","","","","","","","","","","",""
"null","88130","SARL_v6","SARL_v6r71xj02p","62b068bbd9bcb120d812de65","fixation","","","img/fixation.png","null","","","prac","","","","","","","","","","","","","","","","","","","",""
"713.1000000238419","88858","SARL_v6","SARL_v6r71xj02p","62b068bbd9bcb120d812de65","infreqPrac","","","img/blue_2bandit_a2.png","68","img/blue_2bandit_a2.png","68","prac","1","1","","","","","","","","","","","","","","","","","",""
"713.1000000238419","88965","SARL_v6","SARL_v6r71xj02p","62b068bbd9bcb120d812de65","infreqPrac_resp","","","img/blue_2bandit_a.png","68","img/blue_2bandit_a.png","68","prac","","","","","","","","","","","","","","","","","","","",""
"null","89148","SARL_v6","SARL_v6r71xj02p","62b068bbd9bcb120d812de65","fixation","","","img/fixation.png","null","","","prac","","","","","","","","","","","","","","","","","","","",""
"663.5","89825","SARL_v6","SARL_v6r71xj02p","62b068bbd9bcb120d812de65","infreqPrac","","","img/blue_2bandit_a2.png","68","img/blue_2bandit_a2.png","68","prac","1","1","","","","","","","","","","","","","","","","","",""
"663.5","89977","SARL_v6","SARL_v6r71xj02p","62b068bbd9bcb120d812de65","infreqPrac_resp","","","img/blue_2bandit_a.png","68","img/blue_2bandit_a.png","68","prac","","","","","","","","","","","","","","","","","","","",""
"null","90144","SARL_v6","SARL_v6r71xj02p","62b068bbd9bcb120d812de65","fixation","","","img/fixation.png","null","","","prac","","","","","","","","","","","","","","","","","","","",""
"603.1999999880791","90761","SARL_v6","SARL_v6r71xj02p","62b068bbd9bcb120d812de65","infreqPrac","","","img/blue_2bandit_a2.png","68","img/blue_2bandit_a2.png","68","prac","1","1","","","","","","","","","","","","","","","","","",""
"603.1999999880791","90985","SARL_v6","SARL_v6r71xj02p","62b068bbd9bcb120d812de65","infreqPrac_resp","","","img/blue_2bandit_a.png","68","img/blue_2bandit_a.png","68","prac","","","","","","","","","","","","","","","","","","","",""
"null","91161","SARL_v6","SARL_v6r71xj02p","62b068bbd9bcb120d812de65","fixation","","","img/fixation.png","null","","","prac","","","","","","","","","","","","","","","","","","","",""
"545.5999999642372","91721","SARL_v6","SARL_v6r71xj02p","62b068bbd9bcb120d812de65","freqPrac","","","img/orange_2bandit_a2.png","70","img/orange_2bandit_a2.png","70","prac","1","1","","","","","","","","","","","","","","","","","",""
"545.5999999642372","91998","SARL_v6","SARL_v6r71xj02p","62b068bbd9bcb120d812de65","freqPrac_resp","","","img/orange_2bandit_a.png","70","img/orange_2bandit_a.png","70","prac","","","","","","","","","","","","","","","","","","","",""
"null","92175","SARL_v6","SARL_v6r71xj02p","62b068bbd9bcb120d812de65","fixation","","","img/fixation.png","null","","","prac","","","","","","","","","","","","","","","","","","","",""
"663.8999999761581","92853","SARL_v6","SARL_v6r71xj02p","62b068bbd9bcb120d812de65","infreqPrac","","","img/blue_2bandit_a2.png","68","img/blue_2bandit_a2.png","68","prac","1","1","","","","","","","","","","","","","","","","","",""
"663.8999999761581","93021","SARL_v6","SARL_v6r71xj02p","62b068bbd9bcb120d812de65","infreqPrac_resp","","","img/blue_2bandit_a.png","68","img/blue_2bandit_a.png","68","prac","","","","","","","","","","","","","","","","","","","",""
"null","93204","SARL_v6","SARL_v6r71xj02p","62b068bbd9bcb120d812de65","fixation","","","img/fixation.png","null","","","prac","","","","","","","","","","","","","","","","","","","",""
"658.8000000119209","93877","SARL_v6","SARL_v6r71xj02p","62b068bbd9bcb120d812de65","freqPrac","","","img/orange_2bandit_a2.png","70","img/orange_2bandit_a2.png","70","prac","1","1","","","","","","","","","","","","","","","","","",""
"658.8000000119209","94052","SARL_v6","SARL_v6r71xj02p","62b068bbd9bcb120d812de65","freqPrac_resp","","","img/orange_2bandit_a.png","70","img/orange_2bandit_a.png","70","prac","","","","","","","","","","","","","","","","","","","",""
"null","94236","SARL_v6","SARL_v6r71xj02p","62b068bbd9bcb120d812de65","fixation","","","img/fixation.png","null","","","prac","","","","","","","","","","","","","","","","","","","",""
"560.1000000238419","94810","SARL_v6","SARL_v6r71xj02p","62b068bbd9bcb120d812de65","freqPrac","","","img/orange_2bandit_a2.png","70","img/orange_2bandit_a2.png","70","prac","1","1","","","","","","","","","","","","","","","","","",""
"560.1000000238419","95064","SARL_v6","SARL_v6r71xj02p","62b068bbd9bcb120d812de65","freqPrac_resp","","","img/orange_2bandit_a.png","70","img/orange_2bandit_a.png","70","prac","","","","","","","","","","","","","","","","","","","",""
"null","95232","SARL_v6","SARL_v6r71xj02p","62b068bbd9bcb120d812de65","fixation","","","img/fixation.png","null","","","prac","","","","","","","","","","","","","","","","","","","",""
"31557.5","126802","SARL_v6","SARL_v6r71xj02p","62b068bbd9bcb120d812de65","","","","","","","","prac","","","","","","","","","","","","","","","","","","","",""
"null","128338","SARL_v6","SARL_v6r71xj02p","62b068bbd9bcb120d812de65","rlPractice","","","img/black_2bandit_a2.png","null","img/black_2bandit_a2.png","","prac","","","0","","","","","","","","","","","","","","","","",""
"null","129124","SARL_v6","SARL_v6r71xj02p","62b068bbd9bcb120d812de65","feedback","","","<div font size = 80> TOO SLOW  </div>","null","","na","prac","","","1","10","-14","10","","","","","","","","","","","","","",""
"null","129300","SARL_v6","SARL_v6r71xj02p","62b068bbd9bcb120d812de65","fixation","","","img/fixation.png","null","","","prac","","","","","","","","","","","","","","","","","","","",""
"622.9000000357628","129937","SARL_v6","SARL_v6r71xj02p","62b068bbd9bcb120d812de65","rlPractice","","","img/black_2bandit_a2.png","75","img/black_2bandit_a2.png","","prac","","","1","","","","","","","","","","","","","","","","",""
"null","130726","SARL_v6","SARL_v6r71xj02p","62b068bbd9bcb120d812de65","feedback","","","<div class=""veryhighPoints""> 5 </div>","null","","na","prac","","","2","5","-5","5","","","","","","","","","","","","","",""
"null","130909","SARL_v6","SARL_v6r71xj02p","62b068bbd9bcb120d812de65","fixation","","","img/fixation.png","null","","","prac","","","","","","","","","","","","","","","","","","","",""
"613.7999999523163","131537","SARL_v6","SARL_v6r71xj02p","62b068bbd9bcb120d812de65","rlPractice","","","img/black_2bandit_a2.png","74","img/black_2bandit_a2.png","","prac","","","2","","","","","","","","","","","","","","","","",""
"null","132305","SARL_v6","SARL_v6r71xj02p","62b068bbd9bcb120d812de65","feedback","","","<div class=""veryhighPoints_sq""> 2 </div>","null","","na","prac","","","3","30","2","30","","","","","","","","","","","","","",""
"null","132474","SARL_v6","SARL_v6r71xj02p","62b068bbd9bcb120d812de65","fixation","","","img/fixation.png","null","","","prac","","","","","","","","","","","","","","","","","","","",""
"692.1999999880791","133180","SARL_v6","SARL_v6r71xj02p","62b068bbd9bcb120d812de65","rlPractice","","","img/black_2bandit_a2.png","74","img/black_2bandit_a2.png","","prac","","","3","","","","","","","","","","","","","","","","",""
"null","133950","SARL_v6","SARL_v6r71xj02p","62b068bbd9bcb120d812de65","feedback","","","<div class=""veryhighPoints_sq""> 20 </div>","null","","na","prac","","","4","-2","20","-2","","","","","","","","","","","","","",""
"null","134134","SARL_v6","SARL_v6r71xj02p","62b068bbd9bcb120d812de65","fixation","","","img/fixation.png","null","","","prac","","","","","","","","","","","","","","","","","","","",""
"6432.5","140578","SARL_v6","SARL_v6r71xj02p","62b068bbd9bcb120d812de65","","","","","","","","prac","","","","","","","","","","","","","","","","","","","",""
"null","141411","SARL_v6","SARL_v6r71xj02p","62b068bbd9bcb120d812de65","mixAttFreqPrac","","","img/orange_2bandit_a2.png","null","img/orange_2bandit_a2.png","70","prac","","","1","","","","","","","","","","","","","","","","",""
"null","141588","SARL_v6","SARL_v6r71xj02p","62b068bbd9bcb120d812de65","fixation","","","img/fixation.png","null","","","prac","","","","","","","","","","","","","","","","","","","",""
"61.30000001192093","141664","SARL_v6","SARL_v6r71xj02p","62b068bbd9bcb120d812de65","mixAttInfreqPrac","","","img/blue_2bandit_a2.png","70","img/blue_2bandit_a2.png","68","prac","","","2","","","","","","","","","","","","","","","","",""
"61.30000001192093","142425","SARL_v6","SARL_v6r71xj02p","62b068bbd9bcb120d812de65","infreqPrac_resp","","","img/blue_2bandit_a.png","70","img/orange_2bandit_a.png","68","prac","","","2","","","","","","","","","","","","","","","","",""
"null","142601","SARL_v6","SARL_v6r71xj02p","62b068bbd9bcb120d812de65","fixation","","","img/fixation.png","null","","","prac","","","","","","","","","","","","","","","","","","","",""
"520.5","143135","SARL_v6","SARL_v6r71xj02p","62b068bbd9bcb120d812de65","mixAttInfreqPrac","","","img/blue_2bandit_a2.png","68","img/blue_2bandit_a2.png","68","prac","","","3","","","","","","","","","","","","","","","","",""
"520.5","143435","SARL_v6","SARL_v6r71xj02p","62b068bbd9bcb120d812de65","infreqPrac_resp","","","img/blue_2bandit_a.png","68","img/orange_2bandit_a.png","68","prac","","","3","","","","","","","","","","","","","","","","",""
"null","143612","SARL_v6","SARL_v6r71xj02p","62b068bbd9bcb120d812de65","fixation","","","img/fixation.png","null","","","prac","","","","","","","","","","","","","","","","","","","",""
"497.9000000357628","144124","SARL_v6","SARL_v6r71xj02p","62b068bbd9bcb120d812de65","mixAttInfreqPrac","","","img/blue_2bandit_a2.png","68","img/blue_2bandit_a2.png","68","prac","","","4","","","","","","","","","","","","","","","","",""
"497.9000000357628","144448","SARL_v6","SARL_v6r71xj02p","62b068bbd9bcb120d812de65","infreqPrac_resp","","","img/blue_2bandit_a.png","68","img/orange_2bandit_a.png","68","prac","","","4","","","","","","","","","","","","","","","","",""
"null","144633","SARL_v6","SARL_v6r71xj02p","62b068bbd9bcb120d812de65","fixation","","","img/fixation.png","null","","","prac","","","","","","","","","","","","","","","","","","","",""
"564.8999999761581","145213","SARL_v6","SARL_v6r71xj02p","62b068bbd9bcb120d812de65","mixAttFreqPrac","","","img/orange_2bandit_a2.png","70","img/orange_2bandit_a2.png","70","prac","","","5","","","","","","","","","","","","","","","","",""
"564.8999999761581","145473","SARL_v6","SARL_v6r71xj02p","62b068bbd9bcb120d812de65","freqPrac_resp","","","img/orange_2bandit_a.png","70","img/orange_2bandit_a.png","70","prac","","","5","","","","","","","","","","","","","","","","",""
"null","145641","SARL_v6","SARL_v6r71xj02p","62b068bbd9bcb120d812de65","fixation","","","img/fixation.png","null","","","prac","","","","","","","","","","","","","","","","","","","",""
"822","146476","SARL_v6","SARL_v6r71xj02p","62b068bbd9bcb120d812de65","mixRLPractice","","","img/black_2bandit_a2.png","75","img/black_2bandit_a2.png","","prac","","","5","","","","","","","","","","","","","","","","",""
"null","147254","SARL_v6","SARL_v6r71xj02p","62b068bbd9bcb120d812de65","feedback","","","<div class=""verylowPoints""> -14 </div>","null","","na","prac","","","6","-14","10","-14","","","","","","","","","","","","","",""
"null","147437","SARL_v6","SARL_v6r71xj02p","62b068bbd9bcb120d812de65","fixation","","","img/fixation.png","null","","","prac","","","","","","","","","","","","","","","","","","","",""
"null","148261","SARL_v6","SARL_v6r71xj02p","62b068bbd9bcb120d812de65","mixAttFreqPrac","","","img/orange_2bandit_a2.png","null","img/orange_2bandit_a2.png","70","prac","","","7","","","","","","","","","","","","","","","","",""
"29.700000047683716","148437","SARL_v6","SARL_v6r71xj02p","62b068bbd9bcb120d812de65","fixation","","","img/fixation.png","68","","","prac","","","","","","","","","","","","","","","","","","","",""
"null","149260","SARL_v6","SARL_v6r71xj02p","62b068bbd9bcb120d812de65","mixAttInfreqPrac","","","img/blue_2bandit_a2.png","null","img/blue_2bandit_a2.png","68","prac","","","8","","","","","","","","","","","","","","","","",""
"null","149436","SARL_v6","SARL_v6r71xj02p","62b068bbd9bcb120d812de65","fixation","","","img/fixation.png","null","","","prac","","","","","","","","","","","","","","","","","","","",""
"106.30000001192093","149556","SARL_v6","SARL_v6r71xj02p","62b068bbd9bcb120d812de65","mixAttFreqPrac","","","img/orange_2bandit_a2.png","68","img/orange_2bandit_a2.png","70","prac","","","9","","","","","","","","","","","","","","","","",""
"106.30000001192093","150263","SARL_v6","SARL_v6r71xj02p","62b068bbd9bcb120d812de65","freqPrac_resp","","","img/orange_2bandit_a.png","68","img/orange_2bandit_a.png","70","prac","","","9","","","","","","","","","","","","","","","","",""
"null","150447","SARL_v6","SARL_v6r71xj02p","62b068bbd9bcb120d812de65","fixation","","","img/fixation.png","null","","","prac","","","","","","","","","","","","","","","","","","","",""
"568.7000000476837","151029","SARL_v6","SARL_v6r71xj02p","62b068bbd9bcb120d812de65","mixAttFreqPrac","","","img/orange_2bandit_a2.png","70","img/orange_2bandit_a2.png","70","prac","","","10","","","","","","","","","","","","","","","","",""
"568.7000000476837","151274","SARL_v6","SARL_v6r71xj02p","62b068bbd9bcb120d812de65","freqPrac_resp","","","img/orange_2bandit_a.png","70","img/orange_2bandit_a.png","70","prac","","","10","","","","","","","","","","","","","","","","",""
"null","151442","SARL_v6","SARL_v6r71xj02p","62b068bbd9bcb120d812de65","fixation","","","img/fixation.png","null","","","prac","","","","","","","","","","","","","","","","","","","",""
"496.60000002384186","151952","SARL_v6","SARL_v6r71xj02p","62b068bbd9bcb120d812de65","mixAttInfreqPrac","","","img/blue_2bandit_a2.png","68","img/blue_2bandit_a2.png","68","prac","","","11","","","","","","","","","","","","","","","","",""
"496.60000002384186","152284","SARL_v6","SARL_v6r71xj02p","62b068bbd9bcb120d812de65","infreqPrac_resp","","","img/blue_2bandit_a.png","68","img/orange_2bandit_a.png","68","prac","","","11","","","","","","","","","","","","","","","","",""
"null","152460","SARL_v6","SARL_v6r71xj02p","62b068bbd9bcb120d812de65","fixation","","","img/fixation.png","null","","","prac","","","","","","","","","","","","","","","","","","","",""
"1254.300000011921","153728","SARL_v6","SARL_v6r71xj02p","62b068bbd9bcb120d812de65","mixRLPractice","","","img/black_2bandit_a2.png","74","img/black_2bandit_a2.png","","prac","","","11","","","","","","","","","","","","","","","","",""
"null","154498","SARL_v6","SARL_v6r71xj02p","62b068bbd9bcb120d812de65","feedback","","","<div class=""verylowPoints_sq""> -5 </div>","null","","na","prac","","","12","5","-5","5","","","","","","","","","","","","","",""
"null","154666","SARL_v6","SARL_v6r71xj02p","62b068bbd9bcb120d812de65","fixation","","","img/fixation.png","null","","","prac","","","","","","","","","","","","","","","","","","","",""
"13376","168054","SARL_v6","SARL_v6r71xj02p","62b068bbd9bcb120d812de65","","","","","","","","prac","","","","","","","","","","","","","","","","","","","",""
"null","168886","SARL_v6","SARL_v6r71xj02p","62b068bbd9bcb120d812de65","freq","","","img/orange_2bandit_a2.png","null","","70","test","0","","1","","","","square","circle","1","1","1","0","","","","","","","",""
"null","169071","SARL_v6","SARL_v6r71xj02p","62b068bbd9bcb120d812de65","fixation","","","img/fixation.png","null","","","test","","","","","","","","","","","","","","","","","","","",""
"594.1999999880791","169680","SARL_v6","SARL_v6r71xj02p","62b068bbd9bcb120d812de65","freq","","","img/orange_2bandit_a2.png","68","","70","test","0","","2","","","","square","circle","2","2","1","0","","","","","","","",""
"null","169902","SARL_v6","SARL_v6r71xj02p","62b068bbd9bcb120d812de65","freq_resp","","","img/orange_2bandit_a.png","68","img/orange_2bandit_a.png","70","test","","","","","","","","","","","1","","","","","","","","",""
"null","170086","SARL_v6","SARL_v6r71xj02p","62b068bbd9bcb120d812de65","fixation","","","img/fixation.png","null","","","test","","","","","","","","","","","","","","","","","","","",""
"568.1000000238419","170668","SARL_v6","SARL_v6r71xj02p","62b068bbd9bcb120d812de65","infreq","","","img/blue_2bandit_a2.png","68","","68","test","1","","3","","","","square","circle","3","3","1","0.3333333333333333","","","","","","","",""
"null","170929","SARL_v6","SARL_v6r71xj02p","62b068bbd9bcb120d812de65","infreq_resp","","","img/blue_2bandit_a.png","68","img/blue_2bandit_a.png","68","test","","","","","","","","","","","1","","","","","","","","",""
"null","171113","SARL_v6","SARL_v6r71xj02p","62b068bbd9bcb120d812de65","fixation","","","img/fixation.png","null","","","test","","","","","","","","","","","","","","","","","","","",""
"449","171576","SARL_v6","SARL_v6r71xj02p","62b068bbd9bcb120d812de65","freq","","","img/orange_2bandit_a2.png","70","","70","test","1","","4","","","","square","circle","4","4","1","0.5","","","","","","","",""
"null","171946","SARL_v6","SARL_v6r71xj02p","62b068bbd9bcb120d812de65","freq_resp","","","img/orange_2bandit_a.png","70","img/orange_2bandit_a.png","70","test","","","","","","","","","","","1","","","","","","","","",""
"null","172115","SARL_v6","SARL_v6r71xj02p","62b068bbd9bcb120d812de65","fixation","","","img/fixation.png","null","","","test","","","","","","","","","","","","","","","","","","","",""
"666.8999999761581","172796","SARL_v6","SARL_v6r71xj02p","62b068bbd9bcb120d812de65","freq","","","img/orange_2bandit_a2.png","70","","70","test","1","","5","","","","square","circle","5","5","1","0.6","","","","","","","",""
"null","172956","SARL_v6","SARL_v6r71xj02p","62b068bbd9bcb120d812de65","freq_resp","","","img/orange_2bandit_a.png","70","img/orange_2bandit_a.png","70","test","","","","","","","","","","","1","","","","","","","","",""
"null","173123","SARL_v6","SARL_v6r71xj02p","62b068bbd9bcb120d812de65","fixation","","","img/fixation.png","null","","","test","","","","","","","","","","","","","","","","","","","",""
"567.0999999642372","173704","SARL_v6","SARL_v6r71xj02p","62b068bbd9bcb120d812de65","freq","","","img/orange_2bandit_a2.png","70","","70","test","1","","6","","","","square","circle","6","6","1","0.6666666666666666","","","","","","","",""
"null","173965","SARL_v6","SARL_v6r71xj02p","62b068bbd9bcb120d812de65","freq_resp","","","img/orange_2bandit_a.png","70","img/orange_2bandit_a.png","70","test","","","","","","","","","","","1","","","","","","","","",""
"null","174141","SARL_v6","SARL_v6r71xj02p","62b068bbd9bcb120d812de65","fixation","","","img/fixation.png","null","","","test","","","","","","","","","","","","","","","","","","","",""
"564.3999999761581","174720","SARL_v6","SARL_v6r71xj02p","62b068bbd9bcb120d812de65","freq","","","img/orange_2bandit_a2.png","70","","70","test","1","","7","","","","square","circle","7","7","1","0.7142857142857143","","","","","","","",""
"null","174981","SARL_v6","SARL_v6r71xj02p","62b068bbd9bcb120d812de65","freq_resp","","","img/orange_2bandit_a.png","70","img/orange_2bandit_a.png","70","test","","","","","","","","","","","1","","","","","","","","",""
"null","175165","SARL_v6","SARL_v6r71xj02p","62b068bbd9bcb120d812de65","fixation","","","img/fixation.png","null","","","test","","","","","","","","","","","","","","","","","","","",""
"695.8000000119209","175876","SARL_v6","SARL_v6r71xj02p","62b068bbd9bcb120d812de65","freq","","","img/orange_2bandit_a2.png","70","","70","test","1","","8","","","","square","circle","8","8","1","0.75","","","","","","","",""
"null","176005","SARL_v6","SARL_v6r71xj02p","62b068bbd9bcb120d812de65","freq_resp","","","img/orange_2bandit_a.png","70","img/orange_2bandit_a.png","70","test","","","","","","","","","","","1","","","","","","","","",""
"null","176181","SARL_v6","SARL_v6r71xj02p","62b068bbd9bcb120d812de65","fixation","","","img/fixation.png","null","","","test","","","","","","","","","","","","","","","","","","","",""
"532.1999999880791","176728","SARL_v6","SARL_v6r71xj02p","62b068bbd9bcb120d812de65","freq","","","img/orange_2bandit_a2.png","70","","70","test","1","","9","","","","square","circle","9","9","1","0.7777777777777778","","","","","","","",""
"null","177021","SARL_v6","SARL_v6r71xj02p","62b068bbd9bcb120d812de65","freq_resp","","","img/orange_2bandit_a.png","70","img/orange_2bandit_a.png","70","test","","","","","","","","","","","1","","","","","","","","",""
"null","177197","SARL_v6","SARL_v6r71xj02p","62b068bbd9bcb120d812de65","fixation","","","img/fixation.png","null","","","test","","","","","","","","","","","","","","","","","","","",""
"560.6999999880791","177772","SARL_v6","SARL_v6r71xj02p","62b068bbd9bcb120d812de65","infreq","","","img/blue_2bandit_a2.png","68","","68","test","1","","10","","","","square","circle","10","10","1","0.8","","","","","","","",""
"null","178026","SARL_v6","SARL_v6r71xj02p","62b068bbd9bcb120d812de65","infreq_resp","","","img/blue_2bandit_a.png","68","img/blue_2bandit_a.png","68","test","","","","","","","","","","","1","","","","","","","","",""
"null","178194","SARL_v6","SARL_v6r71xj02p","62b068bbd9bcb120d812de65","fixation","","","img/fixation.png","null","","","test","","","","","","","","","","","","","","","","","","","",""
"732.3000000119209","178941","SARL_v6","SARL_v6r71xj02p","62b068bbd9bcb120d812de65","freq","","","img/orange_2bandit_a2.png","70","","70","test","1","","11","","","","square","circle","11","11","1","0.8181818181818182","","","","","","","",""
"null","179029","SARL_v6","SARL_v6r71xj02p","62b068bbd9bcb120d812de65","freq_resp","","","img/orange_2bandit_a.png","70","img/orange_2bandit_a.png","70","test","","","","","","","","","","","1","","","","","","","","",""
"null","179205","SARL_v6","SARL_v6r71xj02p","62b068bbd9bcb120d812de65","fixation","","","img/fixation.png","null","","","test","","","","","","","","","","","","","","","","","","","",""
"null","180029","SARL_v6","SARL_v6r71xj02p","62b068bbd9bcb120d812de65","freq","","","img/orange_2bandit_a2.png","null","","70","test","0","","12","","","","square","circle","12","12","1","0.75","","","","","","","",""
"null","180206","SARL_v6","SARL_v6r71xj02p","62b068bbd9bcb120d812de65","fixation","","","img/fixation.png","null","","","test","","","","","","","","","","","","","","","","","","","",""
"35.90000003576279","180257","SARL_v6","SARL_v6r71xj02p","62b068bbd9bcb120d812de65","freq","","","img/orange_2bandit_a2.png","70","","70","test","1","","13","","","","square","circle","13","13","1","0.7692307692307693","","","","","","","",""
"null","181045","SARL_v6","SARL_v6r71xj02p","62b068bbd9bcb120d812de65","freq_resp","","","img/orange_2bandit_a.png","70","img/orange_2bandit_a.png","70","test","","","","","","","","","","","1","","","","","","","","",""
"null","181221","SARL_v6","SARL_v6r71xj02p","62b068bbd9bcb120d812de65","fixation","","","img/fixation.png","null","","","test","","","","","","","","","","","","","","","","","","","",""
"180.5999999642372","181416","SARL_v6","SARL_v6r71xj02p","62b068bbd9bcb120d812de65","infreq","","","img/blue_2bandit_a2.png","70","","68","test","0","","14","","","","square","circle","14","14","1","0.7142857142857143","","","","","","","",""
"null","182052","SARL_v6","SARL_v6r71xj02p","62b068bbd9bcb120d812de65","infreq_resp","","","img/blue_2bandit_a.png","70","img/blue_2bandit_a.png","68","test","","","","","","","","","","","1","","","","","","","","",""
"null","182219","SARL_v6","SARL_v6r71xj02p","62b068bbd9bcb120d812de65","fixation","","","img/fixation.png","null","","","test","","","","","","","","","","","","","","","","","","","",""
"706.4000000357628","182940","SARL_v6","SARL_v6r71xj02p","62b068bbd9bcb120d812de65","freq","","","img/orange_2bandit_a2.png","70","","70","test","1","","15","","","","square","circle","15","15","1","0.7333333333333333","","","","","","","",""
"null","183052","SARL_v6","SARL_v6r71xj02p","62b068bbd9bcb120d812de65","freq_resp","","","img/orange_2bandit_a.png","70","img/orange_2bandit_a.png","70","test","","","","","","","","","","","1","","","","","","","","",""
"null","183227","SARL_v6","SARL_v6r71xj02p","62b068bbd9bcb120d812de65","fixation","","","img/fixation.png","null","","","test","","","","","","","","","","","","","","","","","","","",""
"593.5999999642372","183836","SARL_v6","SARL_v6r71xj02p","62b068bbd9bcb120d812de65","freq","","","img/orange_2bandit_a2.png","70","","70","test","1","","16","","","","square","circle","16","16","1","0.75","","","","","","","",""
"null","184058","SARL_v6","SARL_v6r71xj02p","62b068bbd9bcb120d812de65","freq_resp","","","img/orange_2bandit_a.png","70","img/orange_2bandit_a.png","70","test","","","","","","","","","","","1","","","","","","","","",""
"null","184226","SARL_v6","SARL_v6r71xj02p","62b068bbd9bcb120d812de65","fixation","","","img/fixation.png","null","","","test","","","","","","","","","","","","","","","","","","","",""
"543.5999999642372","184784","SARL_v6","SARL_v6r71xj02p","62b068bbd9bcb120d812de65","freq","","","img/orange_2bandit_a2.png","70","","70","test","1","","17","","","","square","circle","17","17","1","0.7647058823529411","","","","","","","",""
"null","185068","SARL_v6","SARL_v6r71xj02p","62b068bbd9bcb120d812de65","freq_resp","","","img/orange_2bandit_a.png","70","img/orange_2bandit_a.png","70","test","","","","","","","","","","","1","","","","","","","","",""
"null","185244","SARL_v6","SARL_v6r71xj02p","62b068bbd9bcb120d812de65","fixation","","","img/fixation.png","null","","","test","","","","","","","","","","","","","","","","","","","",""
"562.4000000357628","185820","SARL_v6","SARL_v6r71xj02p","62b068bbd9bcb120d812de65","freq","","","img/orange_2bandit_a2.png","70","","70","test","1","","18","","","","square","circle","18","18","1","0.7777777777777778","","","","","","","",""
"null","186076","SARL_v6","SARL_v6r71xj02p","62b068bbd9bcb120d812de65","freq_resp","","","img/orange_2bandit_a.png","70","img/orange_2bandit_a.png","70","test","","","","","","","","","","","1","","","","","","","","",""
"null","186243","SARL_v6","SARL_v6r71xj02p","62b068bbd9bcb120d812de65","fixation","","","img/fixation.png","null","","","test","","","","","","","","","","","","","","","","","","","",""
"478.69999998807907","186736","SARL_v6","SARL_v6r71xj02p","62b068bbd9bcb120d812de65","freq","","","img/orange_2bandit_a2.png","70","","70","test","1","","19","","","","square","circle","19","19","1","0.7894736842105263","","","","","","","",""
"null","187076","SARL_v6","SARL_v6r71xj02p","62b068bbd9bcb120d812de65","freq_resp","","","img/orange_2bandit_a.png","70","img/orange_2bandit_a.png","70","test","","","","","","","","","","","1","","","","","","","","",""
"null","187252","SARL_v6","SARL_v6r71xj02p","62b068bbd9bcb120d812de65","fixation","","","img/fixation.png","null","","","test","","","","","","","","","","","","","","","","","","","",""
"442.19999998807907","187708","SARL_v6","SARL_v6r71xj02p","62b068bbd9bcb120d812de65","freq","","","img/orange_2bandit_a2.png","70","","70","test","1","","20","","","","square","circle","20","20","1","0.8","","","","","","","",""
"null","188087","SARL_v6","SARL_v6r71xj02p","62b068bbd9bcb120d812de65","freq_resp","","","img/orange_2bandit_a.png","70","img/orange_2bandit_a.png","70","test","","","","","","","","","","","1","","","","","","","","",""
"null","188271","SARL_v6","SARL_v6r71xj02p","62b068bbd9bcb120d812de65","fixation","","","img/fixation.png","null","","","test","","","","","","","","","","","","","","","","","","","",""
"385.60000002384186","188672","SARL_v6","SARL_v6r71xj02p","62b068bbd9bcb120d812de65","freq","","","img/orange_2bandit_a2.png","70","","70","test","1","","21","","","","square","circle","21","21","1","0.8095238095238095","","","","","","","",""
"null","189110","SARL_v6","SARL_v6r71xj02p","62b068bbd9bcb120d812de65","freq_resp","","","img/orange_2bandit_a.png","70","img/orange_2bandit_a.png","70","test","","","","","","","","","","","1","","","","","","","","",""
"null","189280","SARL_v6","SARL_v6r71xj02p","62b068bbd9bcb120d812de65","fixation","","","img/fixation.png","null","","","test","","","","","","","","","","","","","","","","","","","",""
"374.2000000476837","189669","SARL_v6","SARL_v6r71xj02p","62b068bbd9bcb120d812de65","freq","","","img/orange_2bandit_a2.png","70","","70","test","1","","22","","","","square","circle","22","22","1","0.8181818181818182","","","","","","","",""
"null","190111","SARL_v6","SARL_v6r71xj02p","62b068bbd9bcb120d812de65","freq_resp","","","img/orange_2bandit_a.png","70","img/orange_2bandit_a.png","70","test","","","","","","","","","","","1","","","","","","","","",""
"null","190294","SARL_v6","SARL_v6r71xj02p","62b068bbd9bcb120d812de65","fixation","","","img/fixation.png","null","","","test","","","","","","","","","","","","","","","","","","","",""
"464.4000000357628","190773","SARL_v6","SARL_v6r71xj02p","62b068bbd9bcb120d812de65","freq","","","img/orange_2bandit_a2.png","70","","70","test","1","","23","","","","square","circle","23","23","1","0.8260869565217391","","","","","","","",""
"null","191128","SARL_v6","SARL_v6r71xj02p","62b068bbd9bcb120d812de65","freq_resp","","","img/orange_2bandit_a.png","70","img/orange_2bandit_a.png","70","test","","","","","","","","","","","1","","","","","","","","",""
"null","191311","SARL_v6","SARL_v6r71xj02p","62b068bbd9bcb120d812de65","fixation","","","img/fixation.png","null","","","test","","","","","","","","","","","","","","","","","","","",""
"829.5","192156","SARL_v6","SARL_v6r71xj02p","62b068bbd9bcb120d812de65","rl","","","img/black_2bandit_a2.png","74","","0","test","","","24","","","-3","square","circle","","0","1","","74","-3","-3","-3","-3","square","1","0"
"null","192941","SARL_v6","SARL_v6r71xj02p","62b068bbd9bcb120d812de65","feedback","","","<div class=""verylowPoints_sq""> -3 </div>","null","","na","test","","","NaN","","","","","","","","1","","74","","","","","","1",""
"null","193765","SARL_v6","SARL_v6r71xj02p","62b068bbd9bcb120d812de65","freq","","","img/orange_2bandit_a2.png","null","","70","test","0","","25","","","","square","circle","24","1","2","0.7916666666666666","","","","","","","",""
"null","193942","SARL_v6","SARL_v6r71xj02p","62b068bbd9bcb120d812de65","fixation","","","img/fixation.png","null","","","test","","","","","","","","","","","","","","","","","","","",""
"67.80000001192093","194024","SARL_v6","SARL_v6r71xj02p","62b068bbd9bcb120d812de65","freq","","","img/orange_2bandit_a2.png","70","","70","test","1","","26","","","","square","circle","25","2","2","0.8","","","","","","","",""
"null","194785","SARL_v6","SARL_v6r71xj02p","62b068bbd9bcb120d812de65","freq_resp","","","img/orange_2bandit_a.png","70","img/orange_2bandit_a.png","70","test","","","","","","","","","","","2","","","","","","","","",""
"null","194969","SARL_v6","SARL_v6r71xj02p","62b068bbd9bcb120d812de65","fixation","","","img/fixation.png","null","","","test","","","","","","","","","","","","","","","","","","","",""
"120","195103","SARL_v6","SARL_v6r71xj02p","62b068bbd9bcb120d812de65","infreq","","","img/blue_2bandit_a2.png","70","","68","test","0","","27","","","","square","circle","26","3","2","0.7692307692307693","","","","","","","",""
"null","195803","SARL_v6","SARL_v6r71xj02p","62b068bbd9bcb120d812de65","infreq_resp","","","img/blue_2bandit_a.png","70","img/blue_2bandit_a.png","68","test","","","","","","","","","","","2","","","","","","","","",""
"null","195971","SARL_v6","SARL_v6r71xj02p","62b068bbd9bcb120d812de65","fixation","","","img/fixation.png","null","","","test","","","","","","","","","","","","","","","","","","","",""
"null","196788","SARL_v6","SARL_v6r71xj02p","62b068bbd9bcb120d812de65","freq","","","img/orange_2bandit_a2.png","null","","70","test","0","","28","","","","square","circle","27","4","2","0.7407407407407407","","","","","","","",""
"null","196964","SARL_v6","SARL_v6r71xj02p","62b068bbd9bcb120d812de65","fixation","","","img/fixation.png","null","","","test","","","","","","","","","","","","","","","","","","","",""
"586.5","197564","SARL_v6","SARL_v6r71xj02p","62b068bbd9bcb120d812de65","freq","","","img/orange_2bandit_a2.png","70","","70","test","1","","29","","","","square","circle","28","5","2","0.75","","","","","","","",""
"null","197795","SARL_v6","SARL_v6r71xj02p","62b068bbd9bcb120d812de65","freq_resp","","","img/orange_2bandit_a.png","70","img/orange_2bandit_a.png","70","test","","","","","","","","","","","2","","","","","","","","",""
"null","197962","SARL_v6","SARL_v6r71xj02p","62b068bbd9bcb120d812de65","fixation","","","img/fixation.png","null","","","test","","","","","","","","","","","","","","","","","","","",""
"340.69999998807907","198317","SARL_v6","SARL_v6r71xj02p","62b068bbd9bcb120d812de65","freq","","","img/orange_2bandit_a2.png","70","","70","test","1","","30","","","","square","circle","29","6","2","0.7586206896551724","","","","","","","",""
"null","198805","SARL_v6","SARL_v6r71xj02p","62b068bbd9bcb120d812de65","freq_resp","","","img/orange_2bandit_a.png","70","img/orange_2bandit_a.png","70","test","","","","","","","","","","","2","","","","","","","","",""
"null","198989","SARL_v6","SARL_v6r71xj02p","62b068bbd9bcb120d812de65","fixation","","","img/fixation.png","null","","","test","","","","","","","","","","","","","","","","","","","",""
"424.80000001192093","199428","SARL_v6","SARL_v6r71xj02p","62b068bbd9bcb120d812de65","freq","","","img/orange_2bandit_a2.png","70","","70","test","1","","31","","","","square","circle","30","7","2","0.7666666666666667","","","","","","","",""
"null","199823","SARL_v6","SARL_v6r71xj02p","62b068bbd9bcb120d812de65","freq_resp","","","img/orange_2bandit_a.png","70","img/orange_2bandit_a.png","70","test","","","","","","","","","","","2","","","","","","","","",""
"null","200006","SARL_v6","SARL_v6r71xj02p","62b068bbd9bcb120d812de65","fixation","","","img/fixation.png","null","","","test","","","","","","","","","","","","","","","","","","","",""
"352.5999999642372","200373","SARL_v6","SARL_v6r71xj02p","62b068bbd9bcb120d812de65","freq","","","img/orange_2bandit_a2.png","70","","70","test","1","","32","","","","square","circle","31","8","2","0.7741935483870968","","","","","","","",""
"null","200838","SARL_v6","SARL_v6r71xj02p","62b068bbd9bcb120d812de65","freq_resp","","","img/orange_2bandit_a.png","70","img/orange_2bandit_a.png","70","test","","","","","","","","","","","2","","","","","","","","",""
"null","201022","SARL_v6","SARL_v6r71xj02p","62b068bbd9bcb120d812de65","fixation","","","img/fixation.png","null","","","test","","","","","","","","","","","","","","","","","","","",""
"368.30000001192093","201404","SARL_v6","SARL_v6r71xj02p","62b068bbd9bcb120d812de65","freq","","","img/orange_2bandit_a2.png","70","","70","test","1","","33","","","","square","circle","32","9","2","0.78125","","","","","","","",""
"null","201854","SARL_v6","SARL_v6r71xj02p","62b068bbd9bcb120d812de65","freq_resp","","","img/orange_2bandit_a.png","70","img/orange_2bandit_a.png","70","test","","","","","","","","","","","2","","","","","","","","",""
"null","202038","SARL_v6","SARL_v6r71xj02p","62b068bbd9bcb120d812de65","fixation","","","img/fixation.png","null","","","test","","","","","","","","","","","","","","","","","","","",""
"423.5","202476","SARL_v6","SARL_v6r71xj02p","62b068bbd9bcb120d812de65","freq","","","img/orange_2bandit_a2.png","70","","70","test","1","","34","","","","square","circle","33","10","2","0.7878787878787878","","","","","","","",""
"null","202872","SARL_v6","SARL_v6r71xj02p","62b068bbd9bcb120d812de65","freq_resp","","","img/orange_2bandit_a.png","70","img/orange_2bandit_a.png","70","test","","","","","","","","","","","2","","","","","","","","",""
"null","203047","SARL_v6","SARL_v6r71xj02p","62b068bbd9bcb120d812de65","fixation","","","img/fixation.png","null","","","test","","","","","","","","","","","","","","","","","","","",""
"493.69999998807907","203556","SARL_v6","SARL_v6r71xj02p","62b068bbd9bcb120d812de65","freq","","","img/orange_2bandit_a2.png","70","","70","test","1","","35","","","","square","circle","34","11","2","0.7941176470588235","","","","","","","",""
"null","203889","SARL_v6","SARL_v6r71xj02p","62b068bbd9bcb120d812de65","freq_resp","","","img/orange_2bandit_a.png","70","img/orange_2bandit_a.png","70","test","","","","","","","","","","","2","","","","","","","","",""
"null","204065","SARL_v6","SARL_v6r71xj02p","62b068bbd9bcb120d812de65","fixation","","","img/fixation.png","null","","","test","","","","","","","","","","","","","","","","","","","",""
"453.5","204532","SARL_v6","SARL_v6r71xj02p","62b068bbd9bcb120d812de65","freq","","","img/orange_2bandit_a2.png","70","","70","test","1","","36","","","","square","circle","35","12","2","0.8","","","","","","","",""
"null","204895","SARL_v6","SARL_v6r71xj02p","62b068bbd9bcb120d812de65","freq_resp","","","img/orange_2bandit_a.png","70","img/orange_2bandit_a.png","70","test","","","","","","","","","","","2","","","","","","","","",""
"null","205079","SARL_v6","SARL_v6r71xj02p","62b068bbd9bcb120d812de65","fixation","","","img/fixation.png","null","","","test","","","","","","","","","","","","","","","","","","","",""
"362.5","205456","SARL_v6","SARL_v6r71xj02p","62b068bbd9bcb120d812de65","freq","","","img/orange_2bandit_a2.png","70","","70","test","1","","37","","","","square","circle","36","13","2","0.8055555555555556","","","","","","","",""
"null","205922","SARL_v6","SARL_v6r71xj02p","62b068bbd9bcb120d812de65","freq_resp","","","img/orange_2bandit_a.png","70","img/orange_2bandit_a.png","70","test","","","","","","","","","","","2","","","","","","","","",""
"null","206105","SARL_v6","SARL_v6r71xj02p","62b068bbd9bcb120d812de65","fixation","","","img/fixation.png","null","","","test","","","","","","","","","","","","","","","","","","","",""
"432.4000000357628","206552","SARL_v6","SARL_v6r71xj02p","62b068bbd9bcb120d812de65","freq","","","img/orange_2bandit_a2.png","70","","70","test","1","","38","","","","square","circle","37","14","2","0.8108108108108109","","","","","","","",""
"null","206940","SARL_v6","SARL_v6r71xj02p","62b068bbd9bcb120d812de65","freq_resp","","","img/orange_2bandit_a.png","70","img/orange_2bandit_a.png","70","test","","","","","","","","","","","2","","","","","","","","",""
"null","207107","SARL_v6","SARL_v6r71xj02p","62b068bbd9bcb120d812de65","fixation","","","img/fixation.png","null","","","test","","","","","","","","","","","","","","","","","","","",""
"362.60000002384186","207484","SARL_v6","SARL_v6r71xj02p","62b068bbd9bcb120d812de65","freq","","","img/orange_2bandit_a2.png","70","","70","test","1","","39","","","","square","circle","38","15","2","0.8157894736842105","","","","","","","",""
"null","207949","SARL_v6","SARL_v6r71xj02p","62b068bbd9bcb120d812de65","freq_resp","","","img/orange_2bandit_a.png","70","img/orange_2bandit_a.png","70","test","","","","","","","","","","","2","","","","","","","","",""
"null","208117","SARL_v6","SARL_v6r71xj02p","62b068bbd9bcb120d812de65","fixation","","","img/fixation.png","null","","","test","","","","","","","","","","","","","","","","","","","",""
"445.2000000476837","208576","SARL_v6","SARL_v6r71xj02p","62b068bbd9bcb120d812de65","freq","","","img/orange_2bandit_a2.png","70","","70","test","1","","40","","","","square","circle","39","16","2","0.8205128205128205","","","","","","","",""
"null","208948","SARL_v6","SARL_v6r71xj02p","62b068bbd9bcb120d812de65","freq_resp","","","img/orange_2bandit_a.png","70","img/orange_2bandit_a.png","70","test","","","","","","","","","","","2","","","","","","","","",""
"null","209124","SARL_v6","SARL_v6r71xj02p","62b068bbd9bcb120d812de65","fixation","","","img/fixation.png","null","","","test","","","","","","","","","","","","","","","","","","","",""
"414.30000001192093","209552","SARL_v6","SARL_v6r71xj02p","62b068bbd9bcb120d812de65","freq","","","img/orange_2bandit_a2.png","70","","70","test","1","","41","","","","square","circle","40","17","2","0.825","","","","","","","",""
"null","209955","SARL_v6","SARL_v6r71xj02p","62b068bbd9bcb120d812de65","freq_resp","","","img/orange_2bandit_a.png","70","img/orange_2bandit_a.png","70","test","","","","","","","","","","","2","","","","","","","","",""
"null","210139","SARL_v6","SARL_v6r71xj02p","62b068bbd9bcb120d812de65","fixation","","","img/fixation.png","null","","","test","","","","","","","","","","","","","","","","","","","",""
"391.39999997615814","210544","SARL_v6","SARL_v6r71xj02p","62b068bbd9bcb120d812de65","freq","","","img/orange_2bandit_a2.png","70","","70","test","1","","42","","","","square","circle","41","18","2","0.8292682926829268","","","","","","","",""
"null","210978","SARL_v6","SARL_v6r71xj02p","62b068bbd9bcb120d812de65","freq_resp","","","img/orange_2bandit_a.png","70","img/orange_2bandit_a.png","70","test","","","","","","","","","","","2","","","","","","","","",""
"null","211146","SARL_v6","SARL_v6r71xj02p","62b068bbd9bcb120d812de65","fixation","","","img/fixation.png","null","","","test","","","","","","","","","","","","","","","","","","","",""
"643","211804","SARL_v6","SARL_v6r71xj02p","62b068bbd9bcb120d812de65","infreq","","","img/blue_2bandit_a2.png","68","","68","test","1","","43","","","","square","circle","42","19","2","0.8333333333333334","","","","","","","",""
"null","211974","SARL_v6","SARL_v6r71xj02p","62b068bbd9bcb120d812de65","infreq_resp","","","img/blue_2bandit_a.png","68","img/blue_2bandit_a.png","68","test","","","","","","","","","","","2","","","","","","","","",""
"null","212145","SARL_v6","SARL_v6r71xj02p","62b068bbd9bcb120d812de65","fixation","","","img/fixation.png","null","","","test","","","","","","","","","","","","","","","","","","","",""
"800.6000000238419","212961","SARL_v6","SARL_v6r71xj02p","62b068bbd9bcb120d812de65","freq","","","img/orange_2bandit_a2.png","70","","70","test","1","","44","","","","square","circle","43","20","2","0.8372093023255814","","","","","","","",""
"null","213143","SARL_v6","SARL_v6r71xj02p","62b068bbd9bcb120d812de65","fixation","","","img/fixation.png","null","","","test","","","","","","","","","","","","","","","","","","","",""
"753.9000000357628","213912","SARL_v6","SARL_v6r71xj02p","62b068bbd9bcb120d812de65","rl","","","img/black_2bandit_a2.png","75","","0","test","","","45","","","-8","square","circle","","0","2","","75","-8","-5","-5","-8","circle","2","0"
"null","214682","SARL_v6","SARL_v6r71xj02p","62b068bbd9bcb120d812de65","feedback","","","<div class=""verylowPoints""> -8 </div>","null","","na","test","","","NaN","","","","","","","","2","","75","","","","","","2",""
"null","215506","SARL_v6","SARL_v6r71xj02p","62b068bbd9bcb120d812de65","freq","","","img/orange_2bandit_a2.png","null","","70","test","0","","46","","","","square","circle","44","1","3","0.8181818181818182","","","","","","","",""
"null","215682","SARL_v6","SARL_v6r71xj02p","62b068bbd9bcb120d812de65","fixation","","","img/fixation.png","null","","","test","","","","","","","","","","","","","","","","","","","",""
"683","216380","SARL_v6","SARL_v6r71xj02p","62b068bbd9bcb120d812de65","freq","","","img/orange_2bandit_a2.png","68","","70","test","0","","47","","","","square","circle","45","2","3","0.8","","","","","","","",""
"null","216516","SARL_v6","SARL_v6r71xj02p","62b068bbd9bcb120d812de65","freq_resp","","","img/orange_2bandit_a.png","68","img/orange_2bandit_a.png","70","test","","","","","","","","","","","3","","","","","","","","",""
"null","216699","SARL_v6","SARL_v6r71xj02p","62b068bbd9bcb120d812de65","fixation","","","img/fixation.png","null","","","test","","","","","","","","","","","","","","","","","","","",""
"622.1000000238419","217336","SARL_v6","SARL_v6r71xj02p","62b068bbd9bcb120d812de65","freq","","","img/orange_2bandit_a2.png","70","","70","test","1","","48","","","","square","circle","46","3","3","0.8043478260869565","","","","","","","",""
"null","217542","SARL_v6","SARL_v6r71xj02p","62b068bbd9bcb120d812de65","freq_resp","","","img/orange_2bandit_a.png","70","img/orange_2bandit_a.png","70","test","","","","","","","","","","","3","","","","","","","","",""
"null","217717","SARL_v6","SARL_v6r71xj02p","62b068bbd9bcb120d812de65","fixation","","","img/fixation.png","null","","","test","","","","","","","","","","","","","","","","","","","",""
"562.8999999761581","218296","SARL_v6","SARL_v6r71xj02p","62b068bbd9bcb120d812de65","infreq","","","img/blue_2bandit_a2.png","68","","68","test","1","","49","","","","square","circle","47","4","3","0.8085106382978723","","","","","","","",""
"null","218557","SARL_v6","SARL_v6r71xj02p","62b068bbd9bcb120d812de65","infreq_resp","","","img/blue_2bandit_a.png","68","img/blue_2bandit_a.png","68","test","","","","","","","","","","","3","","","","","","","","",""
"null","218732","SARL_v6","SARL_v6r71xj02p","62b068bbd9bcb120d812de65","fixation","","","img/fixation.png","null","","","test","","","","","","","","","","","","","","","","","","","",""
"585.0999999642372","219333","SARL_v6","SARL_v6r71xj02p","62b068bbd9bcb120d812de65","freq","","","img/orange_2bandit_a2.png","70","","70","test","1","","50","","","","square","circle","48","5","3","0.8125","","","","","","","",""
"null","219570","SARL_v6","SARL_v6r71xj02p","62b068bbd9bcb120d812de65","freq_resp","","","img/orange_2bandit_a.png","70","img/orange_2bandit_a.png","70","test","","","","","","","","","","","3","","","","","","","","",""
"null","219738","SARL_v6","SARL_v6r71xj02p","62b068bbd9bcb120d812de65","fixation","","","img/fixation.png","null","","","test","","","","","","","","","","","","","","","","","","","",""
"507.30000001192093","220260","SARL_v6","SARL_v6r71xj02p","62b068bbd9bcb120d812de65","freq","","","img/orange_2bandit_a2.png","70","","70","test","1","","51","","","","square","circle","49","6","3","0.8163265306122449","","","","","","","",""
"null","220577","SARL_v6","SARL_v6r71xj02p","62b068bbd9bcb120d812de65","freq_resp","","","img/orange_2bandit_a.png","70","img/orange_2bandit_a.png","70","test","","","","","","","","","","","3","","","","","","","","",""
"null","220753","SARL_v6","SARL_v6r71xj02p","62b068bbd9bcb120d812de65","fixation","","","img/fixation.png","null","","","test","","","","","","","","","","","","","","","","","","","",""
"513.4000000357628","221281","SARL_v6","SARL_v6r71xj02p","62b068bbd9bcb120d812de65","freq","","","img/orange_2bandit_a2.png","70","","70","test","1","","52","","","","square","circle","50","7","3","0.82","","","","","","","",""
"null","221597","SARL_v6","SARL_v6r71xj02p","62b068bbd9bcb120d812de65","freq_resp","","","img/orange_2bandit_a.png","70","img/orange_2bandit_a.png","70","test","","","","","","","","","","","3","","","","","","","","",""
"null","221773","SARL_v6","SARL_v6r71xj02p","62b068bbd9bcb120d812de65","fixation","","","img/fixation.png","null","","","test","","","","","","","","","","","","","","","","","","","",""
"417","222204","SARL_v6","SARL_v6r71xj02p","62b068bbd9bcb120d812de65","freq","","","img/orange_2bandit_a2.png","70","","70","test","1","","53","","","","square","circle","51","8","3","0.8235294117647058","","","","","","","",""
"null","222614","SARL_v6","SARL_v6r71xj02p","62b068bbd9bcb120d812de65","freq_resp","","","img/orange_2bandit_a.png","70","img/orange_2bandit_a.png","70","test","","","","","","","","","","","3","","","","","","","","",""
"null","222789","SARL_v6","SARL_v6r71xj02p","62b068bbd9bcb120d812de65","fixation","","","img/fixation.png","null","","","test","","","","","","","","","","","","","","","","","","","",""
"356.60000002384186","223160","SARL_v6","SARL_v6r71xj02p","62b068bbd9bcb120d812de65","freq","","","img/orange_2bandit_a2.png","70","","70","test","1","","54","","","","square","circle","52","9","3","0.8269230769230769","","","","","","","",""
"null","223633","SARL_v6","SARL_v6r71xj02p","62b068bbd9bcb120d812de65","freq_resp","","","img/orange_2bandit_a.png","70","img/orange_2bandit_a.png","70","test","","","","","","","","","","","3","","","","","","","","",""
"null","223811","SARL_v6","SARL_v6r71xj02p","62b068bbd9bcb120d812de65","fixation","","","img/fixation.png","null","","","test","","","","","","","","","","","","","","","","","","","",""
"350.89999997615814","224177","SARL_v6","SARL_v6r71xj02p","62b068bbd9bcb120d812de65","freq","","","img/orange_2bandit_a2.png","70","","70","test","1","","55","","","","square","circle","53","10","3","0.8301886792452831","","","","","","","",""
"null","224641","SARL_v6","SARL_v6r71xj02p","62b068bbd9bcb120d812de65","freq_resp","","","img/orange_2bandit_a.png","70","img/orange_2bandit_a.png","70","test","","","","","","","","","","","3","","","","","","","","",""
"null","224817","SARL_v6","SARL_v6r71xj02p","62b068bbd9bcb120d812de65","fixation","","","img/fixation.png","null","","","test","","","","","","","","","","","","","","","","","","","",""
"380.30000001192093","225212","SARL_v6","SARL_v6r71xj02p","62b068bbd9bcb120d812de65","freq","","","img/orange_2bandit_a2.png","70","","70","test","1","","56","","","","square","circle","54","11","3","0.8333333333333334","","","","","","","",""
"null","225661","SARL_v6","SARL_v6r71xj02p","62b068bbd9bcb120d812de65","freq_resp","","","img/orange_2bandit_a.png","70","img/orange_2bandit_a.png","70","test","","","","","","","","","","","3","","","","","","","","",""
"null","225845","SARL_v6","SARL_v6r71xj02p","62b068bbd9bcb120d812de65","fixation","","","img/fixation.png","null","","","test","","","","","","","","","","","","","","","","","","","",""
"329.30000001192093","226188","SARL_v6","SARL_v6r71xj02p","62b068bbd9bcb120d812de65","freq","","","img/orange_2bandit_a2.png","70","","70","test","1","","57","","","","square","circle","55","12","3","0.8363636363636363","","","","","","","",""
"null","226685","SARL_v6","SARL_v6r71xj02p","62b068bbd9bcb120d812de65","freq_resp","","","img/orange_2bandit_a.png","70","img/orange_2bandit_a.png","70","test","","","","","","","","","","","3","","","","","","","","",""
"null","226861","SARL_v6","SARL_v6r71xj02p","62b068bbd9bcb120d812de65","fixation","","","img/fixation.png","null","","","test","","","","","","","","","","","","","","","","","","","",""
"328.4000000357628","227204","SARL_v6","SARL_v6r71xj02p","62b068bbd9bcb120d812de65","freq","","","img/orange_2bandit_a2.png","70","","70","test","1","","58","","","","square","circle","56","13","3","0.8392857142857143","","","","","","","",""
"null","227700","SARL_v6","SARL_v6r71xj02p","62b068bbd9bcb120d812de65","freq_resp","","","img/orange_2bandit_a.png","70","img/orange_2bandit_a.png","70","test","","","","","","","","","","","3","","","","","","","","",""
"null","227868","SARL_v6","SARL_v6r71xj02p","62b068bbd9bcb120d812de65","fixation","","","img/fixation.png","null","","","test","","","","","","","","","","","","","","","","","","","",""
"382.39999997615814","228265","SARL_v6","SARL_v6r71xj02p","62b068bbd9bcb120d812de65","freq","","","img/orange_2bandit_a2.png","70","","70","test","1","","59","","","","square","circle","57","14","3","0.8421052631578947","","","","","","","",""
"null","228698","SARL_v6","SARL_v6r71xj02p","62b068bbd9bcb120d812de65","freq_resp","","","img/orange_2bandit_a.png","70","img/orange_2bandit_a.png","70","test","","","","","","","","","","","3","","","","","","","","",""
"null","228867","SARL_v6","SARL_v6r71xj02p","62b068bbd9bcb120d812de65","fixation","","","img/fixation.png","null","","","test","","","","","","","","","","","","","","","","","","","",""
"355.30000001192093","229236","SARL_v6","SARL_v6r71xj02p","62b068bbd9bcb120d812de65","freq","","","img/orange_2bandit_a2.png","70","","70","test","1","","60","","","","square","circle","58","15","3","0.8448275862068966","","","","","","","",""
"null","229702","SARL_v6","SARL_v6r71xj02p","62b068bbd9bcb120d812de65","freq_resp","","","img/orange_2bandit_a.png","70","img/orange_2bandit_a.png","70","test","","","","","","","","","","","3","","","","","","","","",""
"null","229886","SARL_v6","SARL_v6r71xj02p","62b068bbd9bcb120d812de65","fixation","","","img/fixation.png","null","","","test","","","","","","","","","","","","","","","","","","","",""
"367.5999999642372","230268","SARL_v6","SARL_v6r71xj02p","62b068bbd9bcb120d812de65","freq","","","img/orange_2bandit_a2.png","70","","70","test","1","","61","","","","square","circle","59","16","3","0.847457627118644","","","","","","","",""
"null","230717","SARL_v6","SARL_v6r71xj02p","62b068bbd9bcb120d812de65","freq_resp","","","img/orange_2bandit_a.png","70","img/orange_2bandit_a.png","70","test","","","","","","","","","","","3","","","","","","","","",""
"null","230893","SARL_v6","SARL_v6r71xj02p","62b068bbd9bcb120d812de65","fixation","","","img/fixation.png","null","","","test","","","","","","","","","","","","","","","","","","","",""
"368.7999999523163","231276","SARL_v6","SARL_v6r71xj02p","62b068bbd9bcb120d812de65","freq","","","img/orange_2bandit_a2.png","70","","70","test","1","","62","","","","square","circle","60","17","3","0.85","","","","","","","",""
"null","231724","SARL_v6","SARL_v6r71xj02p","62b068bbd9bcb120d812de65","freq_resp","","","img/orange_2bandit_a.png","70","img/orange_2bandit_a.png","70","test","","","","","","","","","","","3","","","","","","","","",""
"null","231893","SARL_v6","SARL_v6r71xj02p","62b068bbd9bcb120d812de65","fixation","","","img/fixation.png","null","","","test","","","","","","","","","","","","","","","","","","","",""
"421.9000000357628","232329","SARL_v6","SARL_v6r71xj02p","62b068bbd9bcb120d812de65","freq","","","img/orange_2bandit_a2.png","70","","70","test","1","","63","","","","square","circle","61","18","3","0.8524590163934426","","","","","","","",""
"null","232731","SARL_v6","SARL_v6r71xj02p","62b068bbd9bcb120d812de65","freq_resp","","","img/orange_2bandit_a.png","70","img/orange_2bandit_a.png","70","test","","","","","","","","","","","3","","","","","","","","",""
"null","232908","SARL_v6","SARL_v6r71xj02p","62b068bbd9bcb120d812de65","fixation","","","img/fixation.png","null","","","test","","","","","","","","","","","","","","","","","","","",""
"497.19999998807907","233420","SARL_v6","SARL_v6r71xj02p","62b068bbd9bcb120d812de65","freq","","","img/orange_2bandit_a2.png","70","","70","test","1","","64","","","","square","circle","62","19","3","0.8548387096774194","","","","","","","",""
"null","233744","SARL_v6","SARL_v6r71xj02p","62b068bbd9bcb120d812de65","freq_resp","","","img/orange_2bandit_a.png","70","img/orange_2bandit_a.png","70","test","","","","","","","","","","","3","","","","","","","","",""
"null","233920","SARL_v6","SARL_v6r71xj02p","62b068bbd9bcb120d812de65","fixation","","","img/fixation.png","null","","","test","","","","","","","","","","","","","","","","","","","",""
"440.0999999642372","234376","SARL_v6","SARL_v6r71xj02p","62b068bbd9bcb120d812de65","freq","","","img/orange_2bandit_a2.png","70","","70","test","1","","65","","","","square","circle","63","20","3","0.8571428571428571","","","","","","","",""
"null","234763","SARL_v6","SARL_v6r71xj02p","62b068bbd9bcb120d812de65","freq_resp","","","img/orange_2bandit_a.png","70","img/orange_2bandit_a.png","70","test","","","","","","","","","","","3","","","","","","","","",""
"null","234933","SARL_v6","SARL_v6r71xj02p","62b068bbd9bcb120d812de65","fixation","","","img/fixation.png","null","","","test","","","","","","","","","","","","","","","","","","","",""
"380.5","235327","SARL_v6","SARL_v6r71xj02p","62b068bbd9bcb120d812de65","freq","","","img/orange_2bandit_a2.png","70","","70","test","1","","66","","","","square","circle","64","21","3","0.859375","","","","","","","",""
"null","235761","SARL_v6","SARL_v6r71xj02p","62b068bbd9bcb120d812de65","freq_resp","","","img/orange_2bandit_a.png","70","img/orange_2bandit_a.png","70","test","","","","","","","","","","","3","","","","","","","","",""
"null","235938","SARL_v6","SARL_v6r71xj02p","62b068bbd9bcb120d812de65","fixation","","","img/fixation.png","null","","","test","","","","","","","","","","","","","","","","","","","",""
"292.0999999642372","236244","SARL_v6","SARL_v6r71xj02p","62b068bbd9bcb120d812de65","freq","","","img/orange_2bandit_a2.png","70","","70","test","1","","67","","","","square","circle","65","22","3","0.8615384615384616","","","","","","","",""
"null","236779","SARL_v6","SARL_v6r71xj02p","62b068bbd9bcb120d812de65","freq_resp","","","img/orange_2bandit_a.png","70","img/orange_2bandit_a.png","70","test","","","","","","","","","","","3","","","","","","","","",""
"null","236956","SARL_v6","SARL_v6r71xj02p","62b068bbd9bcb120d812de65","fixation","","","img/fixation.png","null","","","test","","","","","","","","","","","","","","","","","","","",""
"249.79999995231628","237220","SARL_v6","SARL_v6r71xj02p","62b068bbd9bcb120d812de65","freq","","","img/orange_2bandit_a2.png","70","","70","test","1","","68","","","","square","circle","66","23","3","0.8636363636363636","","","","","","","",""
"null","237795","SARL_v6","SARL_v6r71xj02p","62b068bbd9bcb120d812de65","freq_resp","","","img/orange_2bandit_a.png","70","img/orange_2bandit_a.png","70","test","","","","","","","","","","","3","","","","","","","","",""
"null","237962","SARL_v6","SARL_v6r71xj02p","62b068bbd9bcb120d812de65","fixation","","","img/fixation.png","null","","","test","","","","","","","","","","","","","","","","","","","",""
"267","238244","SARL_v6","SARL_v6r71xj02p","62b068bbd9bcb120d812de65","infreq","","","img/blue_2bandit_a2.png","70","","68","test","0","","69","","","","square","circle","67","24","3","0.8507462686567164","","","","","","","",""
"null","238803","SARL_v6","SARL_v6r71xj02p","62b068bbd9bcb120d812de65","infreq_resp","","","img/blue_2bandit_a.png","70","img/blue_2bandit_a.png","68","test","","","","","","","","","","","3","","","","","","","","",""
"null","238972","SARL_v6","SARL_v6r71xj02p","62b068bbd9bcb120d812de65","fixation","","","img/fixation.png","null","","","test","","","","","","","","","","","","","","","","","","","",""
"590.2000000476837","239577","SARL_v6","SARL_v6r71xj02p","62b068bbd9bcb120d812de65","freq","","","img/orange_2bandit_a2.png","70","","70","test","1","","70","","","","square","circle","68","25","3","0.8529411764705882","","","","","","","",""
"null","239816","SARL_v6","SARL_v6r71xj02p","62b068bbd9bcb120d812de65","freq_resp","","","img/orange_2bandit_a.png","70","img/orange_2bandit_a.png","70","test","","","","","","","","","","","3","","","","","","","","",""
"null","239992","SARL_v6","SARL_v6r71xj02p","62b068bbd9bcb120d812de65","fixation","","","img/fixation.png","null","","","test","","","","","","","","","","","","","","","","","","","",""
"512.9000000357628","240520","SARL_v6","SARL_v6r71xj02p","62b068bbd9bcb120d812de65","freq","","","img/orange_2bandit_a2.png","70","","70","test","1","","71","","","","square","circle","69","26","3","0.855072463768116","","","","","","","",""
"null","240836","SARL_v6","SARL_v6r71xj02p","62b068bbd9bcb120d812de65","freq_resp","","","img/orange_2bandit_a.png","70","img/orange_2bandit_a.png","70","test","","","","","","","","","","","3","","","","","","","","",""
"null","241004","SARL_v6","SARL_v6r71xj02p","62b068bbd9bcb120d812de65","fixation","","","img/fixation.png","null","","","test","","","","","","","","","","","","","","","","","","","",""
"716.1999999880791","241733","SARL_v6","SARL_v6r71xj02p","62b068bbd9bcb120d812de65","rl","","","img/black_2bandit_a2.png","74","","0","test","","","72","","","-4","square","circle","","0","3","","74","-8","-4","-4","-8","square","3","0"
"null","242512","SARL_v6","SARL_v6r71xj02p","62b068bbd9bcb120d812de65","feedback","","","<div class=""verylowPoints_sq""> -4 </div>","null","","na","test","","","NaN","","","","","","","","3","","74","","","","","","3",""
"777.0999999642372","243306","SARL_v6","SARL_v6r71xj02p","62b068bbd9bcb120d812de65","freq","","","img/orange_2bandit_a2.png","68","","70","test","0","","73","","","","square","circle","70","1","4","0.8428571428571429","","","","","","","",""
"null","243345","SARL_v6","SARL_v6r71xj02p","62b068bbd9bcb120d812de65","freq_resp","","","img/orange_2bandit_a.png","68","img/orange_2bandit_a.png","70","test","","","","","","","","","","","4","","","","","","","","",""
"null","243521","SARL_v6","SARL_v6r71xj02p","62b068bbd9bcb120d812de65","fixation","","","img/fixation.png","null","","","test","","","","","","","","","","","","","","","","","","","",""
"676.3999999761581","244213","SARL_v6","SARL_v6r71xj02p","62b068bbd9bcb120d812de65","infreq","","","img/blue_2bandit_a2.png","68","","68","test","1","","74","","","","square","circle","71","2","4","0.8450704225352113","","","","","","","",""
"null","244365","SARL_v6","SARL_v6r71xj02p","62b068bbd9bcb120d812de65","infreq_resp","","","img/blue_2bandit_a.png","68","img/blue_2bandit_a.png","68","test","","","","","","","","","","","4","","","","","","","","",""
"null","244549","SARL_v6","SARL_v6r71xj02p","62b068bbd9bcb120d812de65","fixation","","","img/fixation.png","null","","","test","","","","","","","","","","","","","","","","","","","",""
"535.8000000119209","245100","SARL_v6","SARL_v6r71xj02p","62b068bbd9bcb120d812de65","freq","","","img/orange_2bandit_a2.png","70","","70","test","1","","75","","","","square","circle","72","3","4","0.8472222222222222","","","","","","","",""
"null","245393","SARL_v6","SARL_v6r71xj02p","62b068bbd9bcb120d812de65","freq_resp","","","img/orange_2bandit_a.png","70","img/orange_2bandit_a.png","70","test","","","","","","","","","","","4","","","","","","","","",""
"null","245576","SARL_v6","SARL_v6r71xj02p","62b068bbd9bcb120d812de65","fixation","","","img/fixation.png","null","","","test","","","","","","","","","","","","","","","","","","","",""
"377","245968","SARL_v6","SARL_v6r71xj02p","62b068bbd9bcb120d812de65","freq","","","img/orange_2bandit_a2.png","70","","70","test","1","","76","","","","square","circle","73","4","4","0.8493150684931506","","","","","","","",""
"null","246410","SARL_v6","SARL_v6r71xj02p","62b068bbd9bcb120d812de65","freq_resp","","","img/orange_2bandit_a.png","70","img/orange_2bandit_a.png","70","test","","","","","","","","","","","4","","","","","","","","",""
"null","246577","SARL_v6","SARL_v6r71xj02p","62b068bbd9bcb120d812de65","fixation","","","img/fixation.png","null","","","test","","","","","","","","","","","","","","","","","","","",""
"430.7999999523163","247024","SARL_v6","SARL_v6r71xj02p","62b068bbd9bcb120d812de65","freq","","","img/orange_2bandit_a2.png","70","","70","test","1","","77","","","","square","circle","74","5","4","0.8513513513513513","","","","","","","",""
"null","247410","SARL_v6","SARL_v6r71xj02p","62b068bbd9bcb120d812de65","freq_resp","","","img/orange_2bandit_a.png","70","img/orange_2bandit_a.png","70","test","","","","","","","","","","","4","","","","","","","","",""
"null","247583","SARL_v6","SARL_v6r71xj02p","62b068bbd9bcb120d812de65","fixation","","","img/fixation.png","null","","","test","","","","","","","","","","","","","","","","","","","",""
"376.30000001192093","247972","SARL_v6","SARL_v6r71xj02p","62b068bbd9bcb120d812de65","freq","","","img/orange_2bandit_a2.png","70","","70","test","1","","78","","","","square","circle","75","6","4","0.8533333333333334","","","","","","","",""
"null","248420","SARL_v6","SARL_v6r71xj02p","62b068bbd9bcb120d812de65","freq_resp","","","img/orange_2bandit_a.png","70","img/orange_2bandit_a.png","70","test","","","","","","","","","","","4","","","","","","","","",""
"null","248588","SARL_v6","SARL_v6r71xj02p","62b068bbd9bcb120d812de65","fixation","","","img/fixation.png","null","","","test","","","","","","","","","","","","","","","","","","","",""
"385.19999998807907","248988","SARL_v6","SARL_v6r71xj02p","62b068bbd9bcb120d812de65","freq","","","img/orange_2bandit_a2.png","70","","70","test","1","","79","","","","square","circle","76","7","4","0.8552631578947368","","","","","","","",""
"null","249421","SARL_v6","SARL_v6r71xj02p","62b068bbd9bcb120d812de65","freq_resp","","","img/orange_2bandit_a.png","70","img/orange_2bandit_a.png","70","test","","","","","","","","","","","4","","","","","","","","",""
"null","249597","SARL_v6","SARL_v6r71xj02p","62b068bbd9bcb120d812de65","fixation","","","img/fixation.png","null","","","test","","","","","","","","","","","","","","","","","","","",""
"467.89999997615814","250080","SARL_v6","SARL_v6r71xj02p","62b068bbd9bcb120d812de65","freq","","","img/orange_2bandit_a2.png","70","","70","test","1","","80","","","","square","circle","77","8","4","0.8571428571428571","","","","","","","",""
"null","250435","SARL_v6","SARL_v6r71xj02p","62b068bbd9bcb120d812de65","freq_resp","","","img/orange_2bandit_a.png","70","img/orange_2bandit_a.png","70","test","","","","","","","","","","","4","","","","","","","","",""
"null","250611","SARL_v6","SARL_v6r71xj02p","62b068bbd9bcb120d812de65","fixation","","","img/fixation.png","null","","","test","","","","","","","","","","","","","","","","","","","",""
"359.80000001192093","250986","SARL_v6","SARL_v6r71xj02p","62b068bbd9bcb120d812de65","freq","","","img/orange_2bandit_a2.png","70","","70","test","1","","81","","","","square","circle","78","9","4","0.8589743589743589","","","","","","","",""
"null","251444","SARL_v6","SARL_v6r71xj02p","62b068bbd9bcb120d812de65","freq_resp","","","img/orange_2bandit_a.png","70","img/orange_2bandit_a.png","70","test","","","","","","","","","","","4","","","","","","","","",""
"null","251612","SARL_v6","SARL_v6r71xj02p","62b068bbd9bcb120d812de65","fixation","","","img/fixation.png","null","","","test","","","","","","","","","","","","","","","","","","","",""
"501","252129","SARL_v6","SARL_v6r71xj02p","62b068bbd9bcb120d812de65","freq","","","img/orange_2bandit_a2.png","70","","70","test","1","","82","","","","square","circle","79","10","4","0.8607594936708861","","","","","","","",""
"null","252453","SARL_v6","SARL_v6r71xj02p","62b068bbd9bcb120d812de65","freq_resp","","","img/orange_2bandit_a.png","70","img/orange_2bandit_a.png","70","test","","","","","","","","","","","4","","","","","","","","",""
"null","252628","SARL_v6","SARL_v6r71xj02p","62b068bbd9bcb120d812de65","fixation","","","img/fixation.png","null","","","test","","","","","","","","","","","","","","","","","","","",""
"389.19999998807907","253032","SARL_v6","SARL_v6r71xj02p","62b068bbd9bcb120d812de65","freq","","","img/orange_2bandit_a2.png","70","","70","test","1","","83","","","","square","circle","80","11","4","0.8625","","","","","","","",""
"null","253467","SARL_v6","SARL_v6r71xj02p","62b068bbd9bcb120d812de65","freq_resp","","","img/orange_2bandit_a.png","70","img/orange_2bandit_a.png","70","test","","","","","","","","","","","4","","","","","","","","",""
"null","253642","SARL_v6","SARL_v6r71xj02p","62b068bbd9bcb120d812de65","fixation","","","img/fixation.png","null","","","test","","","","","","","","","","","","","","","","","","","",""
"431.30000001192093","254089","SARL_v6","SARL_v6r71xj02p","62b068bbd9bcb120d812de65","freq","","","img/orange_2bandit_a2.png","70","","70","test","1","","84","","","","square","circle","81","12","4","0.8641975308641975","","","","","","","",""
"null","254477","SARL_v6","SARL_v6r71xj02p","62b068bbd9bcb120d812de65","freq_resp","","","img/orange_2bandit_a.png","70","img/orange_2bandit_a.png","70","test","","","","","","","","","","","4","","","","","","","","",""
"null","254651","SARL_v6","SARL_v6r71xj02p","62b068bbd9bcb120d812de65","fixation","","","img/fixation.png","null","","","test","","","","","","","","","","","","","","","","","","","",""
"382.0999999642372","255049","SARL_v6","SARL_v6r71xj02p","62b068bbd9bcb120d812de65","freq","","","img/orange_2bandit_a2.png","70","","70","test","1","","85","","","","square","circle","82","13","4","0.8658536585365854","","","","","","","",""
"null","255482","SARL_v6","SARL_v6r71xj02p","62b068bbd9bcb120d812de65","freq_resp","","","img/orange_2bandit_a.png","70","img/orange_2bandit_a.png","70","test","","","","","","","","","","","4","","","","","","","","",""
"null","255665","SARL_v6","SARL_v6r71xj02p","62b068bbd9bcb120d812de65","fixation","","","img/fixation.png","null","","","test","","","","","","","","","","","","","","","","","","","",""
"365.5","256044","SARL_v6","SARL_v6r71xj02p","62b068bbd9bcb120d812de65","infreq","","","img/blue_2bandit_a2.png","70","","68","test","0","","86","","","","square","circle","83","14","4","0.8554216867469879","","","","","","","",""
"null","256495","SARL_v6","SARL_v6r71xj02p","62b068bbd9bcb120d812de65","infreq_resp","","","img/blue_2bandit_a.png","70","img/blue_2bandit_a.png","68","test","","","","","","","","","","","4","","","","","","","","",""
"null","256678","SARL_v6","SARL_v6r71xj02p","62b068bbd9bcb120d812de65","fixation","","","img/fixation.png","null","","","test","","","","","","","","","","","","","","","","","","","",""
"488","257180","SARL_v6","SARL_v6r71xj02p","62b068bbd9bcb120d812de65","freq","","","img/orange_2bandit_a2.png","70","","70","test","1","","87","","","","square","circle","84","15","4","0.8571428571428571","","","","","","","",""
"null","257521","SARL_v6","SARL_v6r71xj02p","62b068bbd9bcb120d812de65","freq_resp","","","img/orange_2bandit_a.png","70","img/orange_2bandit_a.png","70","test","","","","","","","","","","","4","","","","","","","","",""
"null","257697","SARL_v6","SARL_v6r71xj02p","62b068bbd9bcb120d812de65","fixation","","","img/fixation.png","null","","","test","","","","","","","","","","","","","","","","","","","",""
"365.4000000357628","258076","SARL_v6","SARL_v6r71xj02p","62b068bbd9bcb120d812de65","freq","","","img/orange_2bandit_a2.png","70","","70","test","1","","88","","","","square","circle","85","16","4","0.8588235294117647","","","","","","","",""
"null","258526","SARL_v6","SARL_v6r71xj02p","62b068bbd9bcb120d812de65","freq_resp","","","img/orange_2bandit_a.png","70","img/orange_2bandit_a.png","70","test","","","","","","","","","","","4","","","","","","","","",""
"null","258710","SARL_v6","SARL_v6r71xj02p","62b068bbd9bcb120d812de65","fixation","","","img/fixation.png","null","","","test","","","","","","","","","","","","","","","","","","","",""
"339.5","259064","SARL_v6","SARL_v6r71xj02p","62b068bbd9bcb120d812de65","freq","","","img/orange_2bandit_a2.png","70","","70","test","1","","89","","","","square","circle","86","17","4","0.8604651162790697","","","","","","","",""
"null","259552","SARL_v6","SARL_v6r71xj02p","62b068bbd9bcb120d812de65","freq_resp","","","img/orange_2bandit_a.png","70","img/orange_2bandit_a.png","70","test","","","","","","","","","","","4","","","","","","","","",""
"null","259737","SARL_v6","SARL_v6r71xj02p","62b068bbd9bcb120d812de65","fixation","","","img/fixation.png","null","","","test","","","","","","","","","","","","","","","","","","","",""
"324.30000001192093","260076","SARL_v6","SARL_v6r71xj02p","62b068bbd9bcb120d812de65","freq","","","img/orange_2bandit_a2.png","70","","70","test","1","","90","","","","square","circle","87","18","4","0.8620689655172413","","","","","","","",""
"null","260572","SARL_v6","SARL_v6r71xj02p","62b068bbd9bcb120d812de65","freq_resp","","","img/orange_2bandit_a.png","70","img/orange_2bandit_a.png","70","test","","","","","","","","","","","4","","","","","","","","",""
"null","260740","SARL_v6","SARL_v6r71xj02p","62b068bbd9bcb120d812de65","fixation","","","img/fixation.png","null","","","test","","","","","","","","","","","","","","","","","","","",""
"352.80000001192093","261108","SARL_v6","SARL_v6r71xj02p","62b068bbd9bcb120d812de65","freq","","","img/orange_2bandit_a2.png","70","","70","test","1","","91","","","","square","circle","88","19","4","0.8636363636363636","","","","","","","",""
"null","261580","SARL_v6","SARL_v6r71xj02p","62b068bbd9bcb120d812de65","freq_resp","","","img/orange_2bandit_a.png","70","img/orange_2bandit_a.png","70","test","","","","","","","","","","","4","","","","","","","","",""
"null","261755","SARL_v6","SARL_v6r71xj02p","62b068bbd9bcb120d812de65","fixation","","","img/fixation.png","null","","","test","","","","","","","","","","","","","","","","","","","",""
"373","262144","SARL_v6","SARL_v6r71xj02p","62b068bbd9bcb120d812de65","freq","","","img/orange_2bandit_a2.png","70","","70","test","1","","92","","","","square","circle","89","20","4","0.8651685393258427","","","","","","","",""
"null","262600","SARL_v6","SARL_v6r71xj02p","62b068bbd9bcb120d812de65","freq_resp","","","img/orange_2bandit_a.png","70","img/orange_2bandit_a.png","70","test","","","","","","","","","","","4","","","","","","","","",""
"null","262783","SARL_v6","SARL_v6r71xj02p","62b068bbd9bcb120d812de65","fixation","","","img/fixation.png","null","","","test","","","","","","","","","","","","","","","","","","","",""
"842.3000000119209","263641","SARL_v6","SARL_v6r71xj02p","62b068bbd9bcb120d812de65","rl","","","img/black_2bandit_a2.png","74","","0","test","","","93","","","0","square","circle","","0","4","","74","-12","0","0","-12","square","4","0"
"null","264410","SARL_v6","SARL_v6r71xj02p","62b068bbd9bcb120d812de65","feedback","","","<div class=""verylowPoints_sq""> 0 </div>","null","","na","test","","","NaN","","","","","","","","4","","74","","","","","","4",""
"690.5","265117","SARL_v6","SARL_v6r71xj02p","62b068bbd9bcb120d812de65","freq","","","img/orange_2bandit_a2.png","68","","70","test","0","","94","","","","square","circle","90","1","5","0.8555555555555555","","","","","","","",""
"null","265248","SARL_v6","SARL_v6r71xj02p","62b068bbd9bcb120d812de65","freq_resp","","","img/orange_2bandit_a.png","68","img/orange_2bandit_a.png","70","test","","","","","","","","","","","5","","","","","","","","",""
"null","265424","SARL_v6","SARL_v6r71xj02p","62b068bbd9bcb120d812de65","fixation","","","img/fixation.png","null","","","test","","","","","","","","","","","","","","","","","","","",""
"702.8000000119209","266141","SARL_v6","SARL_v6r71xj02p","62b068bbd9bcb120d812de65","freq","","","img/orange_2bandit_a2.png","70","","70","test","1","","95","","","","square","circle","91","2","5","0.8571428571428571","","","","","","","",""
"null","266260","SARL_v6","SARL_v6r71xj02p","62b068bbd9bcb120d812de65","freq_resp","","","img/orange_2bandit_a.png","70","img/orange_2bandit_a.png","70","test","","","","","","","","","","","5","","","","","","","","",""
"null","266428","SARL_v6","SARL_v6r71xj02p","62b068bbd9bcb120d812de65","fixation","","","img/fixation.png","null","","","test","","","","","","","","","","","","","","","","","","","",""
"421.80000001192093","266865","SARL_v6","SARL_v6r71xj02p","62b068bbd9bcb120d812de65","freq","","","img/orange_2bandit_a2.png","70","","70","test","1","","96","","","","square","circle","92","3","5","0.8586956521739131","","","","","","","",""
"null","267259","SARL_v6","SARL_v6r71xj02p","62b068bbd9bcb120d812de65","freq_resp","","","img/orange_2bandit_a.png","70","img/orange_2bandit_a.png","70","test","","","","","","","","","","","5","","","","","","","","",""
"null","267435","SARL_v6","SARL_v6r71xj02p","62b068bbd9bcb120d812de65","fixation","","","img/fixation.png","null","","","test","","","","","","","","","","","","","","","","","","","",""
"429.9000000357628","267881","SARL_v6","SARL_v6r71xj02p","62b068bbd9bcb120d812de65","freq","","","img/orange_2bandit_a2.png","70","","70","test","1","","97","","","","square","circle","93","4","5","0.8602150537634409","","","","","","","",""
"null","268275","SARL_v6","SARL_v6r71xj02p","62b068bbd9bcb120d812de65","freq_resp","","","img/orange_2bandit_a.png","70","img/orange_2bandit_a.png","70","test","","","","","","","","","","","5","","","","","","","","",""
"null","268451","SARL_v6","SARL_v6r71xj02p","62b068bbd9bcb120d812de65","fixation","","","img/fixation.png","null","","","test","","","","","","","","","","","","","","","","","","","",""
"362.10000002384186","268828","SARL_v6","SARL_v6r71xj02p","62b068bbd9bcb120d812de65","freq","","","img/orange_2bandit_a2.png","70","","70","test","1","","98","","","","square","circle","94","5","5","0.8617021276595744","","","","","","","",""
"null","269293","SARL_v6","SARL_v6r71xj02p","62b068bbd9bcb120d812de65","freq_resp","","","img/orange_2bandit_a.png","70","img/orange_2bandit_a.png","70","test","","","","","","","","","","","5","","","","","","","","",""
"null","269469","SARL_v6","SARL_v6r71xj02p","62b068bbd9bcb120d812de65","fixation","","","img/fixation.png","null","","","test","","","","","","","","","","","","","","","","","","","",""
"284.80000001192093","269769","SARL_v6","SARL_v6r71xj02p","62b068bbd9bcb120d812de65","infreq","","","img/blue_2bandit_a2.png","70","","68","test","0","","99","","","","square","circle","95","6","5","0.8526315789473684","","","","","","","",""
"null","270319","SARL_v6","SARL_v6r71xj02p","62b068bbd9bcb120d812de65","infreq_resp","","","img/blue_2bandit_a.png","70","img/blue_2bandit_a.png","68","test","","","","","","","","","","","5","","","","","","","","",""
"null","270495","SARL_v6","SARL_v6r71xj02p","62b068bbd9bcb120d812de65","fixation","","","img/fixation.png","null","","","test","","","","","","","","","","","","","","","","","","","",""
"526.1999999880791","271036","SARL_v6","SARL_v6r71xj02p","62b068bbd9bcb120d812de65","freq","","","img/orange_2bandit_a2.png","70","","70","test","1","","100","","","","square","circle","96","7","5","0.8541666666666666","","","","","","","",""
"null","271330","SARL_v6","SARL_v6r71xj02p","62b068bbd9bcb120d812de65","freq_resp","","","img/orange_2bandit_a.png","70","img/orange_2bandit_a.png","70","test","","","","","","","","","","","5","","","","","","","","",""
"null","271499","SARL_v6","SARL_v6r71xj02p","62b068bbd9bcb120d812de65","fixation","","","img/fixation.png","null","","","test","","","","","","","","","","","","","","","","","","","",""
"529.8999999761581","272044","SARL_v6","SARL_v6r71xj02p","62b068bbd9bcb120d812de65","freq","","","img/orange_2bandit_a2.png","70","","70","test","1","","101","","","","square","circle","97","8","5","0.8556701030927835","","","","","","","",""
"null","272337","SARL_v6","SARL_v6r71xj02p","62b068bbd9bcb120d812de65","freq_resp","","","img/orange_2bandit_a.png","70","img/orange_2bandit_a.png","70","test","","","","","","","","","","","5","","","","","","","","",""
"null","272513","SARL_v6","SARL_v6r71xj02p","62b068bbd9bcb120d812de65","fixation","","","img/fixation.png","null","","","test","","","","","","","","","","","","","","","","","","","",""
"352.80000001192093","272881","SARL_v6","SARL_v6r71xj02p","62b068bbd9bcb120d812de65","freq","","","img/orange_2bandit_a2.png","70","","70","test","1","","102","","","","square","circle","98","9","5","0.8571428571428571","","","","","","","",""
"null","273347","SARL_v6","SARL_v6r71xj02p","62b068bbd9bcb120d812de65","freq_resp","","","img/orange_2bandit_a.png","70","img/orange_2bandit_a.png","70","test","","","","","","","","","","","5","","","","","","","","",""
"null","273514","SARL_v6","SARL_v6r71xj02p","62b068bbd9bcb120d812de65","fixation","","","img/fixation.png","null","","","test","","","","","","","","","","","","","","","","","","","",""
"530.1999999880791","274060","SARL_v6","SARL_v6r71xj02p","62b068bbd9bcb120d812de65","infreq","","","img/blue_2bandit_a2.png","68","","68","test","1","","103","","","","square","circle","99","10","5","0.8585858585858586","","","","","","","",""
"null","274353","SARL_v6","SARL_v6r71xj02p","62b068bbd9bcb120d812de65","infreq_resp","","","img/blue_2bandit_a.png","68","img/blue_2bandit_a.png","68","test","","","","","","","","","","","5","","","","","","","","",""
"null","274529","SARL_v6","SARL_v6r71xj02p","62b068bbd9bcb120d812de65","fixation","","","img/fixation.png","null","","","test","","","","","","","","","","","","","","","","","","","",""
"455.19999998807907","275000","SARL_v6","SARL_v6r71xj02p","62b068bbd9bcb120d812de65","freq","","","img/orange_2bandit_a2.png","70","","70","test","1","","104","","","","square","circle","100","11","5","0.86","","","","","","","",""
"null","275372","SARL_v6","SARL_v6r71xj02p","62b068bbd9bcb120d812de65","freq_resp","","","img/orange_2bandit_a.png","70","img/orange_2bandit_a.png","70","test","","","","","","","","","","","5","","","","","","","","",""
"null","275540","SARL_v6","SARL_v6r71xj02p","62b068bbd9bcb120d812de65","fixation","","","img/fixation.png","null","","","test","","","","","","","","","","","","","","","","","","","",""
"402.9000000357628","275958","SARL_v6","SARL_v6r71xj02p","62b068bbd9bcb120d812de65","freq","","","img/orange_2bandit_a2.png","70","","70","test","1","","105","","","","square","circle","101","12","5","0.8613861386138614","","","","","","","",""
"null","276370","SARL_v6","SARL_v6r71xj02p","62b068bbd9bcb120d812de65","freq_resp","","","img/orange_2bandit_a.png","70","img/orange_2bandit_a.png","70","test","","","","","","","","","","","5","","","","","","","","",""
"null","276547","SARL_v6","SARL_v6r71xj02p","62b068bbd9bcb120d812de65","fixation","","","img/fixation.png","null","","","test","","","","","","","","","","","","","","","","","","","",""
"367.5","276928","SARL_v6","SARL_v6r71xj02p","62b068bbd9bcb120d812de65","freq","","","img/orange_2bandit_a2.png","70","","70","test","1","","106","","","","square","circle","102","13","5","0.8627450980392157","","","","","","","",""
"null","277393","SARL_v6","SARL_v6r71xj02p","62b068bbd9bcb120d812de65","freq_resp","","","img/orange_2bandit_a.png","70","img/orange_2bandit_a.png","70","test","","","","","","","","","","","5","","","","","","","","",""
"null","277578","SARL_v6","SARL_v6r71xj02p","62b068bbd9bcb120d812de65","fixation","","","img/fixation.png","null","","","test","","","","","","","","","","","","","","","","","","","",""
"443","278036","SARL_v6","SARL_v6r71xj02p","62b068bbd9bcb120d812de65","freq","","","img/orange_2bandit_a2.png","70","","70","test","1","","107","","","","square","circle","103","14","5","0.8640776699029126","","","","","","","",""
"null","278423","SARL_v6","SARL_v6r71xj02p","62b068bbd9bcb120d812de65","freq_resp","","","img/orange_2bandit_a.png","70","img/orange_2bandit_a.png","70","test","","","","","","","","","","","5","","","","","","","","",""
"null","278608","SARL_v6","SARL_v6r71xj02p","62b068bbd9bcb120d812de65","fixation","","","img/fixation.png","null","","","test","","","","","","","","","","","","","","","","","","","",""
"424.69999998807907","279049","SARL_v6","SARL_v6r71xj02p","62b068bbd9bcb120d812de65","freq","","","img/orange_2bandit_a2.png","70","","70","test","1","","108","","","","square","circle","104","15","5","0.8653846153846154","","","","","","","",""
"null","279451","SARL_v6","SARL_v6r71xj02p","62b068bbd9bcb120d812de65","freq_resp","","","img/orange_2bandit_a.png","70","img/orange_2bandit_a.png","70","test","","","","","","","","","","","5","","","","","","","","",""
"null","279619","SARL_v6","SARL_v6r71xj02p","62b068bbd9bcb120d812de65","fixation","","","img/fixation.png","null","","","test","","","","","","","","","","","","","","","","","","","",""
"382.5","280017","SARL_v6","SARL_v6r71xj02p","62b068bbd9bcb120d812de65","freq","","","img/orange_2bandit_a2.png","70","","70","test","1","","109","","","","square","circle","105","16","5","0.8666666666666667","","","","","","","",""
"null","280458","SARL_v6","SARL_v6r71xj02p","62b068bbd9bcb120d812de65","freq_resp","","","img/orange_2bandit_a.png","70","img/orange_2bandit_a.png","70","test","","","","","","","","","","","5","","","","","","","","",""
"null","280626","SARL_v6","SARL_v6r71xj02p","62b068bbd9bcb120d812de65","fixation","","","img/fixation.png","null","","","test","","","","","","","","","","","","","","","","","","","",""
"471.5999999642372","281113","SARL_v6","SARL_v6r71xj02p","62b068bbd9bcb120d812de65","freq","","","img/orange_2bandit_a2.png","70","","70","test","1","","110","","","","square","circle","106","17","5","0.8679245283018868","","","","","","","",""
"null","281461","SARL_v6","SARL_v6r71xj02p","62b068bbd9bcb120d812de65","freq_resp","","","img/orange_2bandit_a.png","70","img/orange_2bandit_a.png","70","test","","","","","","","","","","","5","","","","","","","","",""
"null","281628","SARL_v6","SARL_v6r71xj02p","62b068bbd9bcb120d812de65","fixation","","","img/fixation.png","null","","","test","","","","","","","","","","","","","","","","","","","",""
"534","282177","SARL_v6","SARL_v6r71xj02p","62b068bbd9bcb120d812de65","infreq","","","img/blue_2bandit_a2.png","68","","68","test","1","","111","","","","square","circle","107","18","5","0.8691588785046729","","","","","","","",""
"null","282477","SARL_v6","SARL_v6r71xj02p","62b068bbd9bcb120d812de65","infreq_resp","","","img/blue_2bandit_a.png","68","img/blue_2bandit_a.png","68","test","","","","","","","","","","","5","","","","","","","","",""
"null","282653","SARL_v6","SARL_v6r71xj02p","62b068bbd9bcb120d812de65","fixation","","","img/fixation.png","null","","","test","","","","","","","","","","","","","","","","","","","",""
"492.19999998807907","283160","SARL_v6","SARL_v6r71xj02p","62b068bbd9bcb120d812de65","freq","","","img/orange_2bandit_a2.png","70","","70","test","1","","112","","","","square","circle","108","19","5","0.8703703703703703","","","","","","","",""
"null","283493","SARL_v6","SARL_v6r71xj02p","62b068bbd9bcb120d812de65","freq_resp","","","img/orange_2bandit_a.png","70","img/orange_2bandit_a.png","70","test","","","","","","","","","","","5","","","","","","","","",""
"null","283670","SARL_v6","SARL_v6r71xj02p","62b068bbd9bcb120d812de65","fixation","","","img/fixation.png","null","","","test","","","","","","","","","","","","","","","","","","","",""
"355.4000000357628","284041","SARL_v6","SARL_v6r71xj02p","62b068bbd9bcb120d812de65","freq","","","img/orange_2bandit_a2.png","70","","70","test","1","","113","","","","square","circle","109","20","5","0.8715596330275229","","","","","","","",""
"null","284513","SARL_v6","SARL_v6r71xj02p","62b068bbd9bcb120d812de65","freq_resp","","","img/orange_2bandit_a.png","70","img/orange_2bandit_a.png","70","test","","","","","","","","","","","5","","","","","","","","",""
"null","284697","SARL_v6","SARL_v6r71xj02p","62b068bbd9bcb120d812de65","fixation","","","img/fixation.png","null","","","test","","","","","","","","","","","","","","","","","","","",""
"440.39999997615814","285152","SARL_v6","SARL_v6r71xj02p","62b068bbd9bcb120d812de65","freq","","","img/orange_2bandit_a2.png","70","","70","test","1","","114","","","","square","circle","110","21","5","0.8727272727272727","","","","","","","",""
"null","285539","SARL_v6","SARL_v6r71xj02p","62b068bbd9bcb120d812de65","freq_resp","","","img/orange_2bandit_a.png","70","img/orange_2bandit_a.png","70","test","","","","","","","","","","","5","","","","","","","","",""
"null","285715","SARL_v6","SARL_v6r71xj02p","62b068bbd9bcb120d812de65","fixation","","","img/fixation.png","null","","","test","","","","","","","","","","","","","","","","","","","",""
"375.7000000476837","286105","SARL_v6","SARL_v6r71xj02p","62b068bbd9bcb120d812de65","freq","","","img/orange_2bandit_a2.png","70","","70","test","1","","115","","","","square","circle","111","22","5","0.8738738738738738","","","","","","","",""
"null","286555","SARL_v6","SARL_v6r71xj02p","62b068bbd9bcb120d812de65","freq_resp","","","img/orange_2bandit_a.png","70","img/orange_2bandit_a.png","70","test","","","","","","","","","","","5","","","","","","","","",""
"null","286723","SARL_v6","SARL_v6r71xj02p","62b068bbd9bcb120d812de65","fixation","","","img/fixation.png","null","","","test","","","","","","","","","","","","","","","","","","","",""
"315.10000002384186","287053","SARL_v6","SARL_v6r71xj02p","62b068bbd9bcb120d812de65","freq","","","img/orange_2bandit_a2.png","70","","70","test","1","","116","","","","square","circle","112","23","5","0.875","","","","","","","",""
"null","287564","SARL_v6","SARL_v6r71xj02p","62b068bbd9bcb120d812de65","freq_resp","","","img/orange_2bandit_a.png","70","img/orange_2bandit_a.png","70","test","","","","","","","","","","","5","","","","","","","","",""
"null","287733","SARL_v6","SARL_v6r71xj02p","62b068bbd9bcb120d812de65","fixation","","","img/fixation.png","null","","","test","","","","","","","","","","","","","","","","","","","",""
"676","288425","SARL_v6","SARL_v6r71xj02p","62b068bbd9bcb120d812de65","rl","","","img/black_2bandit_a2.png","74","","0","test","","","117","","","4","square","circle","","0","5","","74","-7","4","4","-7","square","5","0"
"null","289209","SARL_v6","SARL_v6r71xj02p","62b068bbd9bcb120d812de65","feedback","","","<div class=""veryhighPoints_sq""> 4 </div>","null","","na","test","","","NaN","","","","","","","","5","","74","","","","","","5",""
"null","290026","SARL_v6","SARL_v6r71xj02p","62b068bbd9bcb120d812de65","freq","","","img/orange_2bandit_a2.png","null","","70","test","0","","118","","","","square","circle","113","1","6","0.8672566371681416","","","","","","","",""
"null","290196","SARL_v6","SARL_v6r71xj02p","62b068bbd9bcb120d812de65","fixation","","","img/fixation.png","null","","","test","","","","","","","","","","","","","","","","","","","",""
"549","290760","SARL_v6","SARL_v6r71xj02p","62b068bbd9bcb120d812de65","freq","","","img/orange_2bandit_a2.png","70","","70","test","1","","119","","","","square","circle","114","2","6","0.868421052631579","","","","","","","",""
"null","291037","SARL_v6","SARL_v6r71xj02p","62b068bbd9bcb120d812de65","freq_resp","","","img/orange_2bandit_a.png","70","img/orange_2bandit_a.png","70","test","","","","","","","","","","","6","","","","","","","","",""
"null","291221","SARL_v6","SARL_v6r71xj02p","62b068bbd9bcb120d812de65","fixation","","","img/fixation.png","null","","","test","","","","","","","","","","","","","","","","","","","",""
"404.39999997615814","291640","SARL_v6","SARL_v6r71xj02p","62b068bbd9bcb120d812de65","freq","","","img/orange_2bandit_a2.png","70","","70","test","1","","120","","","","square","circle","115","3","6","0.8695652173913043","","","","","","","",""
"null","292051","SARL_v6","SARL_v6r71xj02p","62b068bbd9bcb120d812de65","freq_resp","","","img/orange_2bandit_a.png","70","img/orange_2bandit_a.png","70","test","","","","","","","","","","","6","","","","","","","","",""
"null","292216","SARL_v6","SARL_v6r71xj02p","62b068bbd9bcb120d812de65","fixation","","","img/fixation.png","null","","","test","","","","","","","","","","","","","","","","","","","",""
"393.69999998807907","292624","SARL_v6","SARL_v6r71xj02p","62b068bbd9bcb120d812de65","freq","","","img/orange_2bandit_a2.png","70","","70","test","1","","121","","","","square","circle","116","4","6","0.8706896551724138","","","","","","","",""
"null","293059","SARL_v6","SARL_v6r71xj02p","62b068bbd9bcb120d812de65","freq_resp","","","img/orange_2bandit_a.png","70","img/orange_2bandit_a.png","70","test","","","","","","","","","","","6","","","","","","","","",""
"null","293234","SARL_v6","SARL_v6r71xj02p","62b068bbd9bcb120d812de65","fixation","","","img/fixation.png","null","","","test","","","","","","","","","","","","","","","","","","","",""
"524.0999999642372","293772","SARL_v6","SARL_v6r71xj02p","62b068bbd9bcb120d812de65","infreq","","","img/blue_2bandit_a2.png","68","","68","test","1","","122","","","","square","circle","117","5","6","0.8717948717948718","","","","","","","",""
"null","294081","SARL_v6","SARL_v6r71xj02p","62b068bbd9bcb120d812de65","infreq_resp","","","img/blue_2bandit_a.png","68","img/blue_2bandit_a.png","68","test","","","","","","","","","","","6","","","","","","","","",""
"null","294249","SARL_v6","SARL_v6r71xj02p","62b068bbd9bcb120d812de65","fixation","","","img/fixation.png","null","","","test","","","","","","","","","","","","","","","","","","","",""
"473.5","294737","SARL_v6","SARL_v6r71xj02p","62b068bbd9bcb120d812de65","infreq","","","img/blue_2bandit_a2.png","68","","68","test","1","","123","","","","square","circle","118","6","6","0.8728813559322034","","","","","","","",""
"null","295085","SARL_v6","SARL_v6r71xj02p","62b068bbd9bcb120d812de65","infreq_resp","","","img/blue_2bandit_a.png","68","img/blue_2bandit_a.png","68","test","","","","","","","","","","","6","","","","","","","","",""
"null","295260","SARL_v6","SARL_v6r71xj02p","62b068bbd9bcb120d812de65","fixation","","","img/fixation.png","null","","","test","","","","","","","","","","","","","","","","","","","",""
"558.1999999880791","295832","SARL_v6","SARL_v6r71xj02p","62b068bbd9bcb120d812de65","freq","","","img/orange_2bandit_a2.png","70","","70","test","1","","124","","","","square","circle","119","7","6","0.8739495798319328","","","","","","","",""
"null","296095","SARL_v6","SARL_v6r71xj02p","62b068bbd9bcb120d812de65","freq_resp","","","img/orange_2bandit_a.png","70","img/orange_2bandit_a.png","70","test","","","","","","","","","","","6","","","","","","","","",""
"null","296269","SARL_v6","SARL_v6r71xj02p","62b068bbd9bcb120d812de65","fixation","","","img/fixation.png","null","","","test","","","","","","","","","","","","","","","","","","","",""
"null","297093","SARL_v6","SARL_v6r71xj02p","62b068bbd9bcb120d812de65","freq","","","img/orange_2bandit_a2.png","null","","70","test","0","","125","","","","square","circle","120","8","6","0.8666666666666667","","","","","","","",""
"null","297269","SARL_v6","SARL_v6r71xj02p","62b068bbd9bcb120d812de65","fixation","","","img/fixation.png","null","","","test","","","","","","","","","","","","","","","","","","","",""
"729.8000000119209","298013","SARL_v6","SARL_v6r71xj02p","62b068bbd9bcb120d812de65","freq","","","img/orange_2bandit_a2.png","70","","70","test","1","","126","","","","square","circle","121","9","6","0.8677685950413223","","","","","","","",""
"null","298103","SARL_v6","SARL_v6r71xj02p","62b068bbd9bcb120d812de65","freq_resp","","","img/orange_2bandit_a.png","70","img/orange_2bandit_a.png","70","test","","","","","","","","","","","6","","","","","","","","",""
"null","298280","SARL_v6","SARL_v6r71xj02p","62b068bbd9bcb120d812de65","fixation","","","img/fixation.png","null","","","test","","","","","","","","","","","","","","","","","","","",""
"614.3999999761581","298908","SARL_v6","SARL_v6r71xj02p","62b068bbd9bcb120d812de65","freq","","","img/orange_2bandit_a2.png","70","","70","test","1","","127","","","","square","circle","122","10","6","0.8688524590163934","","","","","","","",""
"null","299108","SARL_v6","SARL_v6r71xj02p","62b068bbd9bcb120d812de65","freq_resp","","","img/orange_2bandit_a.png","70","img/orange_2bandit_a.png","70","test","","","","","","","","","","","6","","","","","","","","",""
"null","299276","SARL_v6","SARL_v6r71xj02p","62b068bbd9bcb120d812de65","fixation","","","img/fixation.png","null","","","test","","","","","","","","","","","","","","","","","","","",""
"506.19999998807907","299797","SARL_v6","SARL_v6r71xj02p","62b068bbd9bcb120d812de65","freq","","","img/orange_2bandit_a2.png","70","","70","test","1","","128","","","","square","circle","123","11","6","0.8699186991869918","","","","","","","",""
"null","300106","SARL_v6","SARL_v6r71xj02p","62b068bbd9bcb120d812de65","freq_resp","","","img/orange_2bandit_a.png","70","img/orange_2bandit_a.png","70","test","","","","","","","","","","","6","","","","","","","","",""
"null","300282","SARL_v6","SARL_v6r71xj02p","62b068bbd9bcb120d812de65","fixation","","","img/fixation.png","null","","","test","","","","","","","","","","","","","","","","","","","",""
"411.69999998807907","300709","SARL_v6","SARL_v6r71xj02p","62b068bbd9bcb120d812de65","freq","","","img/orange_2bandit_a2.png","70","","70","test","1","","129","","","","square","circle","124","12","6","0.8709677419354839","","","","","","","",""
"null","301127","SARL_v6","SARL_v6r71xj02p","62b068bbd9bcb120d812de65","freq_resp","","","img/orange_2bandit_a.png","70","img/orange_2bandit_a.png","70","test","","","","","","","","","","","6","","","","","","","","",""
"null","301303","SARL_v6","SARL_v6r71xj02p","62b068bbd9bcb120d812de65","fixation","","","img/fixation.png","null","","","test","","","","","","","","","","","","","","","","","","","",""
"374.69999998807907","301692","SARL_v6","SARL_v6r71xj02p","62b068bbd9bcb120d812de65","freq","","","img/orange_2bandit_a2.png","70","","70","test","1","","130","","","","square","circle","125","13","6","0.872","","","","","","","",""
"null","302133","SARL_v6","SARL_v6r71xj02p","62b068bbd9bcb120d812de65","freq_resp","","","img/orange_2bandit_a.png","70","img/orange_2bandit_a.png","70","test","","","","","","","","","","","6","","","","","","","","",""
"null","302300","SARL_v6","SARL_v6r71xj02p","62b068bbd9bcb120d812de65","fixation","","","img/fixation.png","null","","","test","","","","","","","","","","","","","","","","","","","",""
"425.60000002384186","302741","SARL_v6","SARL_v6r71xj02p","62b068bbd9bcb120d812de65","freq","","","img/orange_2bandit_a2.png","70","","70","test","1","","131","","","","square","circle","126","14","6","0.873015873015873","","","","","","","",""
"null","303143","SARL_v6","SARL_v6r71xj02p","62b068bbd9bcb120d812de65","freq_resp","","","img/orange_2bandit_a.png","70","img/orange_2bandit_a.png","70","test","","","","","","","","","","","6","","","","","","","","",""
"null","303327","SARL_v6","SARL_v6r71xj02p","62b068bbd9bcb120d812de65","fixation","","","img/fixation.png","null","","","test","","","","","","","","","","","","","","","","","","","",""
"427.10000002384186","303769","SARL_v6","SARL_v6r71xj02p","62b068bbd9bcb120d812de65","freq","","","img/orange_2bandit_a2.png","70","","70","test","1","","132","","","","square","circle","127","15","6","0.8740157480314961","","","","","","","",""
"null","304171","SARL_v6","SARL_v6r71xj02p","62b068bbd9bcb120d812de65","freq_resp","","","img/orange_2bandit_a.png","70","img/orange_2bandit_a.png","70","test","","","","","","","","","","","6","","","","","","","","",""
