"rt","time_elapsed","expId","subject","prolificID","trialType","rlType","attType","stimulus","key_press","stim","corrresp","phase","corr","pracCounter","trialNum","rewardOne","rewardTwo","reward","bandOne","bandTwo","attentionNum","attentionRunNum","blockNum","performance","bandChosen","circleVal","squareVal","bandOneVal","bandTwoVal","shapeChosen","rlNum","badFlag"
"4169","4193","SARL_v6","SARL_v6ra9kscug","6341a541b6cfd5f8933f48c4","","","","","","","","","","","","","","","","","","","","","","","","","","","",""
"","6920","SARL_v6","SARL_v6ra9kscug","6341a541b6cfd5f8933f48c4","fullscreen","fullscreen","fullscreen","","","","","","","","","","","","","","","","","","","","","","","","",""
"116415","123341","SARL_v6","SARL_v6ra9kscug","6341a541b6cfd5f8933f48c4","","","","","","","","","","","","","","","","","","","","","","","","","","","",""
"699","124046","SARL_v6","SARL_v6ra9kscug","6341a541b6cfd5f8933f48c4","freqPrac","","","img/blue_2bandit_b2.png","70","img/blue_2bandit_b2.png","70","prac","1","0","","","","","","","","","","","","","","","","","",""
"699","124160","SARL_v6","SARL_v6ra9kscug","6341a541b6cfd5f8933f48c4","freqPrac_resp","","","img/blue_2bandit_b.png","70","img/blue_2bandit_b.png","70","prac","","","","","","","","","","","","","","","","","","","",""
"null","124313","SARL_v6","SARL_v6ra9kscug","6341a541b6cfd5f8933f48c4","fixation","","","img/fixation.png","null","","","prac","","","","","","","","","","","","","","","","","","","",""
"624","124942","SARL_v6","SARL_v6ra9kscug","6341a541b6cfd5f8933f48c4","infreqPrac","","","img/orange_2bandit_b2.png","68","img/orange_2bandit_b2.png","68","prac","1","0","","","","","","","","","","","","","","","","","",""
"624","125130","SARL_v6","SARL_v6ra9kscug","6341a541b6cfd5f8933f48c4","infreqPrac_resp","","","img/orange_2bandit_b.png","68","img/orange_2bandit_b.png","68","prac","","","","","","","","","","","","","","","","","","","",""
"null","125287","SARL_v6","SARL_v6ra9kscug","6341a541b6cfd5f8933f48c4","fixation","","","img/fixation.png","null","","","prac","","","","","","","","","","","","","","","","","","","",""
"null","126100","SARL_v6","SARL_v6ra9kscug","6341a541b6cfd5f8933f48c4","freqPrac","","","img/blue_2bandit_b2.png","null","img/blue_2bandit_b2.png","70","prac","0","1","","","","","","","","","","","","","","","","","",""
"null","127116","SARL_v6","SARL_v6ra9kscug","6341a541b6cfd5f8933f48c4","feedback","","","img/tooSlow.png","null","","na","prac","","","","","","","","","","","","","","","","","","","",""
"null","127276","SARL_v6","SARL_v6ra9kscug","6341a541b6cfd5f8933f48c4","fixation","","","img/fixation.png","null","","","prac","","","","","","","","","","","","","","","","","","","",""
"null","128091","SARL_v6","SARL_v6ra9kscug","6341a541b6cfd5f8933f48c4","infreqPrac","","","img/orange_2bandit_b2.png","null","img/orange_2bandit_b2.png","68","prac","0","2","","","","","","","","","","","","","","","","","",""
"null","129104","SARL_v6","SARL_v6ra9kscug","6341a541b6cfd5f8933f48c4","feedback","","","img/tooSlow.png","null","","na","prac","","","","","","","","","","","","","","","","","","","",""
"null","129260","SARL_v6","SARL_v6ra9kscug","6341a541b6cfd5f8933f48c4","fixation","","","img/fixation.png","null","","","prac","","","","","","","","","","","","","","","","","","","",""
"380","129642","SARL_v6","SARL_v6ra9kscug","6341a541b6cfd5f8933f48c4","infreqPrac","","","img/orange_2bandit_b2.png","70","img/orange_2bandit_b2.png","68","prac","0","3","","","","","","","","","","","","","","","","","",""
"380","130078","SARL_v6","SARL_v6ra9kscug","6341a541b6cfd5f8933f48c4","infreqPrac_resp","","","img/orange_2bandit_b.png","70","img/orange_2bandit_b.png","68","prac","","","","","","","","","","","","","","","","","","","",""
"null","131090","SARL_v6","SARL_v6ra9kscug","6341a541b6cfd5f8933f48c4","feedback","","","img/wrongKey.png","null","","na","prac","","","","","","","","","","","","","","","","","","","",""
"null","131251","SARL_v6","SARL_v6ra9kscug","6341a541b6cfd5f8933f48c4","fixation","","","img/fixation.png","null","","","prac","","","","","","","","","","","","","","","","","","","",""
"446","131701","SARL_v6","SARL_v6ra9kscug","6341a541b6cfd5f8933f48c4","infreqPrac","","","img/orange_2bandit_b2.png","68","img/orange_2bandit_b2.png","68","prac","1","3","","","","","","","","","","","","","","","","","",""
"446","132064","SARL_v6","SARL_v6ra9kscug","6341a541b6cfd5f8933f48c4","infreqPrac_resp","","","img/orange_2bandit_b.png","68","img/orange_2bandit_b.png","68","prac","","","","","","","","","","","","","","","","","","","",""
"null","132231","SARL_v6","SARL_v6ra9kscug","6341a541b6cfd5f8933f48c4","fixation","","","img/fixation.png","null","","","prac","","","","","","","","","","","","","","","","","","","",""
"502","132737","SARL_v6","SARL_v6ra9kscug","6341a541b6cfd5f8933f48c4","freqPrac","","","img/blue_2bandit_b2.png","70","img/blue_2bandit_b2.png","70","prac","1","3","","","","","","","","","","","","","","","","","",""
"502","133050","SARL_v6","SARL_v6ra9kscug","6341a541b6cfd5f8933f48c4","freqPrac_resp","","","img/blue_2bandit_b.png","70","img/blue_2bandit_b.png","70","prac","","","","","","","","","","","","","","","","","","","",""
"null","133210","SARL_v6","SARL_v6ra9kscug","6341a541b6cfd5f8933f48c4","fixation","","","img/fixation.png","null","","","prac","","","","","","","","","","","","","","","","","","","",""
"467","133681","SARL_v6","SARL_v6ra9kscug","6341a541b6cfd5f8933f48c4","infreqPrac","","","img/orange_2bandit_b2.png","68","img/orange_2bandit_b2.png","68","prac","1","3","","","","","","","","","","","","","","","","","",""
"467","134031","SARL_v6","SARL_v6ra9kscug","6341a541b6cfd5f8933f48c4","infreqPrac_resp","","","img/orange_2bandit_b.png","68","img/orange_2bandit_b.png","68","prac","","","","","","","","","","","","","","","","","","","",""
"null","134186","SARL_v6","SARL_v6ra9kscug","6341a541b6cfd5f8933f48c4","fixation","","","img/fixation.png","null","","","prac","","","","","","","","","","","","","","","","","","","",""
"524","134713","SARL_v6","SARL_v6ra9kscug","6341a541b6cfd5f8933f48c4","freqPrac","","","img/blue_2bandit_b2.png","70","img/blue_2bandit_b2.png","70","prac","1","3","","","","","","","","","","","","","","","","","",""
"524","134996","SARL_v6","SARL_v6ra9kscug","6341a541b6cfd5f8933f48c4","freqPrac_resp","","","img/blue_2bandit_b.png","70","img/blue_2bandit_b.png","70","prac","","","","","","","","","","","","","","","","","","","",""
"null","135151","SARL_v6","SARL_v6ra9kscug","6341a541b6cfd5f8933f48c4","fixation","","","img/fixation.png","null","","","prac","","","","","","","","","","","","","","","","","","","",""
"460","135615","SARL_v6","SARL_v6ra9kscug","6341a541b6cfd5f8933f48c4","freqPrac","","","img/blue_2bandit_b2.png","70","img/blue_2bandit_b2.png","70","prac","1","3","","","","","","","","","","","","","","","","","",""
"460","135963","SARL_v6","SARL_v6ra9kscug","6341a541b6cfd5f8933f48c4","freqPrac_resp","","","img/blue_2bandit_b.png","70","img/blue_2bandit_b.png","70","prac","","","","","","","","","","","","","","","","","","","",""
"null","136118","SARL_v6","SARL_v6ra9kscug","6341a541b6cfd5f8933f48c4","fixation","","","img/fixation.png","null","","","prac","","","","","","","","","","","","","","","","","","","",""
"21288","157409","SARL_v6","SARL_v6ra9kscug","6341a541b6cfd5f8933f48c4","","","","","","","","prac","","","","","","","","","","","","","","","","","","","",""
"null","158917","SARL_v6","SARL_v6ra9kscug","6341a541b6cfd5f8933f48c4","rlPractice","","","img/black_2bandit_b2.png","null","img/black_2bandit_b2.png","","prac","","","0","","","","","","","","","","","","","","","","",""
"null","159679","SARL_v6","SARL_v6ra9kscug","6341a541b6cfd5f8933f48c4","feedback","","","<div font size = 80> TOO SLOW  </div>","null","","na","prac","","","1","10","-14","10","","","","","","","","","","","","","",""
"null","159833","SARL_v6","SARL_v6ra9kscug","6341a541b6cfd5f8933f48c4","fixation","","","img/fixation.png","null","","","prac","","","","","","","","","","","","","","","","","","","",""
"509","160346","SARL_v6","SARL_v6ra9kscug","6341a541b6cfd5f8933f48c4","rlPractice","","","img/black_2bandit_b2.png","74","img/black_2bandit_b2.png","","prac","","","1","","","","","","","","","","","","","","","","",""
"null","161104","SARL_v6","SARL_v6ra9kscug","6341a541b6cfd5f8933f48c4","feedback","","","<div class=""veryhighPoints""> 5 </div>","null","","na","prac","","","2","5","-5","5","","","","","","","","","","","","","",""
"null","161258","SARL_v6","SARL_v6ra9kscug","6341a541b6cfd5f8933f48c4","fixation","","","img/fixation.png","null","","","prac","","","","","","","","","","","","","","","","","","","",""
"673","161933","SARL_v6","SARL_v6ra9kscug","6341a541b6cfd5f8933f48c4","rlPractice","","","img/black_2bandit_b2.png","75","img/black_2bandit_b2.png","","prac","","","2","","","","","","","","","","","","","","","","",""
"null","162695","SARL_v6","SARL_v6ra9kscug","6341a541b6cfd5f8933f48c4","feedback","","","<div class=""veryhighPoints_sq""> 2 </div>","null","","na","prac","","","3","30","2","30","","","","","","","","","","","","","",""
"null","162850","SARL_v6","SARL_v6ra9kscug","6341a541b6cfd5f8933f48c4","fixation","","","img/fixation.png","null","","","prac","","","","","","","","","","","","","","","","","","","",""
"638","163491","SARL_v6","SARL_v6ra9kscug","6341a541b6cfd5f8933f48c4","rlPractice","","","img/black_2bandit_b2.png","74","img/black_2bandit_b2.png","","prac","","","3","","","","","","","","","","","","","","","","",""
"null","164250","SARL_v6","SARL_v6ra9kscug","6341a541b6cfd5f8933f48c4","feedback","","","<div class=""verylowPoints""> -2 </div>","null","","na","prac","","","4","-2","20","-2","","","","","","","","","","","","","",""
"null","164404","SARL_v6","SARL_v6ra9kscug","6341a541b6cfd5f8933f48c4","fixation","","","img/fixation.png","null","","","prac","","","","","","","","","","","","","","","","","","","",""
"11154","175561","SARL_v6","SARL_v6ra9kscug","6341a541b6cfd5f8933f48c4","","","","","","","","prac","","","","","","","","","","","","","","","","","","","",""
"null","176369","SARL_v6","SARL_v6ra9kscug","6341a541b6cfd5f8933f48c4","mixAttFreqPrac","","","img/blue_2bandit_b2.png","null","img/blue_2bandit_b2.png","70","prac","","","1","","","","","","","","","","","","","","","","",""
"79","176537","SARL_v6","SARL_v6ra9kscug","6341a541b6cfd5f8933f48c4","fixation","","","img/fixation.png","70","","","prac","","","","","","","","","","","","","","","","","","","",""
"716","177258","SARL_v6","SARL_v6ra9kscug","6341a541b6cfd5f8933f48c4","mixAttInfreqPrac","","","img/orange_2bandit_b2.png","68","img/orange_2bandit_b2.png","68","prac","","","2","","","","","","","","","","","","","","","","",""
"716","177348","SARL_v6","SARL_v6ra9kscug","6341a541b6cfd5f8933f48c4","infreqPrac_resp","","","img/orange_2bandit_b.png","68","img/blue_2bandit_b.png","68","prac","","","2","","","","","","","","","","","","","","","","",""
"null","177503","SARL_v6","SARL_v6ra9kscug","6341a541b6cfd5f8933f48c4","fixation","","","img/fixation.png","null","","","prac","","","","","","","","","","","","","","","","","","","",""
"574","178081","SARL_v6","SARL_v6ra9kscug","6341a541b6cfd5f8933f48c4","mixAttInfreqPrac","","","img/orange_2bandit_b2.png","68","img/orange_2bandit_b2.png","68","prac","","","3","","","","","","","","","","","","","","","","",""
"574","178311","SARL_v6","SARL_v6ra9kscug","6341a541b6cfd5f8933f48c4","infreqPrac_resp","","","img/orange_2bandit_b.png","68","img/blue_2bandit_b.png","68","prac","","","3","","","","","","","","","","","","","","","","",""
"null","178464","SARL_v6","SARL_v6ra9kscug","6341a541b6cfd5f8933f48c4","fixation","","","img/fixation.png","null","","","prac","","","","","","","","","","","","","","","","","","","",""
"440","178907","SARL_v6","SARL_v6ra9kscug","6341a541b6cfd5f8933f48c4","mixAttInfreqPrac","","","img/orange_2bandit_b2.png","68","img/orange_2bandit_b2.png","68","prac","","","4","","","","","","","","","","","","","","","","",""
"440","179274","SARL_v6","SARL_v6ra9kscug","6341a541b6cfd5f8933f48c4","infreqPrac_resp","","","img/orange_2bandit_b.png","68","img/blue_2bandit_b.png","68","prac","","","4","","","","","","","","","","","","","","","","",""
"null","179429","SARL_v6","SARL_v6ra9kscug","6341a541b6cfd5f8933f48c4","fixation","","","img/fixation.png","null","","","prac","","","","","","","","","","","","","","","","","","","",""
"404","179837","SARL_v6","SARL_v6ra9kscug","6341a541b6cfd5f8933f48c4","mixAttFreqPrac","","","img/blue_2bandit_b2.png","70","img/blue_2bandit_b2.png","70","prac","","","5","","","","","","","","","","","","","","","","",""
"404","180240","SARL_v6","SARL_v6ra9kscug","6341a541b6cfd5f8933f48c4","freqPrac_resp","","","img/blue_2bandit_b.png","70","img/blue_2bandit_b.png","70","prac","","","5","","","","","","","","","","","","","","","","",""
"null","180394","SARL_v6","SARL_v6ra9kscug","6341a541b6cfd5f8933f48c4","fixation","","","img/fixation.png","null","","","prac","","","","","","","","","","","","","","","","","","","",""
"557","180953","SARL_v6","SARL_v6ra9kscug","6341a541b6cfd5f8933f48c4","mixRLPractice","","","img/black_2bandit_b2.png","75","img/black_2bandit_b2.png","","prac","","","5","","","","","","","","","","","","","","","","",""
"null","181721","SARL_v6","SARL_v6ra9kscug","6341a541b6cfd5f8933f48c4","feedback","","","<div class=""veryhighPoints_sq""> 10 </div>","null","","na","prac","","","6","-14","10","-14","","","","","","","","","","","","","",""
"null","181877","SARL_v6","SARL_v6ra9kscug","6341a541b6cfd5f8933f48c4","fixation","","","img/fixation.png","null","","","prac","","","","","","","","","","","","","","","","","","","",""
"679","182559","SARL_v6","SARL_v6ra9kscug","6341a541b6cfd5f8933f48c4","mixAttFreqPrac","","","img/blue_2bandit_b2.png","68","img/blue_2bandit_b2.png","70","prac","","","7","","","","","","","","","","","","","","","","",""
"679","182690","SARL_v6","SARL_v6ra9kscug","6341a541b6cfd5f8933f48c4","freqPrac_resp","","","img/blue_2bandit_b.png","68","img/blue_2bandit_b.png","70","prac","","","7","","","","","","","","","","","","","","","","",""
"null","182845","SARL_v6","SARL_v6ra9kscug","6341a541b6cfd5f8933f48c4","fixation","","","img/fixation.png","null","","","prac","","","","","","","","","","","","","","","","","","","",""
"577","183427","SARL_v6","SARL_v6ra9kscug","6341a541b6cfd5f8933f48c4","mixAttInfreqPrac","","","img/orange_2bandit_b2.png","70","img/orange_2bandit_b2.png","68","prac","","","8","","","","","","","","","","","","","","","","",""
"577","183668","SARL_v6","SARL_v6ra9kscug","6341a541b6cfd5f8933f48c4","infreqPrac_resp","","","img/orange_2bandit_b.png","70","img/blue_2bandit_b.png","68","prac","","","8","","","","","","","","","","","","","","","","",""
"null","183832","SARL_v6","SARL_v6ra9kscug","6341a541b6cfd5f8933f48c4","fixation","","","img/fixation.png","null","","","prac","","","","","","","","","","","","","","","","","","","",""
"502","184338","SARL_v6","SARL_v6ra9kscug","6341a541b6cfd5f8933f48c4","mixAttFreqPrac","","","img/blue_2bandit_b2.png","68","img/blue_2bandit_b2.png","70","prac","","","9","","","","","","","","","","","","","","","","",""
"502","184652","SARL_v6","SARL_v6ra9kscug","6341a541b6cfd5f8933f48c4","freqPrac_resp","","","img/blue_2bandit_b.png","68","img/blue_2bandit_b.png","70","prac","","","9","","","","","","","","","","","","","","","","",""
"null","184815","SARL_v6","SARL_v6ra9kscug","6341a541b6cfd5f8933f48c4","fixation","","","img/fixation.png","null","","","prac","","","","","","","","","","","","","","","","","","","",""
"452","185271","SARL_v6","SARL_v6ra9kscug","6341a541b6cfd5f8933f48c4","mixAttFreqPrac","","","img/blue_2bandit_b2.png","68","img/blue_2bandit_b2.png","70","prac","","","10","","","","","","","","","","","","","","","","",""
"452","185630","SARL_v6","SARL_v6ra9kscug","6341a541b6cfd5f8933f48c4","freqPrac_resp","","","img/blue_2bandit_b.png","68","img/blue_2bandit_b.png","70","prac","","","10","","","","","","","","","","","","","","","","",""
"null","185794","SARL_v6","SARL_v6ra9kscug","6341a541b6cfd5f8933f48c4","fixation","","","img/fixation.png","null","","","prac","","","","","","","","","","","","","","","","","","","",""
"469","186267","SARL_v6","SARL_v6ra9kscug","6341a541b6cfd5f8933f48c4","mixAttInfreqPrac","","","img/orange_2bandit_b2.png","70","img/orange_2bandit_b2.png","68","prac","","","11","","","","","","","","","","","","","","","","",""
"469","186612","SARL_v6","SARL_v6ra9kscug","6341a541b6cfd5f8933f48c4","infreqPrac_resp","","","img/orange_2bandit_b.png","70","img/blue_2bandit_b.png","68","prac","","","11","","","","","","","","","","","","","","","","",""
"null","186773","SARL_v6","SARL_v6ra9kscug","6341a541b6cfd5f8933f48c4","fixation","","","img/fixation.png","null","","","prac","","","","","","","","","","","","","","","","","","","",""
"611","187387","SARL_v6","SARL_v6ra9kscug","6341a541b6cfd5f8933f48c4","mixRLPractice","","","img/black_2bandit_b2.png","75","img/black_2bandit_b2.png","","prac","","","11","","","","","","","","","","","","","","","","",""
"null","188142","SARL_v6","SARL_v6ra9kscug","6341a541b6cfd5f8933f48c4","feedback","","","<div class=""verylowPoints_sq""> -5 </div>","null","","na","prac","","","12","5","-5","5","","","","","","","","","","","","","",""
"null","188301","SARL_v6","SARL_v6ra9kscug","6341a541b6cfd5f8933f48c4","fixation","","","img/fixation.png","null","","","prac","","","","","","","","","","","","","","","","","","","",""
"9455","197758","SARL_v6","SARL_v6ra9kscug","6341a541b6cfd5f8933f48c4","","","","","","","","prac","","","","","","","","","","","","","","","","","","","",""
"586","198348","SARL_v6","SARL_v6ra9kscug","6341a541b6cfd5f8933f48c4","freq","","","img/blue_2bandit_b2.png","70","","70","test","1","","1","","","","circle","square","1","1","1","1","","","","","","","",""
"null","198578","SARL_v6","SARL_v6ra9kscug","6341a541b6cfd5f8933f48c4","freq_resp","","","img/blue_2bandit_b.png","70","img/blue_2bandit_b.png","70","test","","","","","","","","","","","1","","","","","","","","",""
"null","198734","SARL_v6","SARL_v6ra9kscug","6341a541b6cfd5f8933f48c4","fixation","","","img/fixation.png","null","","","test","","","","","","","","","","","","","","","","","","","",""
"434","199169","SARL_v6","SARL_v6ra9kscug","6341a541b6cfd5f8933f48c4","freq","","","img/blue_2bandit_b2.png","70","","70","test","1","","2","","","","circle","square","2","2","1","1","","","","","","","",""
"null","199546","SARL_v6","SARL_v6ra9kscug","6341a541b6cfd5f8933f48c4","freq_resp","","","img/blue_2bandit_b.png","70","img/blue_2bandit_b.png","70","test","","","","","","","","","","","1","","","","","","","","",""
"null","199701","SARL_v6","SARL_v6ra9kscug","6341a541b6cfd5f8933f48c4","fixation","","","img/fixation.png","null","","","test","","","","","","","","","","","","","","","","","","","",""
"441","200146","SARL_v6","SARL_v6ra9kscug","6341a541b6cfd5f8933f48c4","freq","","","img/blue_2bandit_b2.png","70","","70","test","1","","3","","","","circle","square","3","3","1","1","","","","","","","",""
"null","200508","SARL_v6","SARL_v6ra9kscug","6341a541b6cfd5f8933f48c4","freq_resp","","","img/blue_2bandit_b.png","70","img/blue_2bandit_b.png","70","test","","","","","","","","","","","1","","","","","","","","",""
"null","200663","SARL_v6","SARL_v6ra9kscug","6341a541b6cfd5f8933f48c4","fixation","","","img/fixation.png","null","","","test","","","","","","","","","","","","","","","","","","","",""
"387","201053","SARL_v6","SARL_v6ra9kscug","6341a541b6cfd5f8933f48c4","freq","","","img/blue_2bandit_b2.png","70","","70","test","1","","4","","","","circle","square","4","4","1","1","","","","","","","",""
"null","201483","SARL_v6","SARL_v6ra9kscug","6341a541b6cfd5f8933f48c4","freq_resp","","","img/blue_2bandit_b.png","70","img/blue_2bandit_b.png","70","test","","","","","","","","","","","1","","","","","","","","",""
"null","201638","SARL_v6","SARL_v6ra9kscug","6341a541b6cfd5f8933f48c4","fixation","","","img/fixation.png","null","","","test","","","","","","","","","","","","","","","","","","","",""
"414","202055","SARL_v6","SARL_v6ra9kscug","6341a541b6cfd5f8933f48c4","freq","","","img/blue_2bandit_b2.png","70","","70","test","1","","5","","","","circle","square","5","5","1","1","","","","","","","",""
"null","202449","SARL_v6","SARL_v6ra9kscug","6341a541b6cfd5f8933f48c4","freq_resp","","","img/blue_2bandit_b.png","70","img/blue_2bandit_b.png","70","test","","","","","","","","","","","1","","","","","","","","",""
"null","202605","SARL_v6","SARL_v6ra9kscug","6341a541b6cfd5f8933f48c4","fixation","","","img/fixation.png","null","","","test","","","","","","","","","","","","","","","","","","","",""
"364","202973","SARL_v6","SARL_v6ra9kscug","6341a541b6cfd5f8933f48c4","infreq","","","img/orange_2bandit_b2.png","68","","68","test","1","","6","","","","circle","square","6","6","1","1","","","","","","","",""
"null","203415","SARL_v6","SARL_v6ra9kscug","6341a541b6cfd5f8933f48c4","infreq_resp","","","img/orange_2bandit_b.png","68","img/orange_2bandit_b.png","68","test","","","","","","","","","","","1","","","","","","","","",""
"null","203569","SARL_v6","SARL_v6ra9kscug","6341a541b6cfd5f8933f48c4","fixation","","","img/fixation.png","null","","","test","","","","","","","","","","","","","","","","","","","",""
"505","204076","SARL_v6","SARL_v6ra9kscug","6341a541b6cfd5f8933f48c4","freq","","","img/blue_2bandit_b2.png","70","","70","test","1","","7","","","","circle","square","7","7","1","1","","","","","","","",""
"null","204388","SARL_v6","SARL_v6ra9kscug","6341a541b6cfd5f8933f48c4","freq_resp","","","img/blue_2bandit_b.png","70","img/blue_2bandit_b.png","70","test","","","","","","","","","","","1","","","","","","","","",""
"null","204544","SARL_v6","SARL_v6ra9kscug","6341a541b6cfd5f8933f48c4","fixation","","","img/fixation.png","null","","","test","","","","","","","","","","","","","","","","","","","",""
"435","204981","SARL_v6","SARL_v6ra9kscug","6341a541b6cfd5f8933f48c4","freq","","","img/blue_2bandit_b2.png","70","","70","test","1","","8","","","","circle","square","8","8","1","1","","","","","","","",""
"null","205350","SARL_v6","SARL_v6ra9kscug","6341a541b6cfd5f8933f48c4","freq_resp","","","img/blue_2bandit_b.png","70","img/blue_2bandit_b.png","70","test","","","","","","","","","","","1","","","","","","","","",""
"null","205512","SARL_v6","SARL_v6ra9kscug","6341a541b6cfd5f8933f48c4","fixation","","","img/fixation.png","null","","","test","","","","","","","","","","","","","","","","","","","",""
"441","205956","SARL_v6","SARL_v6ra9kscug","6341a541b6cfd5f8933f48c4","freq","","","img/blue_2bandit_b2.png","70","","70","test","1","","9","","","","circle","square","9","9","1","1","","","","","","","",""
"null","206334","SARL_v6","SARL_v6ra9kscug","6341a541b6cfd5f8933f48c4","freq_resp","","","img/blue_2bandit_b.png","70","img/blue_2bandit_b.png","70","test","","","","","","","","","","","1","","","","","","","","",""
"null","206496","SARL_v6","SARL_v6ra9kscug","6341a541b6cfd5f8933f48c4","fixation","","","img/fixation.png","null","","","test","","","","","","","","","","","","","","","","","","","",""
"429","206929","SARL_v6","SARL_v6ra9kscug","6341a541b6cfd5f8933f48c4","freq","","","img/blue_2bandit_b2.png","70","","70","test","1","","10","","","","circle","square","10","10","1","1","","","","","","","",""
"null","207312","SARL_v6","SARL_v6ra9kscug","6341a541b6cfd5f8933f48c4","freq_resp","","","img/blue_2bandit_b.png","70","img/blue_2bandit_b.png","70","test","","","","","","","","","","","1","","","","","","","","",""
"null","207467","SARL_v6","SARL_v6ra9kscug","6341a541b6cfd5f8933f48c4","fixation","","","img/fixation.png","null","","","test","","","","","","","","","","","","","","","","","","","",""
"416","207885","SARL_v6","SARL_v6ra9kscug","6341a541b6cfd5f8933f48c4","freq","","","img/blue_2bandit_b2.png","70","","70","test","1","","11","","","","circle","square","11","11","1","1","","","","","","","",""
"null","208274","SARL_v6","SARL_v6ra9kscug","6341a541b6cfd5f8933f48c4","freq_resp","","","img/blue_2bandit_b.png","70","img/blue_2bandit_b.png","70","test","","","","","","","","","","","1","","","","","","","","",""
"null","208427","SARL_v6","SARL_v6ra9kscug","6341a541b6cfd5f8933f48c4","fixation","","","img/fixation.png","null","","","test","","","","","","","","","","","","","","","","","","","",""
"338","208767","SARL_v6","SARL_v6ra9kscug","6341a541b6cfd5f8933f48c4","freq","","","img/blue_2bandit_b2.png","70","","70","test","1","","12","","","","circle","square","12","12","1","1","","","","","","","",""
"null","209233","SARL_v6","SARL_v6ra9kscug","6341a541b6cfd5f8933f48c4","freq_resp","","","img/blue_2bandit_b.png","70","img/blue_2bandit_b.png","70","test","","","","","","","","","","","1","","","","","","","","",""
"null","209389","SARL_v6","SARL_v6ra9kscug","6341a541b6cfd5f8933f48c4","fixation","","","img/fixation.png","null","","","test","","","","","","","","","","","","","","","","","","","",""
"420","209812","SARL_v6","SARL_v6ra9kscug","6341a541b6cfd5f8933f48c4","freq","","","img/blue_2bandit_b2.png","70","","70","test","1","","13","","","","circle","square","13","13","1","1","","","","","","","",""
"null","210200","SARL_v6","SARL_v6ra9kscug","6341a541b6cfd5f8933f48c4","freq_resp","","","img/blue_2bandit_b.png","70","img/blue_2bandit_b.png","70","test","","","","","","","","","","","1","","","","","","","","",""
"null","210366","SARL_v6","SARL_v6ra9kscug","6341a541b6cfd5f8933f48c4","fixation","","","img/fixation.png","null","","","test","","","","","","","","","","","","","","","","","","","",""
"385","210755","SARL_v6","SARL_v6ra9kscug","6341a541b6cfd5f8933f48c4","freq","","","img/blue_2bandit_b2.png","70","","70","test","1","","14","","","","circle","square","14","14","1","1","","","","","","","",""
"null","211175","SARL_v6","SARL_v6ra9kscug","6341a541b6cfd5f8933f48c4","freq_resp","","","img/blue_2bandit_b.png","70","img/blue_2bandit_b.png","70","test","","","","","","","","","","","1","","","","","","","","",""
"null","211328","SARL_v6","SARL_v6ra9kscug","6341a541b6cfd5f8933f48c4","fixation","","","img/fixation.png","null","","","test","","","","","","","","","","","","","","","","","","","",""
"360","211692","SARL_v6","SARL_v6ra9kscug","6341a541b6cfd5f8933f48c4","freq","","","img/blue_2bandit_b2.png","70","","70","test","1","","15","","","","circle","square","15","15","1","1","","","","","","","",""
"null","212147","SARL_v6","SARL_v6ra9kscug","6341a541b6cfd5f8933f48c4","freq_resp","","","img/blue_2bandit_b.png","70","img/blue_2bandit_b.png","70","test","","","","","","","","","","","1","","","","","","","","",""
"null","212302","SARL_v6","SARL_v6ra9kscug","6341a541b6cfd5f8933f48c4","fixation","","","img/fixation.png","null","","","test","","","","","","","","","","","","","","","","","","","",""
"366","212672","SARL_v6","SARL_v6ra9kscug","6341a541b6cfd5f8933f48c4","freq","","","img/blue_2bandit_b2.png","70","","70","test","1","","16","","","","circle","square","16","16","1","1","","","","","","","",""
"null","213121","SARL_v6","SARL_v6ra9kscug","6341a541b6cfd5f8933f48c4","freq_resp","","","img/blue_2bandit_b.png","70","img/blue_2bandit_b.png","70","test","","","","","","","","","","","1","","","","","","","","",""
"null","213275","SARL_v6","SARL_v6ra9kscug","6341a541b6cfd5f8933f48c4","fixation","","","img/fixation.png","null","","","test","","","","","","","","","","","","","","","","","","","",""
"358","213636","SARL_v6","SARL_v6ra9kscug","6341a541b6cfd5f8933f48c4","freq","","","img/blue_2bandit_b2.png","70","","70","test","1","","17","","","","circle","square","17","17","1","1","","","","","","","",""
"null","214087","SARL_v6","SARL_v6ra9kscug","6341a541b6cfd5f8933f48c4","freq_resp","","","img/blue_2bandit_b.png","70","img/blue_2bandit_b.png","70","test","","","","","","","","","","","1","","","","","","","","",""
"null","214243","SARL_v6","SARL_v6ra9kscug","6341a541b6cfd5f8933f48c4","fixation","","","img/fixation.png","null","","","test","","","","","","","","","","","","","","","","","","","",""
"346","214590","SARL_v6","SARL_v6ra9kscug","6341a541b6cfd5f8933f48c4","freq","","","img/blue_2bandit_b2.png","70","","70","test","1","","18","","","","circle","square","18","18","1","1","","","","","","","",""
"null","215064","SARL_v6","SARL_v6ra9kscug","6341a541b6cfd5f8933f48c4","freq_resp","","","img/blue_2bandit_b.png","70","img/blue_2bandit_b.png","70","test","","","","","","","","","","","1","","","","","","","","",""
"null","215219","SARL_v6","SARL_v6ra9kscug","6341a541b6cfd5f8933f48c4","fixation","","","img/fixation.png","null","","","test","","","","","","","","","","","","","","","","","","","",""
"496","215719","SARL_v6","SARL_v6ra9kscug","6341a541b6cfd5f8933f48c4","infreq","","","img/orange_2bandit_b2.png","68","","68","test","1","","19","","","","circle","square","19","19","1","1","","","","","","","",""
"null","216041","SARL_v6","SARL_v6ra9kscug","6341a541b6cfd5f8933f48c4","infreq_resp","","","img/orange_2bandit_b.png","68","img/orange_2bandit_b.png","68","test","","","","","","","","","","","1","","","","","","","","",""
"null","216202","SARL_v6","SARL_v6ra9kscug","6341a541b6cfd5f8933f48c4","fixation","","","img/fixation.png","null","","","test","","","","","","","","","","","","","","","","","","","",""
"587","216792","SARL_v6","SARL_v6ra9kscug","6341a541b6cfd5f8933f48c4","freq","","","img/blue_2bandit_b2.png","70","","70","test","1","","20","","","","circle","square","20","20","1","1","","","","","","","",""
"null","217019","SARL_v6","SARL_v6ra9kscug","6341a541b6cfd5f8933f48c4","freq_resp","","","img/blue_2bandit_b.png","70","img/blue_2bandit_b.png","70","test","","","","","","","","","","","1","","","","","","","","",""
"null","217180","SARL_v6","SARL_v6ra9kscug","6341a541b6cfd5f8933f48c4","fixation","","","img/fixation.png","null","","","test","","","","","","","","","","","","","","","","","","","",""
"477","217660","SARL_v6","SARL_v6ra9kscug","6341a541b6cfd5f8933f48c4","freq","","","img/blue_2bandit_b2.png","70","","70","test","1","","21","","","","circle","square","21","21","1","1","","","","","","","",""
"null","217991","SARL_v6","SARL_v6ra9kscug","6341a541b6cfd5f8933f48c4","freq_resp","","","img/blue_2bandit_b.png","70","img/blue_2bandit_b.png","70","test","","","","","","","","","","","1","","","","","","","","",""
"null","218156","SARL_v6","SARL_v6ra9kscug","6341a541b6cfd5f8933f48c4","fixation","","","img/fixation.png","null","","","test","","","","","","","","","","","","","","","","","","","",""
"357","218517","SARL_v6","SARL_v6ra9kscug","6341a541b6cfd5f8933f48c4","freq","","","img/blue_2bandit_b2.png","70","","70","test","1","","22","","","","circle","square","22","22","1","1","","","","","","","",""
"null","218972","SARL_v6","SARL_v6ra9kscug","6341a541b6cfd5f8933f48c4","freq_resp","","","img/blue_2bandit_b.png","70","img/blue_2bandit_b.png","70","test","","","","","","","","","","","1","","","","","","","","",""
"null","219127","SARL_v6","SARL_v6ra9kscug","6341a541b6cfd5f8933f48c4","fixation","","","img/fixation.png","null","","","test","","","","","","","","","","","","","","","","","","","",""
"406","219537","SARL_v6","SARL_v6ra9kscug","6341a541b6cfd5f8933f48c4","freq","","","img/blue_2bandit_b2.png","70","","70","test","1","","23","","","","circle","square","23","23","1","1","","","","","","","",""
"null","219934","SARL_v6","SARL_v6ra9kscug","6341a541b6cfd5f8933f48c4","freq_resp","","","img/blue_2bandit_b.png","70","img/blue_2bandit_b.png","70","test","","","","","","","","","","","1","","","","","","","","",""
"null","220089","SARL_v6","SARL_v6ra9kscug","6341a541b6cfd5f8933f48c4","fixation","","","img/fixation.png","null","","","test","","","","","","","","","","","","","","","","","","","",""
"395","220487","SARL_v6","SARL_v6ra9kscug","6341a541b6cfd5f8933f48c4","freq","","","img/blue_2bandit_b2.png","70","","70","test","1","","24","","","","circle","square","24","24","1","1","","","","","","","",""
"null","220896","SARL_v6","SARL_v6ra9kscug","6341a541b6cfd5f8933f48c4","freq_resp","","","img/blue_2bandit_b.png","70","img/blue_2bandit_b.png","70","test","","","","","","","","","","","1","","","","","","","","",""
"null","221049","SARL_v6","SARL_v6ra9kscug","6341a541b6cfd5f8933f48c4","fixation","","","img/fixation.png","null","","","test","","","","","","","","","","","","","","","","","","","",""
"335","221388","SARL_v6","SARL_v6ra9kscug","6341a541b6cfd5f8933f48c4","freq","","","img/blue_2bandit_b2.png","70","","70","test","1","","25","","","","circle","square","25","25","1","1","","","","","","","",""
"null","221868","SARL_v6","SARL_v6ra9kscug","6341a541b6cfd5f8933f48c4","freq_resp","","","img/blue_2bandit_b.png","70","img/blue_2bandit_b.png","70","test","","","","","","","","","","","1","","","","","","","","",""
"null","222025","SARL_v6","SARL_v6ra9kscug","6341a541b6cfd5f8933f48c4","fixation","","","img/fixation.png","null","","","test","","","","","","","","","","","","","","","","","","","",""
"389","222416","SARL_v6","SARL_v6ra9kscug","6341a541b6cfd5f8933f48c4","freq","","","img/blue_2bandit_b2.png","70","","70","test","1","","26","","","","circle","square","26","26","1","1","","","","","","","",""
"null","222846","SARL_v6","SARL_v6ra9kscug","6341a541b6cfd5f8933f48c4","freq_resp","","","img/blue_2bandit_b.png","70","img/blue_2bandit_b.png","70","test","","","","","","","","","","","1","","","","","","","","",""
"null","223000","SARL_v6","SARL_v6ra9kscug","6341a541b6cfd5f8933f48c4","fixation","","","img/fixation.png","null","","","test","","","","","","","","","","","","","","","","","","","",""
"516","223518","SARL_v6","SARL_v6ra9kscug","6341a541b6cfd5f8933f48c4","rl","","","img/black_2bandit_b2.png","75","","0","test","","","27","","","-3","circle","square","","0","1","","75","-3","-3","-3","-3","square","1","0"
"null","224281","SARL_v6","SARL_v6ra9kscug","6341a541b6cfd5f8933f48c4","feedback","","","<div class=""verylowPoints_sq""> -3 </div>","null","","na","test","","","NaN","","","","","","","","1","","75","","","","","","1",""
"518","224801","SARL_v6","SARL_v6ra9kscug","6341a541b6cfd5f8933f48c4","freq","","","img/blue_2bandit_b2.png","70","","70","test","1","","28","","","","circle","square","27","1","2","1","","","","","","","",""
"null","225092","SARL_v6","SARL_v6ra9kscug","6341a541b6cfd5f8933f48c4","freq_resp","","","img/blue_2bandit_b.png","70","img/blue_2bandit_b.png","70","test","","","","","","","","","","","2","","","","","","","","",""
"null","225247","SARL_v6","SARL_v6ra9kscug","6341a541b6cfd5f8933f48c4","fixation","","","img/fixation.png","null","","","test","","","","","","","","","","","","","","","","","","","",""
"381","225632","SARL_v6","SARL_v6ra9kscug","6341a541b6cfd5f8933f48c4","freq","","","img/blue_2bandit_b2.png","70","","70","test","1","","29","","","","circle","square","28","2","2","1","","","","","","","",""
"null","226069","SARL_v6","SARL_v6ra9kscug","6341a541b6cfd5f8933f48c4","freq_resp","","","img/blue_2bandit_b.png","70","img/blue_2bandit_b.png","70","test","","","","","","","","","","","2","","","","","","","","",""
"null","226225","SARL_v6","SARL_v6ra9kscug","6341a541b6cfd5f8933f48c4","fixation","","","img/fixation.png","null","","","test","","","","","","","","","","","","","","","","","","","",""
"459","226687","SARL_v6","SARL_v6ra9kscug","6341a541b6cfd5f8933f48c4","freq","","","img/blue_2bandit_b2.png","70","","70","test","1","","30","","","","circle","square","29","3","2","1","","","","","","","",""
"null","227033","SARL_v6","SARL_v6ra9kscug","6341a541b6cfd5f8933f48c4","freq_resp","","","img/blue_2bandit_b.png","70","img/blue_2bandit_b.png","70","test","","","","","","","","","","","2","","","","","","","","",""
"null","227187","SARL_v6","SARL_v6ra9kscug","6341a541b6cfd5f8933f48c4","fixation","","","img/fixation.png","null","","","test","","","","","","","","","","","","","","","","","","","",""
"351","227542","SARL_v6","SARL_v6ra9kscug","6341a541b6cfd5f8933f48c4","freq","","","img/blue_2bandit_b2.png","70","","70","test","1","","31","","","","circle","square","30","4","2","1","","","","","","","",""
"null","228005","SARL_v6","SARL_v6ra9kscug","6341a541b6cfd5f8933f48c4","freq_resp","","","img/blue_2bandit_b.png","70","img/blue_2bandit_b.png","70","test","","","","","","","","","","","2","","","","","","","","",""
"null","228159","SARL_v6","SARL_v6ra9kscug","6341a541b6cfd5f8933f48c4","fixation","","","img/fixation.png","null","","","test","","","","","","","","","","","","","","","","","","","",""
"371","228534","SARL_v6","SARL_v6ra9kscug","6341a541b6cfd5f8933f48c4","freq","","","img/blue_2bandit_b2.png","70","","70","test","1","","32","","","","circle","square","31","5","2","1","","","","","","","",""
"null","228970","SARL_v6","SARL_v6ra9kscug","6341a541b6cfd5f8933f48c4","freq_resp","","","img/blue_2bandit_b.png","70","img/blue_2bandit_b.png","70","test","","","","","","","","","","","2","","","","","","","","",""
"null","229127","SARL_v6","SARL_v6ra9kscug","6341a541b6cfd5f8933f48c4","fixation","","","img/fixation.png","null","","","test","","","","","","","","","","","","","","","","","","","",""
"348","229478","SARL_v6","SARL_v6ra9kscug","6341a541b6cfd5f8933f48c4","freq","","","img/blue_2bandit_b2.png","70","","70","test","1","","33","","","","circle","square","32","6","2","1","","","","","","","",""
"null","229942","SARL_v6","SARL_v6ra9kscug","6341a541b6cfd5f8933f48c4","freq_resp","","","img/blue_2bandit_b.png","70","img/blue_2bandit_b.png","70","test","","","","","","","","","","","2","","","","","","","","",""
"null","230097","SARL_v6","SARL_v6ra9kscug","6341a541b6cfd5f8933f48c4","fixation","","","img/fixation.png","null","","","test","","","","","","","","","","","","","","","","","","","",""
"350","230451","SARL_v6","SARL_v6ra9kscug","6341a541b6cfd5f8933f48c4","freq","","","img/blue_2bandit_b2.png","70","","70","test","1","","34","","","","circle","square","33","7","2","1","","","","","","","",""
"null","230914","SARL_v6","SARL_v6ra9kscug","6341a541b6cfd5f8933f48c4","freq_resp","","","img/blue_2bandit_b.png","70","img/blue_2bandit_b.png","70","test","","","","","","","","","","","2","","","","","","","","",""
"null","231070","SARL_v6","SARL_v6ra9kscug","6341a541b6cfd5f8933f48c4","fixation","","","img/fixation.png","null","","","test","","","","","","","","","","","","","","","","","","","",""
"355","231428","SARL_v6","SARL_v6ra9kscug","6341a541b6cfd5f8933f48c4","freq","","","img/blue_2bandit_b2.png","70","","70","test","1","","35","","","","circle","square","34","8","2","1","","","","","","","",""
"null","231879","SARL_v6","SARL_v6ra9kscug","6341a541b6cfd5f8933f48c4","freq_resp","","","img/blue_2bandit_b.png","70","img/blue_2bandit_b.png","70","test","","","","","","","","","","","2","","","","","","","","",""
"null","232033","SARL_v6","SARL_v6ra9kscug","6341a541b6cfd5f8933f48c4","fixation","","","img/fixation.png","null","","","test","","","","","","","","","","","","","","","","","","","",""
"314","232351","SARL_v6","SARL_v6ra9kscug","6341a541b6cfd5f8933f48c4","infreq","","","img/orange_2bandit_b2.png","70","","68","test","0","","36","","","","circle","square","35","9","2","0.9714285714285714","","","","","","","",""
"null","232855","SARL_v6","SARL_v6ra9kscug","6341a541b6cfd5f8933f48c4","infreq_resp","","","img/orange_2bandit_b.png","70","img/orange_2bandit_b.png","68","test","","","","","","","","","","","2","","","","","","","","",""
"null","233008","SARL_v6","SARL_v6ra9kscug","6341a541b6cfd5f8933f48c4","fixation","","","img/fixation.png","null","","","test","","","","","","","","","","","","","","","","","","","",""
"642","233653","SARL_v6","SARL_v6ra9kscug","6341a541b6cfd5f8933f48c4","freq","","","img/blue_2bandit_b2.png","70","","70","test","1","","37","","","","circle","square","36","10","2","0.9722222222222222","","","","","","","",""
"null","233826","SARL_v6","SARL_v6ra9kscug","6341a541b6cfd5f8933f48c4","freq_resp","","","img/blue_2bandit_b.png","70","img/blue_2bandit_b.png","70","test","","","","","","","","","","","2","","","","","","","","",""
"null","233983","SARL_v6","SARL_v6ra9kscug","6341a541b6cfd5f8933f48c4","fixation","","","img/fixation.png","null","","","test","","","","","","","","","","","","","","","","","","","",""
"651","234637","SARL_v6","SARL_v6ra9kscug","6341a541b6cfd5f8933f48c4","freq","","","img/blue_2bandit_b2.png","70","","70","test","1","","38","","","","circle","square","37","11","2","0.972972972972973","","","","","","","",""
"null","234798","SARL_v6","SARL_v6ra9kscug","6341a541b6cfd5f8933f48c4","freq_resp","","","img/blue_2bandit_b.png","70","img/blue_2bandit_b.png","70","test","","","","","","","","","","","2","","","","","","","","",""
"null","234961","SARL_v6","SARL_v6ra9kscug","6341a541b6cfd5f8933f48c4","fixation","","","img/fixation.png","null","","","test","","","","","","","","","","","","","","","","","","","",""
"679","235642","SARL_v6","SARL_v6ra9kscug","6341a541b6cfd5f8933f48c4","freq","","","img/blue_2bandit_b2.png","70","","70","test","1","","39","","","","circle","square","38","12","2","0.9736842105263158","","","","","","","",""
"null","235771","SARL_v6","SARL_v6ra9kscug","6341a541b6cfd5f8933f48c4","freq_resp","","","img/blue_2bandit_b.png","70","img/blue_2bandit_b.png","70","test","","","","","","","","","","","2","","","","","","","","",""
"null","235927","SARL_v6","SARL_v6ra9kscug","6341a541b6cfd5f8933f48c4","fixation","","","img/fixation.png","null","","","test","","","","","","","","","","","","","","","","","","","",""
"773","236702","SARL_v6","SARL_v6ra9kscug","6341a541b6cfd5f8933f48c4","freq","","","img/blue_2bandit_b2.png","70","","70","test","1","","40","","","","circle","square","39","13","2","0.9743589743589743","","","","","","","",""
"null","236744","SARL_v6","SARL_v6ra9kscug","6341a541b6cfd5f8933f48c4","freq_resp","","","img/blue_2bandit_b.png","70","img/blue_2bandit_b.png","70","test","","","","","","","","","","","2","","","","","","","","",""
"null","236899","SARL_v6","SARL_v6ra9kscug","6341a541b6cfd5f8933f48c4","fixation","","","img/fixation.png","null","","","test","","","","","","","","","","","","","","","","","","","",""
"446","237348","SARL_v6","SARL_v6ra9kscug","6341a541b6cfd5f8933f48c4","freq","","","img/blue_2bandit_b2.png","70","","70","test","1","","41","","","","circle","square","40","14","2","0.975","","","","","","","",""
"null","237707","SARL_v6","SARL_v6ra9kscug","6341a541b6cfd5f8933f48c4","freq_resp","","","img/blue_2bandit_b.png","70","img/blue_2bandit_b.png","70","test","","","","","","","","","","","2","","","","","","","","",""
"null","237862","SARL_v6","SARL_v6ra9kscug","6341a541b6cfd5f8933f48c4","fixation","","","img/fixation.png","null","","","test","","","","","","","","","","","","","","","","","","","",""
"410","238275","SARL_v6","SARL_v6ra9kscug","6341a541b6cfd5f8933f48c4","freq","","","img/blue_2bandit_b2.png","70","","70","test","1","","42","","","","circle","square","41","15","2","0.975609756097561","","","","","","","",""
"null","238672","SARL_v6","SARL_v6ra9kscug","6341a541b6cfd5f8933f48c4","freq_resp","","","img/blue_2bandit_b.png","70","img/blue_2bandit_b.png","70","test","","","","","","","","","","","2","","","","","","","","",""
"null","238827","SARL_v6","SARL_v6ra9kscug","6341a541b6cfd5f8933f48c4","fixation","","","img/fixation.png","null","","","test","","","","","","","","","","","","","","","","","","","",""
"406","239236","SARL_v6","SARL_v6ra9kscug","6341a541b6cfd5f8933f48c4","freq","","","img/blue_2bandit_b2.png","70","","70","test","1","","43","","","","circle","square","42","16","2","0.9761904761904762","","","","","","","",""
"null","239636","SARL_v6","SARL_v6ra9kscug","6341a541b6cfd5f8933f48c4","freq_resp","","","img/blue_2bandit_b.png","70","img/blue_2bandit_b.png","70","test","","","","","","","","","","","2","","","","","","","","",""
"null","239792","SARL_v6","SARL_v6ra9kscug","6341a541b6cfd5f8933f48c4","fixation","","","img/fixation.png","null","","","test","","","","","","","","","","","","","","","","","","","",""
"533","240327","SARL_v6","SARL_v6ra9kscug","6341a541b6cfd5f8933f48c4","infreq","","","img/orange_2bandit_b2.png","68","","68","test","1","","44","","","","circle","square","43","17","2","0.9767441860465116","","","","","","","",""
"null","240611","SARL_v6","SARL_v6ra9kscug","6341a541b6cfd5f8933f48c4","infreq_resp","","","img/orange_2bandit_b.png","68","img/orange_2bandit_b.png","68","test","","","","","","","","","","","2","","","","","","","","",""
"null","240766","SARL_v6","SARL_v6ra9kscug","6341a541b6cfd5f8933f48c4","fixation","","","img/fixation.png","null","","","test","","","","","","","","","","","","","","","","","","","",""
"305","241075","SARL_v6","SARL_v6ra9kscug","6341a541b6cfd5f8933f48c4","infreq","","","img/orange_2bandit_b2.png","68","","68","test","1","","45","","","","circle","square","44","18","2","0.9772727272727273","","","","","","","",""
"null","241577","SARL_v6","SARL_v6ra9kscug","6341a541b6cfd5f8933f48c4","infreq_resp","","","img/orange_2bandit_b.png","68","img/orange_2bandit_b.png","68","test","","","","","","","","","","","2","","","","","","","","",""
"null","241732","SARL_v6","SARL_v6ra9kscug","6341a541b6cfd5f8933f48c4","fixation","","","img/fixation.png","null","","","test","","","","","","","","","","","","","","","","","","","",""
"452","242186","SARL_v6","SARL_v6ra9kscug","6341a541b6cfd5f8933f48c4","freq","","","img/blue_2bandit_b2.png","70","","70","test","1","","46","","","","circle","square","45","19","2","0.9777777777777777","","","","","","","",""
"null","242541","SARL_v6","SARL_v6ra9kscug","6341a541b6cfd5f8933f48c4","freq_resp","","","img/blue_2bandit_b.png","70","img/blue_2bandit_b.png","70","test","","","","","","","","","","","2","","","","","","","","",""
"null","242709","SARL_v6","SARL_v6ra9kscug","6341a541b6cfd5f8933f48c4","fixation","","","img/fixation.png","null","","","test","","","","","","","","","","","","","","","","","","","",""
"395","243107","SARL_v6","SARL_v6ra9kscug","6341a541b6cfd5f8933f48c4","freq","","","img/blue_2bandit_b2.png","70","","70","test","1","","47","","","","circle","square","46","20","2","0.9782608695652174","","","","","","","",""
"null","243518","SARL_v6","SARL_v6ra9kscug","6341a541b6cfd5f8933f48c4","freq_resp","","","img/blue_2bandit_b.png","70","img/blue_2bandit_b.png","70","test","","","","","","","","","","","2","","","","","","","","",""
"null","243674","SARL_v6","SARL_v6ra9kscug","6341a541b6cfd5f8933f48c4","fixation","","","img/fixation.png","null","","","test","","","","","","","","","","","","","","","","","","","",""
"377","244053","SARL_v6","SARL_v6ra9kscug","6341a541b6cfd5f8933f48c4","freq","","","img/blue_2bandit_b2.png","70","","70","test","1","","48","","","","circle","square","47","21","2","0.9787234042553191","","","","","","","",""
"null","244494","SARL_v6","SARL_v6ra9kscug","6341a541b6cfd5f8933f48c4","freq_resp","","","img/blue_2bandit_b.png","70","img/blue_2bandit_b.png","70","test","","","","","","","","","","","2","","","","","","","","",""
"null","244659","SARL_v6","SARL_v6ra9kscug","6341a541b6cfd5f8933f48c4","fixation","","","img/fixation.png","null","","","test","","","","","","","","","","","","","","","","","","","",""
"565","245229","SARL_v6","SARL_v6ra9kscug","6341a541b6cfd5f8933f48c4","rl","","","img/black_2bandit_b2.png","75","","0","test","","","49","","","-5","circle","square","","0","2","","75","-8","-5","-8","-5","square","2","0"
"null","245988","SARL_v6","SARL_v6ra9kscug","6341a541b6cfd5f8933f48c4","feedback","","","<div class=""verylowPoints_sq""> -5 </div>","null","","na","test","","","NaN","","","","","","","","2","","75","","","","","","2",""
"null","246797","SARL_v6","SARL_v6ra9kscug","6341a541b6cfd5f8933f48c4","freq","","","img/blue_2bandit_b2.png","null","","70","test","0","","50","","","","circle","square","48","1","3","0.9583333333333334","","","","","","","",""
"null","246964","SARL_v6","SARL_v6ra9kscug","6341a541b6cfd5f8933f48c4","fixation","","","img/fixation.png","null","","","test","","","","","","","","","","","","","","","","","","","",""
"null","247769","SARL_v6","SARL_v6ra9kscug","6341a541b6cfd5f8933f48c4","freq","","","img/blue_2bandit_b2.png","null","","70","test","0","","51","","","","circle","square","49","2","3","0.9387755102040817","","","","","","","",""
"null","247922","SARL_v6","SARL_v6ra9kscug","6341a541b6cfd5f8933f48c4","fixation","","","img/fixation.png","null","","","test","","","","","","","","","","","","","","","","","","","",""
"null","248726","SARL_v6","SARL_v6ra9kscug","6341a541b6cfd5f8933f48c4","freq","","","img/blue_2bandit_b2.png","null","","70","test","0","","52","","","","circle","square","50","3","3","0.92","","","","","","","",""
"null","248881","SARL_v6","SARL_v6ra9kscug","6341a541b6cfd5f8933f48c4","fixation","","","img/fixation.png","null","","","test","","","","","","","","","","","","","","","","","","","",""
"702","249587","SARL_v6","SARL_v6ra9kscug","6341a541b6cfd5f8933f48c4","freq","","","img/blue_2bandit_b2.png","70","","70","test","1","","53","","","","circle","square","51","4","3","0.9215686274509803","","","","","","","",""
"null","249693","SARL_v6","SARL_v6ra9kscug","6341a541b6cfd5f8933f48c4","freq_resp","","","img/blue_2bandit_b.png","70","img/blue_2bandit_b.png","70","test","","","","","","","","","","","3","","","","","","","","",""
"null","249846","SARL_v6","SARL_v6ra9kscug","6341a541b6cfd5f8933f48c4","fixation","","","img/fixation.png","null","","","test","","","","","","","","","","","","","","","","","","","",""
"422","250272","SARL_v6","SARL_v6ra9kscug","6341a541b6cfd5f8933f48c4","freq","","","img/blue_2bandit_b2.png","70","","70","test","1","","54","","","","circle","square","52","5","3","0.9230769230769231","","","","","","","",""
"null","250665","SARL_v6","SARL_v6ra9kscug","6341a541b6cfd5f8933f48c4","freq_resp","","","img/blue_2bandit_b.png","70","img/blue_2bandit_b.png","70","test","","","","","","","","","","","3","","","","","","","","",""
"null","250825","SARL_v6","SARL_v6ra9kscug","6341a541b6cfd5f8933f48c4","fixation","","","img/fixation.png","null","","","test","","","","","","","","","","","","","","","","","","","",""
"384","251213","SARL_v6","SARL_v6ra9kscug","6341a541b6cfd5f8933f48c4","freq","","","img/blue_2bandit_b2.png","70","","70","test","1","","55","","","","circle","square","53","6","3","0.9245283018867925","","","","","","","",""
"null","251635","SARL_v6","SARL_v6ra9kscug","6341a541b6cfd5f8933f48c4","freq_resp","","","img/blue_2bandit_b.png","70","img/blue_2bandit_b.png","70","test","","","","","","","","","","","3","","","","","","","","",""
"null","251789","SARL_v6","SARL_v6ra9kscug","6341a541b6cfd5f8933f48c4","fixation","","","img/fixation.png","null","","","test","","","","","","","","","","","","","","","","","","","",""
"388","252181","SARL_v6","SARL_v6ra9kscug","6341a541b6cfd5f8933f48c4","freq","","","img/blue_2bandit_b2.png","70","","70","test","1","","56","","","","circle","square","54","7","3","0.9259259259259259","","","","","","","",""
"null","252600","SARL_v6","SARL_v6ra9kscug","6341a541b6cfd5f8933f48c4","freq_resp","","","img/blue_2bandit_b.png","70","img/blue_2bandit_b.png","70","test","","","","","","","","","","","3","","","","","","","","",""
"null","252753","SARL_v6","SARL_v6ra9kscug","6341a541b6cfd5f8933f48c4","fixation","","","img/fixation.png","null","","","test","","","","","","","","","","","","","","","","","","","",""
"338","253095","SARL_v6","SARL_v6ra9kscug","6341a541b6cfd5f8933f48c4","freq","","","img/blue_2bandit_b2.png","70","","70","test","1","","57","","","","circle","square","55","8","3","0.9272727272727272","","","","","","","",""
"null","253564","SARL_v6","SARL_v6ra9kscug","6341a541b6cfd5f8933f48c4","freq_resp","","","img/blue_2bandit_b.png","70","img/blue_2bandit_b.png","70","test","","","","","","","","","","","3","","","","","","","","",""
"null","253716","SARL_v6","SARL_v6ra9kscug","6341a541b6cfd5f8933f48c4","fixation","","","img/fixation.png","null","","","test","","","","","","","","","","","","","","","","","","","",""
"367","254087","SARL_v6","SARL_v6ra9kscug","6341a541b6cfd5f8933f48c4","freq","","","img/blue_2bandit_b2.png","70","","70","test","1","","58","","","","circle","square","56","9","3","0.9285714285714286","","","","","","","",""
"null","254534","SARL_v6","SARL_v6ra9kscug","6341a541b6cfd5f8933f48c4","freq_resp","","","img/blue_2bandit_b.png","70","img/blue_2bandit_b.png","70","test","","","","","","","","","","","3","","","","","","","","",""
"null","254691","SARL_v6","SARL_v6ra9kscug","6341a541b6cfd5f8933f48c4","fixation","","","img/fixation.png","null","","","test","","","","","","","","","","","","","","","","","","","",""
"395","255089","SARL_v6","SARL_v6ra9kscug","6341a541b6cfd5f8933f48c4","infreq","","","img/orange_2bandit_b2.png","68","","68","test","1","","59","","","","circle","square","57","10","3","0.9298245614035088","","","","","","","",""
"null","255502","SARL_v6","SARL_v6ra9kscug","6341a541b6cfd5f8933f48c4","infreq_resp","","","img/orange_2bandit_b.png","68","img/orange_2bandit_b.png","68","test","","","","","","","","","","","3","","","","","","","","",""
"null","255657","SARL_v6","SARL_v6ra9kscug","6341a541b6cfd5f8933f48c4","fixation","","","img/fixation.png","null","","","test","","","","","","","","","","","","","","","","","","","",""
"390","256049","SARL_v6","SARL_v6ra9kscug","6341a541b6cfd5f8933f48c4","infreq","","","img/orange_2bandit_b2.png","68","","68","test","1","","60","","","","circle","square","58","11","3","0.9310344827586207","","","","","","","",""
"null","256463","SARL_v6","SARL_v6ra9kscug","6341a541b6cfd5f8933f48c4","infreq_resp","","","img/orange_2bandit_b.png","68","img/orange_2bandit_b.png","68","test","","","","","","","","","","","3","","","","","","","","",""
"null","256617","SARL_v6","SARL_v6ra9kscug","6341a541b6cfd5f8933f48c4","fixation","","","img/fixation.png","null","","","test","","","","","","","","","","","","","","","","","","","",""
"423","257044","SARL_v6","SARL_v6ra9kscug","6341a541b6cfd5f8933f48c4","freq","","","img/blue_2bandit_b2.png","70","","70","test","1","","61","","","","circle","square","59","12","3","0.9322033898305084","","","","","","","",""
"null","257426","SARL_v6","SARL_v6ra9kscug","6341a541b6cfd5f8933f48c4","freq_resp","","","img/blue_2bandit_b.png","70","img/blue_2bandit_b.png","70","test","","","","","","","","","","","3","","","","","","","","",""
"null","257581","SARL_v6","SARL_v6ra9kscug","6341a541b6cfd5f8933f48c4","fixation","","","img/fixation.png","null","","","test","","","","","","","","","","","","","","","","","","","",""
"456","258040","SARL_v6","SARL_v6ra9kscug","6341a541b6cfd5f8933f48c4","freq","","","img/blue_2bandit_b2.png","70","","70","test","1","","62","","","","circle","square","60","13","3","0.9333333333333333","","","","","","","",""
"null","258394","SARL_v6","SARL_v6ra9kscug","6341a541b6cfd5f8933f48c4","freq_resp","","","img/blue_2bandit_b.png","70","img/blue_2bandit_b.png","70","test","","","","","","","","","","","3","","","","","","","","",""
"null","258550","SARL_v6","SARL_v6ra9kscug","6341a541b6cfd5f8933f48c4","fixation","","","img/fixation.png","null","","","test","","","","","","","","","","","","","","","","","","","",""
"345","258899","SARL_v6","SARL_v6ra9kscug","6341a541b6cfd5f8933f48c4","freq","","","img/blue_2bandit_b2.png","70","","70","test","1","","63","","","","circle","square","61","14","3","0.9344262295081968","","","","","","","",""
"null","259358","SARL_v6","SARL_v6ra9kscug","6341a541b6cfd5f8933f48c4","freq_resp","","","img/blue_2bandit_b.png","70","img/blue_2bandit_b.png","70","test","","","","","","","","","","","3","","","","","","","","",""
"null","259516","SARL_v6","SARL_v6ra9kscug","6341a541b6cfd5f8933f48c4","fixation","","","img/fixation.png","null","","","test","","","","","","","","","","","","","","","","","","","",""
"295","259814","SARL_v6","SARL_v6ra9kscug","6341a541b6cfd5f8933f48c4","freq","","","img/blue_2bandit_b2.png","70","","70","test","1","","64","","","","circle","square","62","15","3","0.9354838709677419","","","","","","","",""
"null","260322","SARL_v6","SARL_v6ra9kscug","6341a541b6cfd5f8933f48c4","freq_resp","","","img/blue_2bandit_b.png","70","img/blue_2bandit_b.png","70","test","","","","","","","","","","","3","","","","","","","","",""
"null","260489","SARL_v6","SARL_v6ra9kscug","6341a541b6cfd5f8933f48c4","fixation","","","img/fixation.png","null","","","test","","","","","","","","","","","","","","","","","","","",""
"320","260814","SARL_v6","SARL_v6ra9kscug","6341a541b6cfd5f8933f48c4","freq","","","img/blue_2bandit_b2.png","70","","70","test","1","","65","","","","circle","square","63","16","3","0.9365079365079365","","","","","","","",""
"null","261307","SARL_v6","SARL_v6ra9kscug","6341a541b6cfd5f8933f48c4","freq_resp","","","img/blue_2bandit_b.png","70","img/blue_2bandit_b.png","70","test","","","","","","","","","","","3","","","","","","","","",""
"null","261461","SARL_v6","SARL_v6ra9kscug","6341a541b6cfd5f8933f48c4","fixation","","","img/fixation.png","null","","","test","","","","","","","","","","","","","","","","","","","",""
"365","261829","SARL_v6","SARL_v6ra9kscug","6341a541b6cfd5f8933f48c4","freq","","","img/blue_2bandit_b2.png","70","","70","test","1","","66","","","","circle","square","64","17","3","0.9375","","","","","","","",""
"null","262275","SARL_v6","SARL_v6ra9kscug","6341a541b6cfd5f8933f48c4","freq_resp","","","img/blue_2bandit_b.png","70","img/blue_2bandit_b.png","70","test","","","","","","","","","","","3","","","","","","","","",""
"null","262429","SARL_v6","SARL_v6ra9kscug","6341a541b6cfd5f8933f48c4","fixation","","","img/fixation.png","null","","","test","","","","","","","","","","","","","","","","","","","",""
"330","262763","SARL_v6","SARL_v6ra9kscug","6341a541b6cfd5f8933f48c4","freq","","","img/blue_2bandit_b2.png","70","","70","test","1","","67","","","","circle","square","65","18","3","0.9384615384615385","","","","","","","",""
"null","263238","SARL_v6","SARL_v6ra9kscug","6341a541b6cfd5f8933f48c4","freq_resp","","","img/blue_2bandit_b.png","70","img/blue_2bandit_b.png","70","test","","","","","","","","","","","3","","","","","","","","",""
"null","263392","SARL_v6","SARL_v6ra9kscug","6341a541b6cfd5f8933f48c4","fixation","","","img/fixation.png","null","","","test","","","","","","","","","","","","","","","","","","","",""
"368","263765","SARL_v6","SARL_v6ra9kscug","6341a541b6cfd5f8933f48c4","freq","","","img/blue_2bandit_b2.png","70","","70","test","1","","68","","","","circle","square","66","19","3","0.9393939393939394","","","","","","","",""
"null","264200","SARL_v6","SARL_v6ra9kscug","6341a541b6cfd5f8933f48c4","freq_resp","","","img/blue_2bandit_b.png","70","img/blue_2bandit_b.png","70","test","","","","","","","","","","","3","","","","","","","","",""
"null","264355","SARL_v6","SARL_v6ra9kscug","6341a541b6cfd5f8933f48c4","fixation","","","img/fixation.png","null","","","test","","","","","","","","","","","","","","","","","","","",""
"290","264649","SARL_v6","SARL_v6ra9kscug","6341a541b6cfd5f8933f48c4","freq","","","img/blue_2bandit_b2.png","70","","70","test","1","","69","","","","circle","square","67","20","3","0.9402985074626866","","","","","","","",""
"null","265175","SARL_v6","SARL_v6ra9kscug","6341a541b6cfd5f8933f48c4","freq_resp","","","img/blue_2bandit_b.png","70","img/blue_2bandit_b.png","70","test","","","","","","","","","","","3","","","","","","","","",""
"null","265329","SARL_v6","SARL_v6ra9kscug","6341a541b6cfd5f8933f48c4","fixation","","","img/fixation.png","null","","","test","","","","","","","","","","","","","","","","","","","",""
"346","265679","SARL_v6","SARL_v6ra9kscug","6341a541b6cfd5f8933f48c4","freq","","","img/blue_2bandit_b2.png","70","","70","test","1","","70","","","","circle","square","68","21","3","0.9411764705882353","","","","","","","",""
"null","266148","SARL_v6","SARL_v6ra9kscug","6341a541b6cfd5f8933f48c4","freq_resp","","","img/blue_2bandit_b.png","70","img/blue_2bandit_b.png","70","test","","","","","","","","","","","3","","","","","","","","",""
"null","266302","SARL_v6","SARL_v6ra9kscug","6341a541b6cfd5f8933f48c4","fixation","","","img/fixation.png","null","","","test","","","","","","","","","","","","","","","","","","","",""
"577","266883","SARL_v6","SARL_v6ra9kscug","6341a541b6cfd5f8933f48c4","rl","","","img/black_2bandit_b2.png","75","","0","test","","","71","","","-4","circle","square","","0","3","","75","-8","-4","-8","-4","square","3","0"
"null","267638","SARL_v6","SARL_v6ra9kscug","6341a541b6cfd5f8933f48c4","feedback","","","<div class=""verylowPoints_sq""> -4 </div>","null","","na","test","","","NaN","","","","","","","","3","","75","","","","","","3",""
"605","268246","SARL_v6","SARL_v6ra9kscug","6341a541b6cfd5f8933f48c4","freq","","","img/blue_2bandit_b2.png","70","","70","test","1","","72","","","","circle","square","69","1","4","0.9420289855072463","","","","","","","",""
"null","268459","SARL_v6","SARL_v6ra9kscug","6341a541b6cfd5f8933f48c4","freq_resp","","","img/blue_2bandit_b.png","70","img/blue_2bandit_b.png","70","test","","","","","","","","","","","4","","","","","","","","",""
"null","268613","SARL_v6","SARL_v6ra9kscug","6341a541b6cfd5f8933f48c4","fixation","","","img/fixation.png","null","","","test","","","","","","","","","","","","","","","","","","","",""
"386","269003","SARL_v6","SARL_v6ra9kscug","6341a541b6cfd5f8933f48c4","freq","","","img/blue_2bandit_b2.png","70","","70","test","1","","73","","","","circle","square","70","2","4","0.9428571428571428","","","","","","","",""
"null","269429","SARL_v6","SARL_v6ra9kscug","6341a541b6cfd5f8933f48c4","freq_resp","","","img/blue_2bandit_b.png","70","img/blue_2bandit_b.png","70","test","","","","","","","","","","","4","","","","","","","","",""
"null","269584","SARL_v6","SARL_v6ra9kscug","6341a541b6cfd5f8933f48c4","fixation","","","img/fixation.png","null","","","test","","","","","","","","","","","","","","","","","","","",""
"350","269938","SARL_v6","SARL_v6ra9kscug","6341a541b6cfd5f8933f48c4","freq","","","img/blue_2bandit_b2.png","70","","70","test","1","","74","","","","circle","square","71","3","4","0.9436619718309859","","","","","","","",""
"null","270408","SARL_v6","SARL_v6ra9kscug","6341a541b6cfd5f8933f48c4","freq_resp","","","img/blue_2bandit_b.png","70","img/blue_2bandit_b.png","70","test","","","","","","","","","","","4","","","","","","","","",""
"null","270563","SARL_v6","SARL_v6ra9kscug","6341a541b6cfd5f8933f48c4","fixation","","","img/fixation.png","null","","","test","","","","","","","","","","","","","","","","","","","",""
"435","271001","SARL_v6","SARL_v6ra9kscug","6341a541b6cfd5f8933f48c4","freq","","","img/blue_2bandit_b2.png","70","","70","test","1","","75","","","","circle","square","72","4","4","0.9444444444444444","","","","","","","",""
"null","271383","SARL_v6","SARL_v6ra9kscug","6341a541b6cfd5f8933f48c4","freq_resp","","","img/blue_2bandit_b.png","70","img/blue_2bandit_b.png","70","test","","","","","","","","","","","4","","","","","","","","",""
"null","271536","SARL_v6","SARL_v6ra9kscug","6341a541b6cfd5f8933f48c4","fixation","","","img/fixation.png","null","","","test","","","","","","","","","","","","","","","","","","","",""
"379","271919","SARL_v6","SARL_v6ra9kscug","6341a541b6cfd5f8933f48c4","freq","","","img/blue_2bandit_b2.png","70","","70","test","1","","76","","","","circle","square","73","5","4","0.9452054794520548","","","","","","","",""
"null","272343","SARL_v6","SARL_v6ra9kscug","6341a541b6cfd5f8933f48c4","freq_resp","","","img/blue_2bandit_b.png","70","img/blue_2bandit_b.png","70","test","","","","","","","","","","","4","","","","","","","","",""
"null","272496","SARL_v6","SARL_v6ra9kscug","6341a541b6cfd5f8933f48c4","fixation","","","img/fixation.png","null","","","test","","","","","","","","","","","","","","","","","","","",""
"344","272843","SARL_v6","SARL_v6ra9kscug","6341a541b6cfd5f8933f48c4","freq","","","img/blue_2bandit_b2.png","70","","70","test","1","","77","","","","circle","square","74","6","4","0.9459459459459459","","","","","","","",""
"null","273308","SARL_v6","SARL_v6ra9kscug","6341a541b6cfd5f8933f48c4","freq_resp","","","img/blue_2bandit_b.png","70","img/blue_2bandit_b.png","70","test","","","","","","","","","","","4","","","","","","","","",""
"null","273462","SARL_v6","SARL_v6ra9kscug","6341a541b6cfd5f8933f48c4","fixation","","","img/fixation.png","null","","","test","","","","","","","","","","","","","","","","","","","",""
"438","273905","SARL_v6","SARL_v6ra9kscug","6341a541b6cfd5f8933f48c4","infreq","","","img/orange_2bandit_b2.png","68","","68","test","1","","78","","","","circle","square","75","7","4","0.9466666666666667","","","","","","","",""
"null","274274","SARL_v6","SARL_v6ra9kscug","6341a541b6cfd5f8933f48c4","infreq_resp","","","img/orange_2bandit_b.png","68","img/orange_2bandit_b.png","68","test","","","","","","","","","","","4","","","","","","","","",""
"null","274428","SARL_v6","SARL_v6ra9kscug","6341a541b6cfd5f8933f48c4","fixation","","","img/fixation.png","null","","","test","","","","","","","","","","","","","","","","","","","",""
"374","274807","SARL_v6","SARL_v6ra9kscug","6341a541b6cfd5f8933f48c4","freq","","","img/blue_2bandit_b2.png","70","","70","test","1","","79","","","","circle","square","76","8","4","0.9473684210526315","","","","","","","",""
"null","275238","SARL_v6","SARL_v6ra9kscug","6341a541b6cfd5f8933f48c4","freq_resp","","","img/blue_2bandit_b.png","70","img/blue_2bandit_b.png","70","test","","","","","","","","","","","4","","","","","","","","",""
"null","275395","SARL_v6","SARL_v6ra9kscug","6341a541b6cfd5f8933f48c4","fixation","","","img/fixation.png","null","","","test","","","","","","","","","","","","","","","","","","","",""
"361","275759","SARL_v6","SARL_v6ra9kscug","6341a541b6cfd5f8933f48c4","freq","","","img/blue_2bandit_b2.png","70","","70","test","1","","80","","","","circle","square","77","9","4","0.948051948051948","","","","","","","",""
"null","276216","SARL_v6","SARL_v6ra9kscug","6341a541b6cfd5f8933f48c4","freq_resp","","","img/blue_2bandit_b.png","70","img/blue_2bandit_b.png","70","test","","","","","","","","","","","4","","","","","","","","",""
"null","276373","SARL_v6","SARL_v6ra9kscug","6341a541b6cfd5f8933f48c4","fixation","","","img/fixation.png","null","","","test","","","","","","","","","","","","","","","","","","","",""
"350","276727","SARL_v6","SARL_v6ra9kscug","6341a541b6cfd5f8933f48c4","freq","","","img/blue_2bandit_b2.png","70","","70","test","1","","81","","","","circle","square","78","10","4","0.9487179487179487","","","","","","","",""
"null","277193","SARL_v6","SARL_v6ra9kscug","6341a541b6cfd5f8933f48c4","freq_resp","","","img/blue_2bandit_b.png","70","img/blue_2bandit_b.png","70","test","","","","","","","","","","","4","","","","","","","","",""
"null","277347","SARL_v6","SARL_v6ra9kscug","6341a541b6cfd5f8933f48c4","fixation","","","img/fixation.png","null","","","test","","","","","","","","","","","","","","","","","","","",""
"365","277716","SARL_v6","SARL_v6ra9kscug","6341a541b6cfd5f8933f48c4","freq","","","img/blue_2bandit_b2.png","70","","70","test","1","","82","","","","circle","square","79","11","4","0.9493670886075949","","","","","","","",""
"null","278166","SARL_v6","SARL_v6ra9kscug","6341a541b6cfd5f8933f48c4","freq_resp","","","img/blue_2bandit_b.png","70","img/blue_2bandit_b.png","70","test","","","","","","","","","","","4","","","","","","","","",""
"null","278321","SARL_v6","SARL_v6ra9kscug","6341a541b6cfd5f8933f48c4","fixation","","","img/fixation.png","null","","","test","","","","","","","","","","","","","","","","","","","",""
"371","278696","SARL_v6","SARL_v6ra9kscug","6341a541b6cfd5f8933f48c4","freq","","","img/blue_2bandit_b2.png","70","","70","test","1","","83","","","","circle","square","80","12","4","0.95","","","","","","","",""
"null","279134","SARL_v6","SARL_v6ra9kscug","6341a541b6cfd5f8933f48c4","freq_resp","","","img/blue_2bandit_b.png","70","img/blue_2bandit_b.png","70","test","","","","","","","","","","","4","","","","","","","","",""
"null","279289","SARL_v6","SARL_v6ra9kscug","6341a541b6cfd5f8933f48c4","fixation","","","img/fixation.png","null","","","test","","","","","","","","","","","","","","","","","","","",""
"347","279637","SARL_v6","SARL_v6ra9kscug","6341a541b6cfd5f8933f48c4","freq","","","img/blue_2bandit_b2.png","70","","70","test","1","","84","","","","circle","square","81","13","4","0.9506172839506173","","","","","","","",""
"null","280094","SARL_v6","SARL_v6ra9kscug","6341a541b6cfd5f8933f48c4","freq_resp","","","img/blue_2bandit_b.png","70","img/blue_2bandit_b.png","70","test","","","","","","","","","","","4","","","","","","","","",""
"null","280263","SARL_v6","SARL_v6ra9kscug","6341a541b6cfd5f8933f48c4","fixation","","","img/fixation.png","null","","","test","","","","","","","","","","","","","","","","","","","",""
"471","280737","SARL_v6","SARL_v6ra9kscug","6341a541b6cfd5f8933f48c4","infreq","","","img/orange_2bandit_b2.png","68","","68","test","1","","85","","","","circle","square","82","14","4","0.9512195121951219","","","","","","","",""
"null","281074","SARL_v6","SARL_v6ra9kscug","6341a541b6cfd5f8933f48c4","infreq_resp","","","img/orange_2bandit_b.png","68","img/orange_2bandit_b.png","68","test","","","","","","","","","","","4","","","","","","","","",""
"null","281242","SARL_v6","SARL_v6ra9kscug","6341a541b6cfd5f8933f48c4","fixation","","","img/fixation.png","null","","","test","","","","","","","","","","","","","","","","","","","",""
"416","281661","SARL_v6","SARL_v6ra9kscug","6341a541b6cfd5f8933f48c4","freq","","","img/blue_2bandit_b2.png","70","","70","test","1","","86","","","","circle","square","83","15","4","0.9518072289156626","","","","","","","",""
"null","282060","SARL_v6","SARL_v6ra9kscug","6341a541b6cfd5f8933f48c4","freq_resp","","","img/blue_2bandit_b.png","70","img/blue_2bandit_b.png","70","test","","","","","","","","","","","4","","","","","","","","",""
"null","282215","SARL_v6","SARL_v6ra9kscug","6341a541b6cfd5f8933f48c4","fixation","","","img/fixation.png","null","","","test","","","","","","","","","","","","","","","","","","","",""
"332","282551","SARL_v6","SARL_v6ra9kscug","6341a541b6cfd5f8933f48c4","freq","","","img/blue_2bandit_b2.png","70","","70","test","1","","87","","","","circle","square","84","16","4","0.9523809523809523","","","","","","","",""
"null","283029","SARL_v6","SARL_v6ra9kscug","6341a541b6cfd5f8933f48c4","freq_resp","","","img/blue_2bandit_b.png","70","img/blue_2bandit_b.png","70","test","","","","","","","","","","","4","","","","","","","","",""
"null","283186","SARL_v6","SARL_v6ra9kscug","6341a541b6cfd5f8933f48c4","fixation","","","img/fixation.png","null","","","test","","","","","","","","","","","","","","","","","","","",""
"438","283628","SARL_v6","SARL_v6ra9kscug","6341a541b6cfd5f8933f48c4","freq","","","img/blue_2bandit_b2.png","70","","70","test","1","","88","","","","circle","square","85","17","4","0.9529411764705882","","","","","","","",""
"null","283998","SARL_v6","SARL_v6ra9kscug","6341a541b6cfd5f8933f48c4","freq_resp","","","img/blue_2bandit_b.png","70","img/blue_2bandit_b.png","70","test","","","","","","","","","","","4","","","","","","","","",""
"null","284150","SARL_v6","SARL_v6ra9kscug","6341a541b6cfd5f8933f48c4","fixation","","","img/fixation.png","null","","","test","","","","","","","","","","","","","","","","","","","",""
"379","284532","SARL_v6","SARL_v6ra9kscug","6341a541b6cfd5f8933f48c4","freq","","","img/blue_2bandit_b2.png","70","","70","test","1","","89","","","","circle","square","86","18","4","0.9534883720930233","","","","","","","",""
"null","284959","SARL_v6","SARL_v6ra9kscug","6341a541b6cfd5f8933f48c4","freq_resp","","","img/blue_2bandit_b.png","70","img/blue_2bandit_b.png","70","test","","","","","","","","","","","4","","","","","","","","",""
"null","285113","SARL_v6","SARL_v6ra9kscug","6341a541b6cfd5f8933f48c4","fixation","","","img/fixation.png","null","","","test","","","","","","","","","","","","","","","","","","","",""
"354","285472","SARL_v6","SARL_v6ra9kscug","6341a541b6cfd5f8933f48c4","freq","","","img/blue_2bandit_b2.png","70","","70","test","1","","90","","","","circle","square","87","19","4","0.9540229885057471","","","","","","","",""
"null","285935","SARL_v6","SARL_v6ra9kscug","6341a541b6cfd5f8933f48c4","freq_resp","","","img/blue_2bandit_b.png","70","img/blue_2bandit_b.png","70","test","","","","","","","","","","","4","","","","","","","","",""
"null","286093","SARL_v6","SARL_v6ra9kscug","6341a541b6cfd5f8933f48c4","fixation","","","img/fixation.png","null","","","test","","","","","","","","","","","","","","","","","","","",""
"333","286429","SARL_v6","SARL_v6ra9kscug","6341a541b6cfd5f8933f48c4","freq","","","img/blue_2bandit_b2.png","70","","70","test","1","","91","","","","circle","square","88","20","4","0.9545454545454546","","","","","","","",""
"null","286904","SARL_v6","SARL_v6ra9kscug","6341a541b6cfd5f8933f48c4","freq_resp","","","img/blue_2bandit_b.png","70","img/blue_2bandit_b.png","70","test","","","","","","","","","","","4","","","","","","","","",""
"null","287059","SARL_v6","SARL_v6ra9kscug","6341a541b6cfd5f8933f48c4","fixation","","","img/fixation.png","null","","","test","","","","","","","","","","","","","","","","","","","",""
"269","287331","SARL_v6","SARL_v6ra9kscug","6341a541b6cfd5f8933f48c4","freq","","","img/blue_2bandit_b2.png","70","","70","test","1","","92","","","","circle","square","89","21","4","0.9550561797752809","","","","","","","",""
"null","287877","SARL_v6","SARL_v6ra9kscug","6341a541b6cfd5f8933f48c4","freq_resp","","","img/blue_2bandit_b.png","70","img/blue_2bandit_b.png","70","test","","","","","","","","","","","4","","","","","","","","",""
"null","288048","SARL_v6","SARL_v6ra9kscug","6341a541b6cfd5f8933f48c4","fixation","","","img/fixation.png","null","","","test","","","","","","","","","","","","","","","","","","","",""
"510","288560","SARL_v6","SARL_v6ra9kscug","6341a541b6cfd5f8933f48c4","rl","","","img/black_2bandit_b2.png","74","","0","test","","","93","","","-12","circle","square","","0","4","","74","-12","0","-12","0","circle","4","0"
"null","289314","SARL_v6","SARL_v6ra9kscug","6341a541b6cfd5f8933f48c4","feedback","","","<div class=""verylowPoints""> -12 </div>","null","","na","test","","","NaN","","","","","","","","4","","74","","","","","","4",""
"494","289814","SARL_v6","SARL_v6ra9kscug","6341a541b6cfd5f8933f48c4","freq","","","img/blue_2bandit_b2.png","70","","70","test","1","","94","","","","circle","square","90","1","5","0.9555555555555556","","","","","","","",""
"null","290135","SARL_v6","SARL_v6ra9kscug","6341a541b6cfd5f8933f48c4","freq_resp","","","img/blue_2bandit_b.png","70","img/blue_2bandit_b.png","70","test","","","","","","","","","","","5","","","","","","","","",""
"null","290302","SARL_v6","SARL_v6ra9kscug","6341a541b6cfd5f8933f48c4","fixation","","","img/fixation.png","null","","","test","","","","","","","","","","","","","","","","","","","",""
"383","290689","SARL_v6","SARL_v6ra9kscug","6341a541b6cfd5f8933f48c4","freq","","","img/blue_2bandit_b2.png","70","","70","test","1","","95","","","","circle","square","91","2","5","0.9560439560439561","","","","","","","",""
"null","291119","SARL_v6","SARL_v6ra9kscug","6341a541b6cfd5f8933f48c4","freq_resp","","","img/blue_2bandit_b.png","70","img/blue_2bandit_b.png","70","test","","","","","","","","","","","5","","","","","","","","",""
"null","291280","SARL_v6","SARL_v6ra9kscug","6341a541b6cfd5f8933f48c4","fixation","","","img/fixation.png","null","","","test","","","","","","","","","","","","","","","","","","","",""
"364","291647","SARL_v6","SARL_v6ra9kscug","6341a541b6cfd5f8933f48c4","freq","","","img/blue_2bandit_b2.png","70","","70","test","1","","96","","","","circle","square","92","3","5","0.9565217391304348","","","","","","","",""
"null","292091","SARL_v6","SARL_v6ra9kscug","6341a541b6cfd5f8933f48c4","freq_resp","","","img/blue_2bandit_b.png","70","img/blue_2bandit_b.png","70","test","","","","","","","","","","","5","","","","","","","","",""
"null","292256","SARL_v6","SARL_v6ra9kscug","6341a541b6cfd5f8933f48c4","fixation","","","img/fixation.png","null","","","test","","","","","","","","","","","","","","","","","","","",""
"391","292650","SARL_v6","SARL_v6ra9kscug","6341a541b6cfd5f8933f48c4","freq","","","img/blue_2bandit_b2.png","70","","70","test","1","","97","","","","circle","square","93","4","5","0.956989247311828","","","","","","","",""
"null","293073","SARL_v6","SARL_v6ra9kscug","6341a541b6cfd5f8933f48c4","freq_resp","","","img/blue_2bandit_b.png","70","img/blue_2bandit_b.png","70","test","","","","","","","","","","","5","","","","","","","","",""
"null","293235","SARL_v6","SARL_v6ra9kscug","6341a541b6cfd5f8933f48c4","fixation","","","img/fixation.png","null","","","test","","","","","","","","","","","","","","","","","","","",""
"464","293702","SARL_v6","SARL_v6ra9kscug","6341a541b6cfd5f8933f48c4","infreq","","","img/orange_2bandit_b2.png","68","","68","test","1","","98","","","","circle","square","94","5","5","0.9574468085106383","","","","","","","",""
"null","294054","SARL_v6","SARL_v6ra9kscug","6341a541b6cfd5f8933f48c4","infreq_resp","","","img/orange_2bandit_b.png","68","img/orange_2bandit_b.png","68","test","","","","","","","","","","","5","","","","","","","","",""
"null","294214","SARL_v6","SARL_v6ra9kscug","6341a541b6cfd5f8933f48c4","fixation","","","img/fixation.png","null","","","test","","","","","","","","","","","","","","","","","","","",""
"469","294685","SARL_v6","SARL_v6ra9kscug","6341a541b6cfd5f8933f48c4","infreq","","","img/orange_2bandit_b2.png","68","","68","test","1","","99","","","","circle","square","95","6","5","0.9578947368421052","","","","","","","",""
"null","295030","SARL_v6","SARL_v6ra9kscug","6341a541b6cfd5f8933f48c4","infreq_resp","","","img/orange_2bandit_b.png","68","img/orange_2bandit_b.png","68","test","","","","","","","","","","","5","","","","","","","","",""
"null","295185","SARL_v6","SARL_v6ra9kscug","6341a541b6cfd5f8933f48c4","fixation","","","img/fixation.png","null","","","test","","","","","","","","","","","","","","","","","","","",""
"443","295632","SARL_v6","SARL_v6ra9kscug","6341a541b6cfd5f8933f48c4","freq","","","img/blue_2bandit_b2.png","70","","70","test","1","","100","","","","circle","square","96","7","5","0.9583333333333334","","","","","","","",""
"null","296005","SARL_v6","SARL_v6ra9kscug","6341a541b6cfd5f8933f48c4","freq_resp","","","img/blue_2bandit_b.png","70","img/blue_2bandit_b.png","70","test","","","","","","","","","","","5","","","","","","","","",""
"null","296161","SARL_v6","SARL_v6ra9kscug","6341a541b6cfd5f8933f48c4","fixation","","","img/fixation.png","null","","","test","","","","","","","","","","","","","","","","","","","",""
"445","296610","SARL_v6","SARL_v6ra9kscug","6341a541b6cfd5f8933f48c4","freq","","","img/blue_2bandit_b2.png","70","","70","test","1","","101","","","","circle","square","97","8","5","0.9587628865979382","","","","","","","",""
"null","296982","SARL_v6","SARL_v6ra9kscug","6341a541b6cfd5f8933f48c4","freq_resp","","","img/blue_2bandit_b.png","70","img/blue_2bandit_b.png","70","test","","","","","","","","","","","5","","","","","","","","",""
"null","297138","SARL_v6","SARL_v6ra9kscug","6341a541b6cfd5f8933f48c4","fixation","","","img/fixation.png","null","","","test","","","","","","","","","","","","","","","","","","","",""
"374","297515","SARL_v6","SARL_v6ra9kscug","6341a541b6cfd5f8933f48c4","freq","","","img/blue_2bandit_b2.png","70","","70","test","1","","102","","","","circle","square","98","9","5","0.9591836734693877","","","","","","","",""
"null","297951","SARL_v6","SARL_v6ra9kscug","6341a541b6cfd5f8933f48c4","freq_resp","","","img/blue_2bandit_b.png","70","img/blue_2bandit_b.png","70","test","","","","","","","","","","","5","","","","","","","","",""
"null","298105","SARL_v6","SARL_v6ra9kscug","6341a541b6cfd5f8933f48c4","fixation","","","img/fixation.png","null","","","test","","","","","","","","","","","","","","","","","","","",""
"371","298479","SARL_v6","SARL_v6ra9kscug","6341a541b6cfd5f8933f48c4","freq","","","img/blue_2bandit_b2.png","70","","70","test","1","","103","","","","circle","square","99","10","5","0.9595959595959596","","","","","","","",""
"null","298913","SARL_v6","SARL_v6ra9kscug","6341a541b6cfd5f8933f48c4","freq_resp","","","img/blue_2bandit_b.png","70","img/blue_2bandit_b.png","70","test","","","","","","","","","","","5","","","","","","","","",""
"null","299069","SARL_v6","SARL_v6ra9kscug","6341a541b6cfd5f8933f48c4","fixation","","","img/fixation.png","null","","","test","","","","","","","","","","","","","","","","","","","",""
"344","299416","SARL_v6","SARL_v6ra9kscug","6341a541b6cfd5f8933f48c4","freq","","","img/blue_2bandit_b2.png","70","","70","test","1","","104","","","","circle","square","100","11","5","0.96","","","","","","","",""
"null","299878","SARL_v6","SARL_v6ra9kscug","6341a541b6cfd5f8933f48c4","freq_resp","","","img/blue_2bandit_b.png","70","img/blue_2bandit_b.png","70","test","","","","","","","","","","","5","","","","","","","","",""
"null","300032","SARL_v6","SARL_v6ra9kscug","6341a541b6cfd5f8933f48c4","fixation","","","img/fixation.png","null","","","test","","","","","","","","","","","","","","","","","","","",""
"353","300387","SARL_v6","SARL_v6ra9kscug","6341a541b6cfd5f8933f48c4","freq","","","img/blue_2bandit_b2.png","70","","70","test","1","","105","","","","circle","square","101","12","5","0.9603960396039604","","","","","","","",""
"null","300840","SARL_v6","SARL_v6ra9kscug","6341a541b6cfd5f8933f48c4","freq_resp","","","img/blue_2bandit_b.png","70","img/blue_2bandit_b.png","70","test","","","","","","","","","","","5","","","","","","","","",""
"null","300994","SARL_v6","SARL_v6ra9kscug","6341a541b6cfd5f8933f48c4","fixation","","","img/fixation.png","null","","","test","","","","","","","","","","","","","","","","","","","",""
"337","301336","SARL_v6","SARL_v6ra9kscug","6341a541b6cfd5f8933f48c4","freq","","","img/blue_2bandit_b2.png","70","","70","test","1","","106","","","","circle","square","102","13","5","0.9607843137254902","","","","","","","",""
"null","301805","SARL_v6","SARL_v6ra9kscug","6341a541b6cfd5f8933f48c4","freq_resp","","","img/blue_2bandit_b.png","70","img/blue_2bandit_b.png","70","test","","","","","","","","","","","5","","","","","","","","",""
"null","301959","SARL_v6","SARL_v6ra9kscug","6341a541b6cfd5f8933f48c4","fixation","","","img/fixation.png","null","","","test","","","","","","","","","","","","","","","","","","","",""
"347","302310","SARL_v6","SARL_v6ra9kscug","6341a541b6cfd5f8933f48c4","freq","","","img/blue_2bandit_b2.png","70","","70","test","1","","107","","","","circle","square","103","14","5","0.9611650485436893","","","","","","","",""
"null","302780","SARL_v6","SARL_v6ra9kscug","6341a541b6cfd5f8933f48c4","freq_resp","","","img/blue_2bandit_b.png","70","img/blue_2bandit_b.png","70","test","","","","","","","","","","","5","","","","","","","","",""
"null","302936","SARL_v6","SARL_v6ra9kscug","6341a541b6cfd5f8933f48c4","fixation","","","img/fixation.png","null","","","test","","","","","","","","","","","","","","","","","","","",""
"339","303278","SARL_v6","SARL_v6ra9kscug","6341a541b6cfd5f8933f48c4","freq","","","img/blue_2bandit_b2.png","70","","70","test","1","","108","","","","circle","square","104","15","5","0.9615384615384616","","","","","","","",""
"null","303756","SARL_v6","SARL_v6ra9kscug","6341a541b6cfd5f8933f48c4","freq_resp","","","img/blue_2bandit_b.png","70","img/blue_2bandit_b.png","70","test","","","","","","","","","","","5","","","","","","","","",""
"null","303919","SARL_v6","SARL_v6ra9kscug","6341a541b6cfd5f8933f48c4","fixation","","","img/fixation.png","null","","","test","","","","","","","","","","","","","","","","","","","",""
"394","304316","SARL_v6","SARL_v6ra9kscug","6341a541b6cfd5f8933f48c4","freq","","","img/blue_2bandit_b2.png","70","","70","test","1","","109","","","","circle","square","105","16","5","0.9619047619047619","","","","","","","",""
"null","304727","SARL_v6","SARL_v6ra9kscug","6341a541b6cfd5f8933f48c4","freq_resp","","","img/blue_2bandit_b.png","70","img/blue_2bandit_b.png","70","test","","","","","","","","","","","5","","","","","","","","",""
"null","304881","SARL_v6","SARL_v6ra9kscug","6341a541b6cfd5f8933f48c4","fixation","","","img/fixation.png","null","","","test","","","","","","","","","","","","","","","","","","","",""
"338","305224","SARL_v6","SARL_v6ra9kscug","6341a541b6cfd5f8933f48c4","freq","","","img/blue_2bandit_b2.png","70","","70","test","1","","110","","","","circle","square","106","17","5","0.9622641509433962","","","","","","","",""
"null","305703","SARL_v6","SARL_v6ra9kscug","6341a541b6cfd5f8933f48c4","freq_resp","","","img/blue_2bandit_b.png","70","img/blue_2bandit_b.png","70","test","","","","","","","","","","","5","","","","","","","","",""
"null","305872","SARL_v6","SARL_v6ra9kscug","6341a541b6cfd5f8933f48c4","fixation","","","img/fixation.png","null","","","test","","","","","","","","","","","","","","","","","","","",""
"351","306226","SARL_v6","SARL_v6ra9kscug","6341a541b6cfd5f8933f48c4","freq","","","img/blue_2bandit_b2.png","70","","70","test","1","","111","","","","circle","square","107","18","5","0.9626168224299065","","","","","","","",""
"null","306682","SARL_v6","SARL_v6ra9kscug","6341a541b6cfd5f8933f48c4","freq_resp","","","img/blue_2bandit_b.png","70","img/blue_2bandit_b.png","70","test","","","","","","","","","","","5","","","","","","","","",""
"null","306836","SARL_v6","SARL_v6ra9kscug","6341a541b6cfd5f8933f48c4","fixation","","","img/fixation.png","null","","","test","","","","","","","","","","","","","","","","","","","",""
"368","307207","SARL_v6","SARL_v6ra9kscug","6341a541b6cfd5f8933f48c4","freq","","","img/blue_2bandit_b2.png","70","","70","test","1","","112","","","","circle","square","108","19","5","0.9629629629629629","","","","","","","",""
"null","307644","SARL_v6","SARL_v6ra9kscug","6341a541b6cfd5f8933f48c4","freq_resp","","","img/blue_2bandit_b.png","70","img/blue_2bandit_b.png","70","test","","","","","","","","","","","5","","","","","","","","",""
"null","307800","SARL_v6","SARL_v6ra9kscug","6341a541b6cfd5f8933f48c4","fixation","","","img/fixation.png","null","","","test","","","","","","","","","","","","","","","","","","","",""
"372","308177","SARL_v6","SARL_v6ra9kscug","6341a541b6cfd5f8933f48c4","freq","","","img/blue_2bandit_b2.png","70","","70","test","1","","113","","","","circle","square","109","20","5","0.963302752293578","","","","","","","",""
"null","308609","SARL_v6","SARL_v6ra9kscug","6341a541b6cfd5f8933f48c4","freq_resp","","","img/blue_2bandit_b.png","70","img/blue_2bandit_b.png","70","test","","","","","","","","","","","5","","","","","","","","",""
"null","308766","SARL_v6","SARL_v6ra9kscug","6341a541b6cfd5f8933f48c4","fixation","","","img/fixation.png","null","","","test","","","","","","","","","","","","","","","","","","","",""
"317","309087","SARL_v6","SARL_v6ra9kscug","6341a541b6cfd5f8933f48c4","freq","","","img/blue_2bandit_b2.png","70","","70","test","1","","114","","","","circle","square","110","21","5","0.9636363636363636","","","","","","","",""
"null","309584","SARL_v6","SARL_v6ra9kscug","6341a541b6cfd5f8933f48c4","freq_resp","","","img/blue_2bandit_b.png","70","img/blue_2bandit_b.png","70","test","","","","","","","","","","","5","","","","","","","","",""
"null","309738","SARL_v6","SARL_v6ra9kscug","6341a541b6cfd5f8933f48c4","fixation","","","img/fixation.png","null","","","test","","","","","","","","","","","","","","","","","","","",""
"330","310070","SARL_v6","SARL_v6ra9kscug","6341a541b6cfd5f8933f48c4","freq","","","img/blue_2bandit_b2.png","70","","70","test","1","","115","","","","circle","square","111","22","5","0.963963963963964","","","","","","","",""
"null","310546","SARL_v6","SARL_v6ra9kscug","6341a541b6cfd5f8933f48c4","freq_resp","","","img/blue_2bandit_b.png","70","img/blue_2bandit_b.png","70","test","","","","","","","","","","","5","","","","","","","","",""
"null","310700","SARL_v6","SARL_v6ra9kscug","6341a541b6cfd5f8933f48c4","fixation","","","img/fixation.png","null","","","test","","","","","","","","","","","","","","","","","","","",""
"303","311006","SARL_v6","SARL_v6ra9kscug","6341a541b6cfd5f8933f48c4","freq","","","img/blue_2bandit_b2.png","70","","70","test","1","","116","","","","circle","square","112","23","5","0.9642857142857143","","","","","","","",""
"null","311509","SARL_v6","SARL_v6ra9kscug","6341a541b6cfd5f8933f48c4","freq_resp","","","img/blue_2bandit_b.png","70","img/blue_2bandit_b.png","70","test","","","","","","","","","","","5","","","","","","","","",""
"null","311670","SARL_v6","SARL_v6ra9kscug","6341a541b6cfd5f8933f48c4","fixation","","","img/fixation.png","null","","","test","","","","","","","","","","","","","","","","","","","",""
"446","312119","SARL_v6","SARL_v6ra9kscug","6341a541b6cfd5f8933f48c4","infreq","","","img/orange_2bandit_b2.png","68","","68","test","1","","117","","","","circle","square","113","24","5","0.9646017699115044","","","","","","","",""
"null","312480","SARL_v6","SARL_v6ra9kscug","6341a541b6cfd5f8933f48c4","infreq_resp","","","img/orange_2bandit_b.png","68","img/orange_2bandit_b.png","68","test","","","","","","","","","","","5","","","","","","","","",""
"null","312639","SARL_v6","SARL_v6ra9kscug","6341a541b6cfd5f8933f48c4","fixation","","","img/fixation.png","null","","","test","","","","","","","","","","","","","","","","","","","",""
"434","313077","SARL_v6","SARL_v6ra9kscug","6341a541b6cfd5f8933f48c4","freq","","","img/blue_2bandit_b2.png","70","","70","test","1","","118","","","","circle","square","114","25","5","0.9649122807017544","","","","","","","",""
"null","313456","SARL_v6","SARL_v6ra9kscug","6341a541b6cfd5f8933f48c4","freq_resp","","","img/blue_2bandit_b.png","70","img/blue_2bandit_b.png","70","test","","","","","","","","","","","5","","","","","","","","",""
"null","313612","SARL_v6","SARL_v6ra9kscug","6341a541b6cfd5f8933f48c4","fixation","","","img/fixation.png","null","","","test","","","","","","","","","","","","","","","","","","","",""
"576","314192","SARL_v6","SARL_v6ra9kscug","6341a541b6cfd5f8933f48c4","rl","","","img/black_2bandit_b2.png","75","","0","test","","","119","","","4","circle","square","","0","5","","75","-7","4","-7","4","square","5","0"
"null","314954","SARL_v6","SARL_v6ra9kscug","6341a541b6cfd5f8933f48c4","feedback","","","<div class=""veryhighPoints_sq""> 4 </div>","null","","na","test","","","NaN","","","","","","","","5","","75","","","","","","5",""
"641","315599","SARL_v6","SARL_v6ra9kscug","6341a541b6cfd5f8933f48c4","freq","","","img/blue_2bandit_b2.png","70","","70","test","1","","120","","","","circle","square","115","1","6","0.9652173913043478","","","","","","","",""
"null","315764","SARL_v6","SARL_v6ra9kscug","6341a541b6cfd5f8933f48c4","freq_resp","","","img/blue_2bandit_b.png","70","img/blue_2bandit_b.png","70","test","","","","","","","","","","","6","","","","","","","","",""
"null","315922","SARL_v6","SARL_v6ra9kscug","6341a541b6cfd5f8933f48c4","fixation","","","img/fixation.png","null","","","test","","","","","","","","","","","","","","","","","","","",""
"401","316324","SARL_v6","SARL_v6ra9kscug","6341a541b6cfd5f8933f48c4","freq","","","img/blue_2bandit_b2.png","70","","70","test","1","","121","","","","circle","square","116","2","6","0.9655172413793104","","","","","","","",""
"null","316727","SARL_v6","SARL_v6ra9kscug","6341a541b6cfd5f8933f48c4","freq_resp","","","img/blue_2bandit_b.png","70","img/blue_2bandit_b.png","70","test","","","","","","","","","","","6","","","","","","","","",""
"null","316882","SARL_v6","SARL_v6ra9kscug","6341a541b6cfd5f8933f48c4","fixation","","","img/fixation.png","null","","","test","","","","","","","","","","","","","","","","","","","",""
"366","317252","SARL_v6","SARL_v6ra9kscug","6341a541b6cfd5f8933f48c4","freq","","","img/blue_2bandit_b2.png","70","","70","test","1","","122","","","","circle","square","117","3","6","0.9658119658119658","","","","","","","",""
"null","317705","SARL_v6","SARL_v6ra9kscug","6341a541b6cfd5f8933f48c4","freq_resp","","","img/blue_2bandit_b.png","70","img/blue_2bandit_b.png","70","test","","","","","","","","","","","6","","","","","","","","",""
"null","317859","SARL_v6","SARL_v6ra9kscug","6341a541b6cfd5f8933f48c4","fixation","","","img/fixation.png","null","","","test","","","","","","","","","","","","","","","","","","","",""
"362","318224","SARL_v6","SARL_v6ra9kscug","6341a541b6cfd5f8933f48c4","freq","","","img/blue_2bandit_b2.png","70","","70","test","1","","123","","","","circle","square","118","4","6","0.9661016949152542","","","","","","","",""
"null","318667","SARL_v6","SARL_v6ra9kscug","6341a541b6cfd5f8933f48c4","freq_resp","","","img/blue_2bandit_b.png","70","img/blue_2bandit_b.png","70","test","","","","","","","","","","","6","","","","","","","","",""
"null","318824","SARL_v6","SARL_v6ra9kscug","6341a541b6cfd5f8933f48c4","fixation","","","img/fixation.png","null","","","test","","","","","","","","","","","","","","","","","","","",""
"356","319183","SARL_v6","SARL_v6ra9kscug","6341a541b6cfd5f8933f48c4","freq","","","img/blue_2bandit_b2.png","70","","70","test","1","","124","","","","circle","square","119","5","6","0.9663865546218487","","","","","","","",""
"null","319641","SARL_v6","SARL_v6ra9kscug","6341a541b6cfd5f8933f48c4","freq_resp","","","img/blue_2bandit_b.png","70","img/blue_2bandit_b.png","70","test","","","","","","","","","","","6","","","","","","","","",""
"null","319799","SARL_v6","SARL_v6ra9kscug","6341a541b6cfd5f8933f48c4","fixation","","","img/fixation.png","null","","","test","","","","","","","","","","","","","","","","","","","",""
"390","320192","SARL_v6","SARL_v6ra9kscug","6341a541b6cfd5f8933f48c4","freq","","","img/blue_2bandit_b2.png","70","","70","test","1","","125","","","","circle","square","120","6","6","0.9666666666666667","","","","","","","",""
"null","320609","SARL_v6","SARL_v6ra9kscug","6341a541b6cfd5f8933f48c4","freq_resp","","","img/blue_2bandit_b.png","70","img/blue_2bandit_b.png","70","test","","","","","","","","","","","6","","","","","","","","",""
"null","320776","SARL_v6","SARL_v6ra9kscug","6341a541b6cfd5f8933f48c4","fixation","","","img/fixation.png","null","","","test","","","","","","","","","","","","","","","","","","","",""
"397","321176","SARL_v6","SARL_v6ra9kscug","6341a541b6cfd5f8933f48c4","freq","","","img/blue_2bandit_b2.png","70","","70","test","1","","126","","","","circle","square","121","7","6","0.9669421487603306","","","","","","","",""
"null","321596","SARL_v6","SARL_v6ra9kscug","6341a541b6cfd5f8933f48c4","freq_resp","","","img/blue_2bandit_b.png","70","img/blue_2bandit_b.png","70","test","","","","","","","","","","","6","","","","","","","","",""
"null","321752","SARL_v6","SARL_v6ra9kscug","6341a541b6cfd5f8933f48c4","fixation","","","img/fixation.png","null","","","test","","","","","","","","","","","","","","","","","","","",""
"476","322232","SARL_v6","SARL_v6ra9kscug","6341a541b6cfd5f8933f48c4","freq","","","img/blue_2bandit_b2.png","70","","70","test","1","","127","","","","circle","square","122","8","6","0.9672131147540983","","","","","","","",""
"null","322563","SARL_v6","SARL_v6ra9kscug","6341a541b6cfd5f8933f48c4","freq_resp","","","img/blue_2bandit_b.png","70","img/blue_2bandit_b.png","70","test","","","","","","","","","","","6","","","","","","","","",""
"null","322717","SARL_v6","SARL_v6ra9kscug","6341a541b6cfd5f8933f48c4","fixation","","","img/fixation.png","null","","","test","","","","","","","","","","","","","","","","","","","",""
"484","323203","SARL_v6","SARL_v6ra9kscug","6341a541b6cfd5f8933f48c4","infreq","","","img/orange_2bandit_b2.png","68","","68","test","1","","128","","","","circle","square","123","9","6","0.967479674796748","","","","","","","",""
"null","323534","SARL_v6","SARL_v6ra9kscug","6341a541b6cfd5f8933f48c4","infreq_resp","","","img/orange_2bandit_b.png","68","img/orange_2bandit_b.png","68","test","","","","","","","","","","","6","","","","","","","","",""
"null","323690","SARL_v6","SARL_v6ra9kscug","6341a541b6cfd5f8933f48c4","fixation","","","img/fixation.png","null","","","test","","","","","","","","","","","","","","","","","","","",""
"608","324301","SARL_v6","SARL_v6ra9kscug","6341a541b6cfd5f8933f48c4","freq","","","img/blue_2bandit_b2.png","70","","70","test","1","","129","","","","circle","square","124","10","6","0.967741935483871","","","","","","","",""
"null","324501","SARL_v6","SARL_v6ra9kscug","6341a541b6cfd5f8933f48c4","freq_resp","","","img/blue_2bandit_b.png","70","img/blue_2bandit_b.png","70","test","","","","","","","","","","","6","","","","","","","","",""
"null","324659","SARL_v6","SARL_v6ra9kscug","6341a541b6cfd5f8933f48c4","fixation","","","img/fixation.png","null","","","test","","","","","","","","","","","","","","","","","","","",""
"385","325047","SARL_v6","SARL_v6ra9kscug","6341a541b6cfd5f8933f48c4","freq","","","img/blue_2bandit_b2.png","70","","70","test","1","","130","","","","circle","square","125","11","6","0.968","","","","","","","",""
"null","325476","SARL_v6","SARL_v6ra9kscug","6341a541b6cfd5f8933f48c4","freq_resp","","","img/blue_2bandit_b.png","70","img/blue_2bandit_b.png","70","test","","","","","","","","","","","6","","","","","","","","",""
"null","325631","SARL_v6","SARL_v6ra9kscug","6341a541b6cfd5f8933f48c4","fixation","","","img/fixation.png","null","","","test","","","","","","","","","","","","","","","","","","","",""
"339","325974","SARL_v6","SARL_v6ra9kscug","6341a541b6cfd5f8933f48c4","freq","","","img/blue_2bandit_b2.png","70","","70","test","1","","131","","","","circle","square","126","12","6","0.9682539682539683","","","","","","","",""
"null","326442","SARL_v6","SARL_v6ra9kscug","6341a541b6cfd5f8933f48c4","freq_resp","","","img/blue_2bandit_b.png","70","img/blue_2bandit_b.png","70","test","","","","","","","","","","","6","","","","","","","","",""
"null","326597","SARL_v6","SARL_v6ra9kscug","6341a541b6cfd5f8933f48c4","fixation","","","img/fixation.png","null","","","test","","","","","","","","","","","","","","","","","","","",""
"354","326954","SARL_v6","SARL_v6ra9kscug","6341a541b6cfd5f8933f48c4","infreq","","","img/orange_2bandit_b2.png","70","","68","test","0","","132","","","","circle","square","127","13","6","0.9606299212598425","","","","","","","",""
"null","327412","SARL_v6","SARL_v6ra9kscug","6341a541b6cfd5f8933f48c4","infreq_resp","","","img/orange_2bandit_b.png","70","img/orange_2bandit_b.png","68","test","","","","","","","","","","","6","","","","","","","","",""
"null","327571","SARL_v6","SARL_v6ra9kscug","6341a541b6cfd5f8933f48c4","fixation","","","img/fixation.png","null","","","test","","","","","","","","","","","","","","","","","","","",""
"582","328156","SARL_v6","SARL_v6ra9kscug","6341a541b6cfd5f8933f48c4","freq","","","img/blue_2bandit_b2.png","68","","70","test","0","","133","","","","circle","square","128","14","6","0.953125","","","","","","","",""
"null","328392","SARL_v6","SARL_v6ra9kscug","6341a541b6cfd5f8933f48c4","freq_resp","","","img/blue_2bandit_b.png","68","img/blue_2bandit_b.png","70","test","","","","","","","","","","","6","","","","","","","","",""
"null","328557","SARL_v6","SARL_v6ra9kscug","6341a541b6cfd5f8933f48c4","fixation","","","img/fixation.png","null","","","test","","","","","","","","","","","","","","","","","","","",""
"548","329109","SARL_v6","SARL_v6ra9kscug","6341a541b6cfd5f8933f48c4","freq","","","img/blue_2bandit_b2.png","70","","70","test","1","","134","","","","circle","square","129","15","6","0.9534883720930233","","","","","","","",""
"null","329379","SARL_v6","SARL_v6ra9kscug","6341a541b6cfd5f8933f48c4","freq_resp","","","img/blue_2bandit_b.png","70","img/blue_2bandit_b.png","70","test","","","","","","","","","","","6","","","","","","","","",""
