"rt","time_elapsed","expId","subject","prolificID","trialType","rlType","attType","stimulus","key_press","stim","corrresp","phase","corr","pracCounter","trialNum","rewardOne","rewardTwo","reward","bandOne","bandTwo","attentionNum","attentionRunNum","blockNum","performance","bandChosen","circleVal","squareVal","bandOneVal","bandTwoVal","shapeChosen","rlNum","badFlag"
"9053.700000047684","9058","SARL_v6","SARL_v604hxglct","63d80e0449b458dd5f8140be","","","","","","","","","","","","","","","","","","","","","","","","","","","",""
"","11915","SARL_v6","SARL_v604hxglct","63d80e0449b458dd5f8140be","fullscreen","fullscreen","fullscreen","","","","","","","","","","","","","","","","","","","","","","","","",""
"28050.399999976158","39969","SARL_v6","SARL_v604hxglct","63d80e0449b458dd5f8140be","","","","","","","","","","","","","","","","","","","","","","","","","","","",""
"772.5","40744","SARL_v6","SARL_v604hxglct","63d80e0449b458dd5f8140be","freqPrac","","","img/blue_2bandit_b2.png","70","img/blue_2bandit_b2.png","70","prac","1","0","","","","","","","","","","","","","","","","","",""
"772.5","40774","SARL_v6","SARL_v604hxglct","63d80e0449b458dd5f8140be","freqPrac_resp","","","img/blue_2bandit_b.png","70","img/blue_2bandit_b.png","70","prac","","","","","","","","","","","","","","","","","","","",""
"null","40932","SARL_v6","SARL_v604hxglct","63d80e0449b458dd5f8140be","fixation","","","img/fixation.png","null","","","prac","","","","","","","","","","","","","","","","","","","",""
"497.7000000476837","41431","SARL_v6","SARL_v604hxglct","63d80e0449b458dd5f8140be","infreqPrac","","","img/orange_2bandit_b2.png","68","img/orange_2bandit_b2.png","68","prac","1","0","","","","","","","","","","","","","","","","","",""
"497.7000000476837","41743","SARL_v6","SARL_v604hxglct","63d80e0449b458dd5f8140be","infreqPrac_resp","","","img/orange_2bandit_b.png","68","img/orange_2bandit_b.png","68","prac","","","","","","","","","","","","","","","","","","","",""
"null","41896","SARL_v6","SARL_v604hxglct","63d80e0449b458dd5f8140be","fixation","","","img/fixation.png","null","","","prac","","","","","","","","","","","","","","","","","","","",""
"574.6000000238419","42472","SARL_v6","SARL_v604hxglct","63d80e0449b458dd5f8140be","freqPrac","","","img/blue_2bandit_b2.png","70","img/blue_2bandit_b2.png","70","prac","1","0","","","","","","","","","","","","","","","","","",""
"574.6000000238419","42702","SARL_v6","SARL_v604hxglct","63d80e0449b458dd5f8140be","freqPrac_resp","","","img/blue_2bandit_b.png","70","img/blue_2bandit_b.png","70","prac","","","","","","","","","","","","","","","","","","","",""
"null","42865","SARL_v6","SARL_v604hxglct","63d80e0449b458dd5f8140be","fixation","","","img/fixation.png","null","","","prac","","","","","","","","","","","","","","","","","","","",""
"548.3000000715256","43415","SARL_v6","SARL_v604hxglct","63d80e0449b458dd5f8140be","infreqPrac","","","img/orange_2bandit_b2.png","68","img/orange_2bandit_b2.png","68","prac","1","0","","","","","","","","","","","","","","","","","",""
"548.3000000715256","43676","SARL_v6","SARL_v604hxglct","63d80e0449b458dd5f8140be","infreqPrac_resp","","","img/orange_2bandit_b.png","68","img/orange_2bandit_b.png","68","prac","","","","","","","","","","","","","","","","","","","",""
"null","43828","SARL_v6","SARL_v604hxglct","63d80e0449b458dd5f8140be","fixation","","","img/fixation.png","null","","","prac","","","","","","","","","","","","","","","","","","","",""
"409.39999997615814","44239","SARL_v6","SARL_v604hxglct","63d80e0449b458dd5f8140be","infreqPrac","","","img/orange_2bandit_b2.png","68","img/orange_2bandit_b2.png","68","prac","1","0","","","","","","","","","","","","","","","","","",""
"409.39999997615814","44638","SARL_v6","SARL_v604hxglct","63d80e0449b458dd5f8140be","infreqPrac_resp","","","img/orange_2bandit_b.png","68","img/orange_2bandit_b.png","68","prac","","","","","","","","","","","","","","","","","","","",""
"null","44803","SARL_v6","SARL_v604hxglct","63d80e0449b458dd5f8140be","fixation","","","img/fixation.png","null","","","prac","","","","","","","","","","","","","","","","","","","",""
"346.7999999523163","45152","SARL_v6","SARL_v604hxglct","63d80e0449b458dd5f8140be","infreqPrac","","","img/orange_2bandit_b2.png","68","img/orange_2bandit_b2.png","68","prac","1","0","","","","","","","","","","","","","","","","","",""
"346.7999999523163","45611","SARL_v6","SARL_v604hxglct","63d80e0449b458dd5f8140be","infreqPrac_resp","","","img/orange_2bandit_b.png","68","img/orange_2bandit_b.png","68","prac","","","","","","","","","","","","","","","","","","","",""
"null","45764","SARL_v6","SARL_v604hxglct","63d80e0449b458dd5f8140be","fixation","","","img/fixation.png","null","","","prac","","","","","","","","","","","","","","","","","","","",""
"345.7999999523163","46111","SARL_v6","SARL_v604hxglct","63d80e0449b458dd5f8140be","freqPrac","","","img/blue_2bandit_b2.png","70","img/blue_2bandit_b2.png","70","prac","1","0","","","","","","","","","","","","","","","","","",""
"345.7999999523163","46572","SARL_v6","SARL_v604hxglct","63d80e0449b458dd5f8140be","freqPrac_resp","","","img/blue_2bandit_b.png","70","img/blue_2bandit_b.png","70","prac","","","","","","","","","","","","","","","","","","","",""
"null","46724","SARL_v6","SARL_v604hxglct","63d80e0449b458dd5f8140be","fixation","","","img/fixation.png","null","","","prac","","","","","","","","","","","","","","","","","","","",""
"361.2000000476837","47088","SARL_v6","SARL_v604hxglct","63d80e0449b458dd5f8140be","infreqPrac","","","img/orange_2bandit_b2.png","68","img/orange_2bandit_b2.png","68","prac","1","0","","","","","","","","","","","","","","","","","",""
"361.2000000476837","47533","SARL_v6","SARL_v604hxglct","63d80e0449b458dd5f8140be","infreqPrac_resp","","","img/orange_2bandit_b.png","68","img/orange_2bandit_b.png","68","prac","","","","","","","","","","","","","","","","","","","",""
"null","47688","SARL_v6","SARL_v604hxglct","63d80e0449b458dd5f8140be","fixation","","","img/fixation.png","null","","","prac","","","","","","","","","","","","","","","","","","","",""
"333.10000002384186","48023","SARL_v6","SARL_v604hxglct","63d80e0449b458dd5f8140be","freqPrac","","","img/blue_2bandit_b2.png","70","img/blue_2bandit_b2.png","70","prac","1","0","","","","","","","","","","","","","","","","","",""
"333.10000002384186","48506","SARL_v6","SARL_v604hxglct","63d80e0449b458dd5f8140be","freqPrac_resp","","","img/blue_2bandit_b.png","70","img/blue_2bandit_b.png","70","prac","","","","","","","","","","","","","","","","","","","",""
"null","48658","SARL_v6","SARL_v604hxglct","63d80e0449b458dd5f8140be","fixation","","","img/fixation.png","null","","","prac","","","","","","","","","","","","","","","","","","","",""
"316.39999997615814","48977","SARL_v6","SARL_v604hxglct","63d80e0449b458dd5f8140be","freqPrac","","","img/blue_2bandit_b2.png","70","img/blue_2bandit_b2.png","70","prac","1","0","","","","","","","","","","","","","","","","","",""
"316.39999997615814","49464","SARL_v6","SARL_v604hxglct","63d80e0449b458dd5f8140be","freqPrac_resp","","","img/blue_2bandit_b.png","70","img/blue_2bandit_b.png","70","prac","","","","","","","","","","","","","","","","","","","",""
"null","49616","SARL_v6","SARL_v604hxglct","63d80e0449b458dd5f8140be","fixation","","","img/fixation.png","null","","","prac","","","","","","","","","","","","","","","","","","","",""
"24750.200000047684","74368","SARL_v6","SARL_v604hxglct","63d80e0449b458dd5f8140be","","","","","","","","prac","","","","","","","","","","","","","","","","","","","",""
"613.7000000476837","74985","SARL_v6","SARL_v604hxglct","63d80e0449b458dd5f8140be","rlPractice","","","img/black_2bandit_b2.png","74","img/black_2bandit_b2.png","","prac","","","0","","","","","","","","","","","","","","","","",""
"null","75746","SARL_v6","SARL_v604hxglct","63d80e0449b458dd5f8140be","feedback","","","<div class=""veryhighPoints""> 10 </div>","null","","na","prac","","","1","10","-14","10","","","","","","","","","","","","","",""
"null","75911","SARL_v6","SARL_v604hxglct","63d80e0449b458dd5f8140be","fixation","","","img/fixation.png","null","","","prac","","","","","","","","","","","","","","","","","","","",""
"286.89999997615814","76200","SARL_v6","SARL_v604hxglct","63d80e0449b458dd5f8140be","rlPractice","","","img/black_2bandit_b2.png","75","img/black_2bandit_b2.png","","prac","","","1","","","","","","","","","","","","","","","","",""
"null","76960","SARL_v6","SARL_v604hxglct","63d80e0449b458dd5f8140be","feedback","","","<div class=""verylowPoints_sq""> -5 </div>","null","","na","prac","","","2","5","-5","5","","","","","","","","","","","","","",""
"null","77125","SARL_v6","SARL_v604hxglct","63d80e0449b458dd5f8140be","fixation","","","img/fixation.png","null","","","prac","","","","","","","","","","","","","","","","","","","",""
"305.89999997615814","77432","SARL_v6","SARL_v604hxglct","63d80e0449b458dd5f8140be","rlPractice","","","img/black_2bandit_b2.png","74","img/black_2bandit_b2.png","","prac","","","2","","","","","","","","","","","","","","","","",""
"null","78189","SARL_v6","SARL_v604hxglct","63d80e0449b458dd5f8140be","feedback","","","<div class=""veryhighPoints""> 30 </div>","null","","na","prac","","","3","30","2","30","","","","","","","","","","","","","",""
"null","78356","SARL_v6","SARL_v604hxglct","63d80e0449b458dd5f8140be","fixation","","","img/fixation.png","null","","","prac","","","","","","","","","","","","","","","","","","","",""
"305.89999997615814","78664","SARL_v6","SARL_v604hxglct","63d80e0449b458dd5f8140be","rlPractice","","","img/black_2bandit_b2.png","74","img/black_2bandit_b2.png","","prac","","","3","","","","","","","","","","","","","","","","",""
"null","79421","SARL_v6","SARL_v604hxglct","63d80e0449b458dd5f8140be","feedback","","","<div class=""verylowPoints""> -2 </div>","null","","na","prac","","","4","-2","20","-2","","","","","","","","","","","","","",""
"null","79587","SARL_v6","SARL_v604hxglct","63d80e0449b458dd5f8140be","fixation","","","img/fixation.png","null","","","prac","","","","","","","","","","","","","","","","","","","",""
"7507.200000047684","87096","SARL_v6","SARL_v604hxglct","63d80e0449b458dd5f8140be","","","","","","","","prac","","","","","","","","","","","","","","","","","","","",""
"null","87914","SARL_v6","SARL_v604hxglct","63d80e0449b458dd5f8140be","mixAttFreqPrac","","","img/blue_2bandit_b2.png","null","img/blue_2bandit_b2.png","70","prac","","","1","","","","","","","","","","","","","","","","",""
"36.09999990463257","88079","SARL_v6","SARL_v604hxglct","63d80e0449b458dd5f8140be","fixation","","","img/fixation.png","70","","","prac","","","","","","","","","","","","","","","","","","","",""
"463.2999999523163","88545","SARL_v6","SARL_v604hxglct","63d80e0449b458dd5f8140be","mixAttInfreqPrac","","","img/orange_2bandit_b2.png","68","img/orange_2bandit_b2.png","68","prac","","","2","","","","","","","","","","","","","","","","",""
"463.2999999523163","88888","SARL_v6","SARL_v604hxglct","63d80e0449b458dd5f8140be","infreqPrac_resp","","","img/orange_2bandit_b.png","68","img/blue_2bandit_b.png","68","prac","","","2","","","","","","","","","","","","","","","","",""
"null","89056","SARL_v6","SARL_v604hxglct","63d80e0449b458dd5f8140be","fixation","","","img/fixation.png","null","","","prac","","","","","","","","","","","","","","","","","","","",""
"326.2999999523163","89384","SARL_v6","SARL_v604hxglct","63d80e0449b458dd5f8140be","mixAttInfreqPrac","","","img/orange_2bandit_b2.png","68","img/orange_2bandit_b2.png","68","prac","","","3","","","","","","","","","","","","","","","","",""
"326.2999999523163","89865","SARL_v6","SARL_v604hxglct","63d80e0449b458dd5f8140be","infreqPrac_resp","","","img/orange_2bandit_b.png","68","img/blue_2bandit_b.png","68","prac","","","3","","","","","","","","","","","","","","","","",""
"null","90017","SARL_v6","SARL_v604hxglct","63d80e0449b458dd5f8140be","fixation","","","img/fixation.png","null","","","prac","","","","","","","","","","","","","","","","","","","",""
"309.7999999523163","90328","SARL_v6","SARL_v604hxglct","63d80e0449b458dd5f8140be","mixAttInfreqPrac","","","img/orange_2bandit_b2.png","68","img/orange_2bandit_b2.png","68","prac","","","4","","","","","","","","","","","","","","","","",""
"309.7999999523163","90822","SARL_v6","SARL_v604hxglct","63d80e0449b458dd5f8140be","infreqPrac_resp","","","img/orange_2bandit_b.png","68","img/blue_2bandit_b.png","68","prac","","","4","","","","","","","","","","","","","","","","",""
"null","90990","SARL_v6","SARL_v604hxglct","63d80e0449b458dd5f8140be","fixation","","","img/fixation.png","null","","","prac","","","","","","","","","","","","","","","","","","","",""
"376.60000002384186","91369","SARL_v6","SARL_v604hxglct","63d80e0449b458dd5f8140be","mixAttFreqPrac","","","img/blue_2bandit_b2.png","70","img/blue_2bandit_b2.png","70","prac","","","5","","","","","","","","","","","","","","","","",""
"376.60000002384186","91796","SARL_v6","SARL_v604hxglct","63d80e0449b458dd5f8140be","freqPrac_resp","","","img/blue_2bandit_b.png","70","img/blue_2bandit_b.png","70","prac","","","5","","","","","","","","","","","","","","","","",""
"null","91962","SARL_v6","SARL_v604hxglct","63d80e0449b458dd5f8140be","fixation","","","img/fixation.png","null","","","prac","","","","","","","","","","","","","","","","","","","",""
"548.7000000476837","92512","SARL_v6","SARL_v604hxglct","63d80e0449b458dd5f8140be","mixRLPractice","","","img/black_2bandit_b2.png","74","img/black_2bandit_b2.png","","prac","","","5","","","","","","","","","","","","","","","","",""
"null","93272","SARL_v6","SARL_v604hxglct","63d80e0449b458dd5f8140be","feedback","","","<div class=""verylowPoints""> -14 </div>","null","","na","prac","","","6","-14","10","-14","","","","","","","","","","","","","",""
"null","93431","SARL_v6","SARL_v604hxglct","63d80e0449b458dd5f8140be","fixation","","","img/fixation.png","null","","","prac","","","","","","","","","","","","","","","","","","","",""
"487.90000009536743","93921","SARL_v6","SARL_v604hxglct","63d80e0449b458dd5f8140be","mixAttFreqPrac","","","img/blue_2bandit_b2.png","70","img/blue_2bandit_b2.png","70","prac","","","7","","","","","","","","","","","","","","","","",""
"487.90000009536743","94239","SARL_v6","SARL_v604hxglct","63d80e0449b458dd5f8140be","freqPrac_resp","","","img/blue_2bandit_b.png","70","img/blue_2bandit_b.png","70","prac","","","7","","","","","","","","","","","","","","","","",""
"null","94391","SARL_v6","SARL_v604hxglct","63d80e0449b458dd5f8140be","fixation","","","img/fixation.png","null","","","prac","","","","","","","","","","","","","","","","","","","",""
"455.2999999523163","94848","SARL_v6","SARL_v604hxglct","63d80e0449b458dd5f8140be","mixAttInfreqPrac","","","img/orange_2bandit_b2.png","68","img/orange_2bandit_b2.png","68","prac","","","8","","","","","","","","","","","","","","","","",""
"455.2999999523163","95200","SARL_v6","SARL_v604hxglct","63d80e0449b458dd5f8140be","infreqPrac_resp","","","img/orange_2bandit_b.png","68","img/blue_2bandit_b.png","68","prac","","","8","","","","","","","","","","","","","","","","",""
"null","95365","SARL_v6","SARL_v604hxglct","63d80e0449b458dd5f8140be","fixation","","","img/fixation.png","null","","","prac","","","","","","","","","","","","","","","","","","","",""
"538.2000000476837","95906","SARL_v6","SARL_v604hxglct","63d80e0449b458dd5f8140be","mixAttFreqPrac","","","img/blue_2bandit_b2.png","70","img/blue_2bandit_b2.png","70","prac","","","9","","","","","","","","","","","","","","","","",""
"538.2000000476837","96175","SARL_v6","SARL_v604hxglct","63d80e0449b458dd5f8140be","freqPrac_resp","","","img/blue_2bandit_b.png","70","img/blue_2bandit_b.png","70","prac","","","9","","","","","","","","","","","","","","","","",""
"null","96328","SARL_v6","SARL_v604hxglct","63d80e0449b458dd5f8140be","fixation","","","img/fixation.png","null","","","prac","","","","","","","","","","","","","","","","","","","",""
"382.7000000476837","96713","SARL_v6","SARL_v604hxglct","63d80e0449b458dd5f8140be","mixAttFreqPrac","","","img/blue_2bandit_b2.png","70","img/blue_2bandit_b2.png","70","prac","","","10","","","","","","","","","","","","","","","","",""
"382.7000000476837","97135","SARL_v6","SARL_v604hxglct","63d80e0449b458dd5f8140be","freqPrac_resp","","","img/blue_2bandit_b.png","70","img/blue_2bandit_b.png","70","prac","","","10","","","","","","","","","","","","","","","","",""
"null","97299","SARL_v6","SARL_v604hxglct","63d80e0449b458dd5f8140be","fixation","","","img/fixation.png","null","","","prac","","","","","","","","","","","","","","","","","","","",""
"395.60000002384186","97696","SARL_v6","SARL_v604hxglct","63d80e0449b458dd5f8140be","mixAttInfreqPrac","","","img/orange_2bandit_b2.png","68","img/orange_2bandit_b2.png","68","prac","","","11","","","","","","","","","","","","","","","","",""
"395.60000002384186","98108","SARL_v6","SARL_v604hxglct","63d80e0449b458dd5f8140be","infreqPrac_resp","","","img/orange_2bandit_b.png","68","img/blue_2bandit_b.png","68","prac","","","11","","","","","","","","","","","","","","","","",""
"null","98274","SARL_v6","SARL_v604hxglct","63d80e0449b458dd5f8140be","fixation","","","img/fixation.png","null","","","prac","","","","","","","","","","","","","","","","","","","",""
"348.10000002384186","98624","SARL_v6","SARL_v604hxglct","63d80e0449b458dd5f8140be","mixRLPractice","","","img/black_2bandit_b2.png","75","img/black_2bandit_b2.png","","prac","","","11","","","","","","","","","","","","","","","","",""
"null","99384","SARL_v6","SARL_v604hxglct","63d80e0449b458dd5f8140be","feedback","","","<div class=""verylowPoints_sq""> -5 </div>","null","","na","prac","","","12","5","-5","5","","","","","","","","","","","","","",""
"null","99550","SARL_v6","SARL_v604hxglct","63d80e0449b458dd5f8140be","fixation","","","img/fixation.png","null","","","prac","","","","","","","","","","","","","","","","","","","",""
"4409","103960","SARL_v6","SARL_v604hxglct","63d80e0449b458dd5f8140be","","","","","","","","prac","","","","","","","","","","","","","","","","","","","",""
"518.2000000476837","104481","SARL_v6","SARL_v604hxglct","63d80e0449b458dd5f8140be","freq","","","img/blue_2bandit_b2.png","70","","70","test","1","","1","","","","circle","square","1","1","1","1","","","","","","","",""
"null","104772","SARL_v6","SARL_v604hxglct","63d80e0449b458dd5f8140be","freq_resp","","","img/blue_2bandit_b.png","70","img/blue_2bandit_b.png","70","test","","","","","","","","","","","1","","","","","","","","",""
"null","104938","SARL_v6","SARL_v604hxglct","63d80e0449b458dd5f8140be","fixation","","","img/fixation.png","null","","","test","","","","","","","","","","","","","","","","","","","",""
"340.1999999284744","105280","SARL_v6","SARL_v604hxglct","63d80e0449b458dd5f8140be","freq","","","img/blue_2bandit_b2.png","70","","70","test","1","","2","","","","circle","square","2","2","1","1","","","","","","","",""
"null","105747","SARL_v6","SARL_v604hxglct","63d80e0449b458dd5f8140be","freq_resp","","","img/blue_2bandit_b.png","70","img/blue_2bandit_b.png","70","test","","","","","","","","","","","1","","","","","","","","",""
"null","105899","SARL_v6","SARL_v604hxglct","63d80e0449b458dd5f8140be","fixation","","","img/fixation.png","null","","","test","","","","","","","","","","","","","","","","","","","",""
"283","106184","SARL_v6","SARL_v604hxglct","63d80e0449b458dd5f8140be","freq","","","img/blue_2bandit_b2.png","70","","70","test","1","","3","","","","circle","square","3","3","1","1","","","","","","","",""
"null","106705","SARL_v6","SARL_v604hxglct","63d80e0449b458dd5f8140be","freq_resp","","","img/blue_2bandit_b.png","70","img/blue_2bandit_b.png","70","test","","","","","","","","","","","1","","","","","","","","",""
"null","106858","SARL_v6","SARL_v604hxglct","63d80e0449b458dd5f8140be","fixation","","","img/fixation.png","null","","","test","","","","","","","","","","","","","","","","","","","",""
"332.09999990463257","107192","SARL_v6","SARL_v604hxglct","63d80e0449b458dd5f8140be","freq","","","img/blue_2bandit_b2.png","70","","70","test","1","","4","","","","circle","square","4","4","1","1","","","","","","","",""
"null","107665","SARL_v6","SARL_v604hxglct","63d80e0449b458dd5f8140be","freq_resp","","","img/blue_2bandit_b.png","70","img/blue_2bandit_b.png","70","test","","","","","","","","","","","1","","","","","","","","",""
"null","107818","SARL_v6","SARL_v604hxglct","63d80e0449b458dd5f8140be","fixation","","","img/fixation.png","null","","","test","","","","","","","","","","","","","","","","","","","",""
"347.89999997615814","108168","SARL_v6","SARL_v604hxglct","63d80e0449b458dd5f8140be","freq","","","img/blue_2bandit_b2.png","70","","70","test","1","","5","","","","circle","square","5","5","1","1","","","","","","","",""
"null","108626","SARL_v6","SARL_v604hxglct","63d80e0449b458dd5f8140be","freq_resp","","","img/blue_2bandit_b.png","70","img/blue_2bandit_b.png","70","test","","","","","","","","","","","1","","","","","","","","",""
"null","108779","SARL_v6","SARL_v604hxglct","63d80e0449b458dd5f8140be","fixation","","","img/fixation.png","null","","","test","","","","","","","","","","","","","","","","","","","",""
"427.10000002384186","109208","SARL_v6","SARL_v604hxglct","63d80e0449b458dd5f8140be","infreq","","","img/orange_2bandit_b2.png","68","","68","test","1","","6","","","","circle","square","6","6","1","1","","","","","","","",""
"null","109585","SARL_v6","SARL_v604hxglct","63d80e0449b458dd5f8140be","infreq_resp","","","img/orange_2bandit_b.png","68","img/orange_2bandit_b.png","68","test","","","","","","","","","","","1","","","","","","","","",""
"null","109751","SARL_v6","SARL_v604hxglct","63d80e0449b458dd5f8140be","fixation","","","img/fixation.png","null","","","test","","","","","","","","","","","","","","","","","","","",""
"391.10000002384186","110144","SARL_v6","SARL_v604hxglct","63d80e0449b458dd5f8140be","freq","","","img/blue_2bandit_b2.png","70","","70","test","1","","7","","","","circle","square","7","7","1","1","","","","","","","",""
"null","110559","SARL_v6","SARL_v604hxglct","63d80e0449b458dd5f8140be","freq_resp","","","img/blue_2bandit_b.png","70","img/blue_2bandit_b.png","70","test","","","","","","","","","","","1","","","","","","","","",""
"null","110723","SARL_v6","SARL_v604hxglct","63d80e0449b458dd5f8140be","fixation","","","img/fixation.png","null","","","test","","","","","","","","","","","","","","","","","","","",""
"323.1999999284744","111048","SARL_v6","SARL_v604hxglct","63d80e0449b458dd5f8140be","freq","","","img/blue_2bandit_b2.png","70","","70","test","1","","8","","","","circle","square","8","8","1","1","","","","","","","",""
"null","111531","SARL_v6","SARL_v604hxglct","63d80e0449b458dd5f8140be","freq_resp","","","img/blue_2bandit_b.png","70","img/blue_2bandit_b.png","70","test","","","","","","","","","","","1","","","","","","","","",""
"null","111683","SARL_v6","SARL_v604hxglct","63d80e0449b458dd5f8140be","fixation","","","img/fixation.png","null","","","test","","","","","","","","","","","","","","","","","","","",""
"306.7999999523163","111992","SARL_v6","SARL_v604hxglct","63d80e0449b458dd5f8140be","freq","","","img/blue_2bandit_b2.png","70","","70","test","1","","9","","","","circle","square","9","9","1","1","","","","","","","",""
"null","112492","SARL_v6","SARL_v604hxglct","63d80e0449b458dd5f8140be","freq_resp","","","img/blue_2bandit_b.png","70","img/blue_2bandit_b.png","70","test","","","","","","","","","","","1","","","","","","","","",""
"null","112646","SARL_v6","SARL_v604hxglct","63d80e0449b458dd5f8140be","fixation","","","img/fixation.png","null","","","test","","","","","","","","","","","","","","","","","","","",""
"312.60000002384186","112960","SARL_v6","SARL_v604hxglct","63d80e0449b458dd5f8140be","freq","","","img/blue_2bandit_b2.png","70","","70","test","1","","10","","","","circle","square","10","10","1","1","","","","","","","",""
"null","113453","SARL_v6","SARL_v604hxglct","63d80e0449b458dd5f8140be","freq_resp","","","img/blue_2bandit_b.png","70","img/blue_2bandit_b.png","70","test","","","","","","","","","","","1","","","","","","","","",""
"null","113606","SARL_v6","SARL_v604hxglct","63d80e0449b458dd5f8140be","fixation","","","img/fixation.png","null","","","test","","","","","","","","","","","","","","","","","","","",""
"296.2999999523163","113905","SARL_v6","SARL_v604hxglct","63d80e0449b458dd5f8140be","freq","","","img/blue_2bandit_b2.png","70","","70","test","1","","11","","","","circle","square","11","11","1","1","","","","","","","",""
"null","114413","SARL_v6","SARL_v604hxglct","63d80e0449b458dd5f8140be","freq_resp","","","img/blue_2bandit_b.png","70","img/blue_2bandit_b.png","70","test","","","","","","","","","","","1","","","","","","","","",""
"null","114578","SARL_v6","SARL_v604hxglct","63d80e0449b458dd5f8140be","fixation","","","img/fixation.png","null","","","test","","","","","","","","","","","","","","","","","","","",""
"292","114872","SARL_v6","SARL_v604hxglct","63d80e0449b458dd5f8140be","freq","","","img/blue_2bandit_b2.png","70","","70","test","1","","12","","","","circle","square","12","12","1","1","","","","","","","",""
"null","115388","SARL_v6","SARL_v604hxglct","63d80e0449b458dd5f8140be","freq_resp","","","img/blue_2bandit_b.png","70","img/blue_2bandit_b.png","70","test","","","","","","","","","","","1","","","","","","","","",""
"null","115541","SARL_v6","SARL_v604hxglct","63d80e0449b458dd5f8140be","fixation","","","img/fixation.png","null","","","test","","","","","","","","","","","","","","","","","","","",""
"273.39999997615814","115816","SARL_v6","SARL_v604hxglct","63d80e0449b458dd5f8140be","freq","","","img/blue_2bandit_b2.png","70","","70","test","1","","13","","","","circle","square","13","13","1","1","","","","","","","",""
"null","116349","SARL_v6","SARL_v604hxglct","63d80e0449b458dd5f8140be","freq_resp","","","img/blue_2bandit_b.png","70","img/blue_2bandit_b.png","70","test","","","","","","","","","","","1","","","","","","","","",""
"null","116501","SARL_v6","SARL_v604hxglct","63d80e0449b458dd5f8140be","fixation","","","img/fixation.png","null","","","test","","","","","","","","","","","","","","","","","","","",""
"217.5","116721","SARL_v6","SARL_v604hxglct","63d80e0449b458dd5f8140be","freq","","","img/blue_2bandit_b2.png","70","","70","test","1","","14","","","","circle","square","14","14","1","1","","","","","","","",""
"null","117307","SARL_v6","SARL_v604hxglct","63d80e0449b458dd5f8140be","freq_resp","","","img/blue_2bandit_b.png","70","img/blue_2bandit_b.png","70","test","","","","","","","","","","","1","","","","","","","","",""
"null","117459","SARL_v6","SARL_v604hxglct","63d80e0449b458dd5f8140be","fixation","","","img/fixation.png","null","","","test","","","","","","","","","","","","","","","","","","","",""
"243.5","117706","SARL_v6","SARL_v604hxglct","63d80e0449b458dd5f8140be","freq","","","img/blue_2bandit_b2.png","70","","70","test","1","","15","","","","circle","square","15","15","1","1","","","","","","","",""
"null","118265","SARL_v6","SARL_v604hxglct","63d80e0449b458dd5f8140be","freq_resp","","","img/blue_2bandit_b.png","70","img/blue_2bandit_b.png","70","test","","","","","","","","","","","1","","","","","","","","",""
"null","118417","SARL_v6","SARL_v604hxglct","63d80e0449b458dd5f8140be","fixation","","","img/fixation.png","null","","","test","","","","","","","","","","","","","","","","","","","",""
"229.5","118648","SARL_v6","SARL_v604hxglct","63d80e0449b458dd5f8140be","freq","","","img/blue_2bandit_b2.png","70","","70","test","1","","16","","","","circle","square","16","16","1","1","","","","","","","",""
"null","119225","SARL_v6","SARL_v604hxglct","63d80e0449b458dd5f8140be","freq_resp","","","img/blue_2bandit_b.png","70","img/blue_2bandit_b.png","70","test","","","","","","","","","","","1","","","","","","","","",""
"null","119377","SARL_v6","SARL_v604hxglct","63d80e0449b458dd5f8140be","fixation","","","img/fixation.png","null","","","test","","","","","","","","","","","","","","","","","","","",""
"172.89999997615814","119552","SARL_v6","SARL_v604hxglct","63d80e0449b458dd5f8140be","freq","","","img/blue_2bandit_b2.png","70","","70","test","1","","17","","","","circle","square","17","17","1","1","","","","","","","",""
"null","120185","SARL_v6","SARL_v604hxglct","63d80e0449b458dd5f8140be","freq_resp","","","img/blue_2bandit_b.png","70","img/blue_2bandit_b.png","70","test","","","","","","","","","","","1","","","","","","","","",""
"null","120339","SARL_v6","SARL_v604hxglct","63d80e0449b458dd5f8140be","fixation","","","img/fixation.png","null","","","test","","","","","","","","","","","","","","","","","","","",""
"91.19999992847443","120432","SARL_v6","SARL_v604hxglct","63d80e0449b458dd5f8140be","freq","","","img/blue_2bandit_b2.png","70","","70","test","1","","18","","","","circle","square","18","18","1","1","","","","","","","",""
"null","121146","SARL_v6","SARL_v604hxglct","63d80e0449b458dd5f8140be","freq_resp","","","img/blue_2bandit_b.png","70","img/blue_2bandit_b.png","70","test","","","","","","","","","","","1","","","","","","","","",""
"null","121310","SARL_v6","SARL_v604hxglct","63d80e0449b458dd5f8140be","fixation","","","img/fixation.png","null","","","test","","","","","","","","","","","","","","","","","","","",""
"104.19999992847443","121417","SARL_v6","SARL_v604hxglct","63d80e0449b458dd5f8140be","infreq","","","img/orange_2bandit_b2.png","70","","68","test","0","","19","","","","circle","square","19","19","1","0.9473684210526315","","","","","","","",""
"null","122121","SARL_v6","SARL_v604hxglct","63d80e0449b458dd5f8140be","infreq_resp","","","img/orange_2bandit_b.png","70","img/orange_2bandit_b.png","68","test","","","","","","","","","","","1","","","","","","","","",""
"null","122287","SARL_v6","SARL_v604hxglct","63d80e0449b458dd5f8140be","fixation","","","img/fixation.png","null","","","test","","","","","","","","","","","","","","","","","","","",""
"431","122721","SARL_v6","SARL_v604hxglct","63d80e0449b458dd5f8140be","freq","","","img/blue_2bandit_b2.png","70","","70","test","1","","20","","","","circle","square","20","20","1","0.95","","","","","","","",""
"null","123096","SARL_v6","SARL_v604hxglct","63d80e0449b458dd5f8140be","freq_resp","","","img/blue_2bandit_b.png","70","img/blue_2bandit_b.png","70","test","","","","","","","","","","","1","","","","","","","","",""
"null","123260","SARL_v6","SARL_v604hxglct","63d80e0449b458dd5f8140be","fixation","","","img/fixation.png","null","","","test","","","","","","","","","","","","","","","","","","","",""
"330.09999990463257","123591","SARL_v6","SARL_v604hxglct","63d80e0449b458dd5f8140be","freq","","","img/blue_2bandit_b2.png","70","","70","test","1","","21","","","","circle","square","21","21","1","0.9523809523809523","","","","","","","",""
"null","124071","SARL_v6","SARL_v604hxglct","63d80e0449b458dd5f8140be","freq_resp","","","img/blue_2bandit_b.png","70","img/blue_2bandit_b.png","70","test","","","","","","","","","","","1","","","","","","","","",""
"null","124224","SARL_v6","SARL_v604hxglct","63d80e0449b458dd5f8140be","fixation","","","img/fixation.png","null","","","test","","","","","","","","","","","","","","","","","","","",""
"261.8000000715256","124488","SARL_v6","SARL_v604hxglct","63d80e0449b458dd5f8140be","freq","","","img/blue_2bandit_b2.png","70","","70","test","1","","22","","","","circle","square","22","22","1","0.9545454545454546","","","","","","","",""
"null","125045","SARL_v6","SARL_v604hxglct","63d80e0449b458dd5f8140be","freq_resp","","","img/blue_2bandit_b.png","70","img/blue_2bandit_b.png","70","test","","","","","","","","","","","1","","","","","","","","",""
"null","125198","SARL_v6","SARL_v604hxglct","63d80e0449b458dd5f8140be","fixation","","","img/fixation.png","null","","","test","","","","","","","","","","","","","","","","","","","",""
"264.1999999284744","125464","SARL_v6","SARL_v604hxglct","63d80e0449b458dd5f8140be","freq","","","img/blue_2bandit_b2.png","70","","70","test","1","","23","","","","circle","square","23","23","1","0.9565217391304348","","","","","","","",""
"null","126005","SARL_v6","SARL_v604hxglct","63d80e0449b458dd5f8140be","freq_resp","","","img/blue_2bandit_b.png","70","img/blue_2bandit_b.png","70","test","","","","","","","","","","","1","","","","","","","","",""
"null","126157","SARL_v6","SARL_v604hxglct","63d80e0449b458dd5f8140be","fixation","","","img/fixation.png","null","","","test","","","","","","","","","","","","","","","","","","","",""
"273.2999999523163","126432","SARL_v6","SARL_v604hxglct","63d80e0449b458dd5f8140be","freq","","","img/blue_2bandit_b2.png","70","","70","test","1","","24","","","","circle","square","24","24","1","0.9583333333333334","","","","","","","",""
"null","126966","SARL_v6","SARL_v604hxglct","63d80e0449b458dd5f8140be","freq_resp","","","img/blue_2bandit_b.png","70","img/blue_2bandit_b.png","70","test","","","","","","","","","","","1","","","","","","","","",""
"null","127130","SARL_v6","SARL_v604hxglct","63d80e0449b458dd5f8140be","fixation","","","img/fixation.png","null","","","test","","","","","","","","","","","","","","","","","","","",""
"284.2000000476837","127416","SARL_v6","SARL_v604hxglct","63d80e0449b458dd5f8140be","freq","","","img/blue_2bandit_b2.png","70","","70","test","1","","25","","","","circle","square","25","25","1","0.96","","","","","","","",""
"null","127940","SARL_v6","SARL_v604hxglct","63d80e0449b458dd5f8140be","freq_resp","","","img/blue_2bandit_b.png","70","img/blue_2bandit_b.png","70","test","","","","","","","","","","","1","","","","","","","","",""
"null","128105","SARL_v6","SARL_v604hxglct","63d80e0449b458dd5f8140be","fixation","","","img/fixation.png","null","","","test","","","","","","","","","","","","","","","","","","","",""
"260.59999990463257","128368","SARL_v6","SARL_v604hxglct","63d80e0449b458dd5f8140be","freq","","","img/blue_2bandit_b2.png","70","","70","test","1","","26","","","","circle","square","26","26","1","0.9615384615384616","","","","","","","",""
"null","128915","SARL_v6","SARL_v604hxglct","63d80e0449b458dd5f8140be","freq_resp","","","img/blue_2bandit_b.png","70","img/blue_2bandit_b.png","70","test","","","","","","","","","","","1","","","","","","","","",""
"null","129079","SARL_v6","SARL_v604hxglct","63d80e0449b458dd5f8140be","fixation","","","img/fixation.png","null","","","test","","","","","","","","","","","","","","","","","","","",""
"654.6000000238419","129737","SARL_v6","SARL_v604hxglct","63d80e0449b458dd5f8140be","rl","","","img/black_2bandit_b2.png","74","","0","test","","","27","","","-3","circle","square","","0","1","","74","-3","-3","-3","-3","circle","1","0"
"null","130505","SARL_v6","SARL_v604hxglct","63d80e0449b458dd5f8140be","feedback","","","<div class=""verylowPoints""> -3 </div>","null","","na","test","","","NaN","","","","","","","","1","","74","","","","","","1",""
"636.3999999761581","131143","SARL_v6","SARL_v604hxglct","63d80e0449b458dd5f8140be","freq","","","img/blue_2bandit_b2.png","70","","70","test","1","","28","","","","circle","square","27","1","2","0.9629629629629629","","","","","","","",""
"null","131316","SARL_v6","SARL_v604hxglct","63d80e0449b458dd5f8140be","freq_resp","","","img/blue_2bandit_b.png","70","img/blue_2bandit_b.png","70","test","","","","","","","","","","","2","","","","","","","","",""
"null","131480","SARL_v6","SARL_v604hxglct","63d80e0449b458dd5f8140be","fixation","","","img/fixation.png","null","","","test","","","","","","","","","","","","","","","","","","","",""
"422.60000002384186","131904","SARL_v6","SARL_v604hxglct","63d80e0449b458dd5f8140be","freq","","","img/blue_2bandit_b2.png","70","","70","test","1","","29","","","","circle","square","28","2","2","0.9642857142857143","","","","","","","",""
"null","132292","SARL_v6","SARL_v604hxglct","63d80e0449b458dd5f8140be","freq_resp","","","img/blue_2bandit_b.png","70","img/blue_2bandit_b.png","70","test","","","","","","","","","","","2","","","","","","","","",""
"null","132457","SARL_v6","SARL_v604hxglct","63d80e0449b458dd5f8140be","fixation","","","img/fixation.png","null","","","test","","","","","","","","","","","","","","","","","","","",""
"245.20000004768372","132705","SARL_v6","SARL_v604hxglct","63d80e0449b458dd5f8140be","freq","","","img/blue_2bandit_b2.png","70","","70","test","1","","30","","","","circle","square","29","3","2","0.9655172413793104","","","","","","","",""
"null","133268","SARL_v6","SARL_v604hxglct","63d80e0449b458dd5f8140be","freq_resp","","","img/blue_2bandit_b.png","70","img/blue_2bandit_b.png","70","test","","","","","","","","","","","2","","","","","","","","",""
"null","133421","SARL_v6","SARL_v604hxglct","63d80e0449b458dd5f8140be","fixation","","","img/fixation.png","null","","","test","","","","","","","","","","","","","","","","","","","",""
"224.39999997615814","133648","SARL_v6","SARL_v604hxglct","63d80e0449b458dd5f8140be","freq","","","img/blue_2bandit_b2.png","70","","70","test","1","","31","","","","circle","square","30","4","2","0.9666666666666667","","","","","","","",""
"null","134228","SARL_v6","SARL_v604hxglct","63d80e0449b458dd5f8140be","freq_resp","","","img/blue_2bandit_b.png","70","img/blue_2bandit_b.png","70","test","","","","","","","","","","","2","","","","","","","","",""
"null","134380","SARL_v6","SARL_v604hxglct","63d80e0449b458dd5f8140be","fixation","","","img/fixation.png","null","","","test","","","","","","","","","","","","","","","","","","","",""
"242","134624","SARL_v6","SARL_v604hxglct","63d80e0449b458dd5f8140be","freq","","","img/blue_2bandit_b2.png","70","","70","test","1","","32","","","","circle","square","31","5","2","0.967741935483871","","","","","","","",""
"null","135187","SARL_v6","SARL_v604hxglct","63d80e0449b458dd5f8140be","freq_resp","","","img/blue_2bandit_b.png","70","img/blue_2bandit_b.png","70","test","","","","","","","","","","","2","","","","","","","","",""
"null","135340","SARL_v6","SARL_v604hxglct","63d80e0449b458dd5f8140be","fixation","","","img/fixation.png","null","","","test","","","","","","","","","","","","","","","","","","","",""
"242","135583","SARL_v6","SARL_v604hxglct","63d80e0449b458dd5f8140be","freq","","","img/blue_2bandit_b2.png","70","","70","test","1","","33","","","","circle","square","32","6","2","0.96875","","","","","","","",""
"null","136147","SARL_v6","SARL_v604hxglct","63d80e0449b458dd5f8140be","freq_resp","","","img/blue_2bandit_b.png","70","img/blue_2bandit_b.png","70","test","","","","","","","","","","","2","","","","","","","","",""
"null","136299","SARL_v6","SARL_v604hxglct","63d80e0449b458dd5f8140be","fixation","","","img/fixation.png","null","","","test","","","","","","","","","","","","","","","","","","","",""
"251.29999995231628","136553","SARL_v6","SARL_v604hxglct","63d80e0449b458dd5f8140be","freq","","","img/blue_2bandit_b2.png","70","","70","test","1","","34","","","","circle","square","33","7","2","0.9696969696969697","","","","","","","",""
"null","137110","SARL_v6","SARL_v604hxglct","63d80e0449b458dd5f8140be","freq_resp","","","img/blue_2bandit_b.png","70","img/blue_2bandit_b.png","70","test","","","","","","","","","","","2","","","","","","","","",""
"null","137263","SARL_v6","SARL_v604hxglct","63d80e0449b458dd5f8140be","fixation","","","img/fixation.png","null","","","test","","","","","","","","","","","","","","","","","","","",""
"231.5","137496","SARL_v6","SARL_v604hxglct","63d80e0449b458dd5f8140be","freq","","","img/blue_2bandit_b2.png","70","","70","test","1","","35","","","","circle","square","34","8","2","0.9705882352941176","","","","","","","",""
"null","138070","SARL_v6","SARL_v604hxglct","63d80e0449b458dd5f8140be","freq_resp","","","img/blue_2bandit_b.png","70","img/blue_2bandit_b.png","70","test","","","","","","","","","","","2","","","","","","","","",""
"null","138222","SARL_v6","SARL_v604hxglct","63d80e0449b458dd5f8140be","fixation","","","img/fixation.png","null","","","test","","","","","","","","","","","","","","","","","","","",""
"512.8000000715256","138737","SARL_v6","SARL_v604hxglct","63d80e0449b458dd5f8140be","infreq","","","img/orange_2bandit_b2.png","68","","68","test","1","","36","","","","circle","square","35","9","2","0.9714285714285714","","","","","","","",""
"null","139029","SARL_v6","SARL_v604hxglct","63d80e0449b458dd5f8140be","infreq_resp","","","img/orange_2bandit_b.png","68","img/orange_2bandit_b.png","68","test","","","","","","","","","","","2","","","","","","","","",""
"null","139182","SARL_v6","SARL_v604hxglct","63d80e0449b458dd5f8140be","fixation","","","img/fixation.png","null","","","test","","","","","","","","","","","","","","","","","","","",""
"344.5","139528","SARL_v6","SARL_v604hxglct","63d80e0449b458dd5f8140be","freq","","","img/blue_2bandit_b2.png","70","","70","test","1","","37","","","","circle","square","36","10","2","0.9722222222222222","","","","","","","",""
"null","139989","SARL_v6","SARL_v604hxglct","63d80e0449b458dd5f8140be","freq_resp","","","img/blue_2bandit_b.png","70","img/blue_2bandit_b.png","70","test","","","","","","","","","","","2","","","","","","","","",""
"null","140155","SARL_v6","SARL_v604hxglct","63d80e0449b458dd5f8140be","fixation","","","img/fixation.png","null","","","test","","","","","","","","","","","","","","","","","","","",""
"290.5","140447","SARL_v6","SARL_v604hxglct","63d80e0449b458dd5f8140be","freq","","","img/blue_2bandit_b2.png","70","","70","test","1","","38","","","","circle","square","37","11","2","0.972972972972973","","","","","","","",""
"null","140965","SARL_v6","SARL_v604hxglct","63d80e0449b458dd5f8140be","freq_resp","","","img/blue_2bandit_b.png","70","img/blue_2bandit_b.png","70","test","","","","","","","","","","","2","","","","","","","","",""
"null","141130","SARL_v6","SARL_v604hxglct","63d80e0449b458dd5f8140be","fixation","","","img/fixation.png","null","","","test","","","","","","","","","","","","","","","","","","","",""
"292","141424","SARL_v6","SARL_v604hxglct","63d80e0449b458dd5f8140be","freq","","","img/blue_2bandit_b2.png","70","","70","test","1","","39","","","","circle","square","38","12","2","0.9736842105263158","","","","","","","",""
"null","141945","SARL_v6","SARL_v604hxglct","63d80e0449b458dd5f8140be","freq_resp","","","img/blue_2bandit_b.png","70","img/blue_2bandit_b.png","70","test","","","","","","","","","","","2","","","","","","","","",""
"null","142109","SARL_v6","SARL_v604hxglct","63d80e0449b458dd5f8140be","fixation","","","img/fixation.png","null","","","test","","","","","","","","","","","","","","","","","","","",""
"321.1999999284744","142432","SARL_v6","SARL_v604hxglct","63d80e0449b458dd5f8140be","freq","","","img/blue_2bandit_b2.png","70","","70","test","1","","40","","","","circle","square","39","13","2","0.9743589743589743","","","","","","","",""
"null","142921","SARL_v6","SARL_v604hxglct","63d80e0449b458dd5f8140be","freq_resp","","","img/blue_2bandit_b.png","70","img/blue_2bandit_b.png","70","test","","","","","","","","","","","2","","","","","","","","",""
"null","143074","SARL_v6","SARL_v604hxglct","63d80e0449b458dd5f8140be","fixation","","","img/fixation.png","null","","","test","","","","","","","","","","","","","","","","","","","",""
"260.39999997615814","143337","SARL_v6","SARL_v604hxglct","63d80e0449b458dd5f8140be","freq","","","img/blue_2bandit_b2.png","70","","70","test","1","","41","","","","circle","square","40","14","2","0.975","","","","","","","",""
"null","143892","SARL_v6","SARL_v604hxglct","63d80e0449b458dd5f8140be","freq_resp","","","img/blue_2bandit_b.png","70","img/blue_2bandit_b.png","70","test","","","","","","","","","","","2","","","","","","","","",""
"null","144046","SARL_v6","SARL_v604hxglct","63d80e0449b458dd5f8140be","fixation","","","img/fixation.png","null","","","test","","","","","","","","","","","","","","","","","","","",""
"272","144320","SARL_v6","SARL_v604hxglct","63d80e0449b458dd5f8140be","freq","","","img/blue_2bandit_b2.png","70","","70","test","1","","42","","","","circle","square","41","15","2","0.975609756097561","","","","","","","",""
"null","144853","SARL_v6","SARL_v604hxglct","63d80e0449b458dd5f8140be","freq_resp","","","img/blue_2bandit_b.png","70","img/blue_2bandit_b.png","70","test","","","","","","","","","","","2","","","","","","","","",""
"null","145006","SARL_v6","SARL_v604hxglct","63d80e0449b458dd5f8140be","fixation","","","img/fixation.png","null","","","test","","","","","","","","","","","","","","","","","","","",""
"248.20000004768372","145256","SARL_v6","SARL_v604hxglct","63d80e0449b458dd5f8140be","freq","","","img/blue_2bandit_b2.png","70","","70","test","1","","43","","","","circle","square","42","16","2","0.9761904761904762","","","","","","","",""
"null","145812","SARL_v6","SARL_v604hxglct","63d80e0449b458dd5f8140be","freq_resp","","","img/blue_2bandit_b.png","70","img/blue_2bandit_b.png","70","test","","","","","","","","","","","2","","","","","","","","",""
"null","145964","SARL_v6","SARL_v604hxglct","63d80e0449b458dd5f8140be","fixation","","","img/fixation.png","null","","","test","","","","","","","","","","","","","","","","","","","",""
"433.59999990463257","146399","SARL_v6","SARL_v604hxglct","63d80e0449b458dd5f8140be","infreq","","","img/orange_2bandit_b2.png","68","","68","test","1","","44","","","","circle","square","43","17","2","0.9767441860465116","","","","","","","",""
"null","146772","SARL_v6","SARL_v604hxglct","63d80e0449b458dd5f8140be","infreq_resp","","","img/orange_2bandit_b.png","68","img/orange_2bandit_b.png","68","test","","","","","","","","","","","2","","","","","","","","",""
"null","146938","SARL_v6","SARL_v604hxglct","63d80e0449b458dd5f8140be","fixation","","","img/fixation.png","null","","","test","","","","","","","","","","","","","","","","","","","",""
"459.59999990463257","147400","SARL_v6","SARL_v604hxglct","63d80e0449b458dd5f8140be","infreq","","","img/orange_2bandit_b2.png","68","","68","test","1","","45","","","","circle","square","44","18","2","0.9772727272727273","","","","","","","",""
"null","147747","SARL_v6","SARL_v604hxglct","63d80e0449b458dd5f8140be","infreq_resp","","","img/orange_2bandit_b.png","68","img/orange_2bandit_b.png","68","test","","","","","","","","","","","2","","","","","","","","",""
"null","147899","SARL_v6","SARL_v604hxglct","63d80e0449b458dd5f8140be","fixation","","","img/fixation.png","null","","","test","","","","","","","","","","","","","","","","","","","",""
"482.6999999284744","148384","SARL_v6","SARL_v604hxglct","63d80e0449b458dd5f8140be","freq","","","img/blue_2bandit_b2.png","70","","70","test","1","","46","","","","circle","square","45","19","2","0.9777777777777777","","","","","","","",""
"null","148707","SARL_v6","SARL_v604hxglct","63d80e0449b458dd5f8140be","freq_resp","","","img/blue_2bandit_b.png","70","img/blue_2bandit_b.png","70","test","","","","","","","","","","","2","","","","","","","","",""
"null","148859","SARL_v6","SARL_v604hxglct","63d80e0449b458dd5f8140be","fixation","","","img/fixation.png","null","","","test","","","","","","","","","","","","","","","","","","","",""
"354.6999999284744","149216","SARL_v6","SARL_v604hxglct","63d80e0449b458dd5f8140be","freq","","","img/blue_2bandit_b2.png","70","","70","test","1","","47","","","","circle","square","46","20","2","0.9782608695652174","","","","","","","",""
"null","149667","SARL_v6","SARL_v604hxglct","63d80e0449b458dd5f8140be","freq_resp","","","img/blue_2bandit_b.png","70","img/blue_2bandit_b.png","70","test","","","","","","","","","","","2","","","","","","","","",""
"null","149820","SARL_v6","SARL_v604hxglct","63d80e0449b458dd5f8140be","fixation","","","img/fixation.png","null","","","test","","","","","","","","","","","","","","","","","","","",""
"418.2000000476837","150241","SARL_v6","SARL_v604hxglct","63d80e0449b458dd5f8140be","freq","","","img/blue_2bandit_b2.png","70","","70","test","1","","48","","","","circle","square","47","21","2","0.9787234042553191","","","","","","","",""
"null","150627","SARL_v6","SARL_v604hxglct","63d80e0449b458dd5f8140be","freq_resp","","","img/blue_2bandit_b.png","70","img/blue_2bandit_b.png","70","test","","","","","","","","","","","2","","","","","","","","",""
"null","150792","SARL_v6","SARL_v604hxglct","63d80e0449b458dd5f8140be","fixation","","","img/fixation.png","null","","","test","","","","","","","","","","","","","","","","","","","",""
"437.60000002384186","151231","SARL_v6","SARL_v604hxglct","63d80e0449b458dd5f8140be","rl","","","img/black_2bandit_b2.png","74","","0","test","","","49","","","-8","circle","square","","0","2","","74","-8","-5","-8","-5","circle","2","0"
"null","151993","SARL_v6","SARL_v604hxglct","63d80e0449b458dd5f8140be","feedback","","","<div class=""verylowPoints""> -8 </div>","null","","na","test","","","NaN","","","","","","","","2","","74","","","","","","2",""
"null","152804","SARL_v6","SARL_v604hxglct","63d80e0449b458dd5f8140be","freq","","","img/blue_2bandit_b2.png","null","","70","test","0","","50","","","","circle","square","48","1","3","0.9583333333333334","","","","","","","",""
"null","152969","SARL_v6","SARL_v604hxglct","63d80e0449b458dd5f8140be","fixation","","","img/fixation.png","null","","","test","","","","","","","","","","","","","","","","","","","",""
"572.3999999761581","153543","SARL_v6","SARL_v604hxglct","63d80e0449b458dd5f8140be","freq","","","img/blue_2bandit_b2.png","70","","70","test","1","","51","","","","circle","square","49","2","3","0.9591836734693877","","","","","","","",""
"null","153778","SARL_v6","SARL_v604hxglct","63d80e0449b458dd5f8140be","freq_resp","","","img/blue_2bandit_b.png","70","img/blue_2bandit_b.png","70","test","","","","","","","","","","","3","","","","","","","","",""
"null","153930","SARL_v6","SARL_v604hxglct","63d80e0449b458dd5f8140be","fixation","","","img/fixation.png","null","","","test","","","","","","","","","","","","","","","","","","","",""
"291.60000002384186","154223","SARL_v6","SARL_v604hxglct","63d80e0449b458dd5f8140be","freq","","","img/blue_2bandit_b2.png","70","","70","test","1","","52","","","","circle","square","50","3","3","0.96","","","","","","","",""
"null","154738","SARL_v6","SARL_v604hxglct","63d80e0449b458dd5f8140be","freq_resp","","","img/blue_2bandit_b.png","70","img/blue_2bandit_b.png","70","test","","","","","","","","","","","3","","","","","","","","",""
"null","154904","SARL_v6","SARL_v604hxglct","63d80e0449b458dd5f8140be","fixation","","","img/fixation.png","null","","","test","","","","","","","","","","","","","","","","","","","",""
"221.79999995231628","155128","SARL_v6","SARL_v604hxglct","63d80e0449b458dd5f8140be","freq","","","img/blue_2bandit_b2.png","70","","70","test","1","","53","","","","circle","square","51","4","3","0.9607843137254902","","","","","","","",""
"null","155712","SARL_v6","SARL_v604hxglct","63d80e0449b458dd5f8140be","freq_resp","","","img/blue_2bandit_b.png","70","img/blue_2bandit_b.png","70","test","","","","","","","","","","","3","","","","","","","","",""
"null","155865","SARL_v6","SARL_v604hxglct","63d80e0449b458dd5f8140be","fixation","","","img/fixation.png","null","","","test","","","","","","","","","","","","","","","","","","","",""
"269.2000000476837","156137","SARL_v6","SARL_v604hxglct","63d80e0449b458dd5f8140be","freq","","","img/blue_2bandit_b2.png","70","","70","test","1","","54","","","","circle","square","52","5","3","0.9615384615384616","","","","","","","",""
"null","156672","SARL_v6","SARL_v604hxglct","63d80e0449b458dd5f8140be","freq_resp","","","img/blue_2bandit_b.png","70","img/blue_2bandit_b.png","70","test","","","","","","","","","","","3","","","","","","","","",""
"null","156825","SARL_v6","SARL_v604hxglct","63d80e0449b458dd5f8140be","fixation","","","img/fixation.png","null","","","test","","","","","","","","","","","","","","","","","","","",""
"237.5","157064","SARL_v6","SARL_v604hxglct","63d80e0449b458dd5f8140be","freq","","","img/blue_2bandit_b2.png","70","","70","test","1","","55","","","","circle","square","53","6","3","0.9622641509433962","","","","","","","",""
"null","157632","SARL_v6","SARL_v604hxglct","63d80e0449b458dd5f8140be","freq_resp","","","img/blue_2bandit_b.png","70","img/blue_2bandit_b.png","70","test","","","","","","","","","","","3","","","","","","","","",""
"null","157785","SARL_v6","SARL_v604hxglct","63d80e0449b458dd5f8140be","fixation","","","img/fixation.png","null","","","test","","","","","","","","","","","","","","","","","","","",""
"244.20000004768372","158031","SARL_v6","SARL_v604hxglct","63d80e0449b458dd5f8140be","freq","","","img/blue_2bandit_b2.png","70","","70","test","1","","56","","","","circle","square","54","7","3","0.9629629629629629","","","","","","","",""
"null","158593","SARL_v6","SARL_v604hxglct","63d80e0449b458dd5f8140be","freq_resp","","","img/blue_2bandit_b.png","70","img/blue_2bandit_b.png","70","test","","","","","","","","","","","3","","","","","","","","",""
"null","158746","SARL_v6","SARL_v604hxglct","63d80e0449b458dd5f8140be","fixation","","","img/fixation.png","null","","","test","","","","","","","","","","","","","","","","","","","",""
"300.10000002384186","159048","SARL_v6","SARL_v604hxglct","63d80e0449b458dd5f8140be","freq","","","img/blue_2bandit_b2.png","70","","70","test","1","","57","","","","circle","square","55","8","3","0.9636363636363636","","","","","","","",""
"null","159553","SARL_v6","SARL_v604hxglct","63d80e0449b458dd5f8140be","freq_resp","","","img/blue_2bandit_b.png","70","img/blue_2bandit_b.png","70","test","","","","","","","","","","","3","","","","","","","","",""
"null","159707","SARL_v6","SARL_v604hxglct","63d80e0449b458dd5f8140be","fixation","","","img/fixation.png","null","","","test","","","","","","","","","","","","","","","","","","","",""
"186.89999997615814","159896","SARL_v6","SARL_v604hxglct","63d80e0449b458dd5f8140be","freq","","","img/blue_2bandit_b2.png","70","","70","test","1","","58","","","","circle","square","56","9","3","0.9642857142857143","","","","","","","",""
"null","160514","SARL_v6","SARL_v604hxglct","63d80e0449b458dd5f8140be","freq_resp","","","img/blue_2bandit_b.png","70","img/blue_2bandit_b.png","70","test","","","","","","","","","","","3","","","","","","","","",""
"null","160680","SARL_v6","SARL_v604hxglct","63d80e0449b458dd5f8140be","fixation","","","img/fixation.png","null","","","test","","","","","","","","","","","","","","","","","","","",""
"438.10000002384186","161121","SARL_v6","SARL_v604hxglct","63d80e0449b458dd5f8140be","infreq","","","img/orange_2bandit_b2.png","68","","68","test","1","","59","","","","circle","square","57","10","3","0.9649122807017544","","","","","","","",""
"null","161490","SARL_v6","SARL_v604hxglct","63d80e0449b458dd5f8140be","infreq_resp","","","img/orange_2bandit_b.png","68","img/orange_2bandit_b.png","68","test","","","","","","","","","","","3","","","","","","","","",""
"null","161657","SARL_v6","SARL_v604hxglct","63d80e0449b458dd5f8140be","fixation","","","img/fixation.png","null","","","test","","","","","","","","","","","","","","","","","","","",""
"340.7999999523163","162000","SARL_v6","SARL_v604hxglct","63d80e0449b458dd5f8140be","infreq","","","img/orange_2bandit_b2.png","68","","68","test","1","","60","","","","circle","square","58","11","3","0.9655172413793104","","","","","","","",""
"null","162465","SARL_v6","SARL_v604hxglct","63d80e0449b458dd5f8140be","infreq_resp","","","img/orange_2bandit_b.png","68","img/orange_2bandit_b.png","68","test","","","","","","","","","","","3","","","","","","","","",""
"null","162629","SARL_v6","SARL_v604hxglct","63d80e0449b458dd5f8140be","fixation","","","img/fixation.png","null","","","test","","","","","","","","","","","","","","","","","","","",""
"353.2999999523163","162984","SARL_v6","SARL_v604hxglct","63d80e0449b458dd5f8140be","freq","","","img/blue_2bandit_b2.png","70","","70","test","1","","61","","","","circle","square","59","12","3","0.9661016949152542","","","","","","","",""
"null","163438","SARL_v6","SARL_v604hxglct","63d80e0449b458dd5f8140be","freq_resp","","","img/blue_2bandit_b.png","70","img/blue_2bandit_b.png","70","test","","","","","","","","","","","3","","","","","","","","",""
"null","163591","SARL_v6","SARL_v604hxglct","63d80e0449b458dd5f8140be","fixation","","","img/fixation.png","null","","","test","","","","","","","","","","","","","","","","","","","",""
"343.5","163938","SARL_v6","SARL_v604hxglct","63d80e0449b458dd5f8140be","freq","","","img/blue_2bandit_b2.png","70","","70","test","1","","62","","","","circle","square","60","13","3","0.9666666666666667","","","","","","","",""
"null","164398","SARL_v6","SARL_v604hxglct","63d80e0449b458dd5f8140be","freq_resp","","","img/blue_2bandit_b.png","70","img/blue_2bandit_b.png","70","test","","","","","","","","","","","3","","","","","","","","",""
"null","164550","SARL_v6","SARL_v604hxglct","63d80e0449b458dd5f8140be","fixation","","","img/fixation.png","null","","","test","","","","","","","","","","","","","","","","","","","",""
"328.10000002384186","164880","SARL_v6","SARL_v604hxglct","63d80e0449b458dd5f8140be","freq","","","img/blue_2bandit_b2.png","70","","70","test","1","","63","","","","circle","square","61","14","3","0.9672131147540983","","","","","","","",""
"null","165358","SARL_v6","SARL_v604hxglct","63d80e0449b458dd5f8140be","freq_resp","","","img/blue_2bandit_b.png","70","img/blue_2bandit_b.png","70","test","","","","","","","","","","","3","","","","","","","","",""
"null","165523","SARL_v6","SARL_v604hxglct","63d80e0449b458dd5f8140be","fixation","","","img/fixation.png","null","","","test","","","","","","","","","","","","","","","","","","","",""
"411","165937","SARL_v6","SARL_v604hxglct","63d80e0449b458dd5f8140be","freq","","","img/blue_2bandit_b2.png","70","","70","test","1","","64","","","","circle","square","62","15","3","0.967741935483871","","","","","","","",""
"null","166333","SARL_v6","SARL_v604hxglct","63d80e0449b458dd5f8140be","freq_resp","","","img/blue_2bandit_b.png","70","img/blue_2bandit_b.png","70","test","","","","","","","","","","","3","","","","","","","","",""
"null","166498","SARL_v6","SARL_v604hxglct","63d80e0449b458dd5f8140be","fixation","","","img/fixation.png","null","","","test","","","","","","","","","","","","","","","","","","","",""
"556.2000000476837","167056","SARL_v6","SARL_v604hxglct","63d80e0449b458dd5f8140be","freq","","","img/blue_2bandit_b2.png","70","","70","test","1","","65","","","","circle","square","63","16","3","0.9682539682539683","","","","","","","",""
"null","167308","SARL_v6","SARL_v604hxglct","63d80e0449b458dd5f8140be","freq_resp","","","img/blue_2bandit_b.png","70","img/blue_2bandit_b.png","70","test","","","","","","","","","","","3","","","","","","","","",""
"null","167460","SARL_v6","SARL_v604hxglct","63d80e0449b458dd5f8140be","fixation","","","img/fixation.png","null","","","test","","","","","","","","","","","","","","","","","","","",""
"610.2000000476837","168073","SARL_v6","SARL_v604hxglct","63d80e0449b458dd5f8140be","freq","","","img/blue_2bandit_b2.png","70","","70","test","1","","66","","","","circle","square","64","17","3","0.96875","","","","","","","",""
"null","168266","SARL_v6","SARL_v604hxglct","63d80e0449b458dd5f8140be","freq_resp","","","img/blue_2bandit_b.png","70","img/blue_2bandit_b.png","70","test","","","","","","","","","","","3","","","","","","","","",""
"null","168420","SARL_v6","SARL_v604hxglct","63d80e0449b458dd5f8140be","fixation","","","img/fixation.png","null","","","test","","","","","","","","","","","","","","","","","","","",""
"641.7999999523163","169064","SARL_v6","SARL_v604hxglct","63d80e0449b458dd5f8140be","freq","","","img/blue_2bandit_b2.png","70","","70","test","1","","67","","","","circle","square","65","18","3","0.9692307692307692","","","","","","","",""
"null","169228","SARL_v6","SARL_v604hxglct","63d80e0449b458dd5f8140be","freq_resp","","","img/blue_2bandit_b.png","70","img/blue_2bandit_b.png","70","test","","","","","","","","","","","3","","","","","","","","",""
"null","169392","SARL_v6","SARL_v604hxglct","63d80e0449b458dd5f8140be","fixation","","","img/fixation.png","null","","","test","","","","","","","","","","","","","","","","","","","",""
"638.1000000238419","170031","SARL_v6","SARL_v604hxglct","63d80e0449b458dd5f8140be","freq","","","img/blue_2bandit_b2.png","70","","70","test","1","","68","","","","circle","square","66","19","3","0.9696969696969697","","","","","","","",""
"null","170206","SARL_v6","SARL_v604hxglct","63d80e0449b458dd5f8140be","freq_resp","","","img/blue_2bandit_b.png","70","img/blue_2bandit_b.png","70","test","","","","","","","","","","","3","","","","","","","","",""
"null","170359","SARL_v6","SARL_v604hxglct","63d80e0449b458dd5f8140be","fixation","","","img/fixation.png","null","","","test","","","","","","","","","","","","","","","","","","","",""
"631","170991","SARL_v6","SARL_v604hxglct","63d80e0449b458dd5f8140be","freq","","","img/blue_2bandit_b2.png","70","","70","test","1","","69","","","","circle","square","67","20","3","0.9701492537313433","","","","","","","",""
"null","171164","SARL_v6","SARL_v604hxglct","63d80e0449b458dd5f8140be","freq_resp","","","img/blue_2bandit_b.png","70","img/blue_2bandit_b.png","70","test","","","","","","","","","","","3","","","","","","","","",""
"null","171329","SARL_v6","SARL_v604hxglct","63d80e0449b458dd5f8140be","fixation","","","img/fixation.png","null","","","test","","","","","","","","","","","","","","","","","","","",""
"341.59999990463257","171673","SARL_v6","SARL_v604hxglct","63d80e0449b458dd5f8140be","freq","","","img/blue_2bandit_b2.png","70","","70","test","1","","70","","","","circle","square","68","21","3","0.9705882352941176","","","","","","","",""
"null","172138","SARL_v6","SARL_v604hxglct","63d80e0449b458dd5f8140be","freq_resp","","","img/blue_2bandit_b.png","70","img/blue_2bandit_b.png","70","test","","","","","","","","","","","3","","","","","","","","",""
"null","172291","SARL_v6","SARL_v604hxglct","63d80e0449b458dd5f8140be","fixation","","","img/fixation.png","null","","","test","","","","","","","","","","","","","","","","","","","",""
"1114.5999999046326","173407","SARL_v6","SARL_v604hxglct","63d80e0449b458dd5f8140be","rl","","","img/black_2bandit_b2.png","75","","0","test","","","71","","","-4","circle","square","","0","3","","75","-8","-4","-8","-4","square","3","0"
"null","174175","SARL_v6","SARL_v604hxglct","63d80e0449b458dd5f8140be","feedback","","","<div class=""verylowPoints_sq""> -4 </div>","null","","na","test","","","NaN","","","","","","","","3","","75","","","","","","3",""
"574.4000000953674","174752","SARL_v6","SARL_v604hxglct","63d80e0449b458dd5f8140be","freq","","","img/blue_2bandit_b2.png","70","","70","test","1","","72","","","","circle","square","69","1","4","0.9710144927536232","","","","","","","",""
"null","174983","SARL_v6","SARL_v604hxglct","63d80e0449b458dd5f8140be","freq_resp","","","img/blue_2bandit_b.png","70","img/blue_2bandit_b.png","70","test","","","","","","","","","","","4","","","","","","","","",""
"null","175136","SARL_v6","SARL_v604hxglct","63d80e0449b458dd5f8140be","fixation","","","img/fixation.png","null","","","test","","","","","","","","","","","","","","","","","","","",""
"597.7999999523163","175737","SARL_v6","SARL_v604hxglct","63d80e0449b458dd5f8140be","freq","","","img/blue_2bandit_b2.png","70","","70","test","1","","73","","","","circle","square","70","2","4","0.9714285714285714","","","","","","","",""
"null","175945","SARL_v6","SARL_v604hxglct","63d80e0449b458dd5f8140be","freq_resp","","","img/blue_2bandit_b.png","70","img/blue_2bandit_b.png","70","test","","","","","","","","","","","4","","","","","","","","",""
"null","176097","SARL_v6","SARL_v604hxglct","63d80e0449b458dd5f8140be","fixation","","","img/fixation.png","null","","","test","","","","","","","","","","","","","","","","","","","",""
"357.39999997615814","176457","SARL_v6","SARL_v604hxglct","63d80e0449b458dd5f8140be","freq","","","img/blue_2bandit_b2.png","70","","70","test","1","","74","","","","circle","square","71","3","4","0.971830985915493","","","","","","","",""
"null","176906","SARL_v6","SARL_v604hxglct","63d80e0449b458dd5f8140be","freq_resp","","","img/blue_2bandit_b.png","70","img/blue_2bandit_b.png","70","test","","","","","","","","","","","4","","","","","","","","",""
"null","177060","SARL_v6","SARL_v604hxglct","63d80e0449b458dd5f8140be","fixation","","","img/fixation.png","null","","","test","","","","","","","","","","","","","","","","","","","",""
"282.39999997615814","177345","SARL_v6","SARL_v604hxglct","63d80e0449b458dd5f8140be","freq","","","img/blue_2bandit_b2.png","70","","70","test","1","","75","","","","circle","square","72","4","4","0.9722222222222222","","","","","","","",""
"null","177866","SARL_v6","SARL_v604hxglct","63d80e0449b458dd5f8140be","freq_resp","","","img/blue_2bandit_b.png","70","img/blue_2bandit_b.png","70","test","","","","","","","","","","","4","","","","","","","","",""
"null","178019","SARL_v6","SARL_v604hxglct","63d80e0449b458dd5f8140be","fixation","","","img/fixation.png","null","","","test","","","","","","","","","","","","","","","","","","","",""
"154.79999995231628","178176","SARL_v6","SARL_v604hxglct","63d80e0449b458dd5f8140be","freq","","","img/blue_2bandit_b2.png","70","","70","test","1","","76","","","","circle","square","73","5","4","0.9726027397260274","","","","","","","",""
"null","178824","SARL_v6","SARL_v604hxglct","63d80e0449b458dd5f8140be","freq_resp","","","img/blue_2bandit_b.png","70","img/blue_2bandit_b.png","70","test","","","","","","","","","","","4","","","","","","","","",""
"null","178981","SARL_v6","SARL_v604hxglct","63d80e0449b458dd5f8140be","fixation","","","img/fixation.png","null","","","test","","","","","","","","","","","","","","","","","","","",""
"112.60000002384186","179096","SARL_v6","SARL_v604hxglct","63d80e0449b458dd5f8140be","freq","","","img/blue_2bandit_b2.png","70","","70","test","1","","77","","","","circle","square","74","6","4","0.972972972972973","","","","","","","",""
"null","179797","SARL_v6","SARL_v604hxglct","63d80e0449b458dd5f8140be","freq_resp","","","img/blue_2bandit_b.png","70","img/blue_2bandit_b.png","70","test","","","","","","","","","","","4","","","","","","","","",""
"null","179950","SARL_v6","SARL_v604hxglct","63d80e0449b458dd5f8140be","fixation","","","img/fixation.png","null","","","test","","","","","","","","","","","","","","","","","","","",""
"152.10000002384186","180105","SARL_v6","SARL_v604hxglct","63d80e0449b458dd5f8140be","infreq","","","img/orange_2bandit_b2.png","70","","68","test","0","","78","","","","circle","square","75","7","4","0.96","","","","","","","",""
"null","180757","SARL_v6","SARL_v604hxglct","63d80e0449b458dd5f8140be","infreq_resp","","","img/orange_2bandit_b.png","70","img/orange_2bandit_b.png","68","test","","","","","","","","","","","4","","","","","","","","",""
"null","180910","SARL_v6","SARL_v604hxglct","63d80e0449b458dd5f8140be","fixation","","","img/fixation.png","null","","","test","","","","","","","","","","","","","","","","","","","",""
"360","181273","SARL_v6","SARL_v604hxglct","63d80e0449b458dd5f8140be","freq","","","img/blue_2bandit_b2.png","70","","70","test","1","","79","","","","circle","square","76","8","4","0.9605263157894737","","","","","","","",""
"null","181717","SARL_v6","SARL_v604hxglct","63d80e0449b458dd5f8140be","freq_resp","","","img/blue_2bandit_b.png","70","img/blue_2bandit_b.png","70","test","","","","","","","","","","","4","","","","","","","","",""
"null","181882","SARL_v6","SARL_v604hxglct","63d80e0449b458dd5f8140be","fixation","","","img/fixation.png","null","","","test","","","","","","","","","","","","","","","","","","","",""
"332.1999999284744","182216","SARL_v6","SARL_v604hxglct","63d80e0449b458dd5f8140be","freq","","","img/blue_2bandit_b2.png","70","","70","test","1","","80","","","","circle","square","77","9","4","0.961038961038961","","","","","","","",""
"null","182691","SARL_v6","SARL_v604hxglct","63d80e0449b458dd5f8140be","freq_resp","","","img/blue_2bandit_b.png","70","img/blue_2bandit_b.png","70","test","","","","","","","","","","","4","","","","","","","","",""
"null","182863","SARL_v6","SARL_v604hxglct","63d80e0449b458dd5f8140be","fixation","","","img/fixation.png","null","","","test","","","","","","","","","","","","","","","","","","","",""
"462.7000000476837","183327","SARL_v6","SARL_v604hxglct","63d80e0449b458dd5f8140be","freq","","","img/blue_2bandit_b2.png","70","","70","test","1","","81","","","","circle","square","78","10","4","0.9615384615384616","","","","","","","",""
"null","183680","SARL_v6","SARL_v604hxglct","63d80e0449b458dd5f8140be","freq_resp","","","img/blue_2bandit_b.png","70","img/blue_2bandit_b.png","70","test","","","","","","","","","","","4","","","","","","","","",""
"null","183846","SARL_v6","SARL_v604hxglct","63d80e0449b458dd5f8140be","fixation","","","img/fixation.png","null","","","test","","","","","","","","","","","","","","","","","","","",""
"375.10000002384186","184224","SARL_v6","SARL_v604hxglct","63d80e0449b458dd5f8140be","freq","","","img/blue_2bandit_b2.png","70","","70","test","1","","82","","","","circle","square","79","11","4","0.9620253164556962","","","","","","","",""
"null","184656","SARL_v6","SARL_v604hxglct","63d80e0449b458dd5f8140be","freq_resp","","","img/blue_2bandit_b.png","70","img/blue_2bandit_b.png","70","test","","","","","","","","","","","4","","","","","","","","",""
"null","184821","SARL_v6","SARL_v604hxglct","63d80e0449b458dd5f8140be","fixation","","","img/fixation.png","null","","","test","","","","","","","","","","","","","","","","","","","",""
"240.40000009536743","185063","SARL_v6","SARL_v604hxglct","63d80e0449b458dd5f8140be","freq","","","img/blue_2bandit_b2.png","70","","70","test","1","","83","","","","circle","square","80","12","4","0.9625","","","","","","","",""
"null","185631","SARL_v6","SARL_v604hxglct","63d80e0449b458dd5f8140be","freq_resp","","","img/blue_2bandit_b.png","70","img/blue_2bandit_b.png","70","test","","","","","","","","","","","4","","","","","","","","",""
"null","185783","SARL_v6","SARL_v604hxglct","63d80e0449b458dd5f8140be","fixation","","","img/fixation.png","null","","","test","","","","","","","","","","","","","","","","","","","",""
"231.10000002384186","186015","SARL_v6","SARL_v604hxglct","63d80e0449b458dd5f8140be","freq","","","img/blue_2bandit_b2.png","70","","70","test","1","","84","","","","circle","square","81","13","4","0.9629629629629629","","","","","","","",""
"null","186591","SARL_v6","SARL_v604hxglct","63d80e0449b458dd5f8140be","freq_resp","","","img/blue_2bandit_b.png","70","img/blue_2bandit_b.png","70","test","","","","","","","","","","","4","","","","","","","","",""
"null","186756","SARL_v6","SARL_v604hxglct","63d80e0449b458dd5f8140be","fixation","","","img/fixation.png","null","","","test","","","","","","","","","","","","","","","","","","","",""
"233","186991","SARL_v6","SARL_v604hxglct","63d80e0449b458dd5f8140be","infreq","","","img/orange_2bandit_b2.png","70","","68","test","0","","85","","","","circle","square","82","14","4","0.9512195121951219","","","","","","","",""
"null","187563","SARL_v6","SARL_v604hxglct","63d80e0449b458dd5f8140be","infreq_resp","","","img/orange_2bandit_b.png","70","img/orange_2bandit_b.png","68","test","","","","","","","","","","","4","","","","","","","","",""
"null","187716","SARL_v6","SARL_v604hxglct","63d80e0449b458dd5f8140be","fixation","","","img/fixation.png","null","","","test","","","","","","","","","","","","","","","","","","","",""
"233.70000004768372","187951","SARL_v6","SARL_v604hxglct","63d80e0449b458dd5f8140be","freq","","","img/blue_2bandit_b2.png","70","","70","test","1","","86","","","","circle","square","83","15","4","0.9518072289156626","","","","","","","",""
"null","188524","SARL_v6","SARL_v604hxglct","63d80e0449b458dd5f8140be","freq_resp","","","img/blue_2bandit_b.png","70","img/blue_2bandit_b.png","70","test","","","","","","","","","","","4","","","","","","","","",""
"null","188676","SARL_v6","SARL_v604hxglct","63d80e0449b458dd5f8140be","fixation","","","img/fixation.png","null","","","test","","","","","","","","","","","","","","","","","","","",""
"329.39999997615814","189007","SARL_v6","SARL_v604hxglct","63d80e0449b458dd5f8140be","freq","","","img/blue_2bandit_b2.png","70","","70","test","1","","87","","","","circle","square","84","16","4","0.9523809523809523","","","","","","","",""
"null","189485","SARL_v6","SARL_v604hxglct","63d80e0449b458dd5f8140be","freq_resp","","","img/blue_2bandit_b.png","70","img/blue_2bandit_b.png","70","test","","","","","","","","","","","4","","","","","","","","",""
"null","189639","SARL_v6","SARL_v604hxglct","63d80e0449b458dd5f8140be","fixation","","","img/fixation.png","null","","","test","","","","","","","","","","","","","","","","","","","",""
"302.7000000476837","189943","SARL_v6","SARL_v604hxglct","63d80e0449b458dd5f8140be","freq","","","img/blue_2bandit_b2.png","70","","70","test","1","","88","","","","circle","square","85","17","4","0.9529411764705882","","","","","","","",""
"null","190444","SARL_v6","SARL_v604hxglct","63d80e0449b458dd5f8140be","freq_resp","","","img/blue_2bandit_b.png","70","img/blue_2bandit_b.png","70","test","","","","","","","","","","","4","","","","","","","","",""
"null","190598","SARL_v6","SARL_v604hxglct","63d80e0449b458dd5f8140be","fixation","","","img/fixation.png","null","","","test","","","","","","","","","","","","","","","","","","","",""
"255","190856","SARL_v6","SARL_v604hxglct","63d80e0449b458dd5f8140be","freq","","","img/blue_2bandit_b2.png","70","","70","test","1","","89","","","","circle","square","86","18","4","0.9534883720930233","","","","","","","",""
"null","191419","SARL_v6","SARL_v604hxglct","63d80e0449b458dd5f8140be","freq_resp","","","img/blue_2bandit_b.png","70","img/blue_2bandit_b.png","70","test","","","","","","","","","","","4","","","","","","","","",""
"null","191573","SARL_v6","SARL_v604hxglct","63d80e0449b458dd5f8140be","fixation","","","img/fixation.png","null","","","test","","","","","","","","","","","","","","","","","","","",""
"297.39999997615814","191874","SARL_v6","SARL_v604hxglct","63d80e0449b458dd5f8140be","freq","","","img/blue_2bandit_b2.png","70","","70","test","1","","90","","","","circle","square","87","19","4","0.9540229885057471","","","","","","","",""
"null","192392","SARL_v6","SARL_v604hxglct","63d80e0449b458dd5f8140be","freq_resp","","","img/blue_2bandit_b.png","70","img/blue_2bandit_b.png","70","test","","","","","","","","","","","4","","","","","","","","",""
"null","192546","SARL_v6","SARL_v604hxglct","63d80e0449b458dd5f8140be","fixation","","","img/fixation.png","null","","","test","","","","","","","","","","","","","","","","","","","",""
"227.89999997615814","192776","SARL_v6","SARL_v604hxglct","63d80e0449b458dd5f8140be","freq","","","img/blue_2bandit_b2.png","70","","70","test","1","","91","","","","circle","square","88","20","4","0.9545454545454546","","","","","","","",""
"null","193356","SARL_v6","SARL_v604hxglct","63d80e0449b458dd5f8140be","freq_resp","","","img/blue_2bandit_b.png","70","img/blue_2bandit_b.png","70","test","","","","","","","","","","","4","","","","","","","","",""
"null","193518","SARL_v6","SARL_v604hxglct","63d80e0449b458dd5f8140be","fixation","","","img/fixation.png","null","","","test","","","","","","","","","","","","","","","","","","","",""
"319.6999999284744","193839","SARL_v6","SARL_v604hxglct","63d80e0449b458dd5f8140be","freq","","","img/blue_2bandit_b2.png","70","","70","test","1","","92","","","","circle","square","89","21","4","0.9550561797752809","","","","","","","",""
"null","194328","SARL_v6","SARL_v604hxglct","63d80e0449b458dd5f8140be","freq_resp","","","img/blue_2bandit_b.png","70","img/blue_2bandit_b.png","70","test","","","","","","","","","","","4","","","","","","","","",""
"null","194480","SARL_v6","SARL_v604hxglct","63d80e0449b458dd5f8140be","fixation","","","img/fixation.png","null","","","test","","","","","","","","","","","","","","","","","","","",""
"789.6000000238419","195273","SARL_v6","SARL_v604hxglct","63d80e0449b458dd5f8140be","rl","","","img/black_2bandit_b2.png","74","","0","test","","","93","","","-12","circle","square","","0","4","","74","-12","0","-12","0","circle","4","0"
"null","196038","SARL_v6","SARL_v604hxglct","63d80e0449b458dd5f8140be","feedback","","","<div class=""verylowPoints""> -12 </div>","null","","na","test","","","NaN","","","","","","","","4","","74","","","","","","4",""
"null","196847","SARL_v6","SARL_v604hxglct","63d80e0449b458dd5f8140be","freq","","","img/blue_2bandit_b2.png","null","","70","test","0","","94","","","","circle","square","90","1","5","0.9444444444444444","","","","","","","",""
"null","196999","SARL_v6","SARL_v604hxglct","63d80e0449b458dd5f8140be","fixation","","","img/fixation.png","null","","","test","","","","","","","","","","","","","","","","","","","",""
"414.89999997615814","197415","SARL_v6","SARL_v604hxglct","63d80e0449b458dd5f8140be","freq","","","img/blue_2bandit_b2.png","70","","70","test","1","","95","","","","circle","square","91","2","5","0.945054945054945","","","","","","","",""
"null","197806","SARL_v6","SARL_v604hxglct","63d80e0449b458dd5f8140be","freq_resp","","","img/blue_2bandit_b.png","70","img/blue_2bandit_b.png","70","test","","","","","","","","","","","5","","","","","","","","",""
"null","197972","SARL_v6","SARL_v604hxglct","63d80e0449b458dd5f8140be","fixation","","","img/fixation.png","null","","","test","","","","","","","","","","","","","","","","","","","",""
"344.90000009536743","198320","SARL_v6","SARL_v604hxglct","63d80e0449b458dd5f8140be","freq","","","img/blue_2bandit_b2.png","70","","70","test","1","","96","","","","circle","square","92","3","5","0.9456521739130435","","","","","","","",""
"null","198783","SARL_v6","SARL_v604hxglct","63d80e0449b458dd5f8140be","freq_resp","","","img/blue_2bandit_b.png","70","img/blue_2bandit_b.png","70","test","","","","","","","","","","","5","","","","","","","","",""
"null","198937","SARL_v6","SARL_v604hxglct","63d80e0449b458dd5f8140be","fixation","","","img/fixation.png","null","","","test","","","","","","","","","","","","","","","","","","","",""
"277.2000000476837","199217","SARL_v6","SARL_v604hxglct","63d80e0449b458dd5f8140be","freq","","","img/blue_2bandit_b2.png","70","","70","test","1","","97","","","","circle","square","93","4","5","0.946236559139785","","","","","","","",""
"null","199743","SARL_v6","SARL_v604hxglct","63d80e0449b458dd5f8140be","freq_resp","","","img/blue_2bandit_b.png","70","img/blue_2bandit_b.png","70","test","","","","","","","","","","","5","","","","","","","","",""
"null","199895","SARL_v6","SARL_v604hxglct","63d80e0449b458dd5f8140be","fixation","","","img/fixation.png","null","","","test","","","","","","","","","","","","","","","","","","","",""
"422.40000009536743","200320","SARL_v6","SARL_v604hxglct","63d80e0449b458dd5f8140be","infreq","","","img/orange_2bandit_b2.png","68","","68","test","1","","98","","","","circle","square","94","5","5","0.9468085106382979","","","","","","","",""
"null","200703","SARL_v6","SARL_v604hxglct","63d80e0449b458dd5f8140be","infreq_resp","","","img/orange_2bandit_b.png","68","img/orange_2bandit_b.png","68","test","","","","","","","","","","","5","","","","","","","","",""
"null","200868","SARL_v6","SARL_v604hxglct","63d80e0449b458dd5f8140be","fixation","","","img/fixation.png","null","","","test","","","","","","","","","","","","","","","","","","","",""
"264.2999999523163","201136","SARL_v6","SARL_v604hxglct","63d80e0449b458dd5f8140be","infreq","","","img/orange_2bandit_b2.png","70","","68","test","0","","99","","","","circle","square","95","6","5","0.9368421052631579","","","","","","","",""
"null","201677","SARL_v6","SARL_v604hxglct","63d80e0449b458dd5f8140be","infreq_resp","","","img/orange_2bandit_b.png","70","img/orange_2bandit_b.png","68","test","","","","","","","","","","","5","","","","","","","","",""
"null","201829","SARL_v6","SARL_v604hxglct","63d80e0449b458dd5f8140be","fixation","","","img/fixation.png","null","","","test","","","","","","","","","","","","","","","","","","","",""
"472.09999990463257","202305","SARL_v6","SARL_v604hxglct","63d80e0449b458dd5f8140be","freq","","","img/blue_2bandit_b2.png","70","","70","test","1","","100","","","","circle","square","96","7","5","0.9375","","","","","","","",""
"null","202638","SARL_v6","SARL_v604hxglct","63d80e0449b458dd5f8140be","freq_resp","","","img/blue_2bandit_b.png","70","img/blue_2bandit_b.png","70","test","","","","","","","","","","","5","","","","","","","","",""
"null","202802","SARL_v6","SARL_v604hxglct","63d80e0449b458dd5f8140be","fixation","","","img/fixation.png","null","","","test","","","","","","","","","","","","","","","","","","","",""
"475.59999990463257","203279","SARL_v6","SARL_v604hxglct","63d80e0449b458dd5f8140be","freq","","","img/blue_2bandit_b2.png","70","","70","test","1","","101","","","","circle","square","97","8","5","0.9381443298969072","","","","","","","",""
"null","203614","SARL_v6","SARL_v604hxglct","63d80e0449b458dd5f8140be","freq_resp","","","img/blue_2bandit_b.png","70","img/blue_2bandit_b.png","70","test","","","","","","","","","","","5","","","","","","","","",""
"null","203778","SARL_v6","SARL_v604hxglct","63d80e0449b458dd5f8140be","fixation","","","img/fixation.png","null","","","test","","","","","","","","","","","","","","","","","","","",""
"379.7999999523163","204160","SARL_v6","SARL_v604hxglct","63d80e0449b458dd5f8140be","freq","","","img/blue_2bandit_b2.png","70","","70","test","1","","102","","","","circle","square","98","9","5","0.9387755102040817","","","","","","","",""
"null","204588","SARL_v6","SARL_v604hxglct","63d80e0449b458dd5f8140be","freq_resp","","","img/blue_2bandit_b.png","70","img/blue_2bandit_b.png","70","test","","","","","","","","","","","5","","","","","","","","",""
"null","204755","SARL_v6","SARL_v604hxglct","63d80e0449b458dd5f8140be","fixation","","","img/fixation.png","null","","","test","","","","","","","","","","","","","","","","","","","",""
"322.39999997615814","205079","SARL_v6","SARL_v604hxglct","63d80e0449b458dd5f8140be","freq","","","img/blue_2bandit_b2.png","70","","70","test","1","","103","","","","circle","square","99","10","5","0.9393939393939394","","","","","","","",""
"null","205562","SARL_v6","SARL_v604hxglct","63d80e0449b458dd5f8140be","freq_resp","","","img/blue_2bandit_b.png","70","img/blue_2bandit_b.png","70","test","","","","","","","","","","","5","","","","","","","","",""
"null","205713","SARL_v6","SARL_v604hxglct","63d80e0449b458dd5f8140be","fixation","","","img/fixation.png","null","","","test","","","","","","","","","","","","","","","","","","","",""
"284","205999","SARL_v6","SARL_v604hxglct","63d80e0449b458dd5f8140be","freq","","","img/blue_2bandit_b2.png","70","","70","test","1","","104","","","","circle","square","100","11","5","0.94","","","","","","","",""
"null","206522","SARL_v6","SARL_v604hxglct","63d80e0449b458dd5f8140be","freq_resp","","","img/blue_2bandit_b.png","70","img/blue_2bandit_b.png","70","test","","","","","","","","","","","5","","","","","","","","",""
"null","206689","SARL_v6","SARL_v604hxglct","63d80e0449b458dd5f8140be","fixation","","","img/fixation.png","null","","","test","","","","","","","","","","","","","","","","","","","",""
"244","206935","SARL_v6","SARL_v604hxglct","63d80e0449b458dd5f8140be","freq","","","img/blue_2bandit_b2.png","70","","70","test","1","","105","","","","circle","square","101","12","5","0.9405940594059405","","","","","","","",""
"null","207496","SARL_v6","SARL_v604hxglct","63d80e0449b458dd5f8140be","freq_resp","","","img/blue_2bandit_b.png","70","img/blue_2bandit_b.png","70","test","","","","","","","","","","","5","","","","","","","","",""
"null","207648","SARL_v6","SARL_v604hxglct","63d80e0449b458dd5f8140be","fixation","","","img/fixation.png","null","","","test","","","","","","","","","","","","","","","","","","","",""
"261.2000000476837","207911","SARL_v6","SARL_v604hxglct","63d80e0449b458dd5f8140be","freq","","","img/blue_2bandit_b2.png","70","","70","test","1","","106","","","","circle","square","102","13","5","0.9411764705882353","","","","","","","",""
"null","208455","SARL_v6","SARL_v604hxglct","63d80e0449b458dd5f8140be","freq_resp","","","img/blue_2bandit_b.png","70","img/blue_2bandit_b.png","70","test","","","","","","","","","","","5","","","","","","","","",""
"null","208607","SARL_v6","SARL_v604hxglct","63d80e0449b458dd5f8140be","fixation","","","img/fixation.png","null","","","test","","","","","","","","","","","","","","","","","","","",""
"334.40000009536743","208944","SARL_v6","SARL_v604hxglct","63d80e0449b458dd5f8140be","freq","","","img/blue_2bandit_b2.png","70","","70","test","1","","107","","","","circle","square","103","14","5","0.941747572815534","","","","","","","",""
"null","209411","SARL_v6","SARL_v604hxglct","63d80e0449b458dd5f8140be","freq_resp","","","img/blue_2bandit_b.png","70","img/blue_2bandit_b.png","70","test","","","","","","","","","","","5","","","","","","","","",""
"null","209563","SARL_v6","SARL_v604hxglct","63d80e0449b458dd5f8140be","fixation","","","img/fixation.png","null","","","test","","","","","","","","","","","","","","","","","","","",""
"346.2999999523163","209912","SARL_v6","SARL_v604hxglct","63d80e0449b458dd5f8140be","freq","","","img/blue_2bandit_b2.png","70","","70","test","1","","108","","","","circle","square","104","15","5","0.9423076923076923","","","","","","","",""
"null","210372","SARL_v6","SARL_v604hxglct","63d80e0449b458dd5f8140be","freq_resp","","","img/blue_2bandit_b.png","70","img/blue_2bandit_b.png","70","test","","","","","","","","","","","5","","","","","","","","",""
"null","210527","SARL_v6","SARL_v604hxglct","63d80e0449b458dd5f8140be","fixation","","","img/fixation.png","null","","","test","","","","","","","","","","","","","","","","","","","",""
"310.7999999523163","210839","SARL_v6","SARL_v604hxglct","63d80e0449b458dd5f8140be","freq","","","img/blue_2bandit_b2.png","70","","70","test","1","","109","","","","circle","square","105","16","5","0.9428571428571428","","","","","","","",""
"null","211331","SARL_v6","SARL_v604hxglct","63d80e0449b458dd5f8140be","freq_resp","","","img/blue_2bandit_b.png","70","img/blue_2bandit_b.png","70","test","","","","","","","","","","","5","","","","","","","","",""
"null","211483","SARL_v6","SARL_v604hxglct","63d80e0449b458dd5f8140be","fixation","","","img/fixation.png","null","","","test","","","","","","","","","","","","","","","","","","","",""
"338.1999999284744","211824","SARL_v6","SARL_v604hxglct","63d80e0449b458dd5f8140be","freq","","","img/blue_2bandit_b2.png","70","","70","test","1","","110","","","","circle","square","106","17","5","0.9433962264150944","","","","","","","",""
"null","212291","SARL_v6","SARL_v604hxglct","63d80e0449b458dd5f8140be","freq_resp","","","img/blue_2bandit_b.png","70","img/blue_2bandit_b.png","70","test","","","","","","","","","","","5","","","","","","","","",""
"null","212443","SARL_v6","SARL_v604hxglct","63d80e0449b458dd5f8140be","fixation","","","img/fixation.png","null","","","test","","","","","","","","","","","","","","","","","","","",""
"450.5","212895","SARL_v6","SARL_v604hxglct","63d80e0449b458dd5f8140be","freq","","","img/blue_2bandit_b2.png","70","","70","test","1","","111","","","","circle","square","107","18","5","0.9439252336448598","","","","","","","",""
"null","213249","SARL_v6","SARL_v604hxglct","63d80e0449b458dd5f8140be","freq_resp","","","img/blue_2bandit_b.png","70","img/blue_2bandit_b.png","70","test","","","","","","","","","","","5","","","","","","","","",""
"null","213413","SARL_v6","SARL_v604hxglct","63d80e0449b458dd5f8140be","fixation","","","img/fixation.png","null","","","test","","","","","","","","","","","","","","","","","","","",""
"608.2999999523163","214023","SARL_v6","SARL_v604hxglct","63d80e0449b458dd5f8140be","freq","","","img/blue_2bandit_b2.png","70","","70","test","1","","112","","","","circle","square","108","19","5","0.9444444444444444","","","","","","","",""
"null","214223","SARL_v6","SARL_v604hxglct","63d80e0449b458dd5f8140be","freq_resp","","","img/blue_2bandit_b.png","70","img/blue_2bandit_b.png","70","test","","","","","","","","","","","5","","","","","","","","",""
"null","214389","SARL_v6","SARL_v604hxglct","63d80e0449b458dd5f8140be","fixation","","","img/fixation.png","null","","","test","","","","","","","","","","","","","","","","","","","",""
"601","214991","SARL_v6","SARL_v604hxglct","63d80e0449b458dd5f8140be","freq","","","img/blue_2bandit_b2.png","70","","70","test","1","","113","","","","circle","square","109","20","5","0.944954128440367","","","","","","","",""
"null","215198","SARL_v6","SARL_v604hxglct","63d80e0449b458dd5f8140be","freq_resp","","","img/blue_2bandit_b.png","70","img/blue_2bandit_b.png","70","test","","","","","","","","","","","5","","","","","","","","",""
"null","215363","SARL_v6","SARL_v604hxglct","63d80e0449b458dd5f8140be","fixation","","","img/fixation.png","null","","","test","","","","","","","","","","","","","","","","","","","",""
"546.8000000715256","215911","SARL_v6","SARL_v604hxglct","63d80e0449b458dd5f8140be","freq","","","img/blue_2bandit_b2.png","70","","70","test","1","","114","","","","circle","square","110","21","5","0.9454545454545454","","","","","","","",""
"null","216173","SARL_v6","SARL_v604hxglct","63d80e0449b458dd5f8140be","freq_resp","","","img/blue_2bandit_b.png","70","img/blue_2bandit_b.png","70","test","","","","","","","","","","","5","","","","","","","","",""
"null","216338","SARL_v6","SARL_v604hxglct","63d80e0449b458dd5f8140be","fixation","","","img/fixation.png","null","","","test","","","","","","","","","","","","","","","","","","","",""
"378.8000000715256","216719","SARL_v6","SARL_v604hxglct","63d80e0449b458dd5f8140be","freq","","","img/blue_2bandit_b2.png","70","","70","test","1","","115","","","","circle","square","111","22","5","0.9459459459459459","","","","","","","",""
"null","217148","SARL_v6","SARL_v604hxglct","63d80e0449b458dd5f8140be","freq_resp","","","img/blue_2bandit_b.png","70","img/blue_2bandit_b.png","70","test","","","","","","","","","","","5","","","","","","","","",""
"null","217313","SARL_v6","SARL_v604hxglct","63d80e0449b458dd5f8140be","fixation","","","img/fixation.png","null","","","test","","","","","","","","","","","","","","","","","","","",""
"316.3000000715256","217631","SARL_v6","SARL_v604hxglct","63d80e0449b458dd5f8140be","freq","","","img/blue_2bandit_b2.png","70","","70","test","1","","116","","","","circle","square","112","23","5","0.9464285714285714","","","","","","","",""
"null","218124","SARL_v6","SARL_v604hxglct","63d80e0449b458dd5f8140be","freq_resp","","","img/blue_2bandit_b.png","70","img/blue_2bandit_b.png","70","test","","","","","","","","","","","5","","","","","","","","",""
"null","218276","SARL_v6","SARL_v604hxglct","63d80e0449b458dd5f8140be","fixation","","","img/fixation.png","null","","","test","","","","","","","","","","","","","","","","","","","",""
"425.5","218705","SARL_v6","SARL_v604hxglct","63d80e0449b458dd5f8140be","infreq","","","img/orange_2bandit_b2.png","68","","68","test","1","","117","","","","circle","square","113","24","5","0.9469026548672567","","","","","","","",""
"null","219083","SARL_v6","SARL_v604hxglct","63d80e0449b458dd5f8140be","infreq_resp","","","img/orange_2bandit_b.png","68","img/orange_2bandit_b.png","68","test","","","","","","","","","","","5","","","","","","","","",""
"null","219248","SARL_v6","SARL_v604hxglct","63d80e0449b458dd5f8140be","fixation","","","img/fixation.png","null","","","test","","","","","","","","","","","","","","","","","","","",""
"485.7999999523163","219736","SARL_v6","SARL_v604hxglct","63d80e0449b458dd5f8140be","freq","","","img/blue_2bandit_b2.png","70","","70","test","1","","118","","","","circle","square","114","25","5","0.9473684210526315","","","","","","","",""
"null","220057","SARL_v6","SARL_v604hxglct","63d80e0449b458dd5f8140be","freq_resp","","","img/blue_2bandit_b.png","70","img/blue_2bandit_b.png","70","test","","","","","","","","","","","5","","","","","","","","",""
"null","220209","SARL_v6","SARL_v604hxglct","63d80e0449b458dd5f8140be","fixation","","","img/fixation.png","null","","","test","","","","","","","","","","","","","","","","","","","",""
"828.1999999284744","221039","SARL_v6","SARL_v604hxglct","63d80e0449b458dd5f8140be","rl","","","img/black_2bandit_b2.png","74","","0","test","","","119","","","-7","circle","square","","0","5","","74","-7","4","-7","4","circle","5","0"
"null","221799","SARL_v6","SARL_v604hxglct","63d80e0449b458dd5f8140be","feedback","","","<div class=""verylowPoints""> -7 </div>","null","","na","test","","","NaN","","","","","","","","5","","74","","","","","","5",""
"295.09999990463257","222095","SARL_v6","SARL_v604hxglct","63d80e0449b458dd5f8140be","freq","","","img/blue_2bandit_b2.png","70","","70","test","1","","120","","","","circle","square","115","1","6","0.9478260869565217","","","","","","","",""
"null","222608","SARL_v6","SARL_v604hxglct","63d80e0449b458dd5f8140be","freq_resp","","","img/blue_2bandit_b.png","70","img/blue_2bandit_b.png","70","test","","","","","","","","","","","6","","","","","","","","",""
"null","222774","SARL_v6","SARL_v604hxglct","63d80e0449b458dd5f8140be","fixation","","","img/fixation.png","null","","","test","","","","","","","","","","","","","","","","","","","",""
"319.60000002384186","223095","SARL_v6","SARL_v604hxglct","63d80e0449b458dd5f8140be","freq","","","img/blue_2bandit_b2.png","70","","70","test","1","","121","","","","circle","square","116","2","6","0.9482758620689655","","","","","","","",""
"null","223582","SARL_v6","SARL_v604hxglct","63d80e0449b458dd5f8140be","freq_resp","","","img/blue_2bandit_b.png","70","img/blue_2bandit_b.png","70","test","","","","","","","","","","","6","","","","","","","","",""
"null","223734","SARL_v6","SARL_v604hxglct","63d80e0449b458dd5f8140be","fixation","","","img/fixation.png","null","","","test","","","","","","","","","","","","","","","","","","","",""
"375.10000002384186","224111","SARL_v6","SARL_v604hxglct","63d80e0449b458dd5f8140be","freq","","","img/blue_2bandit_b2.png","70","","70","test","1","","122","","","","circle","square","117","3","6","0.9487179487179487","","","","","","","",""
"null","224541","SARL_v6","SARL_v604hxglct","63d80e0449b458dd5f8140be","freq_resp","","","img/blue_2bandit_b.png","70","img/blue_2bandit_b.png","70","test","","","","","","","","","","","6","","","","","","","","",""
"null","224707","SARL_v6","SARL_v604hxglct","63d80e0449b458dd5f8140be","fixation","","","img/fixation.png","null","","","test","","","","","","","","","","","","","","","","","","","",""
"338.5","225048","SARL_v6","SARL_v604hxglct","63d80e0449b458dd5f8140be","freq","","","img/blue_2bandit_b2.png","70","","70","test","1","","123","","","","circle","square","118","4","6","0.9491525423728814","","","","","","","",""
"null","225517","SARL_v6","SARL_v604hxglct","63d80e0449b458dd5f8140be","freq_resp","","","img/blue_2bandit_b.png","70","img/blue_2bandit_b.png","70","test","","","","","","","","","","","6","","","","","","","","",""
"null","225673","SARL_v6","SARL_v604hxglct","63d80e0449b458dd5f8140be","fixation","","","img/fixation.png","null","","","test","","","","","","","","","","","","","","","","","","","",""
"340.8000000715256","226015","SARL_v6","SARL_v604hxglct","63d80e0449b458dd5f8140be","freq","","","img/blue_2bandit_b2.png","70","","70","test","1","","124","","","","circle","square","119","5","6","0.9495798319327731","","","","","","","",""
"null","226490","SARL_v6","SARL_v604hxglct","63d80e0449b458dd5f8140be","freq_resp","","","img/blue_2bandit_b.png","70","img/blue_2bandit_b.png","70","test","","","","","","","","","","","6","","","","","","","","",""
"null","226642","SARL_v6","SARL_v604hxglct","63d80e0449b458dd5f8140be","fixation","","","img/fixation.png","null","","","test","","","","","","","","","","","","","","","","","","","",""
"395.5","227040","SARL_v6","SARL_v604hxglct","63d80e0449b458dd5f8140be","freq","","","img/blue_2bandit_b2.png","70","","70","test","1","","125","","","","circle","square","120","6","6","0.95","","","","","","","",""
"null","227450","SARL_v6","SARL_v604hxglct","63d80e0449b458dd5f8140be","freq_resp","","","img/blue_2bandit_b.png","70","img/blue_2bandit_b.png","70","test","","","","","","","","","","","6","","","","","","","","",""
"null","227615","SARL_v6","SARL_v604hxglct","63d80e0449b458dd5f8140be","fixation","","","img/fixation.png","null","","","test","","","","","","","","","","","","","","","","","","","",""
"406.1999999284744","228024","SARL_v6","SARL_v604hxglct","63d80e0449b458dd5f8140be","freq","","","img/blue_2bandit_b2.png","70","","70","test","1","","126","","","","circle","square","121","7","6","0.9504132231404959","","","","","","","",""
"null","228425","SARL_v6","SARL_v604hxglct","63d80e0449b458dd5f8140be","freq_resp","","","img/blue_2bandit_b.png","70","img/blue_2bandit_b.png","70","test","","","","","","","","","","","6","","","","","","","","",""
"null","228591","SARL_v6","SARL_v604hxglct","63d80e0449b458dd5f8140be","fixation","","","img/fixation.png","null","","","test","","","","","","","","","","","","","","","","","","","",""
"431","229024","SARL_v6","SARL_v604hxglct","63d80e0449b458dd5f8140be","freq","","","img/blue_2bandit_b2.png","70","","70","test","1","","127","","","","circle","square","122","8","6","0.9508196721311475","","","","","","","",""
"null","229400","SARL_v6","SARL_v604hxglct","63d80e0449b458dd5f8140be","freq_resp","","","img/blue_2bandit_b.png","70","img/blue_2bandit_b.png","70","test","","","","","","","","","","","6","","","","","","","","",""
"null","229565","SARL_v6","SARL_v604hxglct","63d80e0449b458dd5f8140be","fixation","","","img/fixation.png","null","","","test","","","","","","","","","","","","","","","","","","","",""
"527.8999999761581","230095","SARL_v6","SARL_v604hxglct","63d80e0449b458dd5f8140be","infreq","","","img/orange_2bandit_b2.png","68","","68","test","1","","128","","","","circle","square","123","9","6","0.9512195121951219","","","","","","","",""
"null","230376","SARL_v6","SARL_v604hxglct","63d80e0449b458dd5f8140be","infreq_resp","","","img/orange_2bandit_b.png","68","img/orange_2bandit_b.png","68","test","","","","","","","","","","","6","","","","","","","","",""
"null","230542","SARL_v6","SARL_v604hxglct","63d80e0449b458dd5f8140be","fixation","","","img/fixation.png","null","","","test","","","","","","","","","","","","","","","","","","","",""
"503.7000000476837","231047","SARL_v6","SARL_v604hxglct","63d80e0449b458dd5f8140be","freq","","","img/blue_2bandit_b2.png","70","","70","test","1","","129","","","","circle","square","124","10","6","0.9516129032258065","","","","","","","",""
"null","231352","SARL_v6","SARL_v604hxglct","63d80e0449b458dd5f8140be","freq_resp","","","img/blue_2bandit_b.png","70","img/blue_2bandit_b.png","70","test","","","","","","","","","","","6","","","","","","","","",""
"null","231506","SARL_v6","SARL_v604hxglct","63d80e0449b458dd5f8140be","fixation","","","img/fixation.png","null","","","test","","","","","","","","","","","","","","","","","","","",""
"395.1999999284744","231906","SARL_v6","SARL_v604hxglct","63d80e0449b458dd5f8140be","freq","","","img/blue_2bandit_b2.png","70","","70","test","1","","130","","","","circle","square","125","11","6","0.952","","","","","","","",""
"null","232326","SARL_v6","SARL_v604hxglct","63d80e0449b458dd5f8140be","freq_resp","","","img/blue_2bandit_b.png","70","img/blue_2bandit_b.png","70","test","","","","","","","","","","","6","","","","","","","","",""
"null","232491","SARL_v6","SARL_v604hxglct","63d80e0449b458dd5f8140be","fixation","","","img/fixation.png","null","","","test","","","","","","","","","","","","","","","","","","","",""
