"rt","time_elapsed","expId","subject","prolificID","trialType","rlType","attType","stimulus","key_press","stim","corrresp","phase","corr","pracCounter","trialNum","rewardOne","rewardTwo","reward","bandOne","bandTwo","attentionNum","attentionRunNum","blockNum","performance","bandChosen","circleVal","squareVal","bandOneVal","bandTwoVal","shapeChosen","rlNum","badFlag"
"15333.300000011921","15335","SARL_v6","SARL_v6hn2ptpy0","559ffa9bfdf99b0ad674856a","","","","","","","","","","","","","","","","","","","","","","","","","","","",""
"","17625","SARL_v6","SARL_v6hn2ptpy0","559ffa9bfdf99b0ad674856a","fullscreen","fullscreen","fullscreen","","","","","","","","","","","","","","","","","","","","","","","","",""
"37398.799999952316","55025","SARL_v6","SARL_v6hn2ptpy0","559ffa9bfdf99b0ad674856a","","","","","","","","","","","","","","","","","","","","","","","","","","","",""
"571.5","55599","SARL_v6","SARL_v6hn2ptpy0","559ffa9bfdf99b0ad674856a","freqPrac","","","img/orange_2bandit_b2.png","70","img/orange_2bandit_b2.png","70","prac","1","0","","","","","","","","","","","","","","","","","",""
"571.5","55843","SARL_v6","SARL_v6hn2ptpy0","559ffa9bfdf99b0ad674856a","freqPrac_resp","","","img/orange_2bandit_b.png","70","img/orange_2bandit_b.png","70","prac","","","","","","","","","","","","","","","","","","","",""
"null","55996","SARL_v6","SARL_v6hn2ptpy0","559ffa9bfdf99b0ad674856a","fixation","","","img/fixation.png","null","","","prac","","","","","","","","","","","","","","","","","","","",""
"405.60000002384186","56403","SARL_v6","SARL_v6hn2ptpy0","559ffa9bfdf99b0ad674856a","infreqPrac","","","img/blue_2bandit_b2.png","68","img/blue_2bandit_b2.png","68","prac","1","0","","","","","","","","","","","","","","","","","",""
"405.60000002384186","56800","SARL_v6","SARL_v6hn2ptpy0","559ffa9bfdf99b0ad674856a","infreqPrac_resp","","","img/blue_2bandit_b.png","68","img/blue_2bandit_b.png","68","prac","","","","","","","","","","","","","","","","","","","",""
"null","56963","SARL_v6","SARL_v6hn2ptpy0","559ffa9bfdf99b0ad674856a","fixation","","","img/fixation.png","null","","","prac","","","","","","","","","","","","","","","","","","","",""
"330.69999998807907","57295","SARL_v6","SARL_v6hn2ptpy0","559ffa9bfdf99b0ad674856a","freqPrac","","","img/orange_2bandit_b2.png","70","img/orange_2bandit_b2.png","70","prac","1","0","","","","","","","","","","","","","","","","","",""
"330.69999998807907","57766","SARL_v6","SARL_v6hn2ptpy0","559ffa9bfdf99b0ad674856a","freqPrac_resp","","","img/orange_2bandit_b.png","70","img/orange_2bandit_b.png","70","prac","","","","","","","","","","","","","","","","","","","",""
"null","57931","SARL_v6","SARL_v6hn2ptpy0","559ffa9bfdf99b0ad674856a","fixation","","","img/fixation.png","null","","","prac","","","","","","","","","","","","","","","","","","","",""
"360.19999998807907","58292","SARL_v6","SARL_v6hn2ptpy0","559ffa9bfdf99b0ad674856a","infreqPrac","","","img/blue_2bandit_b2.png","68","img/blue_2bandit_b2.png","68","prac","1","0","","","","","","","","","","","","","","","","","",""
"360.19999998807907","58744","SARL_v6","SARL_v6hn2ptpy0","559ffa9bfdf99b0ad674856a","infreqPrac_resp","","","img/blue_2bandit_b.png","68","img/blue_2bandit_b.png","68","prac","","","","","","","","","","","","","","","","","","","",""
"null","58909","SARL_v6","SARL_v6hn2ptpy0","559ffa9bfdf99b0ad674856a","fixation","","","img/fixation.png","null","","","prac","","","","","","","","","","","","","","","","","","","",""
"363.30000001192093","59273","SARL_v6","SARL_v6hn2ptpy0","559ffa9bfdf99b0ad674856a","infreqPrac","","","img/blue_2bandit_b2.png","68","img/blue_2bandit_b2.png","68","prac","1","0","","","","","","","","","","","","","","","","","",""
"363.30000001192093","59724","SARL_v6","SARL_v6hn2ptpy0","559ffa9bfdf99b0ad674856a","infreqPrac_resp","","","img/blue_2bandit_b.png","68","img/blue_2bandit_b.png","68","prac","","","","","","","","","","","","","","","","","","","",""
"null","59875","SARL_v6","SARL_v6hn2ptpy0","559ffa9bfdf99b0ad674856a","fixation","","","img/fixation.png","null","","","prac","","","","","","","","","","","","","","","","","","","",""
"287.9000000357628","60164","SARL_v6","SARL_v6hn2ptpy0","559ffa9bfdf99b0ad674856a","infreqPrac","","","img/blue_2bandit_b2.png","68","img/blue_2bandit_b2.png","68","prac","1","0","","","","","","","","","","","","","","","","","",""
"287.9000000357628","60691","SARL_v6","SARL_v6hn2ptpy0","559ffa9bfdf99b0ad674856a","infreqPrac_resp","","","img/blue_2bandit_b.png","68","img/blue_2bandit_b.png","68","prac","","","","","","","","","","","","","","","","","","","",""
"null","60844","SARL_v6","SARL_v6hn2ptpy0","559ffa9bfdf99b0ad674856a","fixation","","","img/fixation.png","null","","","prac","","","","","","","","","","","","","","","","","","","",""
"247.30000001192093","61093","SARL_v6","SARL_v6hn2ptpy0","559ffa9bfdf99b0ad674856a","freqPrac","","","img/orange_2bandit_b2.png","68","img/orange_2bandit_b2.png","70","prac","0","1","","","","","","","","","","","","","","","","","",""
"247.30000001192093","61656","SARL_v6","SARL_v6hn2ptpy0","559ffa9bfdf99b0ad674856a","freqPrac_resp","","","img/orange_2bandit_b.png","68","img/orange_2bandit_b.png","70","prac","","","","","","","","","","","","","","","","","","","",""
"null","62666","SARL_v6","SARL_v6hn2ptpy0","559ffa9bfdf99b0ad674856a","feedback","","","img/wrongKey.png","null","","na","prac","","","","","","","","","","","","","","","","","","","",""
"null","62832","SARL_v6","SARL_v6hn2ptpy0","559ffa9bfdf99b0ad674856a","fixation","","","img/fixation.png","null","","","prac","","","","","","","","","","","","","","","","","","","",""
"463.39999997615814","63296","SARL_v6","SARL_v6hn2ptpy0","559ffa9bfdf99b0ad674856a","infreqPrac","","","img/blue_2bandit_b2.png","68","img/blue_2bandit_b2.png","68","prac","1","1","","","","","","","","","","","","","","","","","",""
"463.39999997615814","63633","SARL_v6","SARL_v6hn2ptpy0","559ffa9bfdf99b0ad674856a","infreqPrac_resp","","","img/blue_2bandit_b.png","68","img/blue_2bandit_b.png","68","prac","","","","","","","","","","","","","","","","","","","",""
"null","63794","SARL_v6","SARL_v6hn2ptpy0","559ffa9bfdf99b0ad674856a","fixation","","","img/fixation.png","null","","","prac","","","","","","","","","","","","","","","","","","","",""
"403.4000000357628","64199","SARL_v6","SARL_v6hn2ptpy0","559ffa9bfdf99b0ad674856a","freqPrac","","","img/orange_2bandit_b2.png","70","img/orange_2bandit_b2.png","70","prac","1","1","","","","","","","","","","","","","","","","","",""
"403.4000000357628","64597","SARL_v6","SARL_v6hn2ptpy0","559ffa9bfdf99b0ad674856a","freqPrac_resp","","","img/orange_2bandit_b.png","70","img/orange_2bandit_b.png","70","prac","","","","","","","","","","","","","","","","","","","",""
"null","64758","SARL_v6","SARL_v6hn2ptpy0","559ffa9bfdf99b0ad674856a","fixation","","","img/fixation.png","null","","","prac","","","","","","","","","","","","","","","","","","","",""
"379.5","65139","SARL_v6","SARL_v6hn2ptpy0","559ffa9bfdf99b0ad674856a","freqPrac","","","img/orange_2bandit_b2.png","70","img/orange_2bandit_b2.png","70","prac","1","1","","","","","","","","","","","","","","","","","",""
"379.5","65573","SARL_v6","SARL_v6hn2ptpy0","559ffa9bfdf99b0ad674856a","freqPrac_resp","","","img/orange_2bandit_b.png","70","img/orange_2bandit_b.png","70","prac","","","","","","","","","","","","","","","","","","","",""
"null","65724","SARL_v6","SARL_v6hn2ptpy0","559ffa9bfdf99b0ad674856a","fixation","","","img/fixation.png","null","","","prac","","","","","","","","","","","","","","","","","","","",""
"40977.40000003576","106703","SARL_v6","SARL_v6hn2ptpy0","559ffa9bfdf99b0ad674856a","","","","","","","","prac","","","","","","","","","","","","","","","","","","","",""
"588.9000000357628","107293","SARL_v6","SARL_v6hn2ptpy0","559ffa9bfdf99b0ad674856a","rlPractice","","","img/black_2bandit_b2.png","75","img/black_2bandit_b2.png","","prac","","","0","","","","","","","","","","","","","","","","",""
"null","108045","SARL_v6","SARL_v6hn2ptpy0","559ffa9bfdf99b0ad674856a","feedback","","","<div class=""verylowPoints_sq""> -14 </div>","null","","na","prac","","","1","10","-14","10","","","","","","","","","","","","","",""
"null","108209","SARL_v6","SARL_v6hn2ptpy0","559ffa9bfdf99b0ad674856a","fixation","","","img/fixation.png","null","","","prac","","","","","","","","","","","","","","","","","","","",""
"362.5","108573","SARL_v6","SARL_v6hn2ptpy0","559ffa9bfdf99b0ad674856a","rlPractice","","","img/black_2bandit_b2.png","74","img/black_2bandit_b2.png","","prac","","","1","","","","","","","","","","","","","","","","",""
"null","109324","SARL_v6","SARL_v6hn2ptpy0","559ffa9bfdf99b0ad674856a","feedback","","","<div class=""veryhighPoints""> 5 </div>","null","","na","prac","","","2","5","-5","5","","","","","","","","","","","","","",""
"null","109488","SARL_v6","SARL_v6hn2ptpy0","559ffa9bfdf99b0ad674856a","fixation","","","img/fixation.png","null","","","prac","","","","","","","","","","","","","","","","","","","",""
"355.0999999642372","109844","SARL_v6","SARL_v6hn2ptpy0","559ffa9bfdf99b0ad674856a","rlPractice","","","img/black_2bandit_b2.png","74","img/black_2bandit_b2.png","","prac","","","2","","","","","","","","","","","","","","","","",""
"null","110599","SARL_v6","SARL_v6hn2ptpy0","559ffa9bfdf99b0ad674856a","feedback","","","<div class=""veryhighPoints""> 30 </div>","null","","na","prac","","","3","30","2","30","","","","","","","","","","","","","",""
"null","110763","SARL_v6","SARL_v6hn2ptpy0","559ffa9bfdf99b0ad674856a","fixation","","","img/fixation.png","null","","","prac","","","","","","","","","","","","","","","","","","","",""
"348.30000001192093","111113","SARL_v6","SARL_v6hn2ptpy0","559ffa9bfdf99b0ad674856a","rlPractice","","","img/black_2bandit_b2.png","74","img/black_2bandit_b2.png","","prac","","","3","","","","","","","","","","","","","","","","",""
"null","111864","SARL_v6","SARL_v6hn2ptpy0","559ffa9bfdf99b0ad674856a","feedback","","","<div class=""verylowPoints""> -2 </div>","null","","na","prac","","","4","-2","20","-2","","","","","","","","","","","","","",""
"null","112029","SARL_v6","SARL_v6hn2ptpy0","559ffa9bfdf99b0ad674856a","fixation","","","img/fixation.png","null","","","prac","","","","","","","","","","","","","","","","","","","",""
"2103.699999988079","114134","SARL_v6","SARL_v6hn2ptpy0","559ffa9bfdf99b0ad674856a","","","","","","","","prac","","","","","","","","","","","","","","","","","","","",""
"null","114936","SARL_v6","SARL_v6hn2ptpy0","559ffa9bfdf99b0ad674856a","mixAttFreqPrac","","","img/orange_2bandit_b2.png","null","img/orange_2bandit_b2.png","70","prac","","","1","","","","","","","","","","","","","","","","",""
"46","115100","SARL_v6","SARL_v6hn2ptpy0","559ffa9bfdf99b0ad674856a","fixation","","","img/fixation.png","70","","","prac","","","","","","","","","","","","","","","","","","","",""
"384.69999998807907","115486","SARL_v6","SARL_v6hn2ptpy0","559ffa9bfdf99b0ad674856a","mixAttInfreqPrac","","","img/blue_2bandit_b2.png","68","img/blue_2bandit_b2.png","68","prac","","","2","","","","","","","","","","","","","","","","",""
"384.69999998807907","115915","SARL_v6","SARL_v6hn2ptpy0","559ffa9bfdf99b0ad674856a","infreqPrac_resp","","","img/blue_2bandit_b.png","68","img/orange_2bandit_b.png","68","prac","","","2","","","","","","","","","","","","","","","","",""
"null","116081","SARL_v6","SARL_v6hn2ptpy0","559ffa9bfdf99b0ad674856a","fixation","","","img/fixation.png","null","","","prac","","","","","","","","","","","","","","","","","","","",""
"345.30000001192093","116427","SARL_v6","SARL_v6hn2ptpy0","559ffa9bfdf99b0ad674856a","mixAttInfreqPrac","","","img/blue_2bandit_b2.png","68","img/blue_2bandit_b2.png","68","prac","","","3","","","","","","","","","","","","","","","","",""
"345.30000001192093","116895","SARL_v6","SARL_v6hn2ptpy0","559ffa9bfdf99b0ad674856a","infreqPrac_resp","","","img/blue_2bandit_b.png","68","img/orange_2bandit_b.png","68","prac","","","3","","","","","","","","","","","","","","","","",""
"null","117055","SARL_v6","SARL_v6hn2ptpy0","559ffa9bfdf99b0ad674856a","fixation","","","img/fixation.png","null","","","prac","","","","","","","","","","","","","","","","","","","",""
"361.5","117418","SARL_v6","SARL_v6hn2ptpy0","559ffa9bfdf99b0ad674856a","mixAttInfreqPrac","","","img/blue_2bandit_b2.png","68","img/blue_2bandit_b2.png","68","prac","","","4","","","","","","","","","","","","","","","","",""
"361.5","117859","SARL_v6","SARL_v6hn2ptpy0","559ffa9bfdf99b0ad674856a","infreqPrac_resp","","","img/blue_2bandit_b.png","68","img/orange_2bandit_b.png","68","prac","","","4","","","","","","","","","","","","","","","","",""
"null","118010","SARL_v6","SARL_v6hn2ptpy0","559ffa9bfdf99b0ad674856a","fixation","","","img/fixation.png","null","","","prac","","","","","","","","","","","","","","","","","","","",""
"352.39999997615814","118363","SARL_v6","SARL_v6hn2ptpy0","559ffa9bfdf99b0ad674856a","mixAttFreqPrac","","","img/orange_2bandit_b2.png","70","img/orange_2bandit_b2.png","70","prac","","","5","","","","","","","","","","","","","","","","",""
"352.39999997615814","118812","SARL_v6","SARL_v6hn2ptpy0","559ffa9bfdf99b0ad674856a","freqPrac_resp","","","img/orange_2bandit_b.png","70","img/orange_2bandit_b.png","70","prac","","","5","","","","","","","","","","","","","","","","",""
"null","118974","SARL_v6","SARL_v6hn2ptpy0","559ffa9bfdf99b0ad674856a","fixation","","","img/fixation.png","null","","","prac","","","","","","","","","","","","","","","","","","","",""
"456.4000000357628","119432","SARL_v6","SARL_v6hn2ptpy0","559ffa9bfdf99b0ad674856a","mixRLPractice","","","img/black_2bandit_b2.png","75","img/black_2bandit_b2.png","","prac","","","5","","","","","","","","","","","","","","","","",""
"null","120192","SARL_v6","SARL_v6hn2ptpy0","559ffa9bfdf99b0ad674856a","feedback","","","<div class=""veryhighPoints_sq""> 10 </div>","null","","na","prac","","","6","-14","10","-14","","","","","","","","","","","","","",""
"null","120357","SARL_v6","SARL_v6hn2ptpy0","559ffa9bfdf99b0ad674856a","fixation","","","img/fixation.png","null","","","prac","","","","","","","","","","","","","","","","","","","",""
"522.4000000357628","120880","SARL_v6","SARL_v6hn2ptpy0","559ffa9bfdf99b0ad674856a","mixAttFreqPrac","","","img/orange_2bandit_b2.png","68","img/orange_2bandit_b2.png","70","prac","","","7","","","","","","","","","","","","","","","","",""
"522.4000000357628","121167","SARL_v6","SARL_v6hn2ptpy0","559ffa9bfdf99b0ad674856a","freqPrac_resp","","","img/orange_2bandit_b.png","68","img/orange_2bandit_b.png","70","prac","","","7","","","","","","","","","","","","","","","","",""
"null","121332","SARL_v6","SARL_v6hn2ptpy0","559ffa9bfdf99b0ad674856a","fixation","","","img/fixation.png","null","","","prac","","","","","","","","","","","","","","","","","","","",""
"623.4000000357628","121956","SARL_v6","SARL_v6hn2ptpy0","559ffa9bfdf99b0ad674856a","mixAttInfreqPrac","","","img/blue_2bandit_b2.png","70","img/blue_2bandit_b2.png","68","prac","","","8","","","","","","","","","","","","","","","","",""
"623.4000000357628","122148","SARL_v6","SARL_v6hn2ptpy0","559ffa9bfdf99b0ad674856a","infreqPrac_resp","","","img/blue_2bandit_b.png","70","img/orange_2bandit_b.png","68","prac","","","8","","","","","","","","","","","","","","","","",""
"null","122314","SARL_v6","SARL_v6hn2ptpy0","559ffa9bfdf99b0ad674856a","fixation","","","img/fixation.png","null","","","prac","","","","","","","","","","","","","","","","","","","",""
"610.3000000119209","122925","SARL_v6","SARL_v6hn2ptpy0","559ffa9bfdf99b0ad674856a","mixAttFreqPrac","","","img/orange_2bandit_b2.png","70","img/orange_2bandit_b2.png","70","prac","","","9","","","","","","","","","","","","","","","","",""
"610.3000000119209","123128","SARL_v6","SARL_v6hn2ptpy0","559ffa9bfdf99b0ad674856a","freqPrac_resp","","","img/orange_2bandit_b.png","70","img/orange_2bandit_b.png","70","prac","","","9","","","","","","","","","","","","","","","","",""
"null","123280","SARL_v6","SARL_v6hn2ptpy0","559ffa9bfdf99b0ad674856a","fixation","","","img/fixation.png","null","","","prac","","","","","","","","","","","","","","","","","","","",""
"330.30000001192093","123611","SARL_v6","SARL_v6hn2ptpy0","559ffa9bfdf99b0ad674856a","mixAttFreqPrac","","","img/orange_2bandit_b2.png","70","img/orange_2bandit_b2.png","70","prac","","","10","","","","","","","","","","","","","","","","",""
"330.30000001192093","124094","SARL_v6","SARL_v6hn2ptpy0","559ffa9bfdf99b0ad674856a","freqPrac_resp","","","img/orange_2bandit_b.png","70","img/orange_2bandit_b.png","70","prac","","","10","","","","","","","","","","","","","","","","",""
"null","124258","SARL_v6","SARL_v6hn2ptpy0","559ffa9bfdf99b0ad674856a","fixation","","","img/fixation.png","null","","","prac","","","","","","","","","","","","","","","","","","","",""
"337.60000002384186","124597","SARL_v6","SARL_v6hn2ptpy0","559ffa9bfdf99b0ad674856a","mixAttInfreqPrac","","","img/blue_2bandit_b2.png","68","img/blue_2bandit_b2.png","68","prac","","","11","","","","","","","","","","","","","","","","",""
"337.60000002384186","125061","SARL_v6","SARL_v6hn2ptpy0","559ffa9bfdf99b0ad674856a","infreqPrac_resp","","","img/blue_2bandit_b.png","68","img/orange_2bandit_b.png","68","prac","","","11","","","","","","","","","","","","","","","","",""
"null","125224","SARL_v6","SARL_v6hn2ptpy0","559ffa9bfdf99b0ad674856a","fixation","","","img/fixation.png","null","","","prac","","","","","","","","","","","","","","","","","","","",""
"344.39999997615814","125569","SARL_v6","SARL_v6hn2ptpy0","559ffa9bfdf99b0ad674856a","mixRLPractice","","","img/black_2bandit_b2.png","75","img/black_2bandit_b2.png","","prac","","","11","","","","","","","","","","","","","","","","",""
"null","126322","SARL_v6","SARL_v6hn2ptpy0","559ffa9bfdf99b0ad674856a","feedback","","","<div class=""verylowPoints_sq""> -5 </div>","null","","na","prac","","","12","5","-5","5","","","","","","","","","","","","","",""
"null","126488","SARL_v6","SARL_v6hn2ptpy0","559ffa9bfdf99b0ad674856a","fixation","","","img/fixation.png","null","","","prac","","","","","","","","","","","","","","","","","","","",""
"6011.599999964237","132500","SARL_v6","SARL_v6hn2ptpy0","559ffa9bfdf99b0ad674856a","","","","","","","","prac","","","","","","","","","","","","","","","","","","","",""
"369.5999999642372","132871","SARL_v6","SARL_v6hn2ptpy0","559ffa9bfdf99b0ad674856a","freq","","","img/orange_2bandit_b2.png","70","","70","test","1","","1","","","","circle","square","1","1","1","1","","","","","","","",""
"null","133313","SARL_v6","SARL_v6hn2ptpy0","559ffa9bfdf99b0ad674856a","freq_resp","","","img/orange_2bandit_b.png","70","img/orange_2bandit_b.png","70","test","","","","","","","","","","","1","","","","","","","","",""
"null","133479","SARL_v6","SARL_v6hn2ptpy0","559ffa9bfdf99b0ad674856a","fixation","","","img/fixation.png","null","","","test","","","","","","","","","","","","","","","","","","","",""
"297.19999998807907","133777","SARL_v6","SARL_v6hn2ptpy0","559ffa9bfdf99b0ad674856a","freq","","","img/orange_2bandit_b2.png","70","","70","test","1","","2","","","","circle","square","2","2","1","1","","","","","","","",""
"null","134291","SARL_v6","SARL_v6hn2ptpy0","559ffa9bfdf99b0ad674856a","freq_resp","","","img/orange_2bandit_b.png","70","img/orange_2bandit_b.png","70","test","","","","","","","","","","","1","","","","","","","","",""
"null","134442","SARL_v6","SARL_v6hn2ptpy0","559ffa9bfdf99b0ad674856a","fixation","","","img/fixation.png","null","","","test","","","","","","","","","","","","","","","","","","","",""
"307.5999999642372","134751","SARL_v6","SARL_v6hn2ptpy0","559ffa9bfdf99b0ad674856a","freq","","","img/orange_2bandit_b2.png","70","","70","test","1","","3","","","","circle","square","3","3","1","1","","","","","","","",""
"null","135245","SARL_v6","SARL_v6hn2ptpy0","559ffa9bfdf99b0ad674856a","freq_resp","","","img/orange_2bandit_b.png","70","img/orange_2bandit_b.png","70","test","","","","","","","","","","","1","","","","","","","","",""
"null","135397","SARL_v6","SARL_v6hn2ptpy0","559ffa9bfdf99b0ad674856a","fixation","","","img/fixation.png","null","","","test","","","","","","","","","","","","","","","","","","","",""
"278.39999997615814","135676","SARL_v6","SARL_v6hn2ptpy0","559ffa9bfdf99b0ad674856a","infreq","","","img/blue_2bandit_b2.png","68","","68","test","1","","4","","","","circle","square","4","4","1","1","","","","","","","",""
"null","136201","SARL_v6","SARL_v6hn2ptpy0","559ffa9bfdf99b0ad674856a","infreq_resp","","","img/blue_2bandit_b.png","68","img/blue_2bandit_b.png","68","test","","","","","","","","","","","1","","","","","","","","",""
"null","136368","SARL_v6","SARL_v6hn2ptpy0","559ffa9bfdf99b0ad674856a","fixation","","","img/fixation.png","null","","","test","","","","","","","","","","","","","","","","","","","",""
"282.0999999642372","136651","SARL_v6","SARL_v6hn2ptpy0","559ffa9bfdf99b0ad674856a","freq","","","img/orange_2bandit_b2.png","68","","70","test","0","","5","","","","circle","square","5","5","1","0.8","","","","","","","",""
"null","137170","SARL_v6","SARL_v6hn2ptpy0","559ffa9bfdf99b0ad674856a","freq_resp","","","img/orange_2bandit_b.png","68","img/orange_2bandit_b.png","70","test","","","","","","","","","","","1","","","","","","","","",""
"null","137321","SARL_v6","SARL_v6hn2ptpy0","559ffa9bfdf99b0ad674856a","fixation","","","img/fixation.png","null","","","test","","","","","","","","","","","","","","","","","","","",""
"325.5999999642372","137648","SARL_v6","SARL_v6hn2ptpy0","559ffa9bfdf99b0ad674856a","freq","","","img/orange_2bandit_b2.png","68","","70","test","0","","6","","","","circle","square","6","6","1","0.6666666666666666","","","","","","","",""
"null","138134","SARL_v6","SARL_v6hn2ptpy0","559ffa9bfdf99b0ad674856a","freq_resp","","","img/orange_2bandit_b.png","68","img/orange_2bandit_b.png","70","test","","","","","","","","","","","1","","","","","","","","",""
"null","138285","SARL_v6","SARL_v6hn2ptpy0","559ffa9bfdf99b0ad674856a","fixation","","","img/fixation.png","null","","","test","","","","","","","","","","","","","","","","","","","",""
"585.5999999642372","138872","SARL_v6","SARL_v6hn2ptpy0","559ffa9bfdf99b0ad674856a","infreq","","","img/blue_2bandit_b2.png","68","","68","test","1","","7","","","","circle","square","7","7","1","0.7142857142857143","","","","","","","",""
"null","139099","SARL_v6","SARL_v6hn2ptpy0","559ffa9bfdf99b0ad674856a","infreq_resp","","","img/blue_2bandit_b.png","68","img/blue_2bandit_b.png","68","test","","","","","","","","","","","1","","","","","","","","",""
"null","139264","SARL_v6","SARL_v6hn2ptpy0","559ffa9bfdf99b0ad674856a","fixation","","","img/fixation.png","null","","","test","","","","","","","","","","","","","","","","","","","",""
"380.39999997615814","139645","SARL_v6","SARL_v6hn2ptpy0","559ffa9bfdf99b0ad674856a","freq","","","img/orange_2bandit_b2.png","70","","70","test","1","","8","","","","circle","square","8","8","1","0.75","","","","","","","",""
"null","140078","SARL_v6","SARL_v6hn2ptpy0","559ffa9bfdf99b0ad674856a","freq_resp","","","img/orange_2bandit_b.png","70","img/orange_2bandit_b.png","70","test","","","","","","","","","","","1","","","","","","","","",""
"null","140230","SARL_v6","SARL_v6hn2ptpy0","559ffa9bfdf99b0ad674856a","fixation","","","img/fixation.png","null","","","test","","","","","","","","","","","","","","","","","","","",""
"268.30000001192093","140499","SARL_v6","SARL_v6hn2ptpy0","559ffa9bfdf99b0ad674856a","freq","","","img/orange_2bandit_b2.png","70","","70","test","1","","9","","","","circle","square","9","9","1","0.7777777777777778","","","","","","","",""
"null","141045","SARL_v6","SARL_v6hn2ptpy0","559ffa9bfdf99b0ad674856a","freq_resp","","","img/orange_2bandit_b.png","70","img/orange_2bandit_b.png","70","test","","","","","","","","","","","1","","","","","","","","",""
"null","141196","SARL_v6","SARL_v6hn2ptpy0","559ffa9bfdf99b0ad674856a","fixation","","","img/fixation.png","null","","","test","","","","","","","","","","","","","","","","","","","",""
"298.69999998807907","141496","SARL_v6","SARL_v6hn2ptpy0","559ffa9bfdf99b0ad674856a","freq","","","img/orange_2bandit_b2.png","70","","70","test","1","","10","","","","circle","square","10","10","1","0.8","","","","","","","",""
"null","142013","SARL_v6","SARL_v6hn2ptpy0","559ffa9bfdf99b0ad674856a","freq_resp","","","img/orange_2bandit_b.png","70","img/orange_2bandit_b.png","70","test","","","","","","","","","","","1","","","","","","","","",""
"null","142178","SARL_v6","SARL_v6hn2ptpy0","559ffa9bfdf99b0ad674856a","fixation","","","img/fixation.png","null","","","test","","","","","","","","","","","","","","","","","","","",""
"318.30000001192093","142497","SARL_v6","SARL_v6hn2ptpy0","559ffa9bfdf99b0ad674856a","freq","","","img/orange_2bandit_b2.png","70","","70","test","1","","11","","","","circle","square","11","11","1","0.8181818181818182","","","","","","","",""
"null","142994","SARL_v6","SARL_v6hn2ptpy0","559ffa9bfdf99b0ad674856a","freq_resp","","","img/orange_2bandit_b.png","70","img/orange_2bandit_b.png","70","test","","","","","","","","","","","1","","","","","","","","",""
"null","143161","SARL_v6","SARL_v6hn2ptpy0","559ffa9bfdf99b0ad674856a","fixation","","","img/fixation.png","null","","","test","","","","","","","","","","","","","","","","","","","",""
"277.9000000357628","143440","SARL_v6","SARL_v6hn2ptpy0","559ffa9bfdf99b0ad674856a","freq","","","img/orange_2bandit_b2.png","70","","70","test","1","","12","","","","circle","square","12","12","1","0.8333333333333334","","","","","","","",""
"null","143975","SARL_v6","SARL_v6hn2ptpy0","559ffa9bfdf99b0ad674856a","freq_resp","","","img/orange_2bandit_b.png","70","img/orange_2bandit_b.png","70","test","","","","","","","","","","","1","","","","","","","","",""
"null","144127","SARL_v6","SARL_v6hn2ptpy0","559ffa9bfdf99b0ad674856a","fixation","","","img/fixation.png","null","","","test","","","","","","","","","","","","","","","","","","","",""
"286.69999998807907","144415","SARL_v6","SARL_v6hn2ptpy0","559ffa9bfdf99b0ad674856a","freq","","","img/orange_2bandit_b2.png","70","","70","test","1","","13","","","","circle","square","13","13","1","0.8461538461538461","","","","","","","",""
"null","144938","SARL_v6","SARL_v6hn2ptpy0","559ffa9bfdf99b0ad674856a","freq_resp","","","img/orange_2bandit_b.png","70","img/orange_2bandit_b.png","70","test","","","","","","","","","","","1","","","","","","","","",""
"null","145104","SARL_v6","SARL_v6hn2ptpy0","559ffa9bfdf99b0ad674856a","fixation","","","img/fixation.png","null","","","test","","","","","","","","","","","","","","","","","","","",""
"244.5","145350","SARL_v6","SARL_v6hn2ptpy0","559ffa9bfdf99b0ad674856a","freq","","","img/orange_2bandit_b2.png","70","","70","test","1","","14","","","","circle","square","14","14","1","0.8571428571428571","","","","","","","",""
"null","145919","SARL_v6","SARL_v6hn2ptpy0","559ffa9bfdf99b0ad674856a","freq_resp","","","img/orange_2bandit_b.png","70","img/orange_2bandit_b.png","70","test","","","","","","","","","","","1","","","","","","","","",""
"null","146071","SARL_v6","SARL_v6hn2ptpy0","559ffa9bfdf99b0ad674856a","fixation","","","img/fixation.png","null","","","test","","","","","","","","","","","","","","","","","","","",""
"265.19999998807907","146337","SARL_v6","SARL_v6hn2ptpy0","559ffa9bfdf99b0ad674856a","freq","","","img/orange_2bandit_b2.png","70","","70","test","1","","15","","","","circle","square","15","15","1","0.8666666666666667","","","","","","","",""
"null","146887","SARL_v6","SARL_v6hn2ptpy0","559ffa9bfdf99b0ad674856a","freq_resp","","","img/orange_2bandit_b.png","70","img/orange_2bandit_b.png","70","test","","","","","","","","","","","1","","","","","","","","",""
"null","147052","SARL_v6","SARL_v6hn2ptpy0","559ffa9bfdf99b0ad674856a","fixation","","","img/fixation.png","null","","","test","","","","","","","","","","","","","","","","","","","",""
"288.0999999642372","147341","SARL_v6","SARL_v6hn2ptpy0","559ffa9bfdf99b0ad674856a","infreq","","","img/blue_2bandit_b2.png","70","","68","test","0","","16","","","","circle","square","16","16","1","0.8125","","","","","","","",""
"null","147869","SARL_v6","SARL_v6hn2ptpy0","559ffa9bfdf99b0ad674856a","infreq_resp","","","img/blue_2bandit_b.png","70","img/blue_2bandit_b.png","68","test","","","","","","","","","","","1","","","","","","","","",""
"null","148034","SARL_v6","SARL_v6hn2ptpy0","559ffa9bfdf99b0ad674856a","fixation","","","img/fixation.png","null","","","test","","","","","","","","","","","","","","","","","","","",""
"368.5","148404","SARL_v6","SARL_v6hn2ptpy0","559ffa9bfdf99b0ad674856a","freq","","","img/orange_2bandit_b2.png","70","","70","test","1","","17","","","","circle","square","17","17","1","0.8235294117647058","","","","","","","",""
"null","148851","SARL_v6","SARL_v6hn2ptpy0","559ffa9bfdf99b0ad674856a","freq_resp","","","img/orange_2bandit_b.png","70","img/orange_2bandit_b.png","70","test","","","","","","","","","","","1","","","","","","","","",""
"null","149016","SARL_v6","SARL_v6hn2ptpy0","559ffa9bfdf99b0ad674856a","fixation","","","img/fixation.png","null","","","test","","","","","","","","","","","","","","","","","","","",""
"280.4000000357628","149297","SARL_v6","SARL_v6hn2ptpy0","559ffa9bfdf99b0ad674856a","freq","","","img/orange_2bandit_b2.png","70","","70","test","1","","18","","","","circle","square","18","18","1","0.8333333333333334","","","","","","","",""
"null","149826","SARL_v6","SARL_v6hn2ptpy0","559ffa9bfdf99b0ad674856a","freq_resp","","","img/orange_2bandit_b.png","70","img/orange_2bandit_b.png","70","test","","","","","","","","","","","1","","","","","","","","",""
"null","149992","SARL_v6","SARL_v6hn2ptpy0","559ffa9bfdf99b0ad674856a","fixation","","","img/fixation.png","null","","","test","","","","","","","","","","","","","","","","","","","",""
"243.20000004768372","150236","SARL_v6","SARL_v6hn2ptpy0","559ffa9bfdf99b0ad674856a","freq","","","img/orange_2bandit_b2.png","70","","70","test","1","","19","","","","circle","square","19","19","1","0.8421052631578947","","","","","","","",""
"null","150805","SARL_v6","SARL_v6hn2ptpy0","559ffa9bfdf99b0ad674856a","freq_resp","","","img/orange_2bandit_b.png","70","img/orange_2bandit_b.png","70","test","","","","","","","","","","","1","","","","","","","","",""
"null","150970","SARL_v6","SARL_v6hn2ptpy0","559ffa9bfdf99b0ad674856a","fixation","","","img/fixation.png","null","","","test","","","","","","","","","","","","","","","","","","","",""
"255.19999998807907","151226","SARL_v6","SARL_v6hn2ptpy0","559ffa9bfdf99b0ad674856a","freq","","","img/orange_2bandit_b2.png","70","","70","test","1","","20","","","","circle","square","20","20","1","0.85","","","","","","","",""
"null","151784","SARL_v6","SARL_v6hn2ptpy0","559ffa9bfdf99b0ad674856a","freq_resp","","","img/orange_2bandit_b.png","70","img/orange_2bandit_b.png","70","test","","","","","","","","","","","1","","","","","","","","",""
"null","151950","SARL_v6","SARL_v6hn2ptpy0","559ffa9bfdf99b0ad674856a","fixation","","","img/fixation.png","null","","","test","","","","","","","","","","","","","","","","","","","",""
"506.0999999642372","152457","SARL_v6","SARL_v6hn2ptpy0","559ffa9bfdf99b0ad674856a","rl","","","img/black_2bandit_b2.png","75","","0","test","","","21","","","-3","circle","square","","0","1","","75","-3","-3","-3","-3","square","1","0"
"null","153209","SARL_v6","SARL_v6hn2ptpy0","559ffa9bfdf99b0ad674856a","feedback","","","<div class=""verylowPoints_sq""> -3 </div>","null","","na","test","","","NaN","","","","","","","","1","","75","","","","","","1",""
"709.9000000357628","153920","SARL_v6","SARL_v6hn2ptpy0","559ffa9bfdf99b0ad674856a","freq","","","img/orange_2bandit_b2.png","70","","70","test","1","","22","","","","circle","square","21","1","2","0.8571428571428571","","","","","","","",""
"null","154017","SARL_v6","SARL_v6hn2ptpy0","559ffa9bfdf99b0ad674856a","freq_resp","","","img/orange_2bandit_b.png","70","img/orange_2bandit_b.png","70","test","","","","","","","","","","","2","","","","","","","","",""
"null","154169","SARL_v6","SARL_v6hn2ptpy0","559ffa9bfdf99b0ad674856a","fixation","","","img/fixation.png","null","","","test","","","","","","","","","","","","","","","","","","","",""
"550.3999999761581","154720","SARL_v6","SARL_v6hn2ptpy0","559ffa9bfdf99b0ad674856a","freq","","","img/orange_2bandit_b2.png","70","","70","test","1","","23","","","","circle","square","22","2","2","0.8636363636363636","","","","","","","",""
"null","154981","SARL_v6","SARL_v6hn2ptpy0","559ffa9bfdf99b0ad674856a","freq_resp","","","img/orange_2bandit_b.png","70","img/orange_2bandit_b.png","70","test","","","","","","","","","","","2","","","","","","","","",""
"null","155146","SARL_v6","SARL_v6hn2ptpy0","559ffa9bfdf99b0ad674856a","fixation","","","img/fixation.png","null","","","test","","","","","","","","","","","","","","","","","","","",""
"406.0999999642372","155553","SARL_v6","SARL_v6hn2ptpy0","559ffa9bfdf99b0ad674856a","freq","","","img/orange_2bandit_b2.png","70","","70","test","1","","24","","","","circle","square","23","3","2","0.8695652173913043","","","","","","","",""
"null","155958","SARL_v6","SARL_v6hn2ptpy0","559ffa9bfdf99b0ad674856a","freq_resp","","","img/orange_2bandit_b.png","70","img/orange_2bandit_b.png","70","test","","","","","","","","","","","2","","","","","","","","",""
"null","156124","SARL_v6","SARL_v6hn2ptpy0","559ffa9bfdf99b0ad674856a","fixation","","","img/fixation.png","null","","","test","","","","","","","","","","","","","","","","","","","",""
"308.30000001192093","156433","SARL_v6","SARL_v6hn2ptpy0","559ffa9bfdf99b0ad674856a","freq","","","img/orange_2bandit_b2.png","70","","70","test","1","","25","","","","circle","square","24","4","2","0.875","","","","","","","",""
"null","156937","SARL_v6","SARL_v6hn2ptpy0","559ffa9bfdf99b0ad674856a","freq_resp","","","img/orange_2bandit_b.png","70","img/orange_2bandit_b.png","70","test","","","","","","","","","","","2","","","","","","","","",""
"null","157089","SARL_v6","SARL_v6hn2ptpy0","559ffa9bfdf99b0ad674856a","fixation","","","img/fixation.png","null","","","test","","","","","","","","","","","","","","","","","","","",""
"270.30000001192093","157360","SARL_v6","SARL_v6hn2ptpy0","559ffa9bfdf99b0ad674856a","freq","","","img/orange_2bandit_b2.png","70","","70","test","1","","26","","","","circle","square","25","5","2","0.88","","","","","","","",""
"null","157900","SARL_v6","SARL_v6hn2ptpy0","559ffa9bfdf99b0ad674856a","freq_resp","","","img/orange_2bandit_b.png","70","img/orange_2bandit_b.png","70","test","","","","","","","","","","","2","","","","","","","","",""
"null","158067","SARL_v6","SARL_v6hn2ptpy0","559ffa9bfdf99b0ad674856a","fixation","","","img/fixation.png","null","","","test","","","","","","","","","","","","","","","","","","","",""
"259.80000001192093","158328","SARL_v6","SARL_v6hn2ptpy0","559ffa9bfdf99b0ad674856a","freq","","","img/orange_2bandit_b2.png","70","","70","test","1","","27","","","","circle","square","26","6","2","0.8846153846153846","","","","","","","",""
"null","158881","SARL_v6","SARL_v6hn2ptpy0","559ffa9bfdf99b0ad674856a","freq_resp","","","img/orange_2bandit_b.png","70","img/orange_2bandit_b.png","70","test","","","","","","","","","","","2","","","","","","","","",""
"null","159046","SARL_v6","SARL_v6hn2ptpy0","559ffa9bfdf99b0ad674856a","fixation","","","img/fixation.png","null","","","test","","","","","","","","","","","","","","","","","","","",""
"236.20000004768372","159283","SARL_v6","SARL_v6hn2ptpy0","559ffa9bfdf99b0ad674856a","freq","","","img/orange_2bandit_b2.png","70","","70","test","1","","28","","","","circle","square","27","7","2","0.8888888888888888","","","","","","","",""
"null","159849","SARL_v6","SARL_v6hn2ptpy0","559ffa9bfdf99b0ad674856a","freq_resp","","","img/orange_2bandit_b.png","70","img/orange_2bandit_b.png","70","test","","","","","","","","","","","2","","","","","","","","",""
"null","160015","SARL_v6","SARL_v6hn2ptpy0","559ffa9bfdf99b0ad674856a","fixation","","","img/fixation.png","null","","","test","","","","","","","","","","","","","","","","","","","",""
"215.19999998807907","160231","SARL_v6","SARL_v6hn2ptpy0","559ffa9bfdf99b0ad674856a","freq","","","img/orange_2bandit_b2.png","70","","70","test","1","","29","","","","circle","square","28","8","2","0.8928571428571429","","","","","","","",""
"null","160828","SARL_v6","SARL_v6hn2ptpy0","559ffa9bfdf99b0ad674856a","freq_resp","","","img/orange_2bandit_b.png","70","img/orange_2bandit_b.png","70","test","","","","","","","","","","","2","","","","","","","","",""
"null","160993","SARL_v6","SARL_v6hn2ptpy0","559ffa9bfdf99b0ad674856a","fixation","","","img/fixation.png","null","","","test","","","","","","","","","","","","","","","","","","","",""
"238.5","161233","SARL_v6","SARL_v6hn2ptpy0","559ffa9bfdf99b0ad674856a","freq","","","img/orange_2bandit_b2.png","70","","70","test","1","","30","","","","circle","square","29","9","2","0.896551724137931","","","","","","","",""
"null","161809","SARL_v6","SARL_v6hn2ptpy0","559ffa9bfdf99b0ad674856a","freq_resp","","","img/orange_2bandit_b.png","70","img/orange_2bandit_b.png","70","test","","","","","","","","","","","2","","","","","","","","",""
"null","161975","SARL_v6","SARL_v6hn2ptpy0","559ffa9bfdf99b0ad674856a","fixation","","","img/fixation.png","null","","","test","","","","","","","","","","","","","","","","","","","",""
"233.5","162209","SARL_v6","SARL_v6hn2ptpy0","559ffa9bfdf99b0ad674856a","freq","","","img/orange_2bandit_b2.png","70","","70","test","1","","31","","","","circle","square","30","10","2","0.9","","","","","","","",""
"null","162785","SARL_v6","SARL_v6hn2ptpy0","559ffa9bfdf99b0ad674856a","freq_resp","","","img/orange_2bandit_b.png","70","img/orange_2bandit_b.png","70","test","","","","","","","","","","","2","","","","","","","","",""
"null","162949","SARL_v6","SARL_v6hn2ptpy0","559ffa9bfdf99b0ad674856a","fixation","","","img/fixation.png","null","","","test","","","","","","","","","","","","","","","","","","","",""
"242.5999999642372","163193","SARL_v6","SARL_v6hn2ptpy0","559ffa9bfdf99b0ad674856a","freq","","","img/orange_2bandit_b2.png","70","","70","test","1","","32","","","","circle","square","31","11","2","0.9032258064516129","","","","","","","",""
"null","163752","SARL_v6","SARL_v6hn2ptpy0","559ffa9bfdf99b0ad674856a","freq_resp","","","img/orange_2bandit_b.png","70","img/orange_2bandit_b.png","70","test","","","","","","","","","","","2","","","","","","","","",""
"null","163904","SARL_v6","SARL_v6hn2ptpy0","559ffa9bfdf99b0ad674856a","fixation","","","img/fixation.png","null","","","test","","","","","","","","","","","","","","","","","","","",""
"266.9000000357628","164172","SARL_v6","SARL_v6hn2ptpy0","559ffa9bfdf99b0ad674856a","freq","","","img/orange_2bandit_b2.png","70","","70","test","1","","33","","","","circle","square","32","12","2","0.90625","","","","","","","",""
"null","164713","SARL_v6","SARL_v6hn2ptpy0","559ffa9bfdf99b0ad674856a","freq_resp","","","img/orange_2bandit_b.png","70","img/orange_2bandit_b.png","70","test","","","","","","","","","","","2","","","","","","","","",""
"null","164879","SARL_v6","SARL_v6hn2ptpy0","559ffa9bfdf99b0ad674856a","fixation","","","img/fixation.png","null","","","test","","","","","","","","","","","","","","","","","","","",""
"255.5","165136","SARL_v6","SARL_v6hn2ptpy0","559ffa9bfdf99b0ad674856a","freq","","","img/orange_2bandit_b2.png","70","","70","test","1","","34","","","","circle","square","33","13","2","0.9090909090909091","","","","","","","",""
"null","165690","SARL_v6","SARL_v6hn2ptpy0","559ffa9bfdf99b0ad674856a","freq_resp","","","img/orange_2bandit_b.png","70","img/orange_2bandit_b.png","70","test","","","","","","","","","","","2","","","","","","","","",""
"null","165842","SARL_v6","SARL_v6hn2ptpy0","559ffa9bfdf99b0ad674856a","fixation","","","img/fixation.png","null","","","test","","","","","","","","","","","","","","","","","","","",""
"240.30000001192093","166083","SARL_v6","SARL_v6hn2ptpy0","559ffa9bfdf99b0ad674856a","freq","","","img/orange_2bandit_b2.png","70","","70","test","1","","35","","","","circle","square","34","14","2","0.9117647058823529","","","","","","","",""
"null","166652","SARL_v6","SARL_v6hn2ptpy0","559ffa9bfdf99b0ad674856a","freq_resp","","","img/orange_2bandit_b.png","70","img/orange_2bandit_b.png","70","test","","","","","","","","","","","2","","","","","","","","",""
"null","166817","SARL_v6","SARL_v6hn2ptpy0","559ffa9bfdf99b0ad674856a","fixation","","","img/fixation.png","null","","","test","","","","","","","","","","","","","","","","","","","",""
"240.79999995231628","167059","SARL_v6","SARL_v6hn2ptpy0","559ffa9bfdf99b0ad674856a","freq","","","img/orange_2bandit_b2.png","70","","70","test","1","","36","","","","circle","square","35","15","2","0.9142857142857143","","","","","","","",""
"null","167630","SARL_v6","SARL_v6hn2ptpy0","559ffa9bfdf99b0ad674856a","freq_resp","","","img/orange_2bandit_b.png","70","img/orange_2bandit_b.png","70","test","","","","","","","","","","","2","","","","","","","","",""
"null","167783","SARL_v6","SARL_v6hn2ptpy0","559ffa9bfdf99b0ad674856a","fixation","","","img/fixation.png","null","","","test","","","","","","","","","","","","","","","","","","","",""
"246.30000001192093","168030","SARL_v6","SARL_v6hn2ptpy0","559ffa9bfdf99b0ad674856a","freq","","","img/orange_2bandit_b2.png","70","","70","test","1","","37","","","","circle","square","36","16","2","0.9166666666666666","","","","","","","",""
"null","168592","SARL_v6","SARL_v6hn2ptpy0","559ffa9bfdf99b0ad674856a","freq_resp","","","img/orange_2bandit_b.png","70","img/orange_2bandit_b.png","70","test","","","","","","","","","","","2","","","","","","","","",""
"null","168744","SARL_v6","SARL_v6hn2ptpy0","559ffa9bfdf99b0ad674856a","fixation","","","img/fixation.png","null","","","test","","","","","","","","","","","","","","","","","","","",""
"254.5","168999","SARL_v6","SARL_v6hn2ptpy0","559ffa9bfdf99b0ad674856a","infreq","","","img/blue_2bandit_b2.png","70","","68","test","0","","38","","","","circle","square","37","17","2","0.8918918918918919","","","","","","","",""
"null","169546","SARL_v6","SARL_v6hn2ptpy0","559ffa9bfdf99b0ad674856a","infreq_resp","","","img/blue_2bandit_b.png","70","img/blue_2bandit_b.png","68","test","","","","","","","","","","","2","","","","","","","","",""
"null","169707","SARL_v6","SARL_v6hn2ptpy0","559ffa9bfdf99b0ad674856a","fixation","","","img/fixation.png","null","","","test","","","","","","","","","","","","","","","","","","","",""
"383.2000000476837","170091","SARL_v6","SARL_v6hn2ptpy0","559ffa9bfdf99b0ad674856a","freq","","","img/orange_2bandit_b2.png","70","","70","test","1","","39","","","","circle","square","38","18","2","0.8947368421052632","","","","","","","",""
"null","170519","SARL_v6","SARL_v6hn2ptpy0","559ffa9bfdf99b0ad674856a","freq_resp","","","img/orange_2bandit_b.png","70","img/orange_2bandit_b.png","70","test","","","","","","","","","","","2","","","","","","","","",""
"null","170683","SARL_v6","SARL_v6hn2ptpy0","559ffa9bfdf99b0ad674856a","fixation","","","img/fixation.png","null","","","test","","","","","","","","","","","","","","","","","","","",""
"404.60000002384186","171089","SARL_v6","SARL_v6hn2ptpy0","559ffa9bfdf99b0ad674856a","freq","","","img/orange_2bandit_b2.png","70","","70","test","1","","40","","","","circle","square","39","19","2","0.8974358974358975","","","","","","","",""
"null","171497","SARL_v6","SARL_v6hn2ptpy0","559ffa9bfdf99b0ad674856a","freq_resp","","","img/orange_2bandit_b.png","70","img/orange_2bandit_b.png","70","test","","","","","","","","","","","2","","","","","","","","",""
"null","171648","SARL_v6","SARL_v6hn2ptpy0","559ffa9bfdf99b0ad674856a","fixation","","","img/fixation.png","null","","","test","","","","","","","","","","","","","","","","","","","",""
"253.69999998807907","171903","SARL_v6","SARL_v6hn2ptpy0","559ffa9bfdf99b0ad674856a","freq","","","img/orange_2bandit_b2.png","70","","70","test","1","","41","","","","circle","square","40","20","2","0.9","","","","","","","",""
"null","172460","SARL_v6","SARL_v6hn2ptpy0","559ffa9bfdf99b0ad674856a","freq_resp","","","img/orange_2bandit_b.png","70","img/orange_2bandit_b.png","70","test","","","","","","","","","","","2","","","","","","","","",""
"null","172612","SARL_v6","SARL_v6hn2ptpy0","559ffa9bfdf99b0ad674856a","fixation","","","img/fixation.png","null","","","test","","","","","","","","","","","","","","","","","","","",""
"242","172855","SARL_v6","SARL_v6hn2ptpy0","559ffa9bfdf99b0ad674856a","freq","","","img/orange_2bandit_b2.png","70","","70","test","1","","42","","","","circle","square","41","21","2","0.9024390243902439","","","","","","","",""
"null","173424","SARL_v6","SARL_v6hn2ptpy0","559ffa9bfdf99b0ad674856a","freq_resp","","","img/orange_2bandit_b.png","70","img/orange_2bandit_b.png","70","test","","","","","","","","","","","2","","","","","","","","",""
"null","173590","SARL_v6","SARL_v6hn2ptpy0","559ffa9bfdf99b0ad674856a","fixation","","","img/fixation.png","null","","","test","","","","","","","","","","","","","","","","","","","",""
"254.10000002384186","173845","SARL_v6","SARL_v6hn2ptpy0","559ffa9bfdf99b0ad674856a","freq","","","img/orange_2bandit_b2.png","70","","70","test","1","","43","","","","circle","square","42","22","2","0.9047619047619048","","","","","","","",""
"null","174405","SARL_v6","SARL_v6hn2ptpy0","559ffa9bfdf99b0ad674856a","freq_resp","","","img/orange_2bandit_b.png","70","img/orange_2bandit_b.png","70","test","","","","","","","","","","","2","","","","","","","","",""
"null","174556","SARL_v6","SARL_v6hn2ptpy0","559ffa9bfdf99b0ad674856a","fixation","","","img/fixation.png","null","","","test","","","","","","","","","","","","","","","","","","","",""
"225.69999998807907","174783","SARL_v6","SARL_v6hn2ptpy0","559ffa9bfdf99b0ad674856a","freq","","","img/orange_2bandit_b2.png","70","","70","test","1","","44","","","","circle","square","43","23","2","0.9069767441860465","","","","","","","",""
"null","175364","SARL_v6","SARL_v6hn2ptpy0","559ffa9bfdf99b0ad674856a","freq_resp","","","img/orange_2bandit_b.png","70","img/orange_2bandit_b.png","70","test","","","","","","","","","","","2","","","","","","","","",""
"null","175517","SARL_v6","SARL_v6hn2ptpy0","559ffa9bfdf99b0ad674856a","fixation","","","img/fixation.png","null","","","test","","","","","","","","","","","","","","","","","","","",""
"264.19999998807907","175782","SARL_v6","SARL_v6hn2ptpy0","559ffa9bfdf99b0ad674856a","freq","","","img/orange_2bandit_b2.png","70","","70","test","1","","45","","","","circle","square","44","24","2","0.9090909090909091","","","","","","","",""
"null","176332","SARL_v6","SARL_v6hn2ptpy0","559ffa9bfdf99b0ad674856a","freq_resp","","","img/orange_2bandit_b.png","70","img/orange_2bandit_b.png","70","test","","","","","","","","","","","2","","","","","","","","",""
"null","176484","SARL_v6","SARL_v6hn2ptpy0","559ffa9bfdf99b0ad674856a","fixation","","","img/fixation.png","null","","","test","","","","","","","","","","","","","","","","","","","",""
"230.19999998807907","176715","SARL_v6","SARL_v6hn2ptpy0","559ffa9bfdf99b0ad674856a","infreq","","","img/blue_2bandit_b2.png","70","","68","test","0","","46","","","","circle","square","45","25","2","0.8888888888888888","","","","","","","",""
"null","177296","SARL_v6","SARL_v6hn2ptpy0","559ffa9bfdf99b0ad674856a","infreq_resp","","","img/blue_2bandit_b.png","70","img/blue_2bandit_b.png","68","test","","","","","","","","","","","2","","","","","","","","",""
"null","177461","SARL_v6","SARL_v6hn2ptpy0","559ffa9bfdf99b0ad674856a","fixation","","","img/fixation.png","null","","","test","","","","","","","","","","","","","","","","","","","",""
"361.19999998807907","177823","SARL_v6","SARL_v6hn2ptpy0","559ffa9bfdf99b0ad674856a","freq","","","img/orange_2bandit_b2.png","70","","70","test","1","","47","","","","circle","square","46","26","2","0.8913043478260869","","","","","","","",""
"null","178275","SARL_v6","SARL_v6hn2ptpy0","559ffa9bfdf99b0ad674856a","freq_resp","","","img/orange_2bandit_b.png","70","img/orange_2bandit_b.png","70","test","","","","","","","","","","","2","","","","","","","","",""
"null","178441","SARL_v6","SARL_v6hn2ptpy0","559ffa9bfdf99b0ad674856a","fixation","","","img/fixation.png","null","","","test","","","","","","","","","","","","","","","","","","","",""
"631.4000000357628","179074","SARL_v6","SARL_v6hn2ptpy0","559ffa9bfdf99b0ad674856a","rl","","","img/black_2bandit_b2.png","75","","0","test","","","48","","","-5","circle","square","","0","2","","75","-8","-5","-8","-5","square","2","0"
"null","179825","SARL_v6","SARL_v6hn2ptpy0","559ffa9bfdf99b0ad674856a","feedback","","","<div class=""verylowPoints_sq""> -5 </div>","null","","na","test","","","NaN","","","","","","","","2","","75","","","","","","2",""
"580.6999999880791","180407","SARL_v6","SARL_v6hn2ptpy0","559ffa9bfdf99b0ad674856a","freq","","","img/orange_2bandit_b2.png","70","","70","test","1","","49","","","","circle","square","47","1","3","0.8936170212765957","","","","","","","",""
"null","180641","SARL_v6","SARL_v6hn2ptpy0","559ffa9bfdf99b0ad674856a","freq_resp","","","img/orange_2bandit_b.png","70","img/orange_2bandit_b.png","70","test","","","","","","","","","","","3","","","","","","","","",""
"null","180807","SARL_v6","SARL_v6hn2ptpy0","559ffa9bfdf99b0ad674856a","fixation","","","img/fixation.png","null","","","test","","","","","","","","","","","","","","","","","","","",""
"501.0999999642372","181310","SARL_v6","SARL_v6hn2ptpy0","559ffa9bfdf99b0ad674856a","freq","","","img/orange_2bandit_b2.png","70","","70","test","1","","50","","","","circle","square","48","2","3","0.8958333333333334","","","","","","","",""
"null","181610","SARL_v6","SARL_v6hn2ptpy0","559ffa9bfdf99b0ad674856a","freq_resp","","","img/orange_2bandit_b.png","70","img/orange_2bandit_b.png","70","test","","","","","","","","","","","3","","","","","","","","",""
"null","181761","SARL_v6","SARL_v6hn2ptpy0","559ffa9bfdf99b0ad674856a","fixation","","","img/fixation.png","null","","","test","","","","","","","","","","","","","","","","","","","",""
"292.7000000476837","182055","SARL_v6","SARL_v6hn2ptpy0","559ffa9bfdf99b0ad674856a","freq","","","img/orange_2bandit_b2.png","70","","70","test","1","","51","","","","circle","square","49","3","3","0.8979591836734694","","","","","","","",""
"null","182566","SARL_v6","SARL_v6hn2ptpy0","559ffa9bfdf99b0ad674856a","freq_resp","","","img/orange_2bandit_b.png","70","img/orange_2bandit_b.png","70","test","","","","","","","","","","","3","","","","","","","","",""
"null","182718","SARL_v6","SARL_v6hn2ptpy0","559ffa9bfdf99b0ad674856a","fixation","","","img/fixation.png","null","","","test","","","","","","","","","","","","","","","","","","","",""
"272.30000001192093","182991","SARL_v6","SARL_v6hn2ptpy0","559ffa9bfdf99b0ad674856a","freq","","","img/orange_2bandit_b2.png","70","","70","test","1","","52","","","","circle","square","50","4","3","0.9","","","","","","","",""
"null","183531","SARL_v6","SARL_v6hn2ptpy0","559ffa9bfdf99b0ad674856a","freq_resp","","","img/orange_2bandit_b.png","70","img/orange_2bandit_b.png","70","test","","","","","","","","","","","3","","","","","","","","",""
"null","183683","SARL_v6","SARL_v6hn2ptpy0","559ffa9bfdf99b0ad674856a","fixation","","","img/fixation.png","null","","","test","","","","","","","","","","","","","","","","","","","",""
"251.5999999642372","183935","SARL_v6","SARL_v6hn2ptpy0","559ffa9bfdf99b0ad674856a","freq","","","img/orange_2bandit_b2.png","70","","70","test","1","","53","","","","circle","square","51","5","3","0.9019607843137255","","","","","","","",""
"null","184494","SARL_v6","SARL_v6hn2ptpy0","559ffa9bfdf99b0ad674856a","freq_resp","","","img/orange_2bandit_b.png","70","img/orange_2bandit_b.png","70","test","","","","","","","","","","","3","","","","","","","","",""
"null","184659","SARL_v6","SARL_v6hn2ptpy0","559ffa9bfdf99b0ad674856a","fixation","","","img/fixation.png","null","","","test","","","","","","","","","","","","","","","","","","","",""
"218.30000001192093","184878","SARL_v6","SARL_v6hn2ptpy0","559ffa9bfdf99b0ad674856a","freq","","","img/orange_2bandit_b2.png","70","","70","test","1","","54","","","","circle","square","52","6","3","0.9038461538461539","","","","","","","",""
"null","185470","SARL_v6","SARL_v6hn2ptpy0","559ffa9bfdf99b0ad674856a","freq_resp","","","img/orange_2bandit_b.png","70","img/orange_2bandit_b.png","70","test","","","","","","","","","","","3","","","","","","","","",""
"null","185636","SARL_v6","SARL_v6hn2ptpy0","559ffa9bfdf99b0ad674856a","fixation","","","img/fixation.png","null","","","test","","","","","","","","","","","","","","","","","","","",""
"218.10000002384186","185855","SARL_v6","SARL_v6hn2ptpy0","559ffa9bfdf99b0ad674856a","freq","","","img/orange_2bandit_b2.png","70","","70","test","1","","55","","","","circle","square","53","7","3","0.9056603773584906","","","","","","","",""
"null","186448","SARL_v6","SARL_v6hn2ptpy0","559ffa9bfdf99b0ad674856a","freq_resp","","","img/orange_2bandit_b.png","70","img/orange_2bandit_b.png","70","test","","","","","","","","","","","3","","","","","","","","",""
"null","186600","SARL_v6","SARL_v6hn2ptpy0","559ffa9bfdf99b0ad674856a","fixation","","","img/fixation.png","null","","","test","","","","","","","","","","","","","","","","","","","",""
"431.5","187032","SARL_v6","SARL_v6hn2ptpy0","559ffa9bfdf99b0ad674856a","infreq","","","img/blue_2bandit_b2.png","68","","68","test","1","","56","","","","circle","square","54","8","3","0.9074074074074074","","","","","","","",""
"null","187411","SARL_v6","SARL_v6hn2ptpy0","559ffa9bfdf99b0ad674856a","infreq_resp","","","img/blue_2bandit_b.png","68","img/blue_2bandit_b.png","68","test","","","","","","","","","","","3","","","","","","","","",""
"null","187577","SARL_v6","SARL_v6hn2ptpy0","559ffa9bfdf99b0ad674856a","fixation","","","img/fixation.png","null","","","test","","","","","","","","","","","","","","","","","","","",""
"346.19999998807907","187924","SARL_v6","SARL_v6hn2ptpy0","559ffa9bfdf99b0ad674856a","freq","","","img/orange_2bandit_b2.png","70","","70","test","1","","57","","","","circle","square","55","9","3","0.9090909090909091","","","","","","","",""
"null","188393","SARL_v6","SARL_v6hn2ptpy0","559ffa9bfdf99b0ad674856a","freq_resp","","","img/orange_2bandit_b.png","70","img/orange_2bandit_b.png","70","test","","","","","","","","","","","3","","","","","","","","",""
"null","188558","SARL_v6","SARL_v6hn2ptpy0","559ffa9bfdf99b0ad674856a","fixation","","","img/fixation.png","null","","","test","","","","","","","","","","","","","","","","","","","",""
"360.5","188919","SARL_v6","SARL_v6hn2ptpy0","559ffa9bfdf99b0ad674856a","freq","","","img/orange_2bandit_b2.png","68","","70","test","0","","58","","","","circle","square","56","10","3","0.8928571428571429","","","","","","","",""
"null","189360","SARL_v6","SARL_v6hn2ptpy0","559ffa9bfdf99b0ad674856a","freq_resp","","","img/orange_2bandit_b.png","68","img/orange_2bandit_b.png","70","test","","","","","","","","","","","3","","","","","","","","",""
"null","189521","SARL_v6","SARL_v6hn2ptpy0","559ffa9bfdf99b0ad674856a","fixation","","","img/fixation.png","null","","","test","","","","","","","","","","","","","","","","","","","",""
"316","189838","SARL_v6","SARL_v6hn2ptpy0","559ffa9bfdf99b0ad674856a","freq","","","img/orange_2bandit_b2.png","68","","70","test","0","","59","","","","circle","square","57","11","3","0.8771929824561403","","","","","","","",""
"null","190335","SARL_v6","SARL_v6hn2ptpy0","559ffa9bfdf99b0ad674856a","freq_resp","","","img/orange_2bandit_b.png","68","img/orange_2bandit_b.png","70","test","","","","","","","","","","","3","","","","","","","","",""
"null","190487","SARL_v6","SARL_v6hn2ptpy0","559ffa9bfdf99b0ad674856a","fixation","","","img/fixation.png","null","","","test","","","","","","","","","","","","","","","","","","","",""
"305.39999997615814","190793","SARL_v6","SARL_v6hn2ptpy0","559ffa9bfdf99b0ad674856a","freq","","","img/orange_2bandit_b2.png","70","","70","test","1","","60","","","","circle","square","58","12","3","0.8793103448275862","","","","","","","",""
"null","191289","SARL_v6","SARL_v6hn2ptpy0","559ffa9bfdf99b0ad674856a","freq_resp","","","img/orange_2bandit_b.png","70","img/orange_2bandit_b.png","70","test","","","","","","","","","","","3","","","","","","","","",""
"null","191440","SARL_v6","SARL_v6hn2ptpy0","559ffa9bfdf99b0ad674856a","fixation","","","img/fixation.png","null","","","test","","","","","","","","","","","","","","","","","","","",""
"287.69999998807907","191729","SARL_v6","SARL_v6hn2ptpy0","559ffa9bfdf99b0ad674856a","freq","","","img/orange_2bandit_b2.png","70","","70","test","1","","61","","","","circle","square","59","13","3","0.8813559322033898","","","","","","","",""
"null","192249","SARL_v6","SARL_v6hn2ptpy0","559ffa9bfdf99b0ad674856a","freq_resp","","","img/orange_2bandit_b.png","70","img/orange_2bandit_b.png","70","test","","","","","","","","","","","3","","","","","","","","",""
"null","192401","SARL_v6","SARL_v6hn2ptpy0","559ffa9bfdf99b0ad674856a","fixation","","","img/fixation.png","null","","","test","","","","","","","","","","","","","","","","","","","",""
"234.39999997615814","192636","SARL_v6","SARL_v6hn2ptpy0","559ffa9bfdf99b0ad674856a","freq","","","img/orange_2bandit_b2.png","70","","70","test","1","","62","","","","circle","square","60","14","3","0.8833333333333333","","","","","","","",""
"null","193214","SARL_v6","SARL_v6hn2ptpy0","559ffa9bfdf99b0ad674856a","freq_resp","","","img/orange_2bandit_b.png","70","img/orange_2bandit_b.png","70","test","","","","","","","","","","","3","","","","","","","","",""
"null","193367","SARL_v6","SARL_v6hn2ptpy0","559ffa9bfdf99b0ad674856a","fixation","","","img/fixation.png","null","","","test","","","","","","","","","","","","","","","","","","","",""
"276.5999999642372","193644","SARL_v6","SARL_v6hn2ptpy0","559ffa9bfdf99b0ad674856a","freq","","","img/orange_2bandit_b2.png","70","","70","test","1","","63","","","","circle","square","61","15","3","0.8852459016393442","","","","","","","",""
"null","194176","SARL_v6","SARL_v6hn2ptpy0","559ffa9bfdf99b0ad674856a","freq_resp","","","img/orange_2bandit_b.png","70","img/orange_2bandit_b.png","70","test","","","","","","","","","","","3","","","","","","","","",""
"null","194341","SARL_v6","SARL_v6hn2ptpy0","559ffa9bfdf99b0ad674856a","fixation","","","img/fixation.png","null","","","test","","","","","","","","","","","","","","","","","","","",""
"224.4000000357628","194567","SARL_v6","SARL_v6hn2ptpy0","559ffa9bfdf99b0ad674856a","freq","","","img/orange_2bandit_b2.png","70","","70","test","1","","64","","","","circle","square","62","16","3","0.8870967741935484","","","","","","","",""
"null","195156","SARL_v6","SARL_v6hn2ptpy0","559ffa9bfdf99b0ad674856a","freq_resp","","","img/orange_2bandit_b.png","70","img/orange_2bandit_b.png","70","test","","","","","","","","","","","3","","","","","","","","",""
"null","195308","SARL_v6","SARL_v6hn2ptpy0","559ffa9bfdf99b0ad674856a","fixation","","","img/fixation.png","null","","","test","","","","","","","","","","","","","","","","","","","",""
"259.89999997615814","195569","SARL_v6","SARL_v6hn2ptpy0","559ffa9bfdf99b0ad674856a","freq","","","img/orange_2bandit_b2.png","70","","70","test","1","","65","","","","circle","square","63","17","3","0.8888888888888888","","","","","","","",""
"null","196120","SARL_v6","SARL_v6hn2ptpy0","559ffa9bfdf99b0ad674856a","freq_resp","","","img/orange_2bandit_b.png","70","img/orange_2bandit_b.png","70","test","","","","","","","","","","","3","","","","","","","","",""
"null","196285","SARL_v6","SARL_v6hn2ptpy0","559ffa9bfdf99b0ad674856a","fixation","","","img/fixation.png","null","","","test","","","","","","","","","","","","","","","","","","","",""
"253.30000001192093","196539","SARL_v6","SARL_v6hn2ptpy0","559ffa9bfdf99b0ad674856a","freq","","","img/orange_2bandit_b2.png","70","","70","test","1","","66","","","","circle","square","64","18","3","0.890625","","","","","","","",""
"null","197090","SARL_v6","SARL_v6hn2ptpy0","559ffa9bfdf99b0ad674856a","freq_resp","","","img/orange_2bandit_b.png","70","img/orange_2bandit_b.png","70","test","","","","","","","","","","","3","","","","","","","","",""
"null","197242","SARL_v6","SARL_v6hn2ptpy0","559ffa9bfdf99b0ad674856a","fixation","","","img/fixation.png","null","","","test","","","","","","","","","","","","","","","","","","","",""
"258.30000001192093","197501","SARL_v6","SARL_v6hn2ptpy0","559ffa9bfdf99b0ad674856a","freq","","","img/orange_2bandit_b2.png","70","","70","test","1","","67","","","","circle","square","65","19","3","0.8923076923076924","","","","","","","",""
"null","198050","SARL_v6","SARL_v6hn2ptpy0","559ffa9bfdf99b0ad674856a","freq_resp","","","img/orange_2bandit_b.png","70","img/orange_2bandit_b.png","70","test","","","","","","","","","","","3","","","","","","","","",""
"null","198202","SARL_v6","SARL_v6hn2ptpy0","559ffa9bfdf99b0ad674856a","fixation","","","img/fixation.png","null","","","test","","","","","","","","","","","","","","","","","","","",""
"268.39999997615814","198471","SARL_v6","SARL_v6hn2ptpy0","559ffa9bfdf99b0ad674856a","freq","","","img/orange_2bandit_b2.png","70","","70","test","1","","68","","","","circle","square","66","20","3","0.8939393939393939","","","","","","","",""
"null","199016","SARL_v6","SARL_v6hn2ptpy0","559ffa9bfdf99b0ad674856a","freq_resp","","","img/orange_2bandit_b.png","70","img/orange_2bandit_b.png","70","test","","","","","","","","","","","3","","","","","","","","",""
"null","199168","SARL_v6","SARL_v6hn2ptpy0","559ffa9bfdf99b0ad674856a","fixation","","","img/fixation.png","null","","","test","","","","","","","","","","","","","","","","","","","",""
"226.20000004768372","199395","SARL_v6","SARL_v6hn2ptpy0","559ffa9bfdf99b0ad674856a","infreq","","","img/blue_2bandit_b2.png","70","","68","test","0","","69","","","","circle","square","67","21","3","0.8805970149253731","","","","","","","",""
"null","199979","SARL_v6","SARL_v6hn2ptpy0","559ffa9bfdf99b0ad674856a","infreq_resp","","","img/blue_2bandit_b.png","70","img/blue_2bandit_b.png","68","test","","","","","","","","","","","3","","","","","","","","",""
"null","200144","SARL_v6","SARL_v6hn2ptpy0","559ffa9bfdf99b0ad674856a","fixation","","","img/fixation.png","null","","","test","","","","","","","","","","","","","","","","","","","",""
"330.2000000476837","200475","SARL_v6","SARL_v6hn2ptpy0","559ffa9bfdf99b0ad674856a","freq","","","img/orange_2bandit_b2.png","70","","70","test","1","","70","","","","circle","square","68","22","3","0.8823529411764706","","","","","","","",""
"null","200958","SARL_v6","SARL_v6hn2ptpy0","559ffa9bfdf99b0ad674856a","freq_resp","","","img/orange_2bandit_b.png","70","img/orange_2bandit_b.png","70","test","","","","","","","","","","","3","","","","","","","","",""
"null","201109","SARL_v6","SARL_v6hn2ptpy0","559ffa9bfdf99b0ad674856a","fixation","","","img/fixation.png","null","","","test","","","","","","","","","","","","","","","","","","","",""
"279.9000000357628","201390","SARL_v6","SARL_v6hn2ptpy0","559ffa9bfdf99b0ad674856a","freq","","","img/orange_2bandit_b2.png","70","","70","test","1","","71","","","","circle","square","69","23","3","0.8840579710144928","","","","","","","",""
"null","201921","SARL_v6","SARL_v6hn2ptpy0","559ffa9bfdf99b0ad674856a","freq_resp","","","img/orange_2bandit_b.png","70","img/orange_2bandit_b.png","70","test","","","","","","","","","","","3","","","","","","","","",""
"null","202086","SARL_v6","SARL_v6hn2ptpy0","559ffa9bfdf99b0ad674856a","fixation","","","img/fixation.png","null","","","test","","","","","","","","","","","","","","","","","","","",""
"483.30000001192093","202570","SARL_v6","SARL_v6hn2ptpy0","559ffa9bfdf99b0ad674856a","rl","","","img/black_2bandit_b2.png","75","","0","test","","","72","","","-4","circle","square","","0","3","","75","-8","-4","-8","-4","square","3","0"
"null","203322","SARL_v6","SARL_v6hn2ptpy0","559ffa9bfdf99b0ad674856a","feedback","","","<div class=""verylowPoints_sq""> -4 </div>","null","","na","test","","","NaN","","","","","","","","3","","75","","","","","","3",""
"511.30000001192093","203834","SARL_v6","SARL_v6hn2ptpy0","559ffa9bfdf99b0ad674856a","freq","","","img/orange_2bandit_b2.png","70","","70","test","1","","73","","","","circle","square","70","1","4","0.8857142857142857","","","","","","","",""
"null","204136","SARL_v6","SARL_v6hn2ptpy0","559ffa9bfdf99b0ad674856a","freq_resp","","","img/orange_2bandit_b.png","70","img/orange_2bandit_b.png","70","test","","","","","","","","","","","4","","","","","","","","",""
"null","204289","SARL_v6","SARL_v6hn2ptpy0","559ffa9bfdf99b0ad674856a","fixation","","","img/fixation.png","null","","","test","","","","","","","","","","","","","","","","","","","",""
"372.30000001192093","204662","SARL_v6","SARL_v6hn2ptpy0","559ffa9bfdf99b0ad674856a","freq","","","img/orange_2bandit_b2.png","70","","70","test","1","","74","","","","circle","square","71","2","4","0.8873239436619719","","","","","","","",""
"null","205101","SARL_v6","SARL_v6hn2ptpy0","559ffa9bfdf99b0ad674856a","freq_resp","","","img/orange_2bandit_b.png","70","img/orange_2bandit_b.png","70","test","","","","","","","","","","","4","","","","","","","","",""
"null","205267","SARL_v6","SARL_v6hn2ptpy0","559ffa9bfdf99b0ad674856a","fixation","","","img/fixation.png","null","","","test","","","","","","","","","","","","","","","","","","","",""
"253.4000000357628","205521","SARL_v6","SARL_v6hn2ptpy0","559ffa9bfdf99b0ad674856a","freq","","","img/orange_2bandit_b2.png","70","","70","test","1","","75","","","","circle","square","72","3","4","0.8888888888888888","","","","","","","",""
"null","206081","SARL_v6","SARL_v6hn2ptpy0","559ffa9bfdf99b0ad674856a","freq_resp","","","img/orange_2bandit_b.png","70","img/orange_2bandit_b.png","70","test","","","","","","","","","","","4","","","","","","","","",""
"null","206232","SARL_v6","SARL_v6hn2ptpy0","559ffa9bfdf99b0ad674856a","fixation","","","img/fixation.png","null","","","test","","","","","","","","","","","","","","","","","","","",""
"259.89999997615814","206493","SARL_v6","SARL_v6hn2ptpy0","559ffa9bfdf99b0ad674856a","freq","","","img/orange_2bandit_b2.png","70","","70","test","1","","76","","","","circle","square","73","4","4","0.8904109589041096","","","","","","","",""
"null","207050","SARL_v6","SARL_v6hn2ptpy0","559ffa9bfdf99b0ad674856a","freq_resp","","","img/orange_2bandit_b.png","70","img/orange_2bandit_b.png","70","test","","","","","","","","","","","4","","","","","","","","",""
"null","207203","SARL_v6","SARL_v6hn2ptpy0","559ffa9bfdf99b0ad674856a","fixation","","","img/fixation.png","null","","","test","","","","","","","","","","","","","","","","","","","",""
"234.4000000357628","207438","SARL_v6","SARL_v6hn2ptpy0","559ffa9bfdf99b0ad674856a","freq","","","img/orange_2bandit_b2.png","70","","70","test","1","","77","","","","circle","square","74","5","4","0.8918918918918919","","","","","","","",""
"null","208019","SARL_v6","SARL_v6hn2ptpy0","559ffa9bfdf99b0ad674856a","freq_resp","","","img/orange_2bandit_b.png","70","img/orange_2bandit_b.png","70","test","","","","","","","","","","","4","","","","","","","","",""
"null","208171","SARL_v6","SARL_v6hn2ptpy0","559ffa9bfdf99b0ad674856a","fixation","","","img/fixation.png","null","","","test","","","","","","","","","","","","","","","","","","","",""
"197.20000004768372","208369","SARL_v6","SARL_v6hn2ptpy0","559ffa9bfdf99b0ad674856a","freq","","","img/orange_2bandit_b2.png","70","","70","test","1","","78","","","","circle","square","75","6","4","0.8933333333333333","","","","","","","",""
"null","208982","SARL_v6","SARL_v6hn2ptpy0","559ffa9bfdf99b0ad674856a","freq_resp","","","img/orange_2bandit_b.png","70","img/orange_2bandit_b.png","70","test","","","","","","","","","","","4","","","","","","","","",""
"null","209147","SARL_v6","SARL_v6hn2ptpy0","559ffa9bfdf99b0ad674856a","fixation","","","img/fixation.png","null","","","test","","","","","","","","","","","","","","","","","","","",""
"266.30000001192093","209414","SARL_v6","SARL_v6hn2ptpy0","559ffa9bfdf99b0ad674856a","freq","","","img/orange_2bandit_b2.png","70","","70","test","1","","79","","","","circle","square","76","7","4","0.8947368421052632","","","","","","","",""
"null","209960","SARL_v6","SARL_v6hn2ptpy0","559ffa9bfdf99b0ad674856a","freq_resp","","","img/orange_2bandit_b.png","70","img/orange_2bandit_b.png","70","test","","","","","","","","","","","4","","","","","","","","",""
"null","210113","SARL_v6","SARL_v6hn2ptpy0","559ffa9bfdf99b0ad674856a","fixation","","","img/fixation.png","null","","","test","","","","","","","","","","","","","","","","","","","",""
"251.30000001192093","210365","SARL_v6","SARL_v6hn2ptpy0","559ffa9bfdf99b0ad674856a","infreq","","","img/blue_2bandit_b2.png","70","","68","test","0","","80","","","","circle","square","77","8","4","0.8831168831168831","","","","","","","",""
"null","210928","SARL_v6","SARL_v6hn2ptpy0","559ffa9bfdf99b0ad674856a","infreq_resp","","","img/blue_2bandit_b.png","70","img/blue_2bandit_b.png","68","test","","","","","","","","","","","4","","","","","","","","",""
"null","211093","SARL_v6","SARL_v6hn2ptpy0","559ffa9bfdf99b0ad674856a","fixation","","","img/fixation.png","null","","","test","","","","","","","","","","","","","","","","","","","",""
"277","211371","SARL_v6","SARL_v6hn2ptpy0","559ffa9bfdf99b0ad674856a","freq","","","img/orange_2bandit_b2.png","70","","70","test","1","","81","","","","circle","square","78","9","4","0.8846153846153846","","","","","","","",""
"null","211908","SARL_v6","SARL_v6hn2ptpy0","559ffa9bfdf99b0ad674856a","freq_resp","","","img/orange_2bandit_b.png","70","img/orange_2bandit_b.png","70","test","","","","","","","","","","","4","","","","","","","","",""
"null","212073","SARL_v6","SARL_v6hn2ptpy0","559ffa9bfdf99b0ad674856a","fixation","","","img/fixation.png","null","","","test","","","","","","","","","","","","","","","","","","","",""
"270.2000000476837","212344","SARL_v6","SARL_v6hn2ptpy0","559ffa9bfdf99b0ad674856a","freq","","","img/orange_2bandit_b2.png","70","","70","test","1","","82","","","","circle","square","79","10","4","0.8860759493670886","","","","","","","",""
"null","212885","SARL_v6","SARL_v6hn2ptpy0","559ffa9bfdf99b0ad674856a","freq_resp","","","img/orange_2bandit_b.png","70","img/orange_2bandit_b.png","70","test","","","","","","","","","","","4","","","","","","","","",""
"null","213050","SARL_v6","SARL_v6hn2ptpy0","559ffa9bfdf99b0ad674856a","fixation","","","img/fixation.png","null","","","test","","","","","","","","","","","","","","","","","","","",""
"249.30000001192093","213300","SARL_v6","SARL_v6hn2ptpy0","559ffa9bfdf99b0ad674856a","freq","","","img/orange_2bandit_b2.png","70","","70","test","1","","83","","","","circle","square","80","11","4","0.8875","","","","","","","",""
"null","213864","SARL_v6","SARL_v6hn2ptpy0","559ffa9bfdf99b0ad674856a","freq_resp","","","img/orange_2bandit_b.png","70","img/orange_2bandit_b.png","70","test","","","","","","","","","","","4","","","","","","","","",""
"null","214030","SARL_v6","SARL_v6hn2ptpy0","559ffa9bfdf99b0ad674856a","fixation","","","img/fixation.png","null","","","test","","","","","","","","","","","","","","","","","","","",""
"278.7000000476837","214310","SARL_v6","SARL_v6hn2ptpy0","559ffa9bfdf99b0ad674856a","freq","","","img/orange_2bandit_b2.png","70","","70","test","1","","84","","","","circle","square","81","12","4","0.8888888888888888","","","","","","","",""
"null","214843","SARL_v6","SARL_v6hn2ptpy0","559ffa9bfdf99b0ad674856a","freq_resp","","","img/orange_2bandit_b.png","70","img/orange_2bandit_b.png","70","test","","","","","","","","","","","4","","","","","","","","",""
"null","215008","SARL_v6","SARL_v6hn2ptpy0","559ffa9bfdf99b0ad674856a","fixation","","","img/fixation.png","null","","","test","","","","","","","","","","","","","","","","","","","",""
"226.10000002384186","215235","SARL_v6","SARL_v6hn2ptpy0","559ffa9bfdf99b0ad674856a","freq","","","img/orange_2bandit_b2.png","70","","70","test","1","","85","","","","circle","square","82","13","4","0.8902439024390244","","","","","","","",""
"null","215823","SARL_v6","SARL_v6hn2ptpy0","559ffa9bfdf99b0ad674856a","freq_resp","","","img/orange_2bandit_b.png","70","img/orange_2bandit_b.png","70","test","","","","","","","","","","","4","","","","","","","","",""
"null","215989","SARL_v6","SARL_v6hn2ptpy0","559ffa9bfdf99b0ad674856a","fixation","","","img/fixation.png","null","","","test","","","","","","","","","","","","","","","","","","","",""
"268.80000001192093","216259","SARL_v6","SARL_v6hn2ptpy0","559ffa9bfdf99b0ad674856a","freq","","","img/orange_2bandit_b2.png","70","","70","test","1","","86","","","","circle","square","83","14","4","0.891566265060241","","","","","","","",""
"null","216805","SARL_v6","SARL_v6hn2ptpy0","559ffa9bfdf99b0ad674856a","freq_resp","","","img/orange_2bandit_b.png","70","img/orange_2bandit_b.png","70","test","","","","","","","","","","","4","","","","","","","","",""
"null","216957","SARL_v6","SARL_v6hn2ptpy0","559ffa9bfdf99b0ad674856a","fixation","","","img/fixation.png","null","","","test","","","","","","","","","","","","","","","","","","","",""
"275.30000001192093","217233","SARL_v6","SARL_v6hn2ptpy0","559ffa9bfdf99b0ad674856a","freq","","","img/orange_2bandit_b2.png","70","","70","test","1","","87","","","","circle","square","84","15","4","0.8928571428571429","","","","","","","",""
"null","217759","SARL_v6","SARL_v6hn2ptpy0","559ffa9bfdf99b0ad674856a","freq_resp","","","img/orange_2bandit_b.png","70","img/orange_2bandit_b.png","70","test","","","","","","","","","","","4","","","","","","","","",""
"null","217910","SARL_v6","SARL_v6hn2ptpy0","559ffa9bfdf99b0ad674856a","fixation","","","img/fixation.png","null","","","test","","","","","","","","","","","","","","","","","","","",""
"458","218369","SARL_v6","SARL_v6hn2ptpy0","559ffa9bfdf99b0ad674856a","infreq","","","img/blue_2bandit_b2.png","68","","68","test","1","","88","","","","circle","square","85","16","4","0.8941176470588236","","","","","","","",""
"null","218721","SARL_v6","SARL_v6hn2ptpy0","559ffa9bfdf99b0ad674856a","infreq_resp","","","img/blue_2bandit_b.png","68","img/blue_2bandit_b.png","68","test","","","","","","","","","","","4","","","","","","","","",""
"null","218887","SARL_v6","SARL_v6hn2ptpy0","559ffa9bfdf99b0ad674856a","fixation","","","img/fixation.png","null","","","test","","","","","","","","","","","","","","","","","","","",""
"335.7000000476837","219224","SARL_v6","SARL_v6hn2ptpy0","559ffa9bfdf99b0ad674856a","freq","","","img/orange_2bandit_b2.png","70","","70","test","1","","89","","","","circle","square","86","17","4","0.8953488372093024","","","","","","","",""
"null","219701","SARL_v6","SARL_v6hn2ptpy0","559ffa9bfdf99b0ad674856a","freq_resp","","","img/orange_2bandit_b.png","70","img/orange_2bandit_b.png","70","test","","","","","","","","","","","4","","","","","","","","",""
"null","219854","SARL_v6","SARL_v6hn2ptpy0","559ffa9bfdf99b0ad674856a","fixation","","","img/fixation.png","null","","","test","","","","","","","","","","","","","","","","","","","",""
"272.5","220127","SARL_v6","SARL_v6hn2ptpy0","559ffa9bfdf99b0ad674856a","freq","","","img/orange_2bandit_b2.png","70","","70","test","1","","90","","","","circle","square","87","18","4","0.896551724137931","","","","","","","",""
"null","220666","SARL_v6","SARL_v6hn2ptpy0","559ffa9bfdf99b0ad674856a","freq_resp","","","img/orange_2bandit_b.png","70","img/orange_2bandit_b.png","70","test","","","","","","","","","","","4","","","","","","","","",""
"null","220819","SARL_v6","SARL_v6hn2ptpy0","559ffa9bfdf99b0ad674856a","fixation","","","img/fixation.png","null","","","test","","","","","","","","","","","","","","","","","","","",""
"373.30000001192093","221193","SARL_v6","SARL_v6hn2ptpy0","559ffa9bfdf99b0ad674856a","freq","","","img/orange_2bandit_b2.png","70","","70","test","1","","91","","","","circle","square","88","19","4","0.8977272727272727","","","","","","","",""
"null","221621","SARL_v6","SARL_v6hn2ptpy0","559ffa9bfdf99b0ad674856a","freq_resp","","","img/orange_2bandit_b.png","70","img/orange_2bandit_b.png","70","test","","","","","","","","","","","4","","","","","","","","",""
"null","221781","SARL_v6","SARL_v6hn2ptpy0","559ffa9bfdf99b0ad674856a","fixation","","","img/fixation.png","null","","","test","","","","","","","","","","","","","","","","","","","",""
"267","222049","SARL_v6","SARL_v6hn2ptpy0","559ffa9bfdf99b0ad674856a","freq","","","img/orange_2bandit_b2.png","70","","70","test","1","","92","","","","circle","square","89","20","4","0.898876404494382","","","","","","","",""
"null","222594","SARL_v6","SARL_v6hn2ptpy0","559ffa9bfdf99b0ad674856a","freq_resp","","","img/orange_2bandit_b.png","70","img/orange_2bandit_b.png","70","test","","","","","","","","","","","4","","","","","","","","",""
"null","222746","SARL_v6","SARL_v6hn2ptpy0","559ffa9bfdf99b0ad674856a","fixation","","","img/fixation.png","null","","","test","","","","","","","","","","","","","","","","","","","",""
"546.3000000119209","223293","SARL_v6","SARL_v6hn2ptpy0","559ffa9bfdf99b0ad674856a","rl","","","img/black_2bandit_b2.png","75","","0","test","","","93","","","0","circle","square","","0","4","","75","-12","0","-12","0","square","4","0"
"null","224052","SARL_v6","SARL_v6hn2ptpy0","559ffa9bfdf99b0ad674856a","feedback","","","<div class=""verylowPoints_sq""> 0 </div>","null","","na","test","","","NaN","","","","","","","","4","","75","","","","","","4",""
"593.2000000476837","224646","SARL_v6","SARL_v6hn2ptpy0","559ffa9bfdf99b0ad674856a","freq","","","img/orange_2bandit_b2.png","70","","70","test","1","","94","","","","circle","square","90","1","5","0.9","","","","","","","",""
"null","224866","SARL_v6","SARL_v6hn2ptpy0","559ffa9bfdf99b0ad674856a","freq_resp","","","img/orange_2bandit_b.png","70","img/orange_2bandit_b.png","70","test","","","","","","","","","","","5","","","","","","","","",""
"null","225031","SARL_v6","SARL_v6hn2ptpy0","559ffa9bfdf99b0ad674856a","fixation","","","img/fixation.png","null","","","test","","","","","","","","","","","","","","","","","","","",""
"382.60000002384186","225415","SARL_v6","SARL_v6hn2ptpy0","559ffa9bfdf99b0ad674856a","freq","","","img/orange_2bandit_b2.png","70","","70","test","1","","95","","","","circle","square","91","2","5","0.9010989010989011","","","","","","","",""
"null","225848","SARL_v6","SARL_v6hn2ptpy0","559ffa9bfdf99b0ad674856a","freq_resp","","","img/orange_2bandit_b.png","70","img/orange_2bandit_b.png","70","test","","","","","","","","","","","5","","","","","","","","",""
"null","226014","SARL_v6","SARL_v6hn2ptpy0","559ffa9bfdf99b0ad674856a","fixation","","","img/fixation.png","null","","","test","","","","","","","","","","","","","","","","","","","",""
"290.30000001192093","226305","SARL_v6","SARL_v6hn2ptpy0","559ffa9bfdf99b0ad674856a","freq","","","img/orange_2bandit_b2.png","70","","70","test","1","","96","","","","circle","square","92","3","5","0.9021739130434783","","","","","","","",""
"null","226825","SARL_v6","SARL_v6hn2ptpy0","559ffa9bfdf99b0ad674856a","freq_resp","","","img/orange_2bandit_b.png","70","img/orange_2bandit_b.png","70","test","","","","","","","","","","","5","","","","","","","","",""
"null","226977","SARL_v6","SARL_v6hn2ptpy0","559ffa9bfdf99b0ad674856a","fixation","","","img/fixation.png","null","","","test","","","","","","","","","","","","","","","","","","","",""
"306.19999998807907","227284","SARL_v6","SARL_v6hn2ptpy0","559ffa9bfdf99b0ad674856a","freq","","","img/orange_2bandit_b2.png","70","","70","test","1","","97","","","","circle","square","93","4","5","0.9032258064516129","","","","","","","",""
"null","227787","SARL_v6","SARL_v6hn2ptpy0","559ffa9bfdf99b0ad674856a","freq_resp","","","img/orange_2bandit_b.png","70","img/orange_2bandit_b.png","70","test","","","","","","","","","","","5","","","","","","","","",""
"null","227952","SARL_v6","SARL_v6hn2ptpy0","559ffa9bfdf99b0ad674856a","fixation","","","img/fixation.png","null","","","test","","","","","","","","","","","","","","","","","","","",""
"293.30000001192093","228246","SARL_v6","SARL_v6hn2ptpy0","559ffa9bfdf99b0ad674856a","freq","","","img/orange_2bandit_b2.png","70","","70","test","1","","98","","","","circle","square","94","5","5","0.9042553191489362","","","","","","","",""
"null","228768","SARL_v6","SARL_v6hn2ptpy0","559ffa9bfdf99b0ad674856a","freq_resp","","","img/orange_2bandit_b.png","70","img/orange_2bandit_b.png","70","test","","","","","","","","","","","5","","","","","","","","",""
"null","228933","SARL_v6","SARL_v6hn2ptpy0","559ffa9bfdf99b0ad674856a","fixation","","","img/fixation.png","null","","","test","","","","","","","","","","","","","","","","","","","",""
"264.30000001192093","229198","SARL_v6","SARL_v6hn2ptpy0","559ffa9bfdf99b0ad674856a","freq","","","img/orange_2bandit_b2.png","70","","70","test","1","","99","","","","circle","square","95","6","5","0.9052631578947369","","","","","","","",""
"null","229747","SARL_v6","SARL_v6hn2ptpy0","559ffa9bfdf99b0ad674856a","freq_resp","","","img/orange_2bandit_b.png","70","img/orange_2bandit_b.png","70","test","","","","","","","","","","","5","","","","","","","","",""
"null","229899","SARL_v6","SARL_v6hn2ptpy0","559ffa9bfdf99b0ad674856a","fixation","","","img/fixation.png","null","","","test","","","","","","","","","","","","","","","","","","","",""
"242.30000001192093","230142","SARL_v6","SARL_v6hn2ptpy0","559ffa9bfdf99b0ad674856a","freq","","","img/orange_2bandit_b2.png","70","","70","test","1","","100","","","","circle","square","96","7","5","0.90625","","","","","","","",""
"null","230711","SARL_v6","SARL_v6hn2ptpy0","559ffa9bfdf99b0ad674856a","freq_resp","","","img/orange_2bandit_b.png","70","img/orange_2bandit_b.png","70","test","","","","","","","","","","","5","","","","","","","","",""
"null","230876","SARL_v6","SARL_v6hn2ptpy0","559ffa9bfdf99b0ad674856a","fixation","","","img/fixation.png","null","","","test","","","","","","","","","","","","","","","","","","","",""
"259.30000001192093","231136","SARL_v6","SARL_v6hn2ptpy0","559ffa9bfdf99b0ad674856a","freq","","","img/orange_2bandit_b2.png","70","","70","test","1","","101","","","","circle","square","97","8","5","0.9072164948453608","","","","","","","",""
"null","231687","SARL_v6","SARL_v6hn2ptpy0","559ffa9bfdf99b0ad674856a","freq_resp","","","img/orange_2bandit_b.png","70","img/orange_2bandit_b.png","70","test","","","","","","","","","","","5","","","","","","","","",""
"null","231852","SARL_v6","SARL_v6hn2ptpy0","559ffa9bfdf99b0ad674856a","fixation","","","img/fixation.png","null","","","test","","","","","","","","","","","","","","","","","","","",""
"262.2000000476837","232115","SARL_v6","SARL_v6hn2ptpy0","559ffa9bfdf99b0ad674856a","freq","","","img/orange_2bandit_b2.png","70","","70","test","1","","102","","","","circle","square","98","9","5","0.9081632653061225","","","","","","","",""
"null","232664","SARL_v6","SARL_v6hn2ptpy0","559ffa9bfdf99b0ad674856a","freq_resp","","","img/orange_2bandit_b.png","70","img/orange_2bandit_b.png","70","test","","","","","","","","","","","5","","","","","","","","",""
"null","232816","SARL_v6","SARL_v6hn2ptpy0","559ffa9bfdf99b0ad674856a","fixation","","","img/fixation.png","null","","","test","","","","","","","","","","","","","","","","","","","",""
"258.2000000476837","233075","SARL_v6","SARL_v6hn2ptpy0","559ffa9bfdf99b0ad674856a","freq","","","img/orange_2bandit_b2.png","70","","70","test","1","","103","","","","circle","square","99","10","5","0.9090909090909091","","","","","","","",""
"null","233629","SARL_v6","SARL_v6hn2ptpy0","559ffa9bfdf99b0ad674856a","freq_resp","","","img/orange_2bandit_b.png","70","img/orange_2bandit_b.png","70","test","","","","","","","","","","","5","","","","","","","","",""
"null","233780","SARL_v6","SARL_v6hn2ptpy0","559ffa9bfdf99b0ad674856a","fixation","","","img/fixation.png","null","","","test","","","","","","","","","","","","","","","","","","","",""
"254.10000002384186","234035","SARL_v6","SARL_v6hn2ptpy0","559ffa9bfdf99b0ad674856a","freq","","","img/orange_2bandit_b2.png","70","","70","test","1","","104","","","","circle","square","100","11","5","0.91","","","","","","","",""
"null","234592","SARL_v6","SARL_v6hn2ptpy0","559ffa9bfdf99b0ad674856a","freq_resp","","","img/orange_2bandit_b.png","70","img/orange_2bandit_b.png","70","test","","","","","","","","","","","5","","","","","","","","",""
"null","234744","SARL_v6","SARL_v6hn2ptpy0","559ffa9bfdf99b0ad674856a","fixation","","","img/fixation.png","null","","","test","","","","","","","","","","","","","","","","","","","",""
"246.30000001192093","234991","SARL_v6","SARL_v6hn2ptpy0","559ffa9bfdf99b0ad674856a","freq","","","img/orange_2bandit_b2.png","70","","70","test","1","","105","","","","circle","square","101","12","5","0.9108910891089109","","","","","","","",""
"null","235559","SARL_v6","SARL_v6hn2ptpy0","559ffa9bfdf99b0ad674856a","freq_resp","","","img/orange_2bandit_b.png","70","img/orange_2bandit_b.png","70","test","","","","","","","","","","","5","","","","","","","","",""
"null","235725","SARL_v6","SARL_v6hn2ptpy0","559ffa9bfdf99b0ad674856a","fixation","","","img/fixation.png","null","","","test","","","","","","","","","","","","","","","","","","","",""
"253.39999997615814","235979","SARL_v6","SARL_v6hn2ptpy0","559ffa9bfdf99b0ad674856a","freq","","","img/orange_2bandit_b2.png","70","","70","test","1","","106","","","","circle","square","102","13","5","0.9117647058823529","","","","","","","",""
"null","236528","SARL_v6","SARL_v6hn2ptpy0","559ffa9bfdf99b0ad674856a","freq_resp","","","img/orange_2bandit_b.png","70","img/orange_2bandit_b.png","70","test","","","","","","","","","","","5","","","","","","","","",""
"null","236681","SARL_v6","SARL_v6hn2ptpy0","559ffa9bfdf99b0ad674856a","fixation","","","img/fixation.png","null","","","test","","","","","","","","","","","","","","","","","","","",""
"240.70000004768372","236923","SARL_v6","SARL_v6hn2ptpy0","559ffa9bfdf99b0ad674856a","freq","","","img/orange_2bandit_b2.png","70","","70","test","1","","107","","","","circle","square","103","14","5","0.912621359223301","","","","","","","",""
"null","237495","SARL_v6","SARL_v6hn2ptpy0","559ffa9bfdf99b0ad674856a","freq_resp","","","img/orange_2bandit_b.png","70","img/orange_2bandit_b.png","70","test","","","","","","","","","","","5","","","","","","","","",""
"null","237647","SARL_v6","SARL_v6hn2ptpy0","559ffa9bfdf99b0ad674856a","fixation","","","img/fixation.png","null","","","test","","","","","","","","","","","","","","","","","","","",""
"264.30000001192093","237912","SARL_v6","SARL_v6hn2ptpy0","559ffa9bfdf99b0ad674856a","freq","","","img/orange_2bandit_b2.png","70","","70","test","1","","108","","","","circle","square","104","15","5","0.9134615384615384","","","","","","","",""
"null","238449","SARL_v6","SARL_v6hn2ptpy0","559ffa9bfdf99b0ad674856a","freq_resp","","","img/orange_2bandit_b.png","70","img/orange_2bandit_b.png","70","test","","","","","","","","","","","5","","","","","","","","",""
"null","238609","SARL_v6","SARL_v6hn2ptpy0","559ffa9bfdf99b0ad674856a","fixation","","","img/fixation.png","null","","","test","","","","","","","","","","","","","","","","","","","",""
"253.5","238864","SARL_v6","SARL_v6hn2ptpy0","559ffa9bfdf99b0ad674856a","freq","","","img/orange_2bandit_b2.png","70","","70","test","1","","109","","","","circle","square","105","16","5","0.9142857142857143","","","","","","","",""
"null","239420","SARL_v6","SARL_v6hn2ptpy0","559ffa9bfdf99b0ad674856a","freq_resp","","","img/orange_2bandit_b.png","70","img/orange_2bandit_b.png","70","test","","","","","","","","","","","5","","","","","","","","",""
"null","239571","SARL_v6","SARL_v6hn2ptpy0","559ffa9bfdf99b0ad674856a","fixation","","","img/fixation.png","null","","","test","","","","","","","","","","","","","","","","","","","",""
"264.4000000357628","239837","SARL_v6","SARL_v6hn2ptpy0","559ffa9bfdf99b0ad674856a","freq","","","img/orange_2bandit_b2.png","70","","70","test","1","","110","","","","circle","square","106","17","5","0.9150943396226415","","","","","","","",""
"null","240385","SARL_v6","SARL_v6hn2ptpy0","559ffa9bfdf99b0ad674856a","freq_resp","","","img/orange_2bandit_b.png","70","img/orange_2bandit_b.png","70","test","","","","","","","","","","","5","","","","","","","","",""
"null","240536","SARL_v6","SARL_v6hn2ptpy0","559ffa9bfdf99b0ad674856a","fixation","","","img/fixation.png","null","","","test","","","","","","","","","","","","","","","","","","","",""
"254.70000004768372","240792","SARL_v6","SARL_v6hn2ptpy0","559ffa9bfdf99b0ad674856a","freq","","","img/orange_2bandit_b2.png","70","","70","test","1","","111","","","","circle","square","107","18","5","0.9158878504672897","","","","","","","",""
"null","241345","SARL_v6","SARL_v6hn2ptpy0","559ffa9bfdf99b0ad674856a","freq_resp","","","img/orange_2bandit_b.png","70","img/orange_2bandit_b.png","70","test","","","","","","","","","","","5","","","","","","","","",""
"null","241511","SARL_v6","SARL_v6hn2ptpy0","559ffa9bfdf99b0ad674856a","fixation","","","img/fixation.png","null","","","test","","","","","","","","","","","","","","","","","","","",""
"532.4000000357628","242045","SARL_v6","SARL_v6hn2ptpy0","559ffa9bfdf99b0ad674856a","infreq","","","img/blue_2bandit_b2.png","68","","68","test","1","","112","","","","circle","square","108","19","5","0.9166666666666666","","","","","","","",""
"null","242323","SARL_v6","SARL_v6hn2ptpy0","559ffa9bfdf99b0ad674856a","infreq_resp","","","img/blue_2bandit_b.png","68","img/blue_2bandit_b.png","68","test","","","","","","","","","","","5","","","","","","","","",""
"null","242474","SARL_v6","SARL_v6hn2ptpy0","559ffa9bfdf99b0ad674856a","fixation","","","img/fixation.png","null","","","test","","","","","","","","","","","","","","","","","","","",""
"349.30000001192093","242825","SARL_v6","SARL_v6hn2ptpy0","559ffa9bfdf99b0ad674856a","infreq","","","img/blue_2bandit_b2.png","68","","68","test","1","","113","","","","circle","square","109","20","5","0.9174311926605505","","","","","","","",""
"null","243285","SARL_v6","SARL_v6hn2ptpy0","559ffa9bfdf99b0ad674856a","infreq_resp","","","img/blue_2bandit_b.png","68","img/blue_2bandit_b.png","68","test","","","","","","","","","","","5","","","","","","","","",""
"null","243449","SARL_v6","SARL_v6hn2ptpy0","559ffa9bfdf99b0ad674856a","fixation","","","img/fixation.png","null","","","test","","","","","","","","","","","","","","","","","","","",""
"336.39999997615814","243787","SARL_v6","SARL_v6hn2ptpy0","559ffa9bfdf99b0ad674856a","freq","","","img/orange_2bandit_b2.png","70","","70","test","1","","114","","","","circle","square","110","21","5","0.9181818181818182","","","","","","","",""
"null","244259","SARL_v6","SARL_v6hn2ptpy0","559ffa9bfdf99b0ad674856a","freq_resp","","","img/orange_2bandit_b.png","70","img/orange_2bandit_b.png","70","test","","","","","","","","","","","5","","","","","","","","",""
"null","244413","SARL_v6","SARL_v6hn2ptpy0","559ffa9bfdf99b0ad674856a","fixation","","","img/fixation.png","null","","","test","","","","","","","","","","","","","","","","","","","",""
"281.39999997615814","244696","SARL_v6","SARL_v6hn2ptpy0","559ffa9bfdf99b0ad674856a","freq","","","img/orange_2bandit_b2.png","70","","70","test","1","","115","","","","circle","square","111","22","5","0.918918918918919","","","","","","","",""
"null","245226","SARL_v6","SARL_v6hn2ptpy0","559ffa9bfdf99b0ad674856a","freq_resp","","","img/orange_2bandit_b.png","70","img/orange_2bandit_b.png","70","test","","","","","","","","","","","5","","","","","","","","",""
"null","245377","SARL_v6","SARL_v6hn2ptpy0","559ffa9bfdf99b0ad674856a","fixation","","","img/fixation.png","null","","","test","","","","","","","","","","","","","","","","","","","",""
"255","245633","SARL_v6","SARL_v6hn2ptpy0","559ffa9bfdf99b0ad674856a","freq","","","img/orange_2bandit_b2.png","70","","70","test","1","","116","","","","circle","square","112","23","5","0.9196428571428571","","","","","","","",""
"null","246190","SARL_v6","SARL_v6hn2ptpy0","559ffa9bfdf99b0ad674856a","freq_resp","","","img/orange_2bandit_b.png","70","img/orange_2bandit_b.png","70","test","","","","","","","","","","","5","","","","","","","","",""
"null","246356","SARL_v6","SARL_v6hn2ptpy0","559ffa9bfdf99b0ad674856a","fixation","","","img/fixation.png","null","","","test","","","","","","","","","","","","","","","","","","","",""
"217.80000001192093","246575","SARL_v6","SARL_v6hn2ptpy0","559ffa9bfdf99b0ad674856a","freq","","","img/orange_2bandit_b2.png","70","","70","test","1","","117","","","","circle","square","113","24","5","0.9203539823008849","","","","","","","",""
"null","247169","SARL_v6","SARL_v6hn2ptpy0","559ffa9bfdf99b0ad674856a","freq_resp","","","img/orange_2bandit_b.png","70","img/orange_2bandit_b.png","70","test","","","","","","","","","","","5","","","","","","","","",""
"null","247335","SARL_v6","SARL_v6hn2ptpy0","559ffa9bfdf99b0ad674856a","fixation","","","img/fixation.png","null","","","test","","","","","","","","","","","","","","","","","","","",""
"470.30000001192093","247806","SARL_v6","SARL_v6hn2ptpy0","559ffa9bfdf99b0ad674856a","rl","","","img/black_2bandit_b2.png","75","","0","test","","","118","","","4","circle","square","","0","5","","75","-7","4","-7","4","square","5","0"
"null","248558","SARL_v6","SARL_v6hn2ptpy0","559ffa9bfdf99b0ad674856a","feedback","","","<div class=""veryhighPoints_sq""> 4 </div>","null","","na","test","","","NaN","","","","","","","","5","","75","","","","","","5",""
"709.3999999761581","249269","SARL_v6","SARL_v6hn2ptpy0","559ffa9bfdf99b0ad674856a","freq","","","img/orange_2bandit_b2.png","70","","70","test","1","","119","","","","circle","square","114","1","6","0.9210526315789473","","","","","","","",""
"null","249362","SARL_v6","SARL_v6hn2ptpy0","559ffa9bfdf99b0ad674856a","freq_resp","","","img/orange_2bandit_b.png","70","img/orange_2bandit_b.png","70","test","","","","","","","","","","","6","","","","","","","","",""
"null","249514","SARL_v6","SARL_v6hn2ptpy0","559ffa9bfdf99b0ad674856a","fixation","","","img/fixation.png","null","","","test","","","","","","","","","","","","","","","","","","","",""
"571.5","250087","SARL_v6","SARL_v6hn2ptpy0","559ffa9bfdf99b0ad674856a","infreq","","","img/blue_2bandit_b2.png","68","","68","test","1","","120","","","","circle","square","115","2","6","0.9217391304347826","","","","","","","",""
"null","250326","SARL_v6","SARL_v6hn2ptpy0","559ffa9bfdf99b0ad674856a","infreq_resp","","","img/blue_2bandit_b.png","68","img/blue_2bandit_b.png","68","test","","","","","","","","","","","6","","","","","","","","",""
"null","250478","SARL_v6","SARL_v6hn2ptpy0","559ffa9bfdf99b0ad674856a","fixation","","","img/fixation.png","null","","","test","","","","","","","","","","","","","","","","","","","",""
"480.2000000476837","250960","SARL_v6","SARL_v6hn2ptpy0","559ffa9bfdf99b0ad674856a","infreq","","","img/blue_2bandit_b2.png","68","","68","test","1","","121","","","","circle","square","116","3","6","0.9224137931034483","","","","","","","",""
"null","251289","SARL_v6","SARL_v6hn2ptpy0","559ffa9bfdf99b0ad674856a","infreq_resp","","","img/blue_2bandit_b.png","68","img/blue_2bandit_b.png","68","test","","","","","","","","","","","6","","","","","","","","",""
"null","251453","SARL_v6","SARL_v6hn2ptpy0","559ffa9bfdf99b0ad674856a","fixation","","","img/fixation.png","null","","","test","","","","","","","","","","","","","","","","","","","",""
"461.30000001192093","251916","SARL_v6","SARL_v6hn2ptpy0","559ffa9bfdf99b0ad674856a","freq","","","img/orange_2bandit_b2.png","70","","70","test","1","","122","","","","circle","square","117","4","6","0.9230769230769231","","","","","","","",""
"null","252256","SARL_v6","SARL_v6hn2ptpy0","559ffa9bfdf99b0ad674856a","freq_resp","","","img/orange_2bandit_b.png","70","img/orange_2bandit_b.png","70","test","","","","","","","","","","","6","","","","","","","","",""
"null","252421","SARL_v6","SARL_v6hn2ptpy0","559ffa9bfdf99b0ad674856a","fixation","","","img/fixation.png","null","","","test","","","","","","","","","","","","","","","","","","","",""
"262.10000002384186","252684","SARL_v6","SARL_v6hn2ptpy0","559ffa9bfdf99b0ad674856a","freq","","","img/orange_2bandit_b2.png","70","","70","test","1","","123","","","","circle","square","118","5","6","0.923728813559322","","","","","","","",""
"null","253232","SARL_v6","SARL_v6hn2ptpy0","559ffa9bfdf99b0ad674856a","freq_resp","","","img/orange_2bandit_b.png","70","img/orange_2bandit_b.png","70","test","","","","","","","","","","","6","","","","","","","","",""
"null","253386","SARL_v6","SARL_v6hn2ptpy0","559ffa9bfdf99b0ad674856a","fixation","","","img/fixation.png","null","","","test","","","","","","","","","","","","","","","","","","","",""
"231.20000004768372","253618","SARL_v6","SARL_v6hn2ptpy0","559ffa9bfdf99b0ad674856a","freq","","","img/orange_2bandit_b2.png","70","","70","test","1","","124","","","","circle","square","119","6","6","0.9243697478991597","","","","","","","",""
"null","254196","SARL_v6","SARL_v6hn2ptpy0","559ffa9bfdf99b0ad674856a","freq_resp","","","img/orange_2bandit_b.png","70","img/orange_2bandit_b.png","70","test","","","","","","","","","","","6","","","","","","","","",""
"null","254348","SARL_v6","SARL_v6hn2ptpy0","559ffa9bfdf99b0ad674856a","fixation","","","img/fixation.png","null","","","test","","","","","","","","","","","","","","","","","","","",""
"202.5","254552","SARL_v6","SARL_v6hn2ptpy0","559ffa9bfdf99b0ad674856a","freq","","","img/orange_2bandit_b2.png","70","","70","test","1","","125","","","","circle","square","120","7","6","0.925","","","","","","","",""
"null","255160","SARL_v6","SARL_v6hn2ptpy0","559ffa9bfdf99b0ad674856a","freq_resp","","","img/orange_2bandit_b.png","70","img/orange_2bandit_b.png","70","test","","","","","","","","","","","6","","","","","","","","",""
"null","255325","SARL_v6","SARL_v6hn2ptpy0","559ffa9bfdf99b0ad674856a","fixation","","","img/fixation.png","null","","","test","","","","","","","","","","","","","","","","","","","",""
"101.40000003576279","255428","SARL_v6","SARL_v6hn2ptpy0","559ffa9bfdf99b0ad674856a","freq","","","img/orange_2bandit_b2.png","70","","70","test","1","","126","","","","circle","square","121","8","6","0.9256198347107438","","","","","","","",""
"null","256136","SARL_v6","SARL_v6hn2ptpy0","559ffa9bfdf99b0ad674856a","freq_resp","","","img/orange_2bandit_b.png","70","img/orange_2bandit_b.png","70","test","","","","","","","","","","","6","","","","","","","","",""
"null","256303","SARL_v6","SARL_v6hn2ptpy0","559ffa9bfdf99b0ad674856a","fixation","","","img/fixation.png","null","","","test","","","","","","","","","","","","","","","","","","","",""
"97.20000004768372","256401","SARL_v6","SARL_v6hn2ptpy0","559ffa9bfdf99b0ad674856a","freq","","","img/orange_2bandit_b2.png","70","","70","test","1","","127","","","","circle","square","122","9","6","0.9262295081967213","","","","","","","",""
"null","257112","SARL_v6","SARL_v6hn2ptpy0","559ffa9bfdf99b0ad674856a","freq_resp","","","img/orange_2bandit_b.png","70","img/orange_2bandit_b.png","70","test","","","","","","","","","","","6","","","","","","","","",""
"null","257263","SARL_v6","SARL_v6hn2ptpy0","559ffa9bfdf99b0ad674856a","fixation","","","img/fixation.png","null","","","test","","","","","","","","","","","","","","","","","","","",""
"90.30000001192093","257355","SARL_v6","SARL_v6hn2ptpy0","559ffa9bfdf99b0ad674856a","freq","","","img/orange_2bandit_b2.png","70","","70","test","1","","128","","","","circle","square","123","10","6","0.926829268292683","","","","","","","",""
