"rt","time_elapsed","expId","subject","prolificID","trialType","rlType","attType","stimulus","key_press","stim","corrresp","phase","corr","pracCounter","trialNum","rewardOne","rewardTwo","reward","bandOne","bandTwo","attentionNum","attentionRunNum","blockNum","performance","bandChosen","circleVal","squareVal","bandOneVal","bandTwoVal","shapeChosen","rlNum","badFlag"
"28160.599999964237","28164","SARL_v6","SARL_v6xstkedpx","61210b5c3f465c51a7f4166a","","","","","","","","","","","","","","","","","","","","","","","","","","","",""
"","30996","SARL_v6","SARL_v6xstkedpx","61210b5c3f465c51a7f4166a","fullscreen","fullscreen","fullscreen","","","","","","","","","","","","","","","","","","","","","","","","",""
"446955.40000003576","477954","SARL_v6","SARL_v6xstkedpx","61210b5c3f465c51a7f4166a","","","","","","","","","","","","","","","","","","","","","","","","","","","",""
"null","478760","SARL_v6","SARL_v6xstkedpx","61210b5c3f465c51a7f4166a","freqPrac","","","img/orange_2bandit_b2.png","null","img/orange_2bandit_b2.png","70","prac","0","1","","","","","","","","","","","","","","","","","",""
"null","479771","SARL_v6","SARL_v6xstkedpx","61210b5c3f465c51a7f4166a","feedback","","","img/tooSlow.png","null","","na","prac","","","","","","","","","","","","","","","","","","","",""
"null","479927","SARL_v6","SARL_v6xstkedpx","61210b5c3f465c51a7f4166a","fixation","","","img/fixation.png","null","","","prac","","","","","","","","","","","","","","","","","","","",""
"725.5","480656","SARL_v6","SARL_v6xstkedpx","61210b5c3f465c51a7f4166a","infreqPrac","","","img/blue_2bandit_b2.png","68","img/blue_2bandit_b2.png","68","prac","1","1","","","","","","","","","","","","","","","","","",""
"725.5","480736","SARL_v6","SARL_v6xstkedpx","61210b5c3f465c51a7f4166a","infreqPrac_resp","","","img/blue_2bandit_b.png","68","img/blue_2bandit_b.png","68","prac","","","","","","","","","","","","","","","","","","","",""
"null","480890","SARL_v6","SARL_v6xstkedpx","61210b5c3f465c51a7f4166a","fixation","","","img/fixation.png","null","","","prac","","","","","","","","","","","","","","","","","","","",""
"null","481706","SARL_v6","SARL_v6xstkedpx","61210b5c3f465c51a7f4166a","freqPrac","","","img/orange_2bandit_b2.png","null","img/orange_2bandit_b2.png","70","prac","0","2","","","","","","","","","","","","","","","","","",""
"null","482711","SARL_v6","SARL_v6xstkedpx","61210b5c3f465c51a7f4166a","feedback","","","img/tooSlow.png","null","","na","prac","","","","","","","","","","","","","","","","","","","",""
"null","482875","SARL_v6","SARL_v6xstkedpx","61210b5c3f465c51a7f4166a","fixation","","","img/fixation.png","null","","","prac","","","","","","","","","","","","","","","","","","","",""
"557.8000000119209","483435","SARL_v6","SARL_v6xstkedpx","61210b5c3f465c51a7f4166a","infreqPrac","","","img/blue_2bandit_b2.png","68","img/blue_2bandit_b2.png","68","prac","1","2","","","","","","","","","","","","","","","","","",""
"557.8000000119209","483690","SARL_v6","SARL_v6xstkedpx","61210b5c3f465c51a7f4166a","infreqPrac_resp","","","img/blue_2bandit_b.png","68","img/blue_2bandit_b.png","68","prac","","","","","","","","","","","","","","","","","","","",""
"null","483848","SARL_v6","SARL_v6xstkedpx","61210b5c3f465c51a7f4166a","fixation","","","img/fixation.png","null","","","prac","","","","","","","","","","","","","","","","","","","",""
"472.10000002384186","484324","SARL_v6","SARL_v6xstkedpx","61210b5c3f465c51a7f4166a","infreqPrac","","","img/blue_2bandit_b2.png","68","img/blue_2bandit_b2.png","68","prac","1","2","","","","","","","","","","","","","","","","","",""
"472.10000002384186","484663","SARL_v6","SARL_v6xstkedpx","61210b5c3f465c51a7f4166a","infreqPrac_resp","","","img/blue_2bandit_b.png","68","img/blue_2bandit_b.png","68","prac","","","","","","","","","","","","","","","","","","","",""
"null","484821","SARL_v6","SARL_v6xstkedpx","61210b5c3f465c51a7f4166a","fixation","","","img/fixation.png","null","","","prac","","","","","","","","","","","","","","","","","","","",""
"316.69999998807907","485142","SARL_v6","SARL_v6xstkedpx","61210b5c3f465c51a7f4166a","infreqPrac","","","img/blue_2bandit_b2.png","68","img/blue_2bandit_b2.png","68","prac","1","2","","","","","","","","","","","","","","","","","",""
"316.69999998807907","485638","SARL_v6","SARL_v6xstkedpx","61210b5c3f465c51a7f4166a","infreqPrac_resp","","","img/blue_2bandit_b.png","68","img/blue_2bandit_b.png","68","prac","","","","","","","","","","","","","","","","","","","",""
"null","485792","SARL_v6","SARL_v6xstkedpx","61210b5c3f465c51a7f4166a","fixation","","","img/fixation.png","null","","","prac","","","","","","","","","","","","","","","","","","","",""
"258","486054","SARL_v6","SARL_v6xstkedpx","61210b5c3f465c51a7f4166a","freqPrac","","","img/orange_2bandit_b2.png","68","img/orange_2bandit_b2.png","70","prac","0","3","","","","","","","","","","","","","","","","","",""
"258","486607","SARL_v6","SARL_v6xstkedpx","61210b5c3f465c51a7f4166a","freqPrac_resp","","","img/orange_2bandit_b.png","68","img/orange_2bandit_b.png","70","prac","","","","","","","","","","","","","","","","","","","",""
"null","487618","SARL_v6","SARL_v6xstkedpx","61210b5c3f465c51a7f4166a","feedback","","","img/wrongKey.png","null","","na","prac","","","","","","","","","","","","","","","","","","","",""
"null","487786","SARL_v6","SARL_v6xstkedpx","61210b5c3f465c51a7f4166a","fixation","","","img/fixation.png","null","","","prac","","","","","","","","","","","","","","","","","","","",""
"555.1000000238419","488344","SARL_v6","SARL_v6xstkedpx","61210b5c3f465c51a7f4166a","infreqPrac","","","img/blue_2bandit_b2.png","68","img/blue_2bandit_b2.png","68","prac","1","3","","","","","","","","","","","","","","","","","",""
"555.1000000238419","488600","SARL_v6","SARL_v6xstkedpx","61210b5c3f465c51a7f4166a","infreqPrac_resp","","","img/blue_2bandit_b.png","68","img/blue_2bandit_b.png","68","prac","","","","","","","","","","","","","","","","","","","",""
"null","488753","SARL_v6","SARL_v6xstkedpx","61210b5c3f465c51a7f4166a","fixation","","","img/fixation.png","null","","","prac","","","","","","","","","","","","","","","","","","","",""
"519.2999999523163","489274","SARL_v6","SARL_v6xstkedpx","61210b5c3f465c51a7f4166a","freqPrac","","","img/orange_2bandit_b2.png","70","img/orange_2bandit_b2.png","70","prac","1","3","","","","","","","","","","","","","","","","","",""
"519.2999999523163","489565","SARL_v6","SARL_v6xstkedpx","61210b5c3f465c51a7f4166a","freqPrac_resp","","","img/orange_2bandit_b.png","70","img/orange_2bandit_b.png","70","prac","","","","","","","","","","","","","","","","","","","",""
"null","489720","SARL_v6","SARL_v6xstkedpx","61210b5c3f465c51a7f4166a","fixation","","","img/fixation.png","null","","","prac","","","","","","","","","","","","","","","","","","","",""
"379.89999997615814","490104","SARL_v6","SARL_v6xstkedpx","61210b5c3f465c51a7f4166a","freqPrac","","","img/orange_2bandit_b2.png","70","img/orange_2bandit_b2.png","70","prac","1","3","","","","","","","","","","","","","","","","","",""
"379.89999997615814","490532","SARL_v6","SARL_v6xstkedpx","61210b5c3f465c51a7f4166a","freqPrac_resp","","","img/orange_2bandit_b.png","70","img/orange_2bandit_b.png","70","prac","","","","","","","","","","","","","","","","","","","",""
"null","490691","SARL_v6","SARL_v6xstkedpx","61210b5c3f465c51a7f4166a","fixation","","","img/fixation.png","null","","","prac","","","","","","","","","","","","","","","","","","","",""
"110094.80000001192","600788","SARL_v6","SARL_v6xstkedpx","61210b5c3f465c51a7f4166a","","","","","","","","prac","","","","","","","","","","","","","","","","","","","",""
"null","602305","SARL_v6","SARL_v6xstkedpx","61210b5c3f465c51a7f4166a","rlPractice","","","img/black_2bandit_b2.png","null","img/black_2bandit_b2.png","","prac","","","0","","","","","","","","","","","","","","","","",""
"null","603067","SARL_v6","SARL_v6xstkedpx","61210b5c3f465c51a7f4166a","feedback","","","<div font size = 80> TOO SLOW  </div>","null","","na","prac","","","1","10","-14","10","","","","","","","","","","","","","",""
"null","603225","SARL_v6","SARL_v6xstkedpx","61210b5c3f465c51a7f4166a","fixation","","","img/fixation.png","null","","","prac","","","","","","","","","","","","","","","","","","","",""
"600","603828","SARL_v6","SARL_v6xstkedpx","61210b5c3f465c51a7f4166a","rlPractice","","","img/black_2bandit_b2.png","75","img/black_2bandit_b2.png","","prac","","","1","","","","","","","","","","","","","","","","",""
"null","604593","SARL_v6","SARL_v6xstkedpx","61210b5c3f465c51a7f4166a","feedback","","","<div class=""verylowPoints_sq""> -5 </div>","null","","na","prac","","","2","5","-5","5","","","","","","","","","","","","","",""
"null","604748","SARL_v6","SARL_v6xstkedpx","61210b5c3f465c51a7f4166a","fixation","","","img/fixation.png","null","","","prac","","","","","","","","","","","","","","","","","","","",""
"414.30000001192093","605166","SARL_v6","SARL_v6xstkedpx","61210b5c3f465c51a7f4166a","rlPractice","","","img/black_2bandit_b2.png","74","img/black_2bandit_b2.png","","prac","","","2","","","","","","","","","","","","","","","","",""
"null","605922","SARL_v6","SARL_v6xstkedpx","61210b5c3f465c51a7f4166a","feedback","","","<div class=""veryhighPoints""> 30 </div>","null","","na","prac","","","3","30","2","30","","","","","","","","","","","","","",""
"null","606077","SARL_v6","SARL_v6xstkedpx","61210b5c3f465c51a7f4166a","fixation","","","img/fixation.png","null","","","prac","","","","","","","","","","","","","","","","","","","",""
"418.5999999642372","606499","SARL_v6","SARL_v6xstkedpx","61210b5c3f465c51a7f4166a","rlPractice","","","img/black_2bandit_b2.png","74","img/black_2bandit_b2.png","","prac","","","3","","","","","","","","","","","","","","","","",""
"null","607264","SARL_v6","SARL_v6xstkedpx","61210b5c3f465c51a7f4166a","feedback","","","<div class=""verylowPoints""> -2 </div>","null","","na","prac","","","4","-2","20","-2","","","","","","","","","","","","","",""
"null","607421","SARL_v6","SARL_v6xstkedpx","61210b5c3f465c51a7f4166a","fixation","","","img/fixation.png","null","","","prac","","","","","","","","","","","","","","","","","","","",""
"46278.69999998808","653703","SARL_v6","SARL_v6xstkedpx","61210b5c3f465c51a7f4166a","","","","","","","","prac","","","","","","","","","","","","","","","","","","","",""
"null","654515","SARL_v6","SARL_v6xstkedpx","61210b5c3f465c51a7f4166a","mixAttFreqPrac","","","img/orange_2bandit_b2.png","null","img/orange_2bandit_b2.png","70","prac","","","1","","","","","","","","","","","","","","","","",""
"null","654674","SARL_v6","SARL_v6xstkedpx","61210b5c3f465c51a7f4166a","fixation","","","img/fixation.png","null","","","prac","","","","","","","","","","","","","","","","","","","",""
"343.10000002384186","655020","SARL_v6","SARL_v6xstkedpx","61210b5c3f465c51a7f4166a","mixAttInfreqPrac","","","img/blue_2bandit_b2.png","70","img/blue_2bandit_b2.png","68","prac","","","2","","","","","","","","","","","","","","","","",""
"343.10000002384186","655492","SARL_v6","SARL_v6xstkedpx","61210b5c3f465c51a7f4166a","infreqPrac_resp","","","img/blue_2bandit_b.png","70","img/orange_2bandit_b.png","68","prac","","","2","","","","","","","","","","","","","","","","",""
"null","655648","SARL_v6","SARL_v6xstkedpx","61210b5c3f465c51a7f4166a","fixation","","","img/fixation.png","null","","","prac","","","","","","","","","","","","","","","","","","","",""
"326.4000000357628","655979","SARL_v6","SARL_v6xstkedpx","61210b5c3f465c51a7f4166a","mixAttInfreqPrac","","","img/blue_2bandit_b2.png","68","img/blue_2bandit_b2.png","68","prac","","","3","","","","","","","","","","","","","","","","",""
"326.4000000357628","656461","SARL_v6","SARL_v6xstkedpx","61210b5c3f465c51a7f4166a","infreqPrac_resp","","","img/blue_2bandit_b.png","68","img/orange_2bandit_b.png","68","prac","","","3","","","","","","","","","","","","","","","","",""
"null","656615","SARL_v6","SARL_v6xstkedpx","61210b5c3f465c51a7f4166a","fixation","","","img/fixation.png","null","","","prac","","","","","","","","","","","","","","","","","","","",""
"490.60000002384186","657110","SARL_v6","SARL_v6xstkedpx","61210b5c3f465c51a7f4166a","mixAttInfreqPrac","","","img/blue_2bandit_b2.png","68","img/blue_2bandit_b2.png","68","prac","","","4","","","","","","","","","","","","","","","","",""
"490.60000002384186","657435","SARL_v6","SARL_v6xstkedpx","61210b5c3f465c51a7f4166a","infreqPrac_resp","","","img/blue_2bandit_b.png","68","img/orange_2bandit_b.png","68","prac","","","4","","","","","","","","","","","","","","","","",""
"null","657591","SARL_v6","SARL_v6xstkedpx","61210b5c3f465c51a7f4166a","fixation","","","img/fixation.png","null","","","prac","","","","","","","","","","","","","","","","","","","",""
"null","658400","SARL_v6","SARL_v6xstkedpx","61210b5c3f465c51a7f4166a","mixAttFreqPrac","","","img/orange_2bandit_b2.png","null","img/orange_2bandit_b2.png","70","prac","","","5","","","","","","","","","","","","","","","","",""
"8.899999976158142","658555","SARL_v6","SARL_v6xstkedpx","61210b5c3f465c51a7f4166a","fixation","","","img/fixation.png","70","","","prac","","","","","","","","","","","","","","","","","","","",""
"1061.800000011921","659621","SARL_v6","SARL_v6xstkedpx","61210b5c3f465c51a7f4166a","mixRLPractice","","","img/black_2bandit_b2.png","74","img/black_2bandit_b2.png","","prac","","","5","","","","","","","","","","","","","","","","",""
"null","660378","SARL_v6","SARL_v6xstkedpx","61210b5c3f465c51a7f4166a","feedback","","","<div class=""verylowPoints""> -14 </div>","null","","na","prac","","","6","-14","10","-14","","","","","","","","","","","","","",""
"null","660537","SARL_v6","SARL_v6xstkedpx","61210b5c3f465c51a7f4166a","fixation","","","img/fixation.png","null","","","prac","","","","","","","","","","","","","","","","","","","",""
"null","661356","SARL_v6","SARL_v6xstkedpx","61210b5c3f465c51a7f4166a","mixAttFreqPrac","","","img/orange_2bandit_b2.png","null","img/orange_2bandit_b2.png","70","prac","","","7","","","","","","","","","","","","","","","","",""
"null","661525","SARL_v6","SARL_v6xstkedpx","61210b5c3f465c51a7f4166a","fixation","","","img/fixation.png","null","","","prac","","","","","","","","","","","","","","","","","","","",""
"1.899999976158142","661531","SARL_v6","SARL_v6xstkedpx","61210b5c3f465c51a7f4166a","mixAttInfreqPrac","","","img/blue_2bandit_b2.png","70","img/blue_2bandit_b2.png","68","prac","","","8","","","","","","","","","","","","","","","","",""
"1.899999976158142","662341","SARL_v6","SARL_v6xstkedpx","61210b5c3f465c51a7f4166a","infreqPrac_resp","","","img/blue_2bandit_b.png","70","img/orange_2bandit_b.png","68","prac","","","8","","","","","","","","","","","","","","","","",""
"null","662496","SARL_v6","SARL_v6xstkedpx","61210b5c3f465c51a7f4166a","fixation","","","img/fixation.png","null","","","prac","","","","","","","","","","","","","","","","","","","",""
"null","663303","SARL_v6","SARL_v6xstkedpx","61210b5c3f465c51a7f4166a","mixAttFreqPrac","","","img/orange_2bandit_b2.png","null","img/orange_2bandit_b2.png","70","prac","","","9","","","","","","","","","","","","","","","","",""
"6.800000011920929","663460","SARL_v6","SARL_v6xstkedpx","61210b5c3f465c51a7f4166a","fixation","","","img/fixation.png","70","","","prac","","","","","","","","","","","","","","","","","","","",""
"452.60000002384186","663916","SARL_v6","SARL_v6xstkedpx","61210b5c3f465c51a7f4166a","mixAttFreqPrac","","","img/orange_2bandit_b2.png","70","img/orange_2bandit_b2.png","70","prac","","","10","","","","","","","","","","","","","","","","",""
"452.60000002384186","664274","SARL_v6","SARL_v6xstkedpx","61210b5c3f465c51a7f4166a","freqPrac_resp","","","img/orange_2bandit_b.png","70","img/orange_2bandit_b.png","70","prac","","","10","","","","","","","","","","","","","","","","",""
"null","664430","SARL_v6","SARL_v6xstkedpx","61210b5c3f465c51a7f4166a","fixation","","","img/fixation.png","null","","","prac","","","","","","","","","","","","","","","","","","","",""
"384.89999997615814","664818","SARL_v6","SARL_v6xstkedpx","61210b5c3f465c51a7f4166a","mixAttInfreqPrac","","","img/blue_2bandit_b2.png","68","img/blue_2bandit_b2.png","68","prac","","","11","","","","","","","","","","","","","","","","",""
"384.89999997615814","665249","SARL_v6","SARL_v6xstkedpx","61210b5c3f465c51a7f4166a","infreqPrac_resp","","","img/blue_2bandit_b.png","68","img/orange_2bandit_b.png","68","prac","","","11","","","","","","","","","","","","","","","","",""
"null","665405","SARL_v6","SARL_v6xstkedpx","61210b5c3f465c51a7f4166a","fixation","","","img/fixation.png","null","","","prac","","","","","","","","","","","","","","","","","","","",""
"757","666166","SARL_v6","SARL_v6xstkedpx","61210b5c3f465c51a7f4166a","mixRLPractice","","","img/black_2bandit_b2.png","74","img/black_2bandit_b2.png","","prac","","","11","","","","","","","","","","","","","","","","",""
"null","666931","SARL_v6","SARL_v6xstkedpx","61210b5c3f465c51a7f4166a","feedback","","","<div class=""veryhighPoints""> 5 </div>","null","","na","prac","","","12","5","-5","5","","","","","","","","","","","","","",""
"null","667088","SARL_v6","SARL_v6xstkedpx","61210b5c3f465c51a7f4166a","fixation","","","img/fixation.png","null","","","prac","","","","","","","","","","","","","","","","","","","",""
"54232.19999998808","721323","SARL_v6","SARL_v6xstkedpx","61210b5c3f465c51a7f4166a","","","","","","","","prac","","","","","","","","","","","","","","","","","","","",""
"710.8999999761581","722039","SARL_v6","SARL_v6xstkedpx","61210b5c3f465c51a7f4166a","freq","","","img/orange_2bandit_b2.png","70","","70","test","1","","1","","","","circle","square","1","1","1","1","","","","","","","",""
"null","722134","SARL_v6","SARL_v6xstkedpx","61210b5c3f465c51a7f4166a","freq_resp","","","img/orange_2bandit_b.png","70","img/orange_2bandit_b.png","70","test","","","","","","","","","","","1","","","","","","","","",""
"null","722289","SARL_v6","SARL_v6xstkedpx","61210b5c3f465c51a7f4166a","fixation","","","img/fixation.png","null","","","test","","","","","","","","","","","","","","","","","","","",""
"502.80000001192093","722796","SARL_v6","SARL_v6xstkedpx","61210b5c3f465c51a7f4166a","freq","","","img/orange_2bandit_b2.png","70","","70","test","1","","2","","","","circle","square","2","2","1","1","","","","","","","",""
"null","723097","SARL_v6","SARL_v6xstkedpx","61210b5c3f465c51a7f4166a","freq_resp","","","img/orange_2bandit_b.png","70","img/orange_2bandit_b.png","70","test","","","","","","","","","","","1","","","","","","","","",""
"null","723251","SARL_v6","SARL_v6xstkedpx","61210b5c3f465c51a7f4166a","fixation","","","img/fixation.png","null","","","test","","","","","","","","","","","","","","","","","","","",""
"443.19999998807907","723698","SARL_v6","SARL_v6xstkedpx","61210b5c3f465c51a7f4166a","infreq","","","img/blue_2bandit_b2.png","68","","68","test","1","","3","","","","circle","square","3","3","1","1","","","","","","","",""
"null","724061","SARL_v6","SARL_v6xstkedpx","61210b5c3f465c51a7f4166a","infreq_resp","","","img/blue_2bandit_b.png","68","img/blue_2bandit_b.png","68","test","","","","","","","","","","","1","","","","","","","","",""
"null","724218","SARL_v6","SARL_v6xstkedpx","61210b5c3f465c51a7f4166a","fixation","","","img/fixation.png","null","","","test","","","","","","","","","","","","","","","","","","","",""
"329","724550","SARL_v6","SARL_v6xstkedpx","61210b5c3f465c51a7f4166a","freq","","","img/orange_2bandit_b2.png","70","","70","test","1","","4","","","","circle","square","4","4","1","1","","","","","","","",""
"null","725036","SARL_v6","SARL_v6xstkedpx","61210b5c3f465c51a7f4166a","freq_resp","","","img/orange_2bandit_b.png","70","img/orange_2bandit_b.png","70","test","","","","","","","","","","","1","","","","","","","","",""
"null","725193","SARL_v6","SARL_v6xstkedpx","61210b5c3f465c51a7f4166a","fixation","","","img/fixation.png","null","","","test","","","","","","","","","","","","","","","","","","","",""
"336.0999999642372","725532","SARL_v6","SARL_v6xstkedpx","61210b5c3f465c51a7f4166a","freq","","","img/orange_2bandit_b2.png","70","","70","test","1","","5","","","","circle","square","5","5","1","1","","","","","","","",""
"null","725999","SARL_v6","SARL_v6xstkedpx","61210b5c3f465c51a7f4166a","freq_resp","","","img/orange_2bandit_b.png","70","img/orange_2bandit_b.png","70","test","","","","","","","","","","","1","","","","","","","","",""
"null","726152","SARL_v6","SARL_v6xstkedpx","61210b5c3f465c51a7f4166a","fixation","","","img/fixation.png","null","","","test","","","","","","","","","","","","","","","","","","","",""
"349.10000002384186","726505","SARL_v6","SARL_v6xstkedpx","61210b5c3f465c51a7f4166a","freq","","","img/orange_2bandit_b2.png","70","","70","test","1","","6","","","","circle","square","6","6","1","1","","","","","","","",""
"null","726972","SARL_v6","SARL_v6xstkedpx","61210b5c3f465c51a7f4166a","freq_resp","","","img/orange_2bandit_b.png","70","img/orange_2bandit_b.png","70","test","","","","","","","","","","","1","","","","","","","","",""
"null","727130","SARL_v6","SARL_v6xstkedpx","61210b5c3f465c51a7f4166a","fixation","","","img/fixation.png","null","","","test","","","","","","","","","","","","","","","","","","","",""
"308.4000000357628","727442","SARL_v6","SARL_v6xstkedpx","61210b5c3f465c51a7f4166a","freq","","","img/orange_2bandit_b2.png","70","","70","test","1","","7","","","","circle","square","7","7","1","1","","","","","","","",""
"null","727948","SARL_v6","SARL_v6xstkedpx","61210b5c3f465c51a7f4166a","freq_resp","","","img/orange_2bandit_b.png","70","img/orange_2bandit_b.png","70","test","","","","","","","","","","","1","","","","","","","","",""
"null","728102","SARL_v6","SARL_v6xstkedpx","61210b5c3f465c51a7f4166a","fixation","","","img/fixation.png","null","","","test","","","","","","","","","","","","","","","","","","","",""
"309","728415","SARL_v6","SARL_v6xstkedpx","61210b5c3f465c51a7f4166a","freq","","","img/orange_2bandit_b2.png","70","","70","test","1","","8","","","","circle","square","8","8","1","1","","","","","","","",""
"null","728915","SARL_v6","SARL_v6xstkedpx","61210b5c3f465c51a7f4166a","freq_resp","","","img/orange_2bandit_b.png","70","img/orange_2bandit_b.png","70","test","","","","","","","","","","","1","","","","","","","","",""
"null","729070","SARL_v6","SARL_v6xstkedpx","61210b5c3f465c51a7f4166a","fixation","","","img/fixation.png","null","","","test","","","","","","","","","","","","","","","","","","","",""
"268.80000001192093","729342","SARL_v6","SARL_v6xstkedpx","61210b5c3f465c51a7f4166a","freq","","","img/orange_2bandit_b2.png","70","","70","test","1","","9","","","","circle","square","9","9","1","1","","","","","","","",""
"null","729879","SARL_v6","SARL_v6xstkedpx","61210b5c3f465c51a7f4166a","freq_resp","","","img/orange_2bandit_b.png","70","img/orange_2bandit_b.png","70","test","","","","","","","","","","","1","","","","","","","","",""
"null","730034","SARL_v6","SARL_v6xstkedpx","61210b5c3f465c51a7f4166a","fixation","","","img/fixation.png","null","","","test","","","","","","","","","","","","","","","","","","","",""
"167.39999997615814","730205","SARL_v6","SARL_v6xstkedpx","61210b5c3f465c51a7f4166a","infreq","","","img/blue_2bandit_b2.png","70","","68","test","0","","10","","","","circle","square","10","10","1","0.9","","","","","","","",""
"null","730852","SARL_v6","SARL_v6xstkedpx","61210b5c3f465c51a7f4166a","infreq_resp","","","img/blue_2bandit_b.png","70","img/blue_2bandit_b.png","68","test","","","","","","","","","","","1","","","","","","","","",""
"null","731009","SARL_v6","SARL_v6xstkedpx","61210b5c3f465c51a7f4166a","fixation","","","img/fixation.png","null","","","test","","","","","","","","","","","","","","","","","","","",""
"545.2000000476837","731556","SARL_v6","SARL_v6xstkedpx","61210b5c3f465c51a7f4166a","freq","","","img/orange_2bandit_b2.png","70","","70","test","1","","11","","","","circle","square","11","11","1","0.9090909090909091","","","","","","","",""
"null","731825","SARL_v6","SARL_v6xstkedpx","61210b5c3f465c51a7f4166a","freq_resp","","","img/orange_2bandit_b.png","70","img/orange_2bandit_b.png","70","test","","","","","","","","","","","1","","","","","","","","",""
"null","731982","SARL_v6","SARL_v6xstkedpx","61210b5c3f465c51a7f4166a","fixation","","","img/fixation.png","null","","","test","","","","","","","","","","","","","","","","","","","",""
"409.0999999642372","732394","SARL_v6","SARL_v6xstkedpx","61210b5c3f465c51a7f4166a","freq","","","img/orange_2bandit_b2.png","70","","70","test","1","","12","","","","circle","square","12","12","1","0.9166666666666666","","","","","","","",""
"null","732796","SARL_v6","SARL_v6xstkedpx","61210b5c3f465c51a7f4166a","freq_resp","","","img/orange_2bandit_b.png","70","img/orange_2bandit_b.png","70","test","","","","","","","","","","","1","","","","","","","","",""
"null","732966","SARL_v6","SARL_v6xstkedpx","61210b5c3f465c51a7f4166a","fixation","","","img/fixation.png","null","","","test","","","","","","","","","","","","","","","","","","","",""
"397.19999998807907","733365","SARL_v6","SARL_v6xstkedpx","61210b5c3f465c51a7f4166a","freq","","","img/orange_2bandit_b2.png","70","","70","test","1","","13","","","","circle","square","13","13","1","0.9230769230769231","","","","","","","",""
"null","733776","SARL_v6","SARL_v6xstkedpx","61210b5c3f465c51a7f4166a","freq_resp","","","img/orange_2bandit_b.png","70","img/orange_2bandit_b.png","70","test","","","","","","","","","","","1","","","","","","","","",""
"null","733935","SARL_v6","SARL_v6xstkedpx","61210b5c3f465c51a7f4166a","fixation","","","img/fixation.png","null","","","test","","","","","","","","","","","","","","","","","","","",""
"270.69999998807907","734209","SARL_v6","SARL_v6xstkedpx","61210b5c3f465c51a7f4166a","infreq","","","img/blue_2bandit_b2.png","70","","68","test","0","","14","","","","circle","square","14","14","1","0.8571428571428571","","","","","","","",""
"null","734757","SARL_v6","SARL_v6xstkedpx","61210b5c3f465c51a7f4166a","infreq_resp","","","img/blue_2bandit_b.png","70","img/blue_2bandit_b.png","68","test","","","","","","","","","","","1","","","","","","","","",""
"null","734913","SARL_v6","SARL_v6xstkedpx","61210b5c3f465c51a7f4166a","fixation","","","img/fixation.png","null","","","test","","","","","","","","","","","","","","","","","","","",""
"534.8000000119209","735451","SARL_v6","SARL_v6xstkedpx","61210b5c3f465c51a7f4166a","freq","","","img/orange_2bandit_b2.png","70","","70","test","1","","15","","","","circle","square","15","15","1","0.8666666666666667","","","","","","","",""
"null","735725","SARL_v6","SARL_v6xstkedpx","61210b5c3f465c51a7f4166a","freq_resp","","","img/orange_2bandit_b.png","70","img/orange_2bandit_b.png","70","test","","","","","","","","","","","1","","","","","","","","",""
"null","735882","SARL_v6","SARL_v6xstkedpx","61210b5c3f465c51a7f4166a","fixation","","","img/fixation.png","null","","","test","","","","","","","","","","","","","","","","","","","",""
"257.5999999642372","736143","SARL_v6","SARL_v6xstkedpx","61210b5c3f465c51a7f4166a","freq","","","img/orange_2bandit_b2.png","70","","70","test","1","","16","","","","circle","square","16","16","1","0.875","","","","","","","",""
"null","736693","SARL_v6","SARL_v6xstkedpx","61210b5c3f465c51a7f4166a","freq_resp","","","img/orange_2bandit_b.png","70","img/orange_2bandit_b.png","70","test","","","","","","","","","","","1","","","","","","","","",""
"null","736849","SARL_v6","SARL_v6xstkedpx","61210b5c3f465c51a7f4166a","fixation","","","img/fixation.png","null","","","test","","","","","","","","","","","","","","","","","","","",""
"318.4000000357628","737171","SARL_v6","SARL_v6xstkedpx","61210b5c3f465c51a7f4166a","freq","","","img/orange_2bandit_b2.png","70","","70","test","1","","17","","","","circle","square","17","17","1","0.8823529411764706","","","","","","","",""
"null","737663","SARL_v6","SARL_v6xstkedpx","61210b5c3f465c51a7f4166a","freq_resp","","","img/orange_2bandit_b.png","70","img/orange_2bandit_b.png","70","test","","","","","","","","","","","1","","","","","","","","",""
"null","737817","SARL_v6","SARL_v6xstkedpx","61210b5c3f465c51a7f4166a","fixation","","","img/fixation.png","null","","","test","","","","","","","","","","","","","","","","","","","",""
"337.9000000357628","738158","SARL_v6","SARL_v6xstkedpx","61210b5c3f465c51a7f4166a","freq","","","img/orange_2bandit_b2.png","70","","70","test","1","","18","","","","circle","square","18","18","1","0.8888888888888888","","","","","","","",""
"null","738627","SARL_v6","SARL_v6xstkedpx","61210b5c3f465c51a7f4166a","freq_resp","","","img/orange_2bandit_b.png","70","img/orange_2bandit_b.png","70","test","","","","","","","","","","","1","","","","","","","","",""
"null","738781","SARL_v6","SARL_v6xstkedpx","61210b5c3f465c51a7f4166a","fixation","","","img/fixation.png","null","","","test","","","","","","","","","","","","","","","","","","","",""
"295.39999997615814","739080","SARL_v6","SARL_v6xstkedpx","61210b5c3f465c51a7f4166a","freq","","","img/orange_2bandit_b2.png","70","","70","test","1","","19","","","","circle","square","19","19","1","0.8947368421052632","","","","","","","",""
"null","739597","SARL_v6","SARL_v6xstkedpx","61210b5c3f465c51a7f4166a","freq_resp","","","img/orange_2bandit_b.png","70","img/orange_2bandit_b.png","70","test","","","","","","","","","","","1","","","","","","","","",""
"null","739751","SARL_v6","SARL_v6xstkedpx","61210b5c3f465c51a7f4166a","fixation","","","img/fixation.png","null","","","test","","","","","","","","","","","","","","","","","","","",""
"282.10000002384186","740037","SARL_v6","SARL_v6xstkedpx","61210b5c3f465c51a7f4166a","freq","","","img/orange_2bandit_b2.png","70","","70","test","1","","20","","","","circle","square","20","20","1","0.9","","","","","","","",""
"null","740559","SARL_v6","SARL_v6xstkedpx","61210b5c3f465c51a7f4166a","freq_resp","","","img/orange_2bandit_b.png","70","img/orange_2bandit_b.png","70","test","","","","","","","","","","","1","","","","","","","","",""
"null","740716","SARL_v6","SARL_v6xstkedpx","61210b5c3f465c51a7f4166a","fixation","","","img/fixation.png","null","","","test","","","","","","","","","","","","","","","","","","","",""
"149.30000001192093","740869","SARL_v6","SARL_v6xstkedpx","61210b5c3f465c51a7f4166a","freq","","","img/orange_2bandit_b2.png","70","","70","test","1","","21","","","","circle","square","21","21","1","0.9047619047619048","","","","","","","",""
"null","741536","SARL_v6","SARL_v6xstkedpx","61210b5c3f465c51a7f4166a","freq_resp","","","img/orange_2bandit_b.png","70","img/orange_2bandit_b.png","70","test","","","","","","","","","","","1","","","","","","","","",""
"null","741696","SARL_v6","SARL_v6xstkedpx","61210b5c3f465c51a7f4166a","fixation","","","img/fixation.png","null","","","test","","","","","","","","","","","","","","","","","","","",""
"66.40000003576279","741767","SARL_v6","SARL_v6xstkedpx","61210b5c3f465c51a7f4166a","freq","","","img/orange_2bandit_b2.png","70","","70","test","1","","22","","","","circle","square","22","22","1","0.9090909090909091","","","","","","","",""
"null","742517","SARL_v6","SARL_v6xstkedpx","61210b5c3f465c51a7f4166a","freq_resp","","","img/orange_2bandit_b.png","70","img/orange_2bandit_b.png","70","test","","","","","","","","","","","1","","","","","","","","",""
"null","742673","SARL_v6","SARL_v6xstkedpx","61210b5c3f465c51a7f4166a","fixation","","","img/fixation.png","null","","","test","","","","","","","","","","","","","","","","","","","",""
"62.200000047683716","742738","SARL_v6","SARL_v6xstkedpx","61210b5c3f465c51a7f4166a","freq","","","img/orange_2bandit_b2.png","70","","70","test","1","","23","","","","circle","square","23","23","1","0.9130434782608695","","","","","","","",""
"null","743491","SARL_v6","SARL_v6xstkedpx","61210b5c3f465c51a7f4166a","freq_resp","","","img/orange_2bandit_b.png","70","img/orange_2bandit_b.png","70","test","","","","","","","","","","","1","","","","","","","","",""
"null","743649","SARL_v6","SARL_v6xstkedpx","61210b5c3f465c51a7f4166a","fixation","","","img/fixation.png","null","","","test","","","","","","","","","","","","","","","","","","","",""
"794.6999999880791","744447","SARL_v6","SARL_v6xstkedpx","61210b5c3f465c51a7f4166a","rl","","","img/black_2bandit_b2.png","74","","0","test","","","24","","","-3","circle","square","","0","1","","74","-3","-3","-3","-3","circle","1","0"
"null","745207","SARL_v6","SARL_v6xstkedpx","61210b5c3f465c51a7f4166a","feedback","","","<div class=""verylowPoints""> -3 </div>","null","","na","test","","","NaN","","","","","","","","1","","74","","","","","","1",""
"689.9000000357628","745899","SARL_v6","SARL_v6xstkedpx","61210b5c3f465c51a7f4166a","freq","","","img/orange_2bandit_b2.png","70","","70","test","1","","25","","","","circle","square","24","1","2","0.9166666666666666","","","","","","","",""
"null","746022","SARL_v6","SARL_v6xstkedpx","61210b5c3f465c51a7f4166a","freq_resp","","","img/orange_2bandit_b.png","70","img/orange_2bandit_b.png","70","test","","","","","","","","","","","2","","","","","","","","",""
"null","746181","SARL_v6","SARL_v6xstkedpx","61210b5c3f465c51a7f4166a","fixation","","","img/fixation.png","null","","","test","","","","","","","","","","","","","","","","","","","",""
"402.10000002384186","746587","SARL_v6","SARL_v6xstkedpx","61210b5c3f465c51a7f4166a","freq","","","img/orange_2bandit_b2.png","70","","70","test","1","","26","","","","circle","square","25","2","2","0.92","","","","","","","",""
"null","746995","SARL_v6","SARL_v6xstkedpx","61210b5c3f465c51a7f4166a","freq_resp","","","img/orange_2bandit_b.png","70","img/orange_2bandit_b.png","70","test","","","","","","","","","","","2","","","","","","","","",""
"null","747151","SARL_v6","SARL_v6xstkedpx","61210b5c3f465c51a7f4166a","fixation","","","img/fixation.png","null","","","test","","","","","","","","","","","","","","","","","","","",""
"475.2000000476837","747630","SARL_v6","SARL_v6xstkedpx","61210b5c3f465c51a7f4166a","infreq","","","img/blue_2bandit_b2.png","68","","68","test","1","","27","","","","circle","square","26","3","2","0.9230769230769231","","","","","","","",""
"null","747968","SARL_v6","SARL_v6xstkedpx","61210b5c3f465c51a7f4166a","infreq_resp","","","img/blue_2bandit_b.png","68","img/blue_2bandit_b.png","68","test","","","","","","","","","","","2","","","","","","","","",""
"null","748123","SARL_v6","SARL_v6xstkedpx","61210b5c3f465c51a7f4166a","fixation","","","img/fixation.png","null","","","test","","","","","","","","","","","","","","","","","","","",""
"456.30000001192093","748583","SARL_v6","SARL_v6xstkedpx","61210b5c3f465c51a7f4166a","freq","","","img/orange_2bandit_b2.png","70","","70","test","1","","28","","","","circle","square","27","4","2","0.9259259259259259","","","","","","","",""
"null","748943","SARL_v6","SARL_v6xstkedpx","61210b5c3f465c51a7f4166a","freq_resp","","","img/orange_2bandit_b.png","70","img/orange_2bandit_b.png","70","test","","","","","","","","","","","2","","","","","","","","",""
"null","749111","SARL_v6","SARL_v6xstkedpx","61210b5c3f465c51a7f4166a","fixation","","","img/fixation.png","null","","","test","","","","","","","","","","","","","","","","","","","",""
"455","749570","SARL_v6","SARL_v6xstkedpx","61210b5c3f465c51a7f4166a","freq","","","img/orange_2bandit_b2.png","70","","70","test","1","","29","","","","circle","square","28","5","2","0.9285714285714286","","","","","","","",""
"null","749929","SARL_v6","SARL_v6xstkedpx","61210b5c3f465c51a7f4166a","freq_resp","","","img/orange_2bandit_b.png","70","img/orange_2bandit_b.png","70","test","","","","","","","","","","","2","","","","","","","","",""
"null","750084","SARL_v6","SARL_v6xstkedpx","61210b5c3f465c51a7f4166a","fixation","","","img/fixation.png","null","","","test","","","","","","","","","","","","","","","","","","","",""
"439.0999999642372","750527","SARL_v6","SARL_v6xstkedpx","61210b5c3f465c51a7f4166a","freq","","","img/orange_2bandit_b2.png","70","","70","test","1","","30","","","","circle","square","29","6","2","0.9310344827586207","","","","","","","",""
"null","750895","SARL_v6","SARL_v6xstkedpx","61210b5c3f465c51a7f4166a","freq_resp","","","img/orange_2bandit_b.png","70","img/orange_2bandit_b.png","70","test","","","","","","","","","","","2","","","","","","","","",""
"null","751055","SARL_v6","SARL_v6xstkedpx","61210b5c3f465c51a7f4166a","fixation","","","img/fixation.png","null","","","test","","","","","","","","","","","","","","","","","","","",""
"456.30000001192093","751515","SARL_v6","SARL_v6xstkedpx","61210b5c3f465c51a7f4166a","freq","","","img/orange_2bandit_b2.png","70","","70","test","1","","31","","","","circle","square","30","7","2","0.9333333333333333","","","","","","","",""
"null","751874","SARL_v6","SARL_v6xstkedpx","61210b5c3f465c51a7f4166a","freq_resp","","","img/orange_2bandit_b.png","70","img/orange_2bandit_b.png","70","test","","","","","","","","","","","2","","","","","","","","",""
"null","752031","SARL_v6","SARL_v6xstkedpx","61210b5c3f465c51a7f4166a","fixation","","","img/fixation.png","null","","","test","","","","","","","","","","","","","","","","","","","",""
"407.30000001192093","752442","SARL_v6","SARL_v6xstkedpx","61210b5c3f465c51a7f4166a","freq","","","img/orange_2bandit_b2.png","70","","70","test","1","","32","","","","circle","square","31","8","2","0.9354838709677419","","","","","","","",""
"null","752851","SARL_v6","SARL_v6xstkedpx","61210b5c3f465c51a7f4166a","freq_resp","","","img/orange_2bandit_b.png","70","img/orange_2bandit_b.png","70","test","","","","","","","","","","","2","","","","","","","","",""
"null","753006","SARL_v6","SARL_v6xstkedpx","61210b5c3f465c51a7f4166a","fixation","","","img/fixation.png","null","","","test","","","","","","","","","","","","","","","","","","","",""
"338.69999998807907","753349","SARL_v6","SARL_v6xstkedpx","61210b5c3f465c51a7f4166a","freq","","","img/orange_2bandit_b2.png","70","","70","test","1","","33","","","","circle","square","32","9","2","0.9375","","","","","","","",""
"null","753816","SARL_v6","SARL_v6xstkedpx","61210b5c3f465c51a7f4166a","freq_resp","","","img/orange_2bandit_b.png","70","img/orange_2bandit_b.png","70","test","","","","","","","","","","","2","","","","","","","","",""
"null","753974","SARL_v6","SARL_v6xstkedpx","61210b5c3f465c51a7f4166a","fixation","","","img/fixation.png","null","","","test","","","","","","","","","","","","","","","","","","","",""
"183.60000002384186","754162","SARL_v6","SARL_v6xstkedpx","61210b5c3f465c51a7f4166a","freq","","","img/orange_2bandit_b2.png","70","","70","test","1","","34","","","","circle","square","33","10","2","0.9393939393939394","","","","","","","",""
"null","754790","SARL_v6","SARL_v6xstkedpx","61210b5c3f465c51a7f4166a","freq_resp","","","img/orange_2bandit_b.png","70","img/orange_2bandit_b.png","70","test","","","","","","","","","","","2","","","","","","","","",""
"null","754944","SARL_v6","SARL_v6xstkedpx","61210b5c3f465c51a7f4166a","fixation","","","img/fixation.png","null","","","test","","","","","","","","","","","","","","","","","","","",""
"153.4000000357628","755100","SARL_v6","SARL_v6xstkedpx","61210b5c3f465c51a7f4166a","freq","","","img/orange_2bandit_b2.png","70","","70","test","1","","35","","","","circle","square","34","11","2","0.9411764705882353","","","","","","","",""
"null","755760","SARL_v6","SARL_v6xstkedpx","61210b5c3f465c51a7f4166a","freq_resp","","","img/orange_2bandit_b.png","70","img/orange_2bandit_b.png","70","test","","","","","","","","","","","2","","","","","","","","",""
"null","755914","SARL_v6","SARL_v6xstkedpx","61210b5c3f465c51a7f4166a","fixation","","","img/fixation.png","null","","","test","","","","","","","","","","","","","","","","","","","",""
"353.89999997615814","756272","SARL_v6","SARL_v6xstkedpx","61210b5c3f465c51a7f4166a","freq","","","img/orange_2bandit_b2.png","70","","70","test","1","","36","","","","circle","square","35","12","2","0.9428571428571428","","","","","","","",""
"null","756735","SARL_v6","SARL_v6xstkedpx","61210b5c3f465c51a7f4166a","freq_resp","","","img/orange_2bandit_b.png","70","img/orange_2bandit_b.png","70","test","","","","","","","","","","","2","","","","","","","","",""
"null","756891","SARL_v6","SARL_v6xstkedpx","61210b5c3f465c51a7f4166a","fixation","","","img/fixation.png","null","","","test","","","","","","","","","","","","","","","","","","","",""
"323.4000000357628","757219","SARL_v6","SARL_v6xstkedpx","61210b5c3f465c51a7f4166a","freq","","","img/orange_2bandit_b2.png","70","","70","test","1","","37","","","","circle","square","36","13","2","0.9444444444444444","","","","","","","",""
"null","757701","SARL_v6","SARL_v6xstkedpx","61210b5c3f465c51a7f4166a","freq_resp","","","img/orange_2bandit_b.png","70","img/orange_2bandit_b.png","70","test","","","","","","","","","","","2","","","","","","","","",""
"null","757855","SARL_v6","SARL_v6xstkedpx","61210b5c3f465c51a7f4166a","fixation","","","img/fixation.png","null","","","test","","","","","","","","","","","","","","","","","","","",""
"275.80000001192093","758134","SARL_v6","SARL_v6xstkedpx","61210b5c3f465c51a7f4166a","freq","","","img/orange_2bandit_b2.png","70","","70","test","1","","38","","","","circle","square","37","14","2","0.9459459459459459","","","","","","","",""
"null","758673","SARL_v6","SARL_v6xstkedpx","61210b5c3f465c51a7f4166a","freq_resp","","","img/orange_2bandit_b.png","70","img/orange_2bandit_b.png","70","test","","","","","","","","","","","2","","","","","","","","",""
"null","758831","SARL_v6","SARL_v6xstkedpx","61210b5c3f465c51a7f4166a","fixation","","","img/fixation.png","null","","","test","","","","","","","","","","","","","","","","","","","",""
"252.89999997615814","759087","SARL_v6","SARL_v6xstkedpx","61210b5c3f465c51a7f4166a","freq","","","img/orange_2bandit_b2.png","70","","70","test","1","","39","","","","circle","square","38","15","2","0.9473684210526315","","","","","","","",""
"null","759648","SARL_v6","SARL_v6xstkedpx","61210b5c3f465c51a7f4166a","freq_resp","","","img/orange_2bandit_b.png","70","img/orange_2bandit_b.png","70","test","","","","","","","","","","","2","","","","","","","","",""
"null","759804","SARL_v6","SARL_v6xstkedpx","61210b5c3f465c51a7f4166a","fixation","","","img/fixation.png","null","","","test","","","","","","","","","","","","","","","","","","","",""
"262.10000002384186","760070","SARL_v6","SARL_v6xstkedpx","61210b5c3f465c51a7f4166a","freq","","","img/orange_2bandit_b2.png","70","","70","test","1","","40","","","","circle","square","39","16","2","0.9487179487179487","","","","","","","",""
"null","760622","SARL_v6","SARL_v6xstkedpx","61210b5c3f465c51a7f4166a","freq_resp","","","img/orange_2bandit_b.png","70","img/orange_2bandit_b.png","70","test","","","","","","","","","","","2","","","","","","","","",""
"null","760779","SARL_v6","SARL_v6xstkedpx","61210b5c3f465c51a7f4166a","fixation","","","img/fixation.png","null","","","test","","","","","","","","","","","","","","","","","","","",""
"399.60000002384186","761182","SARL_v6","SARL_v6xstkedpx","61210b5c3f465c51a7f4166a","freq","","","img/orange_2bandit_b2.png","70","","70","test","1","","41","","","","circle","square","40","17","2","0.95","","","","","","","",""
"null","761591","SARL_v6","SARL_v6xstkedpx","61210b5c3f465c51a7f4166a","freq_resp","","","img/orange_2bandit_b.png","70","img/orange_2bandit_b.png","70","test","","","","","","","","","","","2","","","","","","","","",""
"null","761749","SARL_v6","SARL_v6xstkedpx","61210b5c3f465c51a7f4166a","fixation","","","img/fixation.png","null","","","test","","","","","","","","","","","","","","","","","","","",""
"321.39999997615814","762074","SARL_v6","SARL_v6xstkedpx","61210b5c3f465c51a7f4166a","freq","","","img/orange_2bandit_b2.png","70","","70","test","1","","42","","","","circle","square","41","18","2","0.9512195121951219","","","","","","","",""
"null","762562","SARL_v6","SARL_v6xstkedpx","61210b5c3f465c51a7f4166a","freq_resp","","","img/orange_2bandit_b.png","70","img/orange_2bandit_b.png","70","test","","","","","","","","","","","2","","","","","","","","",""
"null","762719","SARL_v6","SARL_v6xstkedpx","61210b5c3f465c51a7f4166a","fixation","","","img/fixation.png","null","","","test","","","","","","","","","","","","","","","","","","","",""
"290","763012","SARL_v6","SARL_v6xstkedpx","61210b5c3f465c51a7f4166a","infreq","","","img/blue_2bandit_b2.png","70","","68","test","0","","43","","","","circle","square","42","19","2","0.9285714285714286","","","","","","","",""
"null","763535","SARL_v6","SARL_v6xstkedpx","61210b5c3f465c51a7f4166a","infreq_resp","","","img/blue_2bandit_b.png","70","img/blue_2bandit_b.png","68","test","","","","","","","","","","","2","","","","","","","","",""
"null","763690","SARL_v6","SARL_v6xstkedpx","61210b5c3f465c51a7f4166a","fixation","","","img/fixation.png","null","","","test","","","","","","","","","","","","","","","","","","","",""
"636.1000000238419","764330","SARL_v6","SARL_v6xstkedpx","61210b5c3f465c51a7f4166a","freq","","","img/orange_2bandit_b2.png","70","","70","test","1","","44","","","","circle","square","43","20","2","0.9302325581395349","","","","","","","",""
"null","764506","SARL_v6","SARL_v6xstkedpx","61210b5c3f465c51a7f4166a","freq_resp","","","img/orange_2bandit_b.png","70","img/orange_2bandit_b.png","70","test","","","","","","","","","","","2","","","","","","","","",""
"null","764663","SARL_v6","SARL_v6xstkedpx","61210b5c3f465c51a7f4166a","fixation","","","img/fixation.png","null","","","test","","","","","","","","","","","","","","","","","","","",""
"656","765323","SARL_v6","SARL_v6xstkedpx","61210b5c3f465c51a7f4166a","rl","","","img/black_2bandit_b2.png","74","","0","test","","","45","","","-8","circle","square","","0","2","","74","-8","-5","-8","-5","circle","2","0"
"null","766087","SARL_v6","SARL_v6xstkedpx","61210b5c3f465c51a7f4166a","feedback","","","<div class=""verylowPoints""> -8 </div>","null","","na","test","","","NaN","","","","","","","","2","","74","","","","","","2",""
"724.1999999880791","766816","SARL_v6","SARL_v6xstkedpx","61210b5c3f465c51a7f4166a","freq","","","img/orange_2bandit_b2.png","70","","70","test","1","","46","","","","circle","square","44","1","3","0.9318181818181818","","","","","","","",""
"null","766895","SARL_v6","SARL_v6xstkedpx","61210b5c3f465c51a7f4166a","freq_resp","","","img/orange_2bandit_b.png","70","img/orange_2bandit_b.png","70","test","","","","","","","","","","","3","","","","","","","","",""
"null","767051","SARL_v6","SARL_v6xstkedpx","61210b5c3f465c51a7f4166a","fixation","","","img/fixation.png","null","","","test","","","","","","","","","","","","","","","","","","","",""
"533","767588","SARL_v6","SARL_v6xstkedpx","61210b5c3f465c51a7f4166a","freq","","","img/orange_2bandit_b2.png","70","","70","test","1","","47","","","","circle","square","45","2","3","0.9333333333333333","","","","","","","",""
"null","767871","SARL_v6","SARL_v6xstkedpx","61210b5c3f465c51a7f4166a","freq_resp","","","img/orange_2bandit_b.png","70","img/orange_2bandit_b.png","70","test","","","","","","","","","","","3","","","","","","","","",""
"null","768025","SARL_v6","SARL_v6xstkedpx","61210b5c3f465c51a7f4166a","fixation","","","img/fixation.png","null","","","test","","","","","","","","","","","","","","","","","","","",""
"366.19999998807907","768395","SARL_v6","SARL_v6xstkedpx","61210b5c3f465c51a7f4166a","freq","","","img/orange_2bandit_b2.png","70","","70","test","1","","48","","","","circle","square","46","3","3","0.9347826086956522","","","","","","","",""
"null","768836","SARL_v6","SARL_v6xstkedpx","61210b5c3f465c51a7f4166a","freq_resp","","","img/orange_2bandit_b.png","70","img/orange_2bandit_b.png","70","test","","","","","","","","","","","3","","","","","","","","",""
"null","768992","SARL_v6","SARL_v6xstkedpx","61210b5c3f465c51a7f4166a","fixation","","","img/fixation.png","null","","","test","","","","","","","","","","","","","","","","","","","",""
"152.10000002384186","769147","SARL_v6","SARL_v6xstkedpx","61210b5c3f465c51a7f4166a","infreq","","","img/blue_2bandit_b2.png","70","","68","test","0","","49","","","","circle","square","47","4","3","0.9148936170212766","","","","","","","",""
"null","769804","SARL_v6","SARL_v6xstkedpx","61210b5c3f465c51a7f4166a","infreq_resp","","","img/blue_2bandit_b.png","70","img/blue_2bandit_b.png","68","test","","","","","","","","","","","3","","","","","","","","",""
"null","769965","SARL_v6","SARL_v6xstkedpx","61210b5c3f465c51a7f4166a","fixation","","","img/fixation.png","null","","","test","","","","","","","","","","","","","","","","","","","",""
"500.7000000476837","770469","SARL_v6","SARL_v6xstkedpx","61210b5c3f465c51a7f4166a","freq","","","img/orange_2bandit_b2.png","70","","70","test","1","","50","","","","circle","square","48","5","3","0.9166666666666666","","","","","","","",""
"null","770774","SARL_v6","SARL_v6xstkedpx","61210b5c3f465c51a7f4166a","freq_resp","","","img/orange_2bandit_b.png","70","img/orange_2bandit_b.png","70","test","","","","","","","","","","","3","","","","","","","","",""
"null","770928","SARL_v6","SARL_v6xstkedpx","61210b5c3f465c51a7f4166a","fixation","","","img/fixation.png","null","","","test","","","","","","","","","","","","","","","","","","","",""
"404.89999997615814","771337","SARL_v6","SARL_v6xstkedpx","61210b5c3f465c51a7f4166a","freq","","","img/orange_2bandit_b2.png","70","","70","test","1","","51","","","","circle","square","49","6","3","0.9183673469387755","","","","","","","",""
"null","771752","SARL_v6","SARL_v6xstkedpx","61210b5c3f465c51a7f4166a","freq_resp","","","img/orange_2bandit_b.png","70","img/orange_2bandit_b.png","70","test","","","","","","","","","","","3","","","","","","","","",""
"null","771909","SARL_v6","SARL_v6xstkedpx","61210b5c3f465c51a7f4166a","fixation","","","img/fixation.png","null","","","test","","","","","","","","","","","","","","","","","","","",""
"431.19999998807907","772344","SARL_v6","SARL_v6xstkedpx","61210b5c3f465c51a7f4166a","freq","","","img/orange_2bandit_b2.png","70","","70","test","1","","52","","","","circle","square","50","7","3","0.92","","","","","","","",""
"null","772720","SARL_v6","SARL_v6xstkedpx","61210b5c3f465c51a7f4166a","freq_resp","","","img/orange_2bandit_b.png","70","img/orange_2bandit_b.png","70","test","","","","","","","","","","","3","","","","","","","","",""
"null","772878","SARL_v6","SARL_v6xstkedpx","61210b5c3f465c51a7f4166a","fixation","","","img/fixation.png","null","","","test","","","","","","","","","","","","","","","","","","","",""
"435.60000002384186","773317","SARL_v6","SARL_v6xstkedpx","61210b5c3f465c51a7f4166a","freq","","","img/orange_2bandit_b2.png","70","","70","test","1","","53","","","","circle","square","51","8","3","0.9215686274509803","","","","","","","",""
"null","773691","SARL_v6","SARL_v6xstkedpx","61210b5c3f465c51a7f4166a","freq_resp","","","img/orange_2bandit_b.png","70","img/orange_2bandit_b.png","70","test","","","","","","","","","","","3","","","","","","","","",""
"null","773860","SARL_v6","SARL_v6xstkedpx","61210b5c3f465c51a7f4166a","fixation","","","img/fixation.png","null","","","test","","","","","","","","","","","","","","","","","","","",""
"431.10000002384186","774295","SARL_v6","SARL_v6xstkedpx","61210b5c3f465c51a7f4166a","freq","","","img/orange_2bandit_b2.png","70","","70","test","1","","54","","","","circle","square","52","9","3","0.9230769230769231","","","","","","","",""
"null","774672","SARL_v6","SARL_v6xstkedpx","61210b5c3f465c51a7f4166a","freq_resp","","","img/orange_2bandit_b.png","70","img/orange_2bandit_b.png","70","test","","","","","","","","","","","3","","","","","","","","",""
"null","774828","SARL_v6","SARL_v6xstkedpx","61210b5c3f465c51a7f4166a","fixation","","","img/fixation.png","null","","","test","","","","","","","","","","","","","","","","","","","",""
"449.80000001192093","775281","SARL_v6","SARL_v6xstkedpx","61210b5c3f465c51a7f4166a","freq","","","img/orange_2bandit_b2.png","70","","70","test","1","","55","","","","circle","square","53","10","3","0.9245283018867925","","","","","","","",""
"null","775641","SARL_v6","SARL_v6xstkedpx","61210b5c3f465c51a7f4166a","freq_resp","","","img/orange_2bandit_b.png","70","img/orange_2bandit_b.png","70","test","","","","","","","","","","","3","","","","","","","","",""
"null","775798","SARL_v6","SARL_v6xstkedpx","61210b5c3f465c51a7f4166a","fixation","","","img/fixation.png","null","","","test","","","","","","","","","","","","","","","","","","","",""
"356.5","776158","SARL_v6","SARL_v6xstkedpx","61210b5c3f465c51a7f4166a","freq","","","img/orange_2bandit_b2.png","70","","70","test","1","","56","","","","circle","square","54","11","3","0.9259259259259259","","","","","","","",""
"null","776610","SARL_v6","SARL_v6xstkedpx","61210b5c3f465c51a7f4166a","freq_resp","","","img/orange_2bandit_b.png","70","img/orange_2bandit_b.png","70","test","","","","","","","","","","","3","","","","","","","","",""
"null","776766","SARL_v6","SARL_v6xstkedpx","61210b5c3f465c51a7f4166a","fixation","","","img/fixation.png","null","","","test","","","","","","","","","","","","","","","","","","","",""
"552","777319","SARL_v6","SARL_v6xstkedpx","61210b5c3f465c51a7f4166a","freq","","","img/orange_2bandit_b2.png","70","","70","test","1","","57","","","","circle","square","55","12","3","0.9272727272727272","","","","","","","",""
"null","777579","SARL_v6","SARL_v6xstkedpx","61210b5c3f465c51a7f4166a","freq_resp","","","img/orange_2bandit_b.png","70","img/orange_2bandit_b.png","70","test","","","","","","","","","","","3","","","","","","","","",""
"null","777748","SARL_v6","SARL_v6xstkedpx","61210b5c3f465c51a7f4166a","fixation","","","img/fixation.png","null","","","test","","","","","","","","","","","","","","","","","","","",""
"315.69999998807907","778067","SARL_v6","SARL_v6xstkedpx","61210b5c3f465c51a7f4166a","freq","","","img/orange_2bandit_b2.png","70","","70","test","1","","58","","","","circle","square","56","13","3","0.9285714285714286","","","","","","","",""
"null","778555","SARL_v6","SARL_v6xstkedpx","61210b5c3f465c51a7f4166a","freq_resp","","","img/orange_2bandit_b.png","70","img/orange_2bandit_b.png","70","test","","","","","","","","","","","3","","","","","","","","",""
"null","778710","SARL_v6","SARL_v6xstkedpx","61210b5c3f465c51a7f4166a","fixation","","","img/fixation.png","null","","","test","","","","","","","","","","","","","","","","","","","",""
"211.30000001192093","778925","SARL_v6","SARL_v6xstkedpx","61210b5c3f465c51a7f4166a","freq","","","img/orange_2bandit_b2.png","70","","70","test","1","","59","","","","circle","square","57","14","3","0.9298245614035088","","","","","","","",""
"null","779533","SARL_v6","SARL_v6xstkedpx","61210b5c3f465c51a7f4166a","freq_resp","","","img/orange_2bandit_b.png","70","img/orange_2bandit_b.png","70","test","","","","","","","","","","","3","","","","","","","","",""
"null","779691","SARL_v6","SARL_v6xstkedpx","61210b5c3f465c51a7f4166a","fixation","","","img/fixation.png","null","","","test","","","","","","","","","","","","","","","","","","","",""
"382.69999998807907","780077","SARL_v6","SARL_v6xstkedpx","61210b5c3f465c51a7f4166a","freq","","","img/orange_2bandit_b2.png","70","","70","test","1","","60","","","","circle","square","58","15","3","0.9310344827586207","","","","","","","",""
"null","780508","SARL_v6","SARL_v6xstkedpx","61210b5c3f465c51a7f4166a","freq_resp","","","img/orange_2bandit_b.png","70","img/orange_2bandit_b.png","70","test","","","","","","","","","","","3","","","","","","","","",""
"null","780666","SARL_v6","SARL_v6xstkedpx","61210b5c3f465c51a7f4166a","fixation","","","img/fixation.png","null","","","test","","","","","","","","","","","","","","","","","","","",""
"null","781473","SARL_v6","SARL_v6xstkedpx","61210b5c3f465c51a7f4166a","freq","","","img/orange_2bandit_b2.png","null","","70","test","0","","61","","","","circle","square","59","16","3","0.9152542372881356","","","","","","","",""
"null","781630","SARL_v6","SARL_v6xstkedpx","61210b5c3f465c51a7f4166a","fixation","","","img/fixation.png","null","","","test","","","","","","","","","","","","","","","","","","","",""
"558.3999999761581","782193","SARL_v6","SARL_v6xstkedpx","61210b5c3f465c51a7f4166a","freq","","","img/orange_2bandit_b2.png","70","","70","test","1","","62","","","","circle","square","60","17","3","0.9166666666666666","","","","","","","",""
"null","782445","SARL_v6","SARL_v6xstkedpx","61210b5c3f465c51a7f4166a","freq_resp","","","img/orange_2bandit_b.png","70","img/orange_2bandit_b.png","70","test","","","","","","","","","","","3","","","","","","","","",""
"null","782599","SARL_v6","SARL_v6xstkedpx","61210b5c3f465c51a7f4166a","fixation","","","img/fixation.png","null","","","test","","","","","","","","","","","","","","","","","","","",""
"557.2000000476837","783160","SARL_v6","SARL_v6xstkedpx","61210b5c3f465c51a7f4166a","freq","","","img/orange_2bandit_b2.png","70","","70","test","1","","63","","","","circle","square","61","18","3","0.9180327868852459","","","","","","","",""
"null","783411","SARL_v6","SARL_v6xstkedpx","61210b5c3f465c51a7f4166a","freq_resp","","","img/orange_2bandit_b.png","70","img/orange_2bandit_b.png","70","test","","","","","","","","","","","3","","","","","","","","",""
"null","783580","SARL_v6","SARL_v6xstkedpx","61210b5c3f465c51a7f4166a","fixation","","","img/fixation.png","null","","","test","","","","","","","","","","","","","","","","","","","",""
"628.8000000119209","784213","SARL_v6","SARL_v6xstkedpx","61210b5c3f465c51a7f4166a","freq","","","img/orange_2bandit_b2.png","70","","70","test","1","","64","","","","circle","square","62","19","3","0.9193548387096774","","","","","","","",""
"null","784399","SARL_v6","SARL_v6xstkedpx","61210b5c3f465c51a7f4166a","freq_resp","","","img/orange_2bandit_b.png","70","img/orange_2bandit_b.png","70","test","","","","","","","","","","","3","","","","","","","","",""
"null","784558","SARL_v6","SARL_v6xstkedpx","61210b5c3f465c51a7f4166a","fixation","","","img/fixation.png","null","","","test","","","","","","","","","","","","","","","","","","","",""
"709.6000000238419","785271","SARL_v6","SARL_v6xstkedpx","61210b5c3f465c51a7f4166a","freq","","","img/orange_2bandit_b2.png","70","","70","test","1","","65","","","","circle","square","63","20","3","0.9206349206349206","","","","","","","",""
"null","785365","SARL_v6","SARL_v6xstkedpx","61210b5c3f465c51a7f4166a","freq_resp","","","img/orange_2bandit_b.png","70","img/orange_2bandit_b.png","70","test","","","","","","","","","","","3","","","","","","","","",""
"null","785521","SARL_v6","SARL_v6xstkedpx","61210b5c3f465c51a7f4166a","fixation","","","img/fixation.png","null","","","test","","","","","","","","","","","","","","","","","","","",""
"735.5","786260","SARL_v6","SARL_v6xstkedpx","61210b5c3f465c51a7f4166a","freq","","","img/orange_2bandit_b2.png","70","","70","test","1","","66","","","","circle","square","64","21","3","0.921875","","","","","","","",""
"null","786339","SARL_v6","SARL_v6xstkedpx","61210b5c3f465c51a7f4166a","freq_resp","","","img/orange_2bandit_b.png","70","img/orange_2bandit_b.png","70","test","","","","","","","","","","","3","","","","","","","","",""
"null","786497","SARL_v6","SARL_v6xstkedpx","61210b5c3f465c51a7f4166a","fixation","","","img/fixation.png","null","","","test","","","","","","","","","","","","","","","","","","","",""
"null","787310","SARL_v6","SARL_v6xstkedpx","61210b5c3f465c51a7f4166a","freq","","","img/orange_2bandit_b2.png","null","","70","test","0","","67","","","","circle","square","65","22","3","0.9076923076923077","","","","","","","",""
"null","787465","SARL_v6","SARL_v6xstkedpx","61210b5c3f465c51a7f4166a","fixation","","","img/fixation.png","null","","","test","","","","","","","","","","","","","","","","","","","",""
"null","788276","SARL_v6","SARL_v6xstkedpx","61210b5c3f465c51a7f4166a","freq","","","img/orange_2bandit_b2.png","null","","70","test","0","","68","","","","circle","square","66","23","3","0.8939393939393939","","","","","","","",""
"null","788430","SARL_v6","SARL_v6xstkedpx","61210b5c3f465c51a7f4166a","fixation","","","img/fixation.png","null","","","test","","","","","","","","","","","","","","","","","","","",""
"48.200000047683716","788482","SARL_v6","SARL_v6xstkedpx","61210b5c3f465c51a7f4166a","infreq","","","img/blue_2bandit_b2.png","70","","68","test","0","","69","","","","circle","square","67","24","3","0.8805970149253731","","","","","","","",""
"null","789243","SARL_v6","SARL_v6xstkedpx","61210b5c3f465c51a7f4166a","infreq_resp","","","img/blue_2bandit_b.png","70","img/blue_2bandit_b.png","68","test","","","","","","","","","","","3","","","","","","","","",""
"null","789398","SARL_v6","SARL_v6xstkedpx","61210b5c3f465c51a7f4166a","fixation","","","img/fixation.png","null","","","test","","","","","","","","","","","","","","","","","","","",""
"619.3999999761581","790021","SARL_v6","SARL_v6xstkedpx","61210b5c3f465c51a7f4166a","freq","","","img/orange_2bandit_b2.png","70","","70","test","1","","70","","","","circle","square","68","25","3","0.8823529411764706","","","","","","","",""
"null","790205","SARL_v6","SARL_v6xstkedpx","61210b5c3f465c51a7f4166a","freq_resp","","","img/orange_2bandit_b.png","70","img/orange_2bandit_b.png","70","test","","","","","","","","","","","3","","","","","","","","",""
"null","790363","SARL_v6","SARL_v6xstkedpx","61210b5c3f465c51a7f4166a","fixation","","","img/fixation.png","null","","","test","","","","","","","","","","","","","","","","","","","",""
"517.2000000476837","790883","SARL_v6","SARL_v6xstkedpx","61210b5c3f465c51a7f4166a","freq","","","img/orange_2bandit_b2.png","70","","70","test","1","","71","","","","circle","square","69","26","3","0.8840579710144928","","","","","","","",""
"null","791176","SARL_v6","SARL_v6xstkedpx","61210b5c3f465c51a7f4166a","freq_resp","","","img/orange_2bandit_b.png","70","img/orange_2bandit_b.png","70","test","","","","","","","","","","","3","","","","","","","","",""
"null","791333","SARL_v6","SARL_v6xstkedpx","61210b5c3f465c51a7f4166a","fixation","","","img/fixation.png","null","","","test","","","","","","","","","","","","","","","","","","","",""
"659.2000000476837","791996","SARL_v6","SARL_v6xstkedpx","61210b5c3f465c51a7f4166a","rl","","","img/black_2bandit_b2.png","74","","0","test","","","72","","","-8","circle","square","","0","3","","74","-8","-4","-8","-4","circle","3","0"
"null","792758","SARL_v6","SARL_v6xstkedpx","61210b5c3f465c51a7f4166a","feedback","","","<div class=""verylowPoints""> -8 </div>","null","","na","test","","","NaN","","","","","","","","3","","74","","","","","","3",""
"686.3999999761581","793447","SARL_v6","SARL_v6xstkedpx","61210b5c3f465c51a7f4166a","freq","","","img/orange_2bandit_b2.png","70","","70","test","1","","73","","","","circle","square","70","1","4","0.8857142857142857","","","","","","","",""
"null","793576","SARL_v6","SARL_v6xstkedpx","61210b5c3f465c51a7f4166a","freq_resp","","","img/orange_2bandit_b.png","70","img/orange_2bandit_b.png","70","test","","","","","","","","","","","4","","","","","","","","",""
"null","793731","SARL_v6","SARL_v6xstkedpx","61210b5c3f465c51a7f4166a","fixation","","","img/fixation.png","null","","","test","","","","","","","","","","","","","","","","","","","",""
"593.0999999642372","794327","SARL_v6","SARL_v6xstkedpx","61210b5c3f465c51a7f4166a","infreq","","","img/blue_2bandit_b2.png","68","","68","test","1","","74","","","","circle","square","71","2","4","0.8873239436619719","","","","","","","",""
"null","794545","SARL_v6","SARL_v6xstkedpx","61210b5c3f465c51a7f4166a","infreq_resp","","","img/blue_2bandit_b.png","68","img/blue_2bandit_b.png","68","test","","","","","","","","","","","4","","","","","","","","",""
"null","794703","SARL_v6","SARL_v6xstkedpx","61210b5c3f465c51a7f4166a","fixation","","","img/fixation.png","null","","","test","","","","","","","","","","","","","","","","","","","",""
"561.6000000238419","795268","SARL_v6","SARL_v6xstkedpx","61210b5c3f465c51a7f4166a","freq","","","img/orange_2bandit_b2.png","70","","70","test","1","","75","","","","circle","square","72","3","4","0.8888888888888888","","","","","","","",""
"null","795525","SARL_v6","SARL_v6xstkedpx","61210b5c3f465c51a7f4166a","freq_resp","","","img/orange_2bandit_b.png","70","img/orange_2bandit_b.png","70","test","","","","","","","","","","","4","","","","","","","","",""
"null","795681","SARL_v6","SARL_v6xstkedpx","61210b5c3f465c51a7f4166a","fixation","","","img/fixation.png","null","","","test","","","","","","","","","","","","","","","","","","","",""
"732.1000000238419","796417","SARL_v6","SARL_v6xstkedpx","61210b5c3f465c51a7f4166a","freq","","","img/orange_2bandit_b2.png","70","","70","test","1","","76","","","","circle","square","73","4","4","0.8904109589041096","","","","","","","",""
"null","796491","SARL_v6","SARL_v6xstkedpx","61210b5c3f465c51a7f4166a","freq_resp","","","img/orange_2bandit_b.png","70","img/orange_2bandit_b.png","70","test","","","","","","","","","","","4","","","","","","","","",""
"null","796648","SARL_v6","SARL_v6xstkedpx","61210b5c3f465c51a7f4166a","fixation","","","img/fixation.png","null","","","test","","","","","","","","","","","","","","","","","","","",""
"481.60000002384186","797133","SARL_v6","SARL_v6xstkedpx","61210b5c3f465c51a7f4166a","freq","","","img/orange_2bandit_b2.png","70","","70","test","1","","77","","","","circle","square","74","5","4","0.8918918918918919","","","","","","","",""
"null","797465","SARL_v6","SARL_v6xstkedpx","61210b5c3f465c51a7f4166a","freq_resp","","","img/orange_2bandit_b.png","70","img/orange_2bandit_b.png","70","test","","","","","","","","","","","4","","","","","","","","",""
"null","797621","SARL_v6","SARL_v6xstkedpx","61210b5c3f465c51a7f4166a","fixation","","","img/fixation.png","null","","","test","","","","","","","","","","","","","","","","","","","",""
"550.5999999642372","798175","SARL_v6","SARL_v6xstkedpx","61210b5c3f465c51a7f4166a","freq","","","img/orange_2bandit_b2.png","70","","70","test","1","","78","","","","circle","square","75","6","4","0.8933333333333333","","","","","","","",""
"null","798437","SARL_v6","SARL_v6xstkedpx","61210b5c3f465c51a7f4166a","freq_resp","","","img/orange_2bandit_b.png","70","img/orange_2bandit_b.png","70","test","","","","","","","","","","","4","","","","","","","","",""
"null","798592","SARL_v6","SARL_v6xstkedpx","61210b5c3f465c51a7f4166a","fixation","","","img/fixation.png","null","","","test","","","","","","","","","","","","","","","","","","","",""
"401.9000000357628","798997","SARL_v6","SARL_v6xstkedpx","61210b5c3f465c51a7f4166a","freq","","","img/orange_2bandit_b2.png","70","","70","test","1","","79","","","","circle","square","76","7","4","0.8947368421052632","","","","","","","",""
"null","799412","SARL_v6","SARL_v6xstkedpx","61210b5c3f465c51a7f4166a","freq_resp","","","img/orange_2bandit_b.png","70","img/orange_2bandit_b.png","70","test","","","","","","","","","","","4","","","","","","","","",""
"null","799568","SARL_v6","SARL_v6xstkedpx","61210b5c3f465c51a7f4166a","fixation","","","img/fixation.png","null","","","test","","","","","","","","","","","","","","","","","","","",""
"338","799909","SARL_v6","SARL_v6xstkedpx","61210b5c3f465c51a7f4166a","freq","","","img/orange_2bandit_b2.png","70","","70","test","1","","80","","","","circle","square","77","8","4","0.8961038961038961","","","","","","","",""
"null","800386","SARL_v6","SARL_v6xstkedpx","61210b5c3f465c51a7f4166a","freq_resp","","","img/orange_2bandit_b.png","70","img/orange_2bandit_b.png","70","test","","","","","","","","","","","4","","","","","","","","",""
"null","800548","SARL_v6","SARL_v6xstkedpx","61210b5c3f465c51a7f4166a","fixation","","","img/fixation.png","null","","","test","","","","","","","","","","","","","","","","","","","",""
"245.4000000357628","800797","SARL_v6","SARL_v6xstkedpx","61210b5c3f465c51a7f4166a","freq","","","img/orange_2bandit_b2.png","70","","70","test","1","","81","","","","circle","square","78","9","4","0.8974358974358975","","","","","","","",""
"null","801356","SARL_v6","SARL_v6xstkedpx","61210b5c3f465c51a7f4166a","freq_resp","","","img/orange_2bandit_b.png","70","img/orange_2bandit_b.png","70","test","","","","","","","","","","","4","","","","","","","","",""
"null","801509","SARL_v6","SARL_v6xstkedpx","61210b5c3f465c51a7f4166a","fixation","","","img/fixation.png","null","","","test","","","","","","","","","","","","","","","","","","","",""
"276.2999999523163","801789","SARL_v6","SARL_v6xstkedpx","61210b5c3f465c51a7f4166a","freq","","","img/orange_2bandit_b2.png","70","","70","test","1","","82","","","","circle","square","79","10","4","0.8987341772151899","","","","","","","",""
"null","802321","SARL_v6","SARL_v6xstkedpx","61210b5c3f465c51a7f4166a","freq_resp","","","img/orange_2bandit_b.png","70","img/orange_2bandit_b.png","70","test","","","","","","","","","","","4","","","","","","","","",""
"null","802475","SARL_v6","SARL_v6xstkedpx","61210b5c3f465c51a7f4166a","fixation","","","img/fixation.png","null","","","test","","","","","","","","","","","","","","","","","","","",""
"335.89999997615814","802814","SARL_v6","SARL_v6xstkedpx","61210b5c3f465c51a7f4166a","freq","","","img/orange_2bandit_b2.png","70","","70","test","1","","83","","","","circle","square","80","11","4","0.9","","","","","","","",""
"null","803295","SARL_v6","SARL_v6xstkedpx","61210b5c3f465c51a7f4166a","freq_resp","","","img/orange_2bandit_b.png","70","img/orange_2bandit_b.png","70","test","","","","","","","","","","","4","","","","","","","","",""
"null","803450","SARL_v6","SARL_v6xstkedpx","61210b5c3f465c51a7f4166a","fixation","","","img/fixation.png","null","","","test","","","","","","","","","","","","","","","","","","","",""
"375.5","803829","SARL_v6","SARL_v6xstkedpx","61210b5c3f465c51a7f4166a","freq","","","img/orange_2bandit_b2.png","70","","70","test","1","","84","","","","circle","square","81","12","4","0.9012345679012346","","","","","","","",""
"null","804259","SARL_v6","SARL_v6xstkedpx","61210b5c3f465c51a7f4166a","freq_resp","","","img/orange_2bandit_b.png","70","img/orange_2bandit_b.png","70","test","","","","","","","","","","","4","","","","","","","","",""
"null","804428","SARL_v6","SARL_v6xstkedpx","61210b5c3f465c51a7f4166a","fixation","","","img/fixation.png","null","","","test","","","","","","","","","","","","","","","","","","","",""
"399.5","804831","SARL_v6","SARL_v6xstkedpx","61210b5c3f465c51a7f4166a","freq","","","img/orange_2bandit_b2.png","70","","70","test","1","","85","","","","circle","square","82","13","4","0.9024390243902439","","","","","","","",""
"null","805244","SARL_v6","SARL_v6xstkedpx","61210b5c3f465c51a7f4166a","freq_resp","","","img/orange_2bandit_b.png","70","img/orange_2bandit_b.png","70","test","","","","","","","","","","","4","","","","","","","","",""
"null","805412","SARL_v6","SARL_v6xstkedpx","61210b5c3f465c51a7f4166a","fixation","","","img/fixation.png","null","","","test","","","","","","","","","","","","","","","","","","","",""
"343.39999997615814","805759","SARL_v6","SARL_v6xstkedpx","61210b5c3f465c51a7f4166a","infreq","","","img/blue_2bandit_b2.png","70","","68","test","0","","86","","","","circle","square","83","14","4","0.891566265060241","","","","","","","",""
"null","806229","SARL_v6","SARL_v6xstkedpx","61210b5c3f465c51a7f4166a","infreq_resp","","","img/blue_2bandit_b.png","70","img/blue_2bandit_b.png","68","test","","","","","","","","","","","4","","","","","","","","",""
"null","806389","SARL_v6","SARL_v6xstkedpx","61210b5c3f465c51a7f4166a","fixation","","","img/fixation.png","null","","","test","","","","","","","","","","","","","","","","","","","",""
"599.0999999642372","806991","SARL_v6","SARL_v6xstkedpx","61210b5c3f465c51a7f4166a","freq","","","img/orange_2bandit_b2.png","70","","70","test","1","","87","","","","circle","square","84","15","4","0.8928571428571429","","","","","","","",""
"null","807209","SARL_v6","SARL_v6xstkedpx","61210b5c3f465c51a7f4166a","freq_resp","","","img/orange_2bandit_b.png","70","img/orange_2bandit_b.png","70","test","","","","","","","","","","","4","","","","","","","","",""
"null","807367","SARL_v6","SARL_v6xstkedpx","61210b5c3f465c51a7f4166a","fixation","","","img/fixation.png","null","","","test","","","","","","","","","","","","","","","","","","","",""
"567.8000000119209","807938","SARL_v6","SARL_v6xstkedpx","61210b5c3f465c51a7f4166a","freq","","","img/orange_2bandit_b2.png","70","","70","test","1","","88","","","","circle","square","85","16","4","0.8941176470588236","","","","","","","",""
"null","808181","SARL_v6","SARL_v6xstkedpx","61210b5c3f465c51a7f4166a","freq_resp","","","img/orange_2bandit_b.png","70","img/orange_2bandit_b.png","70","test","","","","","","","","","","","4","","","","","","","","",""
"null","808341","SARL_v6","SARL_v6xstkedpx","61210b5c3f465c51a7f4166a","fixation","","","img/fixation.png","null","","","test","","","","","","","","","","","","","","","","","","","",""
"406.5","808751","SARL_v6","SARL_v6xstkedpx","61210b5c3f465c51a7f4166a","freq","","","img/orange_2bandit_b2.png","70","","70","test","1","","89","","","","circle","square","86","17","4","0.8953488372093024","","","","","","","",""
"null","809158","SARL_v6","SARL_v6xstkedpx","61210b5c3f465c51a7f4166a","freq_resp","","","img/orange_2bandit_b.png","70","img/orange_2bandit_b.png","70","test","","","","","","","","","","","4","","","","","","","","",""
"null","809316","SARL_v6","SARL_v6xstkedpx","61210b5c3f465c51a7f4166a","fixation","","","img/fixation.png","null","","","test","","","","","","","","","","","","","","","","","","","",""
"428.39999997615814","809748","SARL_v6","SARL_v6xstkedpx","61210b5c3f465c51a7f4166a","freq","","","img/orange_2bandit_b2.png","70","","70","test","1","","90","","","","circle","square","87","18","4","0.896551724137931","","","","","","","",""
"null","810134","SARL_v6","SARL_v6xstkedpx","61210b5c3f465c51a7f4166a","freq_resp","","","img/orange_2bandit_b.png","70","img/orange_2bandit_b.png","70","test","","","","","","","","","","","4","","","","","","","","",""
"null","810293","SARL_v6","SARL_v6xstkedpx","61210b5c3f465c51a7f4166a","fixation","","","img/fixation.png","null","","","test","","","","","","","","","","","","","","","","","","","",""
"362.89999997615814","810660","SARL_v6","SARL_v6xstkedpx","61210b5c3f465c51a7f4166a","freq","","","img/orange_2bandit_b2.png","70","","70","test","1","","91","","","","circle","square","88","19","4","0.8977272727272727","","","","","","","",""
"null","811112","SARL_v6","SARL_v6xstkedpx","61210b5c3f465c51a7f4166a","freq_resp","","","img/orange_2bandit_b.png","70","img/orange_2bandit_b.png","70","test","","","","","","","","","","","4","","","","","","","","",""
"null","811271","SARL_v6","SARL_v6xstkedpx","61210b5c3f465c51a7f4166a","fixation","","","img/fixation.png","null","","","test","","","","","","","","","","","","","","","","","","","",""
"541.8000000119209","811816","SARL_v6","SARL_v6xstkedpx","61210b5c3f465c51a7f4166a","freq","","","img/orange_2bandit_b2.png","70","","70","test","1","","92","","","","circle","square","89","20","4","0.898876404494382","","","","","","","",""
"null","812086","SARL_v6","SARL_v6xstkedpx","61210b5c3f465c51a7f4166a","freq_resp","","","img/orange_2bandit_b.png","70","img/orange_2bandit_b.png","70","test","","","","","","","","","","","4","","","","","","","","",""
"null","812240","SARL_v6","SARL_v6xstkedpx","61210b5c3f465c51a7f4166a","fixation","","","img/fixation.png","null","","","test","","","","","","","","","","","","","","","","","","","",""
"605.5","812850","SARL_v6","SARL_v6xstkedpx","61210b5c3f465c51a7f4166a","rl","","","img/black_2bandit_b2.png","74","","0","test","","","93","","","-12","circle","square","","0","4","","74","-12","0","-12","0","circle","4","0"
"null","813607","SARL_v6","SARL_v6xstkedpx","61210b5c3f465c51a7f4166a","feedback","","","<div class=""verylowPoints""> -12 </div>","null","","na","test","","","NaN","","","","","","","","4","","74","","","","","","4",""
"559.1999999880791","814170","SARL_v6","SARL_v6xstkedpx","61210b5c3f465c51a7f4166a","freq","","","img/orange_2bandit_b2.png","70","","70","test","1","","94","","","","circle","square","90","1","5","0.9","","","","","","","",""
"null","814426","SARL_v6","SARL_v6xstkedpx","61210b5c3f465c51a7f4166a","freq_resp","","","img/orange_2bandit_b.png","70","img/orange_2bandit_b.png","70","test","","","","","","","","","","","5","","","","","","","","",""
"null","814581","SARL_v6","SARL_v6xstkedpx","61210b5c3f465c51a7f4166a","fixation","","","img/fixation.png","null","","","test","","","","","","","","","","","","","","","","","","","",""
"605.8999999761581","815190","SARL_v6","SARL_v6xstkedpx","61210b5c3f465c51a7f4166a","freq","","","img/orange_2bandit_b2.png","70","","70","test","1","","95","","","","circle","square","91","2","5","0.9010989010989011","","","","","","","",""
"null","815402","SARL_v6","SARL_v6xstkedpx","61210b5c3f465c51a7f4166a","freq_resp","","","img/orange_2bandit_b.png","70","img/orange_2bandit_b.png","70","test","","","","","","","","","","","5","","","","","","","","",""
"null","815559","SARL_v6","SARL_v6xstkedpx","61210b5c3f465c51a7f4166a","fixation","","","img/fixation.png","null","","","test","","","","","","","","","","","","","","","","","","","",""
"601.6000000238419","816164","SARL_v6","SARL_v6xstkedpx","61210b5c3f465c51a7f4166a","freq","","","img/orange_2bandit_b2.png","70","","70","test","1","","96","","","","circle","square","92","3","5","0.9021739130434783","","","","","","","",""
"null","816370","SARL_v6","SARL_v6xstkedpx","61210b5c3f465c51a7f4166a","freq_resp","","","img/orange_2bandit_b.png","70","img/orange_2bandit_b.png","70","test","","","","","","","","","","","5","","","","","","","","",""
"null","816528","SARL_v6","SARL_v6xstkedpx","61210b5c3f465c51a7f4166a","fixation","","","img/fixation.png","null","","","test","","","","","","","","","","","","","","","","","","","",""
"584.5","817116","SARL_v6","SARL_v6xstkedpx","61210b5c3f465c51a7f4166a","freq","","","img/orange_2bandit_b2.png","70","","70","test","1","","97","","","","circle","square","93","4","5","0.9032258064516129","","","","","","","",""
"null","817343","SARL_v6","SARL_v6xstkedpx","61210b5c3f465c51a7f4166a","freq_resp","","","img/orange_2bandit_b.png","70","img/orange_2bandit_b.png","70","test","","","","","","","","","","","5","","","","","","","","",""
"null","817499","SARL_v6","SARL_v6xstkedpx","61210b5c3f465c51a7f4166a","fixation","","","img/fixation.png","null","","","test","","","","","","","","","","","","","","","","","","","",""
"495.10000002384186","817998","SARL_v6","SARL_v6xstkedpx","61210b5c3f465c51a7f4166a","freq","","","img/orange_2bandit_b2.png","70","","70","test","1","","98","","","","circle","square","94","5","5","0.9042553191489362","","","","","","","",""
"null","818315","SARL_v6","SARL_v6xstkedpx","61210b5c3f465c51a7f4166a","freq_resp","","","img/orange_2bandit_b.png","70","img/orange_2bandit_b.png","70","test","","","","","","","","","","","5","","","","","","","","",""
"null","818470","SARL_v6","SARL_v6xstkedpx","61210b5c3f465c51a7f4166a","fixation","","","img/fixation.png","null","","","test","","","","","","","","","","","","","","","","","","","",""
"566","819040","SARL_v6","SARL_v6xstkedpx","61210b5c3f465c51a7f4166a","infreq","","","img/blue_2bandit_b2.png","68","","68","test","1","","99","","","","circle","square","95","6","5","0.9052631578947369","","","","","","","",""
"null","819283","SARL_v6","SARL_v6xstkedpx","61210b5c3f465c51a7f4166a","infreq_resp","","","img/blue_2bandit_b.png","68","img/blue_2bandit_b.png","68","test","","","","","","","","","","","5","","","","","","","","",""
"null","819439","SARL_v6","SARL_v6xstkedpx","61210b5c3f465c51a7f4166a","fixation","","","img/fixation.png","null","","","test","","","","","","","","","","","","","","","","","","","",""
"498.5999999642372","819940","SARL_v6","SARL_v6xstkedpx","61210b5c3f465c51a7f4166a","freq","","","img/orange_2bandit_b2.png","70","","70","test","1","","100","","","","circle","square","96","7","5","0.90625","","","","","","","",""
"null","820258","SARL_v6","SARL_v6xstkedpx","61210b5c3f465c51a7f4166a","freq_resp","","","img/orange_2bandit_b.png","70","img/orange_2bandit_b.png","70","test","","","","","","","","","","","5","","","","","","","","",""
"null","820413","SARL_v6","SARL_v6xstkedpx","61210b5c3f465c51a7f4166a","fixation","","","img/fixation.png","null","","","test","","","","","","","","","","","","","","","","","","","",""
"633.3000000119209","821050","SARL_v6","SARL_v6xstkedpx","61210b5c3f465c51a7f4166a","freq","","","img/orange_2bandit_b2.png","70","","70","test","1","","101","","","","circle","square","97","8","5","0.9072164948453608","","","","","","","",""
"null","821234","SARL_v6","SARL_v6xstkedpx","61210b5c3f465c51a7f4166a","freq_resp","","","img/orange_2bandit_b.png","70","img/orange_2bandit_b.png","70","test","","","","","","","","","","","5","","","","","","","","",""
"null","821394","SARL_v6","SARL_v6xstkedpx","61210b5c3f465c51a7f4166a","fixation","","","img/fixation.png","null","","","test","","","","","","","","","","","","","","","","","","","",""
"414.5","821812","SARL_v6","SARL_v6xstkedpx","61210b5c3f465c51a7f4166a","freq","","","img/orange_2bandit_b2.png","70","","70","test","1","","102","","","","circle","square","98","9","5","0.9081632653061225","","","","","","","",""
"null","822216","SARL_v6","SARL_v6xstkedpx","61210b5c3f465c51a7f4166a","freq_resp","","","img/orange_2bandit_b.png","70","img/orange_2bandit_b.png","70","test","","","","","","","","","","","5","","","","","","","","",""
"null","822374","SARL_v6","SARL_v6xstkedpx","61210b5c3f465c51a7f4166a","fixation","","","img/fixation.png","null","","","test","","","","","","","","","","","","","","","","","","","",""
"587","822964","SARL_v6","SARL_v6xstkedpx","61210b5c3f465c51a7f4166a","infreq","","","img/blue_2bandit_b2.png","68","","68","test","1","","103","","","","circle","square","99","10","5","0.9090909090909091","","","","","","","",""
"null","823192","SARL_v6","SARL_v6xstkedpx","61210b5c3f465c51a7f4166a","infreq_resp","","","img/blue_2bandit_b.png","68","img/blue_2bandit_b.png","68","test","","","","","","","","","","","5","","","","","","","","",""
"null","823348","SARL_v6","SARL_v6xstkedpx","61210b5c3f465c51a7f4166a","fixation","","","img/fixation.png","null","","","test","","","","","","","","","","","","","","","","","","","",""
"760.1999999880791","824112","SARL_v6","SARL_v6xstkedpx","61210b5c3f465c51a7f4166a","freq","","","img/orange_2bandit_b2.png","70","","70","test","1","","104","","","","circle","square","100","11","5","0.91","","","","","","","",""
"null","824169","SARL_v6","SARL_v6xstkedpx","61210b5c3f465c51a7f4166a","freq_resp","","","img/orange_2bandit_b.png","70","img/orange_2bandit_b.png","70","test","","","","","","","","","","","5","","","","","","","","",""
"null","824324","SARL_v6","SARL_v6xstkedpx","61210b5c3f465c51a7f4166a","fixation","","","img/fixation.png","null","","","test","","","","","","","","","","","","","","","","","","","",""
"486.39999997615814","824814","SARL_v6","SARL_v6xstkedpx","61210b5c3f465c51a7f4166a","freq","","","img/orange_2bandit_b2.png","70","","70","test","1","","105","","","","circle","square","101","12","5","0.9108910891089109","","","","","","","",""
"null","825142","SARL_v6","SARL_v6xstkedpx","61210b5c3f465c51a7f4166a","freq_resp","","","img/orange_2bandit_b.png","70","img/orange_2bandit_b.png","70","test","","","","","","","","","","","5","","","","","","","","",""
"null","825296","SARL_v6","SARL_v6xstkedpx","61210b5c3f465c51a7f4166a","fixation","","","img/fixation.png","null","","","test","","","","","","","","","","","","","","","","","","","",""
"471.60000002384186","825772","SARL_v6","SARL_v6xstkedpx","61210b5c3f465c51a7f4166a","freq","","","img/orange_2bandit_b2.png","70","","70","test","1","","106","","","","circle","square","102","13","5","0.9117647058823529","","","","","","","",""
"null","826119","SARL_v6","SARL_v6xstkedpx","61210b5c3f465c51a7f4166a","freq_resp","","","img/orange_2bandit_b.png","70","img/orange_2bandit_b.png","70","test","","","","","","","","","","","5","","","","","","","","",""
"null","826273","SARL_v6","SARL_v6xstkedpx","61210b5c3f465c51a7f4166a","fixation","","","img/fixation.png","null","","","test","","","","","","","","","","","","","","","","","","","",""
"461.60000002384186","826737","SARL_v6","SARL_v6xstkedpx","61210b5c3f465c51a7f4166a","freq","","","img/orange_2bandit_b2.png","70","","70","test","1","","107","","","","circle","square","103","14","5","0.912621359223301","","","","","","","",""
"null","827090","SARL_v6","SARL_v6xstkedpx","61210b5c3f465c51a7f4166a","freq_resp","","","img/orange_2bandit_b.png","70","img/orange_2bandit_b.png","70","test","","","","","","","","","","","5","","","","","","","","",""
"null","827247","SARL_v6","SARL_v6xstkedpx","61210b5c3f465c51a7f4166a","fixation","","","img/fixation.png","null","","","test","","","","","","","","","","","","","","","","","","","",""
"414.89999997615814","827665","SARL_v6","SARL_v6xstkedpx","61210b5c3f465c51a7f4166a","freq","","","img/orange_2bandit_b2.png","70","","70","test","1","","108","","","","circle","square","104","15","5","0.9134615384615384","","","","","","","",""
"null","828063","SARL_v6","SARL_v6xstkedpx","61210b5c3f465c51a7f4166a","freq_resp","","","img/orange_2bandit_b.png","70","img/orange_2bandit_b.png","70","test","","","","","","","","","","","5","","","","","","","","",""
"null","828218","SARL_v6","SARL_v6xstkedpx","61210b5c3f465c51a7f4166a","fixation","","","img/fixation.png","null","","","test","","","","","","","","","","","","","","","","","","","",""
"431.30000001192093","828653","SARL_v6","SARL_v6xstkedpx","61210b5c3f465c51a7f4166a","freq","","","img/orange_2bandit_b2.png","70","","70","test","1","","109","","","","circle","square","105","16","5","0.9142857142857143","","","","","","","",""
"null","829034","SARL_v6","SARL_v6xstkedpx","61210b5c3f465c51a7f4166a","freq_resp","","","img/orange_2bandit_b.png","70","img/orange_2bandit_b.png","70","test","","","","","","","","","","","5","","","","","","","","",""
"null","829191","SARL_v6","SARL_v6xstkedpx","61210b5c3f465c51a7f4166a","fixation","","","img/fixation.png","null","","","test","","","","","","","","","","","","","","","","","","","",""
"395.19999998807907","829590","SARL_v6","SARL_v6xstkedpx","61210b5c3f465c51a7f4166a","freq","","","img/orange_2bandit_b2.png","70","","70","test","1","","110","","","","circle","square","106","17","5","0.9150943396226415","","","","","","","",""
"null","830010","SARL_v6","SARL_v6xstkedpx","61210b5c3f465c51a7f4166a","freq_resp","","","img/orange_2bandit_b.png","70","img/orange_2bandit_b.png","70","test","","","","","","","","","","","5","","","","","","","","",""
"null","830167","SARL_v6","SARL_v6xstkedpx","61210b5c3f465c51a7f4166a","fixation","","","img/fixation.png","null","","","test","","","","","","","","","","","","","","","","","","","",""
"356.2000000476837","830527","SARL_v6","SARL_v6xstkedpx","61210b5c3f465c51a7f4166a","infreq","","","img/blue_2bandit_b2.png","70","","68","test","0","","111","","","","circle","square","107","18","5","0.9065420560747663","","","","","","","",""
"null","830988","SARL_v6","SARL_v6xstkedpx","61210b5c3f465c51a7f4166a","infreq_resp","","","img/blue_2bandit_b.png","70","img/blue_2bandit_b.png","68","test","","","","","","","","","","","5","","","","","","","","",""
"null","831143","SARL_v6","SARL_v6xstkedpx","61210b5c3f465c51a7f4166a","fixation","","","img/fixation.png","null","","","test","","","","","","","","","","","","","","","","","","","",""
"718.8000000119209","831865","SARL_v6","SARL_v6xstkedpx","61210b5c3f465c51a7f4166a","freq","","","img/orange_2bandit_b2.png","70","","70","test","1","","112","","","","circle","square","108","19","5","0.9074074074074074","","","","","","","",""
"null","831961","SARL_v6","SARL_v6xstkedpx","61210b5c3f465c51a7f4166a","freq_resp","","","img/orange_2bandit_b.png","70","img/orange_2bandit_b.png","70","test","","","","","","","","","","","5","","","","","","","","",""
"null","832118","SARL_v6","SARL_v6xstkedpx","61210b5c3f465c51a7f4166a","fixation","","","img/fixation.png","null","","","test","","","","","","","","","","","","","","","","","","","",""
"374.69999998807907","832497","SARL_v6","SARL_v6xstkedpx","61210b5c3f465c51a7f4166a","freq","","","img/orange_2bandit_b2.png","70","","70","test","1","","113","","","","circle","square","109","20","5","0.908256880733945","","","","","","","",""
"null","832942","SARL_v6","SARL_v6xstkedpx","61210b5c3f465c51a7f4166a","freq_resp","","","img/orange_2bandit_b.png","70","img/orange_2bandit_b.png","70","test","","","","","","","","","","","5","","","","","","","","",""
"null","833099","SARL_v6","SARL_v6xstkedpx","61210b5c3f465c51a7f4166a","fixation","","","img/fixation.png","null","","","test","","","","","","","","","","","","","","","","","","","",""
"225.39999997615814","833328","SARL_v6","SARL_v6xstkedpx","61210b5c3f465c51a7f4166a","freq","","","img/orange_2bandit_b2.png","70","","70","test","1","","114","","","","circle","square","110","21","5","0.9090909090909091","","","","","","","",""
"null","833917","SARL_v6","SARL_v6xstkedpx","61210b5c3f465c51a7f4166a","freq_resp","","","img/orange_2bandit_b.png","70","img/orange_2bandit_b.png","70","test","","","","","","","","","","","5","","","","","","","","",""
"null","834070","SARL_v6","SARL_v6xstkedpx","61210b5c3f465c51a7f4166a","fixation","","","img/fixation.png","null","","","test","","","","","","","","","","","","","","","","","","","",""
"314.5","834388","SARL_v6","SARL_v6xstkedpx","61210b5c3f465c51a7f4166a","freq","","","img/orange_2bandit_b2.png","70","","70","test","1","","115","","","","circle","square","111","22","5","0.9099099099099099","","","","","","","",""
"null","834878","SARL_v6","SARL_v6xstkedpx","61210b5c3f465c51a7f4166a","freq_resp","","","img/orange_2bandit_b.png","70","img/orange_2bandit_b.png","70","test","","","","","","","","","","","5","","","","","","","","",""
"null","835033","SARL_v6","SARL_v6xstkedpx","61210b5c3f465c51a7f4166a","fixation","","","img/fixation.png","null","","","test","","","","","","","","","","","","","","","","","","","",""
"497.9000000357628","835534","SARL_v6","SARL_v6xstkedpx","61210b5c3f465c51a7f4166a","freq","","","img/orange_2bandit_b2.png","70","","70","test","1","","116","","","","circle","square","112","23","5","0.9107142857142857","","","","","","","",""
"null","835850","SARL_v6","SARL_v6xstkedpx","61210b5c3f465c51a7f4166a","freq_resp","","","img/orange_2bandit_b.png","70","img/orange_2bandit_b.png","70","test","","","","","","","","","","","5","","","","","","","","",""
"null","836003","SARL_v6","SARL_v6xstkedpx","61210b5c3f465c51a7f4166a","fixation","","","img/fixation.png","null","","","test","","","","","","","","","","","","","","","","","","","",""
"609.6999999880791","836617","SARL_v6","SARL_v6xstkedpx","61210b5c3f465c51a7f4166a","rl","","","img/black_2bandit_b2.png","74","","0","test","","","117","","","-7","circle","square","","0","5","","74","-7","4","-7","4","circle","5","0"
"null","837375","SARL_v6","SARL_v6xstkedpx","61210b5c3f465c51a7f4166a","feedback","","","<div class=""verylowPoints""> -7 </div>","null","","na","test","","","NaN","","","","","","","","5","","74","","","","","","5",""
"414.7000000476837","837792","SARL_v6","SARL_v6xstkedpx","61210b5c3f465c51a7f4166a","freq","","","img/orange_2bandit_b2.png","70","","70","test","1","","118","","","","circle","square","113","1","6","0.911504424778761","","","","","","","",""
"null","838189","SARL_v6","SARL_v6xstkedpx","61210b5c3f465c51a7f4166a","freq_resp","","","img/orange_2bandit_b.png","70","img/orange_2bandit_b.png","70","test","","","","","","","","","","","6","","","","","","","","",""
"null","838346","SARL_v6","SARL_v6xstkedpx","61210b5c3f465c51a7f4166a","fixation","","","img/fixation.png","null","","","test","","","","","","","","","","","","","","","","","","","",""
"432.4000000357628","838782","SARL_v6","SARL_v6xstkedpx","61210b5c3f465c51a7f4166a","freq","","","img/orange_2bandit_b2.png","70","","70","test","1","","119","","","","circle","square","114","2","6","0.9122807017543859","","","","","","","",""
"null","839167","SARL_v6","SARL_v6xstkedpx","61210b5c3f465c51a7f4166a","freq_resp","","","img/orange_2bandit_b.png","70","img/orange_2bandit_b.png","70","test","","","","","","","","","","","6","","","","","","","","",""
"null","839321","SARL_v6","SARL_v6xstkedpx","61210b5c3f465c51a7f4166a","fixation","","","img/fixation.png","null","","","test","","","","","","","","","","","","","","","","","","","",""
"404.60000002384186","839729","SARL_v6","SARL_v6xstkedpx","61210b5c3f465c51a7f4166a","freq","","","img/orange_2bandit_b2.png","70","","70","test","1","","120","","","","circle","square","115","3","6","0.9130434782608695","","","","","","","",""
"null","840131","SARL_v6","SARL_v6xstkedpx","61210b5c3f465c51a7f4166a","freq_resp","","","img/orange_2bandit_b.png","70","img/orange_2bandit_b.png","70","test","","","","","","","","","","","6","","","","","","","","",""
"null","840287","SARL_v6","SARL_v6xstkedpx","61210b5c3f465c51a7f4166a","fixation","","","img/fixation.png","null","","","test","","","","","","","","","","","","","","","","","","","",""
"460.39999997615814","840751","SARL_v6","SARL_v6xstkedpx","61210b5c3f465c51a7f4166a","freq","","","img/orange_2bandit_b2.png","70","","70","test","1","","121","","","","circle","square","116","4","6","0.9137931034482759","","","","","","","",""
"null","841099","SARL_v6","SARL_v6xstkedpx","61210b5c3f465c51a7f4166a","freq_resp","","","img/orange_2bandit_b.png","70","img/orange_2bandit_b.png","70","test","","","","","","","","","","","6","","","","","","","","",""
"null","841256","SARL_v6","SARL_v6xstkedpx","61210b5c3f465c51a7f4166a","fixation","","","img/fixation.png","null","","","test","","","","","","","","","","","","","","","","","","","",""
"459.19999998807907","841720","SARL_v6","SARL_v6xstkedpx","61210b5c3f465c51a7f4166a","infreq","","","img/blue_2bandit_b2.png","68","","68","test","1","","122","","","","circle","square","117","5","6","0.9145299145299145","","","","","","","",""
"null","842073","SARL_v6","SARL_v6xstkedpx","61210b5c3f465c51a7f4166a","infreq_resp","","","img/blue_2bandit_b.png","68","img/blue_2bandit_b.png","68","test","","","","","","","","","","","6","","","","","","","","",""
"null","842230","SARL_v6","SARL_v6xstkedpx","61210b5c3f465c51a7f4166a","fixation","","","img/fixation.png","null","","","test","","","","","","","","","","","","","","","","","","","",""
"472.69999998807907","842706","SARL_v6","SARL_v6xstkedpx","61210b5c3f465c51a7f4166a","infreq","","","img/blue_2bandit_b2.png","68","","68","test","1","","123","","","","circle","square","118","6","6","0.9152542372881356","","","","","","","",""
"null","843049","SARL_v6","SARL_v6xstkedpx","61210b5c3f465c51a7f4166a","infreq_resp","","","img/blue_2bandit_b.png","68","img/blue_2bandit_b.png","68","test","","","","","","","","","","","6","","","","","","","","",""
"null","843204","SARL_v6","SARL_v6xstkedpx","61210b5c3f465c51a7f4166a","fixation","","","img/fixation.png","null","","","test","","","","","","","","","","","","","","","","","","","",""
"525.8999999761581","843734","SARL_v6","SARL_v6xstkedpx","61210b5c3f465c51a7f4166a","freq","","","img/orange_2bandit_b2.png","70","","70","test","1","","124","","","","circle","square","119","7","6","0.9159663865546218","","","","","","","",""
"null","844016","SARL_v6","SARL_v6xstkedpx","61210b5c3f465c51a7f4166a","freq_resp","","","img/orange_2bandit_b.png","70","img/orange_2bandit_b.png","70","test","","","","","","","","","","","6","","","","","","","","",""
"null","844171","SARL_v6","SARL_v6xstkedpx","61210b5c3f465c51a7f4166a","fixation","","","img/fixation.png","null","","","test","","","","","","","","","","","","","","","","","","","",""
"355.5","844530","SARL_v6","SARL_v6xstkedpx","61210b5c3f465c51a7f4166a","freq","","","img/orange_2bandit_b2.png","70","","70","test","1","","125","","","","circle","square","120","8","6","0.9166666666666666","","","","","","","",""
"null","844985","SARL_v6","SARL_v6xstkedpx","61210b5c3f465c51a7f4166a","freq_resp","","","img/orange_2bandit_b.png","70","img/orange_2bandit_b.png","70","test","","","","","","","","","","","6","","","","","","","","",""
"null","845139","SARL_v6","SARL_v6xstkedpx","61210b5c3f465c51a7f4166a","fixation","","","img/fixation.png","null","","","test","","","","","","","","","","","","","","","","","","","",""
"326.19999998807907","845469","SARL_v6","SARL_v6xstkedpx","61210b5c3f465c51a7f4166a","freq","","","img/orange_2bandit_b2.png","70","","70","test","1","","126","","","","circle","square","121","9","6","0.9173553719008265","","","","","","","",""
"null","845956","SARL_v6","SARL_v6xstkedpx","61210b5c3f465c51a7f4166a","freq_resp","","","img/orange_2bandit_b.png","70","img/orange_2bandit_b.png","70","test","","","","","","","","","","","6","","","","","","","","",""
"null","846110","SARL_v6","SARL_v6xstkedpx","61210b5c3f465c51a7f4166a","fixation","","","img/fixation.png","null","","","test","","","","","","","","","","","","","","","","","","","",""
"311.9000000357628","846426","SARL_v6","SARL_v6xstkedpx","61210b5c3f465c51a7f4166a","freq","","","img/orange_2bandit_b2.png","70","","70","test","1","","127","","","","circle","square","122","10","6","0.9180327868852459","","","","","","","",""
"null","846921","SARL_v6","SARL_v6xstkedpx","61210b5c3f465c51a7f4166a","freq_resp","","","img/orange_2bandit_b.png","70","img/orange_2bandit_b.png","70","test","","","","","","","","","","","6","","","","","","","","",""
"null","847078","SARL_v6","SARL_v6xstkedpx","61210b5c3f465c51a7f4166a","fixation","","","img/fixation.png","null","","","test","","","","","","","","","","","","","","","","","","","",""
"275.89999997615814","847358","SARL_v6","SARL_v6xstkedpx","61210b5c3f465c51a7f4166a","freq","","","img/orange_2bandit_b2.png","70","","70","test","1","","128","","","","circle","square","123","11","6","0.9186991869918699","","","","","","","",""
"null","847893","SARL_v6","SARL_v6xstkedpx","61210b5c3f465c51a7f4166a","freq_resp","","","img/orange_2bandit_b.png","70","img/orange_2bandit_b.png","70","test","","","","","","","","","","","6","","","","","","","","",""
"null","848051","SARL_v6","SARL_v6xstkedpx","61210b5c3f465c51a7f4166a","fixation","","","img/fixation.png","null","","","test","","","","","","","","","","","","","","","","","","","",""
"314.5","848369","SARL_v6","SARL_v6xstkedpx","61210b5c3f465c51a7f4166a","freq","","","img/orange_2bandit_b2.png","70","","70","test","1","","129","","","","circle","square","124","12","6","0.9193548387096774","","","","","","","",""
"null","848870","SARL_v6","SARL_v6xstkedpx","61210b5c3f465c51a7f4166a","freq_resp","","","img/orange_2bandit_b.png","70","img/orange_2bandit_b.png","70","test","","","","","","","","","","","6","","","","","","","","",""
"null","849024","SARL_v6","SARL_v6xstkedpx","61210b5c3f465c51a7f4166a","fixation","","","img/fixation.png","null","","","test","","","","","","","","","","","","","","","","","","","",""
"524.5999999642372","849552","SARL_v6","SARL_v6xstkedpx","61210b5c3f465c51a7f4166a","freq","","","img/orange_2bandit_b2.png","70","","70","test","1","","130","","","","circle","square","125","13","6","0.92","","","","","","","",""
"null","849832","SARL_v6","SARL_v6xstkedpx","61210b5c3f465c51a7f4166a","freq_resp","","","img/orange_2bandit_b.png","70","img/orange_2bandit_b.png","70","test","","","","","","","","","","","6","","","","","","","","",""
"null","849986","SARL_v6","SARL_v6xstkedpx","61210b5c3f465c51a7f4166a","fixation","","","img/fixation.png","null","","","test","","","","","","","","","","","","","","","","","","","",""
