"rt","time_elapsed","expId","subject","prolificID","trialType","rlType","attType","stimulus","key_press","stim","corrresp","phase","corr","pracCounter","trialNum","rewardOne","rewardTwo","reward","bandOne","bandTwo","attentionNum","attentionRunNum","blockNum","performance","bandChosen","circleVal","squareVal","bandOneVal","bandTwoVal","shapeChosen","rlNum","badFlag"
"12484","12487","SARL_v6","SARL_v6qqvka3m1","6151e68ec5f6f5f9039ebace","","","","","","","","","","","","","","","","","","","","","","","","","","","",""
"","16807","SARL_v6","SARL_v6qqvka3m1","6151e68ec5f6f5f9039ebace","fullscreen","fullscreen","fullscreen","","","","","","","","","","","","","","","","","","","","","","","","",""
"91401","108209","SARL_v6","SARL_v6qqvka3m1","6151e68ec5f6f5f9039ebace","","","","","","","","","","","","","","","","","","","","","","","","","","","",""
"null","109012","SARL_v6","SARL_v6qqvka3m1","6151e68ec5f6f5f9039ebace","freqPrac","","","img/blue_2bandit_b2.png","null","img/blue_2bandit_b2.png","70","prac","0","1","","","","","","","","","","","","","","","","","",""
"null","110018","SARL_v6","SARL_v6qqvka3m1","6151e68ec5f6f5f9039ebace","feedback","","","img/tooSlow.png","null","","na","prac","","","","","","","","","","","","","","","","","","","",""
"null","110174","SARL_v6","SARL_v6qqvka3m1","6151e68ec5f6f5f9039ebace","fixation","","","img/fixation.png","null","","","prac","","","","","","","","","","","","","","","","","","","",""
"561","110735","SARL_v6","SARL_v6qqvka3m1","6151e68ec5f6f5f9039ebace","infreqPrac","","","img/orange_2bandit_b2.png","68","img/orange_2bandit_b2.png","68","prac","1","1","","","","","","","","","","","","","","","","","",""
"561","110986","SARL_v6","SARL_v6qqvka3m1","6151e68ec5f6f5f9039ebace","infreqPrac_resp","","","img/orange_2bandit_b.png","68","img/orange_2bandit_b.png","68","prac","","","","","","","","","","","","","","","","","","","",""
"null","111143","SARL_v6","SARL_v6qqvka3m1","6151e68ec5f6f5f9039ebace","fixation","","","img/fixation.png","null","","","prac","","","","","","","","","","","","","","","","","","","",""
"471","111616","SARL_v6","SARL_v6qqvka3m1","6151e68ec5f6f5f9039ebace","freqPrac","","","img/blue_2bandit_b2.png","70","img/blue_2bandit_b2.png","70","prac","1","1","","","","","","","","","","","","","","","","","",""
"471","111946","SARL_v6","SARL_v6qqvka3m1","6151e68ec5f6f5f9039ebace","freqPrac_resp","","","img/blue_2bandit_b.png","70","img/blue_2bandit_b.png","70","prac","","","","","","","","","","","","","","","","","","","",""
"null","112102","SARL_v6","SARL_v6qqvka3m1","6151e68ec5f6f5f9039ebace","fixation","","","img/fixation.png","null","","","prac","","","","","","","","","","","","","","","","","","","",""
"384","112488","SARL_v6","SARL_v6qqvka3m1","6151e68ec5f6f5f9039ebace","infreqPrac","","","img/orange_2bandit_b2.png","68","img/orange_2bandit_b2.png","68","prac","1","1","","","","","","","","","","","","","","","","","",""
"384","112920","SARL_v6","SARL_v6qqvka3m1","6151e68ec5f6f5f9039ebace","infreqPrac_resp","","","img/orange_2bandit_b.png","68","img/orange_2bandit_b.png","68","prac","","","","","","","","","","","","","","","","","","","",""
"null","113077","SARL_v6","SARL_v6qqvka3m1","6151e68ec5f6f5f9039ebace","fixation","","","img/fixation.png","null","","","prac","","","","","","","","","","","","","","","","","","","",""
"553","113632","SARL_v6","SARL_v6qqvka3m1","6151e68ec5f6f5f9039ebace","infreqPrac","","","img/orange_2bandit_b2.png","68","img/orange_2bandit_b2.png","68","prac","1","1","","","","","","","","","","","","","","","","","",""
"553","113894","SARL_v6","SARL_v6qqvka3m1","6151e68ec5f6f5f9039ebace","infreqPrac_resp","","","img/orange_2bandit_b.png","68","img/orange_2bandit_b.png","68","prac","","","","","","","","","","","","","","","","","","","",""
"null","114049","SARL_v6","SARL_v6qqvka3m1","6151e68ec5f6f5f9039ebace","fixation","","","img/fixation.png","null","","","prac","","","","","","","","","","","","","","","","","","","",""
"357","114408","SARL_v6","SARL_v6qqvka3m1","6151e68ec5f6f5f9039ebace","infreqPrac","","","img/orange_2bandit_b2.png","68","img/orange_2bandit_b2.png","68","prac","1","1","","","","","","","","","","","","","","","","","",""
"357","114855","SARL_v6","SARL_v6qqvka3m1","6151e68ec5f6f5f9039ebace","infreqPrac_resp","","","img/orange_2bandit_b.png","68","img/orange_2bandit_b.png","68","prac","","","","","","","","","","","","","","","","","","","",""
"null","115011","SARL_v6","SARL_v6qqvka3m1","6151e68ec5f6f5f9039ebace","fixation","","","img/fixation.png","null","","","prac","","","","","","","","","","","","","","","","","","","",""
"444","115456","SARL_v6","SARL_v6qqvka3m1","6151e68ec5f6f5f9039ebace","freqPrac","","","img/blue_2bandit_b2.png","70","img/blue_2bandit_b2.png","70","prac","1","1","","","","","","","","","","","","","","","","","",""
"444","115817","SARL_v6","SARL_v6qqvka3m1","6151e68ec5f6f5f9039ebace","freqPrac_resp","","","img/blue_2bandit_b.png","70","img/blue_2bandit_b.png","70","prac","","","","","","","","","","","","","","","","","","","",""
"null","115976","SARL_v6","SARL_v6qqvka3m1","6151e68ec5f6f5f9039ebace","fixation","","","img/fixation.png","null","","","prac","","","","","","","","","","","","","","","","","","","",""
"359","116336","SARL_v6","SARL_v6qqvka3m1","6151e68ec5f6f5f9039ebace","infreqPrac","","","img/orange_2bandit_b2.png","68","img/orange_2bandit_b2.png","68","prac","1","1","","","","","","","","","","","","","","","","","",""
"359","116786","SARL_v6","SARL_v6qqvka3m1","6151e68ec5f6f5f9039ebace","infreqPrac_resp","","","img/orange_2bandit_b.png","68","img/orange_2bandit_b.png","68","prac","","","","","","","","","","","","","","","","","","","",""
"null","116940","SARL_v6","SARL_v6qqvka3m1","6151e68ec5f6f5f9039ebace","fixation","","","img/fixation.png","null","","","prac","","","","","","","","","","","","","","","","","","","",""
"347","117288","SARL_v6","SARL_v6qqvka3m1","6151e68ec5f6f5f9039ebace","freqPrac","","","img/blue_2bandit_b2.png","70","img/blue_2bandit_b2.png","70","prac","1","1","","","","","","","","","","","","","","","","","",""
"347","117747","SARL_v6","SARL_v6qqvka3m1","6151e68ec5f6f5f9039ebace","freqPrac_resp","","","img/blue_2bandit_b.png","70","img/blue_2bandit_b.png","70","prac","","","","","","","","","","","","","","","","","","","",""
"null","117910","SARL_v6","SARL_v6qqvka3m1","6151e68ec5f6f5f9039ebace","fixation","","","img/fixation.png","null","","","prac","","","","","","","","","","","","","","","","","","","",""
"296","118208","SARL_v6","SARL_v6qqvka3m1","6151e68ec5f6f5f9039ebace","freqPrac","","","img/blue_2bandit_b2.png","70","img/blue_2bandit_b2.png","70","prac","1","1","","","","","","","","","","","","","","","","","",""
"296","118723","SARL_v6","SARL_v6qqvka3m1","6151e68ec5f6f5f9039ebace","freqPrac_resp","","","img/blue_2bandit_b.png","70","img/blue_2bandit_b.png","70","prac","","","","","","","","","","","","","","","","","","","",""
"null","118878","SARL_v6","SARL_v6qqvka3m1","6151e68ec5f6f5f9039ebace","fixation","","","img/fixation.png","null","","","prac","","","","","","","","","","","","","","","","","","","",""
"32745","151624","SARL_v6","SARL_v6qqvka3m1","6151e68ec5f6f5f9039ebace","","","","","","","","prac","","","","","","","","","","","","","","","","","","","",""
"727","152351","SARL_v6","SARL_v6qqvka3m1","6151e68ec5f6f5f9039ebace","rlPractice","","","img/black_2bandit_b2.png","74","img/black_2bandit_b2.png","","prac","","","0","","","","","","","","","","","","","","","","",""
"null","153112","SARL_v6","SARL_v6qqvka3m1","6151e68ec5f6f5f9039ebace","feedback","","","<div class=""veryhighPoints""> 10 </div>","null","","na","prac","","","1","10","-14","10","","","","","","","","","","","","","",""
"null","153266","SARL_v6","SARL_v6qqvka3m1","6151e68ec5f6f5f9039ebace","fixation","","","img/fixation.png","null","","","prac","","","","","","","","","","","","","","","","","","","",""
"709","153976","SARL_v6","SARL_v6qqvka3m1","6151e68ec5f6f5f9039ebace","rlPractice","","","img/black_2bandit_b2.png","74","img/black_2bandit_b2.png","","prac","","","1","","","","","","","","","","","","","","","","",""
"null","154739","SARL_v6","SARL_v6qqvka3m1","6151e68ec5f6f5f9039ebace","feedback","","","<div class=""veryhighPoints""> 5 </div>","null","","na","prac","","","2","5","-5","5","","","","","","","","","","","","","",""
"null","154895","SARL_v6","SARL_v6qqvka3m1","6151e68ec5f6f5f9039ebace","fixation","","","img/fixation.png","null","","","prac","","","","","","","","","","","","","","","","","","","",""
"752","155648","SARL_v6","SARL_v6qqvka3m1","6151e68ec5f6f5f9039ebace","rlPractice","","","img/black_2bandit_b2.png","75","img/black_2bandit_b2.png","","prac","","","2","","","","","","","","","","","","","","","","",""
"null","156410","SARL_v6","SARL_v6qqvka3m1","6151e68ec5f6f5f9039ebace","feedback","","","<div class=""veryhighPoints_sq""> 2 </div>","null","","na","prac","","","3","30","2","30","","","","","","","","","","","","","",""
"null","156566","SARL_v6","SARL_v6qqvka3m1","6151e68ec5f6f5f9039ebace","fixation","","","img/fixation.png","null","","","prac","","","","","","","","","","","","","","","","","","","",""
"712","157280","SARL_v6","SARL_v6qqvka3m1","6151e68ec5f6f5f9039ebace","rlPractice","","","img/black_2bandit_b2.png","74","img/black_2bandit_b2.png","","prac","","","3","","","","","","","","","","","","","","","","",""
"null","158042","SARL_v6","SARL_v6qqvka3m1","6151e68ec5f6f5f9039ebace","feedback","","","<div class=""verylowPoints""> -2 </div>","null","","na","prac","","","4","-2","20","-2","","","","","","","","","","","","","",""
"null","158196","SARL_v6","SARL_v6qqvka3m1","6151e68ec5f6f5f9039ebace","fixation","","","img/fixation.png","null","","","prac","","","","","","","","","","","","","","","","","","","",""
"11899","170096","SARL_v6","SARL_v6qqvka3m1","6151e68ec5f6f5f9039ebace","","","","","","","","prac","","","","","","","","","","","","","","","","","","","",""
"671","170767","SARL_v6","SARL_v6qqvka3m1","6151e68ec5f6f5f9039ebace","mixAttFreqPrac","","","img/blue_2bandit_b2.png","68","img/blue_2bandit_b2.png","70","prac","","","1","","","","","","","","","","","","","","","","",""
"671","170900","SARL_v6","SARL_v6qqvka3m1","6151e68ec5f6f5f9039ebace","freqPrac_resp","","","img/blue_2bandit_b.png","68","img/blue_2bandit_b.png","70","prac","","","1","","","","","","","","","","","","","","","","",""
"null","171055","SARL_v6","SARL_v6qqvka3m1","6151e68ec5f6f5f9039ebace","fixation","","","img/fixation.png","null","","","prac","","","","","","","","","","","","","","","","","","","",""
"null","171865","SARL_v6","SARL_v6qqvka3m1","6151e68ec5f6f5f9039ebace","mixAttInfreqPrac","","","img/orange_2bandit_b2.png","null","img/orange_2bandit_b2.png","68","prac","","","2","","","","","","","","","","","","","","","","",""
"101","172021","SARL_v6","SARL_v6qqvka3m1","6151e68ec5f6f5f9039ebace","fixation","","","img/fixation.png","68","","","prac","","","","","","","","","","","","","","","","","","","",""
"673","172696","SARL_v6","SARL_v6qqvka3m1","6151e68ec5f6f5f9039ebace","mixAttInfreqPrac","","","img/orange_2bandit_b2.png","68","img/orange_2bandit_b2.png","68","prac","","","3","","","","","","","","","","","","","","","","",""
"673","172839","SARL_v6","SARL_v6qqvka3m1","6151e68ec5f6f5f9039ebace","infreqPrac_resp","","","img/orange_2bandit_b.png","68","img/blue_2bandit_b.png","68","prac","","","3","","","","","","","","","","","","","","","","",""
"null","173000","SARL_v6","SARL_v6qqvka3m1","6151e68ec5f6f5f9039ebace","fixation","","","img/fixation.png","null","","","prac","","","","","","","","","","","","","","","","","","","",""
"479","173480","SARL_v6","SARL_v6qqvka3m1","6151e68ec5f6f5f9039ebace","mixAttInfreqPrac","","","img/orange_2bandit_b2.png","68","img/orange_2bandit_b2.png","68","prac","","","4","","","","","","","","","","","","","","","","",""
"479","173811","SARL_v6","SARL_v6qqvka3m1","6151e68ec5f6f5f9039ebace","infreqPrac_resp","","","img/orange_2bandit_b.png","68","img/blue_2bandit_b.png","68","prac","","","4","","","","","","","","","","","","","","","","",""
"null","173963","SARL_v6","SARL_v6qqvka3m1","6151e68ec5f6f5f9039ebace","fixation","","","img/fixation.png","null","","","prac","","","","","","","","","","","","","","","","","","","",""
"412","174375","SARL_v6","SARL_v6qqvka3m1","6151e68ec5f6f5f9039ebace","mixAttFreqPrac","","","img/blue_2bandit_b2.png","70","img/blue_2bandit_b2.png","70","prac","","","5","","","","","","","","","","","","","","","","",""
"412","174778","SARL_v6","SARL_v6qqvka3m1","6151e68ec5f6f5f9039ebace","freqPrac_resp","","","img/blue_2bandit_b.png","70","img/blue_2bandit_b.png","70","prac","","","5","","","","","","","","","","","","","","","","",""
"null","174946","SARL_v6","SARL_v6qqvka3m1","6151e68ec5f6f5f9039ebace","fixation","","","img/fixation.png","null","","","prac","","","","","","","","","","","","","","","","","","","",""
"605","175552","SARL_v6","SARL_v6qqvka3m1","6151e68ec5f6f5f9039ebace","mixRLPractice","","","img/black_2bandit_b2.png","74","img/black_2bandit_b2.png","","prac","","","5","","","","","","","","","","","","","","","","",""
"null","176303","SARL_v6","SARL_v6qqvka3m1","6151e68ec5f6f5f9039ebace","feedback","","","<div class=""verylowPoints""> -14 </div>","null","","na","prac","","","6","-14","10","-14","","","","","","","","","","","","","",""
"null","176469","SARL_v6","SARL_v6qqvka3m1","6151e68ec5f6f5f9039ebace","fixation","","","img/fixation.png","null","","","prac","","","","","","","","","","","","","","","","","","","",""
"505","176976","SARL_v6","SARL_v6qqvka3m1","6151e68ec5f6f5f9039ebace","mixAttFreqPrac","","","img/blue_2bandit_b2.png","68","img/blue_2bandit_b2.png","70","prac","","","7","","","","","","","","","","","","","","","","",""
"505","177274","SARL_v6","SARL_v6qqvka3m1","6151e68ec5f6f5f9039ebace","freqPrac_resp","","","img/blue_2bandit_b.png","68","img/blue_2bandit_b.png","70","prac","","","7","","","","","","","","","","","","","","","","",""
"null","177425","SARL_v6","SARL_v6qqvka3m1","6151e68ec5f6f5f9039ebace","fixation","","","img/fixation.png","null","","","prac","","","","","","","","","","","","","","","","","","","",""
"494","177919","SARL_v6","SARL_v6qqvka3m1","6151e68ec5f6f5f9039ebace","mixAttInfreqPrac","","","img/orange_2bandit_b2.png","68","img/orange_2bandit_b2.png","68","prac","","","8","","","","","","","","","","","","","","","","",""
"494","178232","SARL_v6","SARL_v6qqvka3m1","6151e68ec5f6f5f9039ebace","infreqPrac_resp","","","img/orange_2bandit_b.png","68","img/blue_2bandit_b.png","68","prac","","","8","","","","","","","","","","","","","","","","",""
"null","178390","SARL_v6","SARL_v6qqvka3m1","6151e68ec5f6f5f9039ebace","fixation","","","img/fixation.png","null","","","prac","","","","","","","","","","","","","","","","","","","",""
"520","178912","SARL_v6","SARL_v6qqvka3m1","6151e68ec5f6f5f9039ebace","mixAttFreqPrac","","","img/blue_2bandit_b2.png","70","img/blue_2bandit_b2.png","70","prac","","","9","","","","","","","","","","","","","","","","",""
"520","179202","SARL_v6","SARL_v6qqvka3m1","6151e68ec5f6f5f9039ebace","freqPrac_resp","","","img/blue_2bandit_b.png","70","img/blue_2bandit_b.png","70","prac","","","9","","","","","","","","","","","","","","","","",""
"null","179353","SARL_v6","SARL_v6qqvka3m1","6151e68ec5f6f5f9039ebace","fixation","","","img/fixation.png","null","","","prac","","","","","","","","","","","","","","","","","","","",""
"509","179864","SARL_v6","SARL_v6qqvka3m1","6151e68ec5f6f5f9039ebace","mixAttFreqPrac","","","img/blue_2bandit_b2.png","70","img/blue_2bandit_b2.png","70","prac","","","10","","","","","","","","","","","","","","","","",""
"509","180157","SARL_v6","SARL_v6qqvka3m1","6151e68ec5f6f5f9039ebace","freqPrac_resp","","","img/blue_2bandit_b.png","70","img/blue_2bandit_b.png","70","prac","","","10","","","","","","","","","","","","","","","","",""
"null","180308","SARL_v6","SARL_v6qqvka3m1","6151e68ec5f6f5f9039ebace","fixation","","","img/fixation.png","null","","","prac","","","","","","","","","","","","","","","","","","","",""
"450","180760","SARL_v6","SARL_v6qqvka3m1","6151e68ec5f6f5f9039ebace","mixAttInfreqPrac","","","img/orange_2bandit_b2.png","68","img/orange_2bandit_b2.png","68","prac","","","11","","","","","","","","","","","","","","","","",""
"450","181122","SARL_v6","SARL_v6qqvka3m1","6151e68ec5f6f5f9039ebace","infreqPrac_resp","","","img/orange_2bandit_b.png","68","img/blue_2bandit_b.png","68","prac","","","11","","","","","","","","","","","","","","","","",""
"null","181277","SARL_v6","SARL_v6qqvka3m1","6151e68ec5f6f5f9039ebace","fixation","","","img/fixation.png","null","","","prac","","","","","","","","","","","","","","","","","","","",""
"601","181880","SARL_v6","SARL_v6qqvka3m1","6151e68ec5f6f5f9039ebace","mixRLPractice","","","img/black_2bandit_b2.png","74","img/black_2bandit_b2.png","","prac","","","11","","","","","","","","","","","","","","","","",""
"null","182642","SARL_v6","SARL_v6qqvka3m1","6151e68ec5f6f5f9039ebace","feedback","","","<div class=""veryhighPoints""> 5 </div>","null","","na","prac","","","12","5","-5","5","","","","","","","","","","","","","",""
"null","182797","SARL_v6","SARL_v6qqvka3m1","6151e68ec5f6f5f9039ebace","fixation","","","img/fixation.png","null","","","prac","","","","","","","","","","","","","","","","","","","",""
"16274","199072","SARL_v6","SARL_v6qqvka3m1","6151e68ec5f6f5f9039ebace","","","","","","","","prac","","","","","","","","","","","","","","","","","","","",""
"766","199840","SARL_v6","SARL_v6qqvka3m1","6151e68ec5f6f5f9039ebace","freq","","","img/blue_2bandit_b2.png","70","","70","test","1","","1","","","","circle","square","1","1","1","1","","","","","","","",""
"null","199886","SARL_v6","SARL_v6qqvka3m1","6151e68ec5f6f5f9039ebace","freq_resp","","","img/blue_2bandit_b.png","70","img/blue_2bandit_b.png","70","test","","","","","","","","","","","1","","","","","","","","",""
"null","200040","SARL_v6","SARL_v6qqvka3m1","6151e68ec5f6f5f9039ebace","fixation","","","img/fixation.png","null","","","test","","","","","","","","","","","","","","","","","","","",""
"438","200479","SARL_v6","SARL_v6qqvka3m1","6151e68ec5f6f5f9039ebace","freq","","","img/blue_2bandit_b2.png","70","","70","test","1","","2","","","","circle","square","2","2","1","1","","","","","","","",""
"null","200849","SARL_v6","SARL_v6qqvka3m1","6151e68ec5f6f5f9039ebace","freq_resp","","","img/blue_2bandit_b.png","70","img/blue_2bandit_b.png","70","test","","","","","","","","","","","1","","","","","","","","",""
"null","201004","SARL_v6","SARL_v6qqvka3m1","6151e68ec5f6f5f9039ebace","fixation","","","img/fixation.png","null","","","test","","","","","","","","","","","","","","","","","","","",""
"370","201376","SARL_v6","SARL_v6qqvka3m1","6151e68ec5f6f5f9039ebace","freq","","","img/blue_2bandit_b2.png","70","","70","test","1","","3","","","","circle","square","3","3","1","1","","","","","","","",""
"null","201809","SARL_v6","SARL_v6qqvka3m1","6151e68ec5f6f5f9039ebace","freq_resp","","","img/blue_2bandit_b.png","70","img/blue_2bandit_b.png","70","test","","","","","","","","","","","1","","","","","","","","",""
"null","201975","SARL_v6","SARL_v6qqvka3m1","6151e68ec5f6f5f9039ebace","fixation","","","img/fixation.png","null","","","test","","","","","","","","","","","","","","","","","","","",""
"399","202376","SARL_v6","SARL_v6qqvka3m1","6151e68ec5f6f5f9039ebace","freq","","","img/blue_2bandit_b2.png","70","","70","test","1","","4","","","","circle","square","4","4","1","1","","","","","","","",""
"null","202783","SARL_v6","SARL_v6qqvka3m1","6151e68ec5f6f5f9039ebace","freq_resp","","","img/blue_2bandit_b.png","70","img/blue_2bandit_b.png","70","test","","","","","","","","","","","1","","","","","","","","",""
"null","202940","SARL_v6","SARL_v6qqvka3m1","6151e68ec5f6f5f9039ebace","fixation","","","img/fixation.png","null","","","test","","","","","","","","","","","","","","","","","","","",""
"355","203296","SARL_v6","SARL_v6qqvka3m1","6151e68ec5f6f5f9039ebace","freq","","","img/blue_2bandit_b2.png","70","","70","test","1","","5","","","","circle","square","5","5","1","1","","","","","","","",""
"null","203748","SARL_v6","SARL_v6qqvka3m1","6151e68ec5f6f5f9039ebace","freq_resp","","","img/blue_2bandit_b.png","70","img/blue_2bandit_b.png","70","test","","","","","","","","","","","1","","","","","","","","",""
"null","203901","SARL_v6","SARL_v6qqvka3m1","6151e68ec5f6f5f9039ebace","fixation","","","img/fixation.png","null","","","test","","","","","","","","","","","","","","","","","","","",""
"434","204336","SARL_v6","SARL_v6qqvka3m1","6151e68ec5f6f5f9039ebace","freq","","","img/blue_2bandit_b2.png","70","","70","test","1","","6","","","","circle","square","6","6","1","1","","","","","","","",""
"null","204704","SARL_v6","SARL_v6qqvka3m1","6151e68ec5f6f5f9039ebace","freq_resp","","","img/blue_2bandit_b.png","70","img/blue_2bandit_b.png","70","test","","","","","","","","","","","1","","","","","","","","",""
"null","204860","SARL_v6","SARL_v6qqvka3m1","6151e68ec5f6f5f9039ebace","fixation","","","img/fixation.png","null","","","test","","","","","","","","","","","","","","","","","","","",""
"378","205239","SARL_v6","SARL_v6qqvka3m1","6151e68ec5f6f5f9039ebace","freq","","","img/blue_2bandit_b2.png","70","","70","test","1","","7","","","","circle","square","7","7","1","1","","","","","","","",""
"null","205671","SARL_v6","SARL_v6qqvka3m1","6151e68ec5f6f5f9039ebace","freq_resp","","","img/blue_2bandit_b.png","70","img/blue_2bandit_b.png","70","test","","","","","","","","","","","1","","","","","","","","",""
"null","205826","SARL_v6","SARL_v6qqvka3m1","6151e68ec5f6f5f9039ebace","fixation","","","img/fixation.png","null","","","test","","","","","","","","","","","","","","","","","","","",""
"421","206248","SARL_v6","SARL_v6qqvka3m1","6151e68ec5f6f5f9039ebace","freq","","","img/blue_2bandit_b2.png","70","","70","test","1","","8","","","","circle","square","8","8","1","1","","","","","","","",""
"null","206636","SARL_v6","SARL_v6qqvka3m1","6151e68ec5f6f5f9039ebace","freq_resp","","","img/blue_2bandit_b.png","70","img/blue_2bandit_b.png","70","test","","","","","","","","","","","1","","","","","","","","",""
"null","206794","SARL_v6","SARL_v6qqvka3m1","6151e68ec5f6f5f9039ebace","fixation","","","img/fixation.png","null","","","test","","","","","","","","","","","","","","","","","","","",""
"469","207264","SARL_v6","SARL_v6qqvka3m1","6151e68ec5f6f5f9039ebace","freq","","","img/blue_2bandit_b2.png","70","","70","test","1","","9","","","","circle","square","9","9","1","1","","","","","","","",""
"null","207605","SARL_v6","SARL_v6qqvka3m1","6151e68ec5f6f5f9039ebace","freq_resp","","","img/blue_2bandit_b.png","70","img/blue_2bandit_b.png","70","test","","","","","","","","","","","1","","","","","","","","",""
"null","207760","SARL_v6","SARL_v6qqvka3m1","6151e68ec5f6f5f9039ebace","fixation","","","img/fixation.png","null","","","test","","","","","","","","","","","","","","","","","","","",""
"631","208392","SARL_v6","SARL_v6qqvka3m1","6151e68ec5f6f5f9039ebace","infreq","","","img/orange_2bandit_b2.png","70","","68","test","0","","10","","","","circle","square","10","10","1","0.9","","","","","","","",""
"null","208573","SARL_v6","SARL_v6qqvka3m1","6151e68ec5f6f5f9039ebace","infreq_resp","","","img/orange_2bandit_b.png","70","img/orange_2bandit_b.png","68","test","","","","","","","","","","","1","","","","","","","","",""
"null","208728","SARL_v6","SARL_v6qqvka3m1","6151e68ec5f6f5f9039ebace","fixation","","","img/fixation.png","null","","","test","","","","","","","","","","","","","","","","","","","",""
"798","209528","SARL_v6","SARL_v6qqvka3m1","6151e68ec5f6f5f9039ebace","freq","","","img/blue_2bandit_b2.png","70","","70","test","1","","11","","","","circle","square","11","11","1","0.9090909090909091","","","","","","","",""
"null","209532","SARL_v6","SARL_v6qqvka3m1","6151e68ec5f6f5f9039ebace","freq_resp","","","img/blue_2bandit_b.png","70","img/blue_2bandit_b.png","70","test","","","","","","","","","","","1","","","","","","","","",""
"null","209689","SARL_v6","SARL_v6qqvka3m1","6151e68ec5f6f5f9039ebace","fixation","","","img/fixation.png","null","","","test","","","","","","","","","","","","","","","","","","","",""
"574","210264","SARL_v6","SARL_v6qqvka3m1","6151e68ec5f6f5f9039ebace","freq","","","img/blue_2bandit_b2.png","70","","70","test","1","","12","","","","circle","square","12","12","1","0.9166666666666666","","","","","","","",""
"null","210496","SARL_v6","SARL_v6qqvka3m1","6151e68ec5f6f5f9039ebace","freq_resp","","","img/blue_2bandit_b.png","70","img/blue_2bandit_b.png","70","test","","","","","","","","","","","1","","","","","","","","",""
"null","210649","SARL_v6","SARL_v6qqvka3m1","6151e68ec5f6f5f9039ebace","fixation","","","img/fixation.png","null","","","test","","","","","","","","","","","","","","","","","","","",""
"462","211112","SARL_v6","SARL_v6qqvka3m1","6151e68ec5f6f5f9039ebace","freq","","","img/blue_2bandit_b2.png","70","","70","test","1","","13","","","","circle","square","13","13","1","0.9230769230769231","","","","","","","",""
"null","211457","SARL_v6","SARL_v6qqvka3m1","6151e68ec5f6f5f9039ebace","freq_resp","","","img/blue_2bandit_b.png","70","img/blue_2bandit_b.png","70","test","","","","","","","","","","","1","","","","","","","","",""
"null","211620","SARL_v6","SARL_v6qqvka3m1","6151e68ec5f6f5f9039ebace","fixation","","","img/fixation.png","null","","","test","","","","","","","","","","","","","","","","","","","",""
"410","212031","SARL_v6","SARL_v6qqvka3m1","6151e68ec5f6f5f9039ebace","infreq","","","img/orange_2bandit_b2.png","68","","68","test","1","","14","","","","circle","square","14","14","1","0.9285714285714286","","","","","","","",""
"null","212426","SARL_v6","SARL_v6qqvka3m1","6151e68ec5f6f5f9039ebace","infreq_resp","","","img/orange_2bandit_b.png","68","img/orange_2bandit_b.png","68","test","","","","","","","","","","","1","","","","","","","","",""
"null","212581","SARL_v6","SARL_v6qqvka3m1","6151e68ec5f6f5f9039ebace","fixation","","","img/fixation.png","null","","","test","","","","","","","","","","","","","","","","","","","",""
"433","213015","SARL_v6","SARL_v6qqvka3m1","6151e68ec5f6f5f9039ebace","freq","","","img/blue_2bandit_b2.png","70","","70","test","1","","15","","","","circle","square","15","15","1","0.9333333333333333","","","","","","","",""
"null","213390","SARL_v6","SARL_v6qqvka3m1","6151e68ec5f6f5f9039ebace","freq_resp","","","img/blue_2bandit_b.png","70","img/blue_2bandit_b.png","70","test","","","","","","","","","","","1","","","","","","","","",""
"null","213545","SARL_v6","SARL_v6qqvka3m1","6151e68ec5f6f5f9039ebace","fixation","","","img/fixation.png","null","","","test","","","","","","","","","","","","","","","","","","","",""
"437","213983","SARL_v6","SARL_v6qqvka3m1","6151e68ec5f6f5f9039ebace","freq","","","img/blue_2bandit_b2.png","70","","70","test","1","","16","","","","circle","square","16","16","1","0.9375","","","","","","","",""
"null","214349","SARL_v6","SARL_v6qqvka3m1","6151e68ec5f6f5f9039ebace","freq_resp","","","img/blue_2bandit_b.png","70","img/blue_2bandit_b.png","70","test","","","","","","","","","","","1","","","","","","","","",""
"null","214506","SARL_v6","SARL_v6qqvka3m1","6151e68ec5f6f5f9039ebace","fixation","","","img/fixation.png","null","","","test","","","","","","","","","","","","","","","","","","","",""
"404","214912","SARL_v6","SARL_v6qqvka3m1","6151e68ec5f6f5f9039ebace","freq","","","img/blue_2bandit_b2.png","70","","70","test","1","","17","","","","circle","square","17","17","1","0.9411764705882353","","","","","","","",""
"null","215319","SARL_v6","SARL_v6qqvka3m1","6151e68ec5f6f5f9039ebace","freq_resp","","","img/blue_2bandit_b.png","70","img/blue_2bandit_b.png","70","test","","","","","","","","","","","1","","","","","","","","",""
"null","215473","SARL_v6","SARL_v6qqvka3m1","6151e68ec5f6f5f9039ebace","fixation","","","img/fixation.png","null","","","test","","","","","","","","","","","","","","","","","","","",""
"326","215799","SARL_v6","SARL_v6qqvka3m1","6151e68ec5f6f5f9039ebace","freq","","","img/blue_2bandit_b2.png","70","","70","test","1","","18","","","","circle","square","18","18","1","0.9444444444444444","","","","","","","",""
"null","216276","SARL_v6","SARL_v6qqvka3m1","6151e68ec5f6f5f9039ebace","freq_resp","","","img/blue_2bandit_b.png","70","img/blue_2bandit_b.png","70","test","","","","","","","","","","","1","","","","","","","","",""
"null","216428","SARL_v6","SARL_v6qqvka3m1","6151e68ec5f6f5f9039ebace","fixation","","","img/fixation.png","null","","","test","","","","","","","","","","","","","","","","","","","",""
"331","216759","SARL_v6","SARL_v6qqvka3m1","6151e68ec5f6f5f9039ebace","freq","","","img/blue_2bandit_b2.png","70","","70","test","1","","19","","","","circle","square","19","19","1","0.9473684210526315","","","","","","","",""
"null","217229","SARL_v6","SARL_v6qqvka3m1","6151e68ec5f6f5f9039ebace","freq_resp","","","img/blue_2bandit_b.png","70","img/blue_2bandit_b.png","70","test","","","","","","","","","","","1","","","","","","","","",""
"null","217387","SARL_v6","SARL_v6qqvka3m1","6151e68ec5f6f5f9039ebace","fixation","","","img/fixation.png","null","","","test","","","","","","","","","","","","","","","","","","","",""
"324","217711","SARL_v6","SARL_v6qqvka3m1","6151e68ec5f6f5f9039ebace","freq","","","img/blue_2bandit_b2.png","70","","70","test","1","","20","","","","circle","square","20","20","1","0.95","","","","","","","",""
"null","218199","SARL_v6","SARL_v6qqvka3m1","6151e68ec5f6f5f9039ebace","freq_resp","","","img/blue_2bandit_b.png","70","img/blue_2bandit_b.png","70","test","","","","","","","","","","","1","","","","","","","","",""
"null","218353","SARL_v6","SARL_v6qqvka3m1","6151e68ec5f6f5f9039ebace","fixation","","","img/fixation.png","null","","","test","","","","","","","","","","","","","","","","","","","",""
"374","218727","SARL_v6","SARL_v6qqvka3m1","6151e68ec5f6f5f9039ebace","freq","","","img/blue_2bandit_b2.png","70","","70","test","1","","21","","","","circle","square","21","21","1","0.9523809523809523","","","","","","","",""
"null","219164","SARL_v6","SARL_v6qqvka3m1","6151e68ec5f6f5f9039ebace","freq_resp","","","img/blue_2bandit_b.png","70","img/blue_2bandit_b.png","70","test","","","","","","","","","","","1","","","","","","","","",""
"null","219316","SARL_v6","SARL_v6qqvka3m1","6151e68ec5f6f5f9039ebace","fixation","","","img/fixation.png","null","","","test","","","","","","","","","","","","","","","","","","","",""
"371","219688","SARL_v6","SARL_v6qqvka3m1","6151e68ec5f6f5f9039ebace","freq","","","img/blue_2bandit_b2.png","70","","70","test","1","","22","","","","circle","square","22","22","1","0.9545454545454546","","","","","","","",""
"null","220121","SARL_v6","SARL_v6qqvka3m1","6151e68ec5f6f5f9039ebace","freq_resp","","","img/blue_2bandit_b.png","70","img/blue_2bandit_b.png","70","test","","","","","","","","","","","1","","","","","","","","",""
"null","220276","SARL_v6","SARL_v6qqvka3m1","6151e68ec5f6f5f9039ebace","fixation","","","img/fixation.png","null","","","test","","","","","","","","","","","","","","","","","","","",""
"754","221031","SARL_v6","SARL_v6qqvka3m1","6151e68ec5f6f5f9039ebace","rl","","","img/black_2bandit_b2.png","75","","0","test","","","23","","","-3","circle","square","","0","1","","75","-3","-3","-3","-3","square","1","0"
"null","221792","SARL_v6","SARL_v6qqvka3m1","6151e68ec5f6f5f9039ebace","feedback","","","<div class=""verylowPoints_sq""> -3 </div>","null","","na","test","","","NaN","","","","","","","","1","","75","","","","","","1",""
"null","222606","SARL_v6","SARL_v6qqvka3m1","6151e68ec5f6f5f9039ebace","freq","","","img/blue_2bandit_b2.png","null","","70","test","0","","24","","","","circle","square","23","1","2","0.9130434782608695","","","","","","","",""
"null","222762","SARL_v6","SARL_v6qqvka3m1","6151e68ec5f6f5f9039ebace","fixation","","","img/fixation.png","null","","","test","","","","","","","","","","","","","","","","","","","",""
"373","223136","SARL_v6","SARL_v6qqvka3m1","6151e68ec5f6f5f9039ebace","freq","","","img/blue_2bandit_b2.png","70","","70","test","1","","25","","","","circle","square","24","2","2","0.9166666666666666","","","","","","","",""
"null","223571","SARL_v6","SARL_v6qqvka3m1","6151e68ec5f6f5f9039ebace","freq_resp","","","img/blue_2bandit_b.png","70","img/blue_2bandit_b.png","70","test","","","","","","","","","","","2","","","","","","","","",""
"null","223727","SARL_v6","SARL_v6qqvka3m1","6151e68ec5f6f5f9039ebace","fixation","","","img/fixation.png","null","","","test","","","","","","","","","","","","","","","","","","","",""
"399","224127","SARL_v6","SARL_v6qqvka3m1","6151e68ec5f6f5f9039ebace","infreq","","","img/orange_2bandit_b2.png","68","","68","test","1","","26","","","","circle","square","25","3","2","0.92","","","","","","","",""
"null","224532","SARL_v6","SARL_v6qqvka3m1","6151e68ec5f6f5f9039ebace","infreq_resp","","","img/orange_2bandit_b.png","68","img/orange_2bandit_b.png","68","test","","","","","","","","","","","2","","","","","","","","",""
"null","224689","SARL_v6","SARL_v6qqvka3m1","6151e68ec5f6f5f9039ebace","fixation","","","img/fixation.png","null","","","test","","","","","","","","","","","","","","","","","","","",""
"381","225072","SARL_v6","SARL_v6qqvka3m1","6151e68ec5f6f5f9039ebace","freq","","","img/blue_2bandit_b2.png","68","","70","test","0","","27","","","","circle","square","26","4","2","0.8846153846153846","","","","","","","",""
"null","225506","SARL_v6","SARL_v6qqvka3m1","6151e68ec5f6f5f9039ebace","freq_resp","","","img/blue_2bandit_b.png","68","img/blue_2bandit_b.png","70","test","","","","","","","","","","","2","","","","","","","","",""
"null","225661","SARL_v6","SARL_v6qqvka3m1","6151e68ec5f6f5f9039ebace","fixation","","","img/fixation.png","null","","","test","","","","","","","","","","","","","","","","","","","",""
"553","226215","SARL_v6","SARL_v6qqvka3m1","6151e68ec5f6f5f9039ebace","freq","","","img/blue_2bandit_b2.png","70","","70","test","1","","28","","","","circle","square","27","5","2","0.8888888888888888","","","","","","","",""
"null","226464","SARL_v6","SARL_v6qqvka3m1","6151e68ec5f6f5f9039ebace","freq_resp","","","img/blue_2bandit_b.png","70","img/blue_2bandit_b.png","70","test","","","","","","","","","","","2","","","","","","","","",""
"null","226618","SARL_v6","SARL_v6qqvka3m1","6151e68ec5f6f5f9039ebace","fixation","","","img/fixation.png","null","","","test","","","","","","","","","","","","","","","","","","","",""
"292","226912","SARL_v6","SARL_v6qqvka3m1","6151e68ec5f6f5f9039ebace","freq","","","img/blue_2bandit_b2.png","70","","70","test","1","","29","","","","circle","square","28","6","2","0.8928571428571429","","","","","","","",""
"null","227435","SARL_v6","SARL_v6qqvka3m1","6151e68ec5f6f5f9039ebace","freq_resp","","","img/blue_2bandit_b.png","70","img/blue_2bandit_b.png","70","test","","","","","","","","","","","2","","","","","","","","",""
"null","227591","SARL_v6","SARL_v6qqvka3m1","6151e68ec5f6f5f9039ebace","fixation","","","img/fixation.png","null","","","test","","","","","","","","","","","","","","","","","","","",""
"327","227919","SARL_v6","SARL_v6qqvka3m1","6151e68ec5f6f5f9039ebace","freq","","","img/blue_2bandit_b2.png","70","","70","test","1","","30","","","","circle","square","29","7","2","0.896551724137931","","","","","","","",""
"null","228402","SARL_v6","SARL_v6qqvka3m1","6151e68ec5f6f5f9039ebace","freq_resp","","","img/blue_2bandit_b.png","70","img/blue_2bandit_b.png","70","test","","","","","","","","","","","2","","","","","","","","",""
"null","228554","SARL_v6","SARL_v6qqvka3m1","6151e68ec5f6f5f9039ebace","fixation","","","img/fixation.png","null","","","test","","","","","","","","","","","","","","","","","","","",""
"492","229047","SARL_v6","SARL_v6qqvka3m1","6151e68ec5f6f5f9039ebace","infreq","","","img/orange_2bandit_b2.png","68","","68","test","1","","31","","","","circle","square","30","8","2","0.9","","","","","","","",""
"null","229364","SARL_v6","SARL_v6qqvka3m1","6151e68ec5f6f5f9039ebace","infreq_resp","","","img/orange_2bandit_b.png","68","img/orange_2bandit_b.png","68","test","","","","","","","","","","","2","","","","","","","","",""
"null","229515","SARL_v6","SARL_v6qqvka3m1","6151e68ec5f6f5f9039ebace","fixation","","","img/fixation.png","null","","","test","","","","","","","","","","","","","","","","","","","",""
"508","230024","SARL_v6","SARL_v6qqvka3m1","6151e68ec5f6f5f9039ebace","freq","","","img/blue_2bandit_b2.png","70","","70","test","1","","32","","","","circle","square","31","9","2","0.9032258064516129","","","","","","","",""
"null","230324","SARL_v6","SARL_v6qqvka3m1","6151e68ec5f6f5f9039ebace","freq_resp","","","img/blue_2bandit_b.png","70","img/blue_2bandit_b.png","70","test","","","","","","","","","","","2","","","","","","","","",""
"null","230476","SARL_v6","SARL_v6qqvka3m1","6151e68ec5f6f5f9039ebace","fixation","","","img/fixation.png","null","","","test","","","","","","","","","","","","","","","","","","","",""
"323","230799","SARL_v6","SARL_v6qqvka3m1","6151e68ec5f6f5f9039ebace","freq","","","img/blue_2bandit_b2.png","70","","70","test","1","","33","","","","circle","square","32","10","2","0.90625","","","","","","","",""
"null","231278","SARL_v6","SARL_v6qqvka3m1","6151e68ec5f6f5f9039ebace","freq_resp","","","img/blue_2bandit_b.png","70","img/blue_2bandit_b.png","70","test","","","","","","","","","","","2","","","","","","","","",""
"null","231433","SARL_v6","SARL_v6qqvka3m1","6151e68ec5f6f5f9039ebace","fixation","","","img/fixation.png","null","","","test","","","","","","","","","","","","","","","","","","","",""
"309","231744","SARL_v6","SARL_v6qqvka3m1","6151e68ec5f6f5f9039ebace","freq","","","img/blue_2bandit_b2.png","70","","70","test","1","","34","","","","circle","square","33","11","2","0.9090909090909091","","","","","","","",""
"null","232250","SARL_v6","SARL_v6qqvka3m1","6151e68ec5f6f5f9039ebace","freq_resp","","","img/blue_2bandit_b.png","70","img/blue_2bandit_b.png","70","test","","","","","","","","","","","2","","","","","","","","",""
"null","232407","SARL_v6","SARL_v6qqvka3m1","6151e68ec5f6f5f9039ebace","fixation","","","img/fixation.png","null","","","test","","","","","","","","","","","","","","","","","","","",""
"504","232911","SARL_v6","SARL_v6qqvka3m1","6151e68ec5f6f5f9039ebace","freq","","","img/blue_2bandit_b2.png","68","","70","test","0","","35","","","","circle","square","34","12","2","0.8823529411764706","","","","","","","",""
"null","233223","SARL_v6","SARL_v6qqvka3m1","6151e68ec5f6f5f9039ebace","freq_resp","","","img/blue_2bandit_b.png","68","img/blue_2bandit_b.png","70","test","","","","","","","","","","","2","","","","","","","","",""
"null","233379","SARL_v6","SARL_v6qqvka3m1","6151e68ec5f6f5f9039ebace","fixation","","","img/fixation.png","null","","","test","","","","","","","","","","","","","","","","","","","",""
"428","233807","SARL_v6","SARL_v6qqvka3m1","6151e68ec5f6f5f9039ebace","freq","","","img/blue_2bandit_b2.png","70","","70","test","1","","36","","","","circle","square","35","13","2","0.8857142857142857","","","","","","","",""
"null","234183","SARL_v6","SARL_v6qqvka3m1","6151e68ec5f6f5f9039ebace","freq_resp","","","img/blue_2bandit_b.png","70","img/blue_2bandit_b.png","70","test","","","","","","","","","","","2","","","","","","","","",""
"null","234339","SARL_v6","SARL_v6qqvka3m1","6151e68ec5f6f5f9039ebace","fixation","","","img/fixation.png","null","","","test","","","","","","","","","","","","","","","","","","","",""
"410","234751","SARL_v6","SARL_v6qqvka3m1","6151e68ec5f6f5f9039ebace","freq","","","img/blue_2bandit_b2.png","70","","70","test","1","","37","","","","circle","square","36","14","2","0.8888888888888888","","","","","","","",""
"null","235156","SARL_v6","SARL_v6qqvka3m1","6151e68ec5f6f5f9039ebace","freq_resp","","","img/blue_2bandit_b.png","70","img/blue_2bandit_b.png","70","test","","","","","","","","","","","2","","","","","","","","",""
"null","235313","SARL_v6","SARL_v6qqvka3m1","6151e68ec5f6f5f9039ebace","fixation","","","img/fixation.png","null","","","test","","","","","","","","","","","","","","","","","","","",""
"406","235720","SARL_v6","SARL_v6qqvka3m1","6151e68ec5f6f5f9039ebace","freq","","","img/blue_2bandit_b2.png","70","","70","test","1","","38","","","","circle","square","37","15","2","0.8918918918918919","","","","","","","",""
"null","236116","SARL_v6","SARL_v6qqvka3m1","6151e68ec5f6f5f9039ebace","freq_resp","","","img/blue_2bandit_b.png","70","img/blue_2bandit_b.png","70","test","","","","","","","","","","","2","","","","","","","","",""
"null","236270","SARL_v6","SARL_v6qqvka3m1","6151e68ec5f6f5f9039ebace","fixation","","","img/fixation.png","null","","","test","","","","","","","","","","","","","","","","","","","",""
"416","236688","SARL_v6","SARL_v6qqvka3m1","6151e68ec5f6f5f9039ebace","freq","","","img/blue_2bandit_b2.png","70","","70","test","1","","39","","","","circle","square","38","16","2","0.8947368421052632","","","","","","","",""
"null","237086","SARL_v6","SARL_v6qqvka3m1","6151e68ec5f6f5f9039ebace","freq_resp","","","img/blue_2bandit_b.png","70","img/blue_2bandit_b.png","70","test","","","","","","","","","","","2","","","","","","","","",""
"null","237241","SARL_v6","SARL_v6qqvka3m1","6151e68ec5f6f5f9039ebace","fixation","","","img/fixation.png","null","","","test","","","","","","","","","","","","","","","","","","","",""
"469","237712","SARL_v6","SARL_v6qqvka3m1","6151e68ec5f6f5f9039ebace","freq","","","img/blue_2bandit_b2.png","70","","70","test","1","","40","","","","circle","square","39","17","2","0.8974358974358975","","","","","","","",""
"null","238048","SARL_v6","SARL_v6qqvka3m1","6151e68ec5f6f5f9039ebace","freq_resp","","","img/blue_2bandit_b.png","70","img/blue_2bandit_b.png","70","test","","","","","","","","","","","2","","","","","","","","",""
"null","238201","SARL_v6","SARL_v6qqvka3m1","6151e68ec5f6f5f9039ebace","fixation","","","img/fixation.png","null","","","test","","","","","","","","","","","","","","","","","","","",""
"397","238599","SARL_v6","SARL_v6qqvka3m1","6151e68ec5f6f5f9039ebace","freq","","","img/blue_2bandit_b2.png","70","","70","test","1","","41","","","","circle","square","40","18","2","0.9","","","","","","","",""
"null","239012","SARL_v6","SARL_v6qqvka3m1","6151e68ec5f6f5f9039ebace","freq_resp","","","img/blue_2bandit_b.png","70","img/blue_2bandit_b.png","70","test","","","","","","","","","","","2","","","","","","","","",""
"null","239176","SARL_v6","SARL_v6qqvka3m1","6151e68ec5f6f5f9039ebace","fixation","","","img/fixation.png","null","","","test","","","","","","","","","","","","","","","","","","","",""
"582","239760","SARL_v6","SARL_v6qqvka3m1","6151e68ec5f6f5f9039ebace","freq","","","img/blue_2bandit_b2.png","70","","70","test","1","","42","","","","circle","square","41","19","2","0.9024390243902439","","","","","","","",""
"null","239985","SARL_v6","SARL_v6qqvka3m1","6151e68ec5f6f5f9039ebace","freq_resp","","","img/blue_2bandit_b.png","70","img/blue_2bandit_b.png","70","test","","","","","","","","","","","2","","","","","","","","",""
"null","240139","SARL_v6","SARL_v6qqvka3m1","6151e68ec5f6f5f9039ebace","fixation","","","img/fixation.png","null","","","test","","","","","","","","","","","","","","","","","","","",""
"627","240768","SARL_v6","SARL_v6qqvka3m1","6151e68ec5f6f5f9039ebace","freq","","","img/blue_2bandit_b2.png","70","","70","test","1","","43","","","","circle","square","42","20","2","0.9047619047619048","","","","","","","",""
"null","240943","SARL_v6","SARL_v6qqvka3m1","6151e68ec5f6f5f9039ebace","freq_resp","","","img/blue_2bandit_b.png","70","img/blue_2bandit_b.png","70","test","","","","","","","","","","","2","","","","","","","","",""
"null","241099","SARL_v6","SARL_v6qqvka3m1","6151e68ec5f6f5f9039ebace","fixation","","","img/fixation.png","null","","","test","","","","","","","","","","","","","","","","","","","",""
"604","241703","SARL_v6","SARL_v6qqvka3m1","6151e68ec5f6f5f9039ebace","freq","","","img/blue_2bandit_b2.png","70","","70","test","1","","44","","","","circle","square","43","21","2","0.9069767441860465","","","","","","","",""
"null","241907","SARL_v6","SARL_v6qqvka3m1","6151e68ec5f6f5f9039ebace","freq_resp","","","img/blue_2bandit_b.png","70","img/blue_2bandit_b.png","70","test","","","","","","","","","","","2","","","","","","","","",""
"null","242064","SARL_v6","SARL_v6qqvka3m1","6151e68ec5f6f5f9039ebace","fixation","","","img/fixation.png","null","","","test","","","","","","","","","","","","","","","","","","","",""
"567","242633","SARL_v6","SARL_v6qqvka3m1","6151e68ec5f6f5f9039ebace","rl","","","img/black_2bandit_b2.png","75","","0","test","","","45","","","-5","circle","square","","0","2","","75","-8","-5","-8","-5","square","2","0"
"null","243394","SARL_v6","SARL_v6qqvka3m1","6151e68ec5f6f5f9039ebace","feedback","","","<div class=""verylowPoints_sq""> -5 </div>","null","","na","test","","","NaN","","","","","","","","2","","75","","","","","","2",""
"541","243936","SARL_v6","SARL_v6qqvka3m1","6151e68ec5f6f5f9039ebace","freq","","","img/blue_2bandit_b2.png","70","","70","test","1","","46","","","","circle","square","44","1","3","0.9090909090909091","","","","","","","",""
"null","244213","SARL_v6","SARL_v6qqvka3m1","6151e68ec5f6f5f9039ebace","freq_resp","","","img/blue_2bandit_b.png","70","img/blue_2bandit_b.png","70","test","","","","","","","","","","","3","","","","","","","","",""
"null","244376","SARL_v6","SARL_v6qqvka3m1","6151e68ec5f6f5f9039ebace","fixation","","","img/fixation.png","null","","","test","","","","","","","","","","","","","","","","","","","",""
"486","244863","SARL_v6","SARL_v6qqvka3m1","6151e68ec5f6f5f9039ebace","freq","","","img/blue_2bandit_b2.png","70","","70","test","1","","47","","","","circle","square","45","2","3","0.9111111111111111","","","","","","","",""
"null","245194","SARL_v6","SARL_v6qqvka3m1","6151e68ec5f6f5f9039ebace","freq_resp","","","img/blue_2bandit_b.png","70","img/blue_2bandit_b.png","70","test","","","","","","","","","","","3","","","","","","","","",""
"null","245346","SARL_v6","SARL_v6qqvka3m1","6151e68ec5f6f5f9039ebace","fixation","","","img/fixation.png","null","","","test","","","","","","","","","","","","","","","","","","","",""
"412","245759","SARL_v6","SARL_v6qqvka3m1","6151e68ec5f6f5f9039ebace","freq","","","img/blue_2bandit_b2.png","70","","70","test","1","","48","","","","circle","square","46","3","3","0.9130434782608695","","","","","","","",""
"null","246155","SARL_v6","SARL_v6qqvka3m1","6151e68ec5f6f5f9039ebace","freq_resp","","","img/blue_2bandit_b.png","70","img/blue_2bandit_b.png","70","test","","","","","","","","","","","3","","","","","","","","",""
"null","246308","SARL_v6","SARL_v6qqvka3m1","6151e68ec5f6f5f9039ebace","fixation","","","img/fixation.png","null","","","test","","","","","","","","","","","","","","","","","","","",""
"395","246703","SARL_v6","SARL_v6qqvka3m1","6151e68ec5f6f5f9039ebace","freq","","","img/blue_2bandit_b2.png","70","","70","test","1","","49","","","","circle","square","47","4","3","0.9148936170212766","","","","","","","",""
"null","247115","SARL_v6","SARL_v6qqvka3m1","6151e68ec5f6f5f9039ebace","freq_resp","","","img/blue_2bandit_b.png","70","img/blue_2bandit_b.png","70","test","","","","","","","","","","","3","","","","","","","","",""
"null","247272","SARL_v6","SARL_v6qqvka3m1","6151e68ec5f6f5f9039ebace","fixation","","","img/fixation.png","null","","","test","","","","","","","","","","","","","","","","","","","",""
"535","247807","SARL_v6","SARL_v6qqvka3m1","6151e68ec5f6f5f9039ebace","freq","","","img/blue_2bandit_b2.png","70","","70","test","1","","50","","","","circle","square","48","5","3","0.9166666666666666","","","","","","","",""
"null","248079","SARL_v6","SARL_v6qqvka3m1","6151e68ec5f6f5f9039ebace","freq_resp","","","img/blue_2bandit_b.png","70","img/blue_2bandit_b.png","70","test","","","","","","","","","","","3","","","","","","","","",""
"null","248236","SARL_v6","SARL_v6qqvka3m1","6151e68ec5f6f5f9039ebace","fixation","","","img/fixation.png","null","","","test","","","","","","","","","","","","","","","","","","","",""
"427","248664","SARL_v6","SARL_v6qqvka3m1","6151e68ec5f6f5f9039ebace","freq","","","img/blue_2bandit_b2.png","70","","70","test","1","","51","","","","circle","square","49","6","3","0.9183673469387755","","","","","","","",""
"null","249049","SARL_v6","SARL_v6qqvka3m1","6151e68ec5f6f5f9039ebace","freq_resp","","","img/blue_2bandit_b.png","70","img/blue_2bandit_b.png","70","test","","","","","","","","","","","3","","","","","","","","",""
"null","249205","SARL_v6","SARL_v6qqvka3m1","6151e68ec5f6f5f9039ebace","fixation","","","img/fixation.png","null","","","test","","","","","","","","","","","","","","","","","","","",""
"449","249655","SARL_v6","SARL_v6qqvka3m1","6151e68ec5f6f5f9039ebace","freq","","","img/blue_2bandit_b2.png","70","","70","test","1","","52","","","","circle","square","50","7","3","0.92","","","","","","","",""
"null","250008","SARL_v6","SARL_v6qqvka3m1","6151e68ec5f6f5f9039ebace","freq_resp","","","img/blue_2bandit_b.png","70","img/blue_2bandit_b.png","70","test","","","","","","","","","","","3","","","","","","","","",""
"null","250166","SARL_v6","SARL_v6qqvka3m1","6151e68ec5f6f5f9039ebace","fixation","","","img/fixation.png","null","","","test","","","","","","","","","","","","","","","","","","","",""
"615","250783","SARL_v6","SARL_v6qqvka3m1","6151e68ec5f6f5f9039ebace","freq","","","img/blue_2bandit_b2.png","70","","70","test","1","","53","","","","circle","square","51","8","3","0.9215686274509803","","","","","","","",""
"null","250974","SARL_v6","SARL_v6qqvka3m1","6151e68ec5f6f5f9039ebace","freq_resp","","","img/blue_2bandit_b.png","70","img/blue_2bandit_b.png","70","test","","","","","","","","","","","3","","","","","","","","",""
"null","251130","SARL_v6","SARL_v6qqvka3m1","6151e68ec5f6f5f9039ebace","fixation","","","img/fixation.png","null","","","test","","","","","","","","","","","","","","","","","","","",""
"379","251511","SARL_v6","SARL_v6qqvka3m1","6151e68ec5f6f5f9039ebace","freq","","","img/blue_2bandit_b2.png","70","","70","test","1","","54","","","","circle","square","52","9","3","0.9230769230769231","","","","","","","",""
"null","251939","SARL_v6","SARL_v6qqvka3m1","6151e68ec5f6f5f9039ebace","freq_resp","","","img/blue_2bandit_b.png","70","img/blue_2bandit_b.png","70","test","","","","","","","","","","","3","","","","","","","","",""
"null","252093","SARL_v6","SARL_v6qqvka3m1","6151e68ec5f6f5f9039ebace","fixation","","","img/fixation.png","null","","","test","","","","","","","","","","","","","","","","","","","",""
"378","252471","SARL_v6","SARL_v6qqvka3m1","6151e68ec5f6f5f9039ebace","freq","","","img/blue_2bandit_b2.png","70","","70","test","1","","55","","","","circle","square","53","10","3","0.9245283018867925","","","","","","","",""
"null","252905","SARL_v6","SARL_v6qqvka3m1","6151e68ec5f6f5f9039ebace","freq_resp","","","img/blue_2bandit_b.png","70","img/blue_2bandit_b.png","70","test","","","","","","","","","","","3","","","","","","","","",""
"null","253062","SARL_v6","SARL_v6qqvka3m1","6151e68ec5f6f5f9039ebace","fixation","","","img/fixation.png","null","","","test","","","","","","","","","","","","","","","","","","","",""
"287","253351","SARL_v6","SARL_v6qqvka3m1","6151e68ec5f6f5f9039ebace","freq","","","img/blue_2bandit_b2.png","70","","70","test","1","","56","","","","circle","square","54","11","3","0.9259259259259259","","","","","","","",""
"null","253869","SARL_v6","SARL_v6qqvka3m1","6151e68ec5f6f5f9039ebace","freq_resp","","","img/blue_2bandit_b.png","70","img/blue_2bandit_b.png","70","test","","","","","","","","","","","3","","","","","","","","",""
"null","254021","SARL_v6","SARL_v6qqvka3m1","6151e68ec5f6f5f9039ebace","fixation","","","img/fixation.png","null","","","test","","","","","","","","","","","","","","","","","","","",""
"306","254327","SARL_v6","SARL_v6qqvka3m1","6151e68ec5f6f5f9039ebace","freq","","","img/blue_2bandit_b2.png","70","","70","test","1","","57","","","","circle","square","55","12","3","0.9272727272727272","","","","","","","",""
"null","254826","SARL_v6","SARL_v6qqvka3m1","6151e68ec5f6f5f9039ebace","freq_resp","","","img/blue_2bandit_b.png","70","img/blue_2bandit_b.png","70","test","","","","","","","","","","","3","","","","","","","","",""
"null","254988","SARL_v6","SARL_v6qqvka3m1","6151e68ec5f6f5f9039ebace","fixation","","","img/fixation.png","null","","","test","","","","","","","","","","","","","","","","","","","",""
"329","255319","SARL_v6","SARL_v6qqvka3m1","6151e68ec5f6f5f9039ebace","freq","","","img/blue_2bandit_b2.png","70","","70","test","1","","58","","","","circle","square","56","13","3","0.9285714285714286","","","","","","","",""
"null","255793","SARL_v6","SARL_v6qqvka3m1","6151e68ec5f6f5f9039ebace","freq_resp","","","img/blue_2bandit_b.png","70","img/blue_2bandit_b.png","70","test","","","","","","","","","","","3","","","","","","","","",""
"null","255949","SARL_v6","SARL_v6qqvka3m1","6151e68ec5f6f5f9039ebace","fixation","","","img/fixation.png","null","","","test","","","","","","","","","","","","","","","","","","","",""
"434","256384","SARL_v6","SARL_v6qqvka3m1","6151e68ec5f6f5f9039ebace","infreq","","","img/orange_2bandit_b2.png","68","","68","test","1","","59","","","","circle","square","57","14","3","0.9298245614035088","","","","","","","",""
"null","256759","SARL_v6","SARL_v6qqvka3m1","6151e68ec5f6f5f9039ebace","infreq_resp","","","img/orange_2bandit_b.png","68","img/orange_2bandit_b.png","68","test","","","","","","","","","","","3","","","","","","","","",""
"null","256913","SARL_v6","SARL_v6qqvka3m1","6151e68ec5f6f5f9039ebace","fixation","","","img/fixation.png","null","","","test","","","","","","","","","","","","","","","","","","","",""
"518","257432","SARL_v6","SARL_v6qqvka3m1","6151e68ec5f6f5f9039ebace","freq","","","img/blue_2bandit_b2.png","70","","70","test","1","","60","","","","circle","square","58","15","3","0.9310344827586207","","","","","","","",""
"null","257730","SARL_v6","SARL_v6qqvka3m1","6151e68ec5f6f5f9039ebace","freq_resp","","","img/blue_2bandit_b.png","70","img/blue_2bandit_b.png","70","test","","","","","","","","","","","3","","","","","","","","",""
"null","257882","SARL_v6","SARL_v6qqvka3m1","6151e68ec5f6f5f9039ebace","fixation","","","img/fixation.png","null","","","test","","","","","","","","","","","","","","","","","","","",""
"437","258319","SARL_v6","SARL_v6qqvka3m1","6151e68ec5f6f5f9039ebace","freq","","","img/blue_2bandit_b2.png","70","","70","test","1","","61","","","","circle","square","59","16","3","0.9322033898305084","","","","","","","",""
"null","258690","SARL_v6","SARL_v6qqvka3m1","6151e68ec5f6f5f9039ebace","freq_resp","","","img/blue_2bandit_b.png","70","img/blue_2bandit_b.png","70","test","","","","","","","","","","","3","","","","","","","","",""
"null","258846","SARL_v6","SARL_v6qqvka3m1","6151e68ec5f6f5f9039ebace","fixation","","","img/fixation.png","null","","","test","","","","","","","","","","","","","","","","","","","",""
"408","259255","SARL_v6","SARL_v6qqvka3m1","6151e68ec5f6f5f9039ebace","freq","","","img/blue_2bandit_b2.png","70","","70","test","1","","62","","","","circle","square","60","17","3","0.9333333333333333","","","","","","","",""
"null","259649","SARL_v6","SARL_v6qqvka3m1","6151e68ec5f6f5f9039ebace","freq_resp","","","img/blue_2bandit_b.png","70","img/blue_2bandit_b.png","70","test","","","","","","","","","","","3","","","","","","","","",""
"null","259806","SARL_v6","SARL_v6qqvka3m1","6151e68ec5f6f5f9039ebace","fixation","","","img/fixation.png","null","","","test","","","","","","","","","","","","","","","","","","","",""
"304","260111","SARL_v6","SARL_v6qqvka3m1","6151e68ec5f6f5f9039ebace","freq","","","img/blue_2bandit_b2.png","70","","70","test","1","","63","","","","circle","square","61","18","3","0.9344262295081968","","","","","","","",""
"null","260612","SARL_v6","SARL_v6qqvka3m1","6151e68ec5f6f5f9039ebace","freq_resp","","","img/blue_2bandit_b.png","70","img/blue_2bandit_b.png","70","test","","","","","","","","","","","3","","","","","","","","",""
"null","260767","SARL_v6","SARL_v6qqvka3m1","6151e68ec5f6f5f9039ebace","fixation","","","img/fixation.png","null","","","test","","","","","","","","","","","","","","","","","","","",""
"311","261080","SARL_v6","SARL_v6qqvka3m1","6151e68ec5f6f5f9039ebace","freq","","","img/blue_2bandit_b2.png","70","","70","test","1","","64","","","","circle","square","62","19","3","0.9354838709677419","","","","","","","",""
"null","261580","SARL_v6","SARL_v6qqvka3m1","6151e68ec5f6f5f9039ebace","freq_resp","","","img/blue_2bandit_b.png","70","img/blue_2bandit_b.png","70","test","","","","","","","","","","","3","","","","","","","","",""
"null","261734","SARL_v6","SARL_v6qqvka3m1","6151e68ec5f6f5f9039ebace","fixation","","","img/fixation.png","null","","","test","","","","","","","","","","","","","","","","","","","",""
"215","261951","SARL_v6","SARL_v6qqvka3m1","6151e68ec5f6f5f9039ebace","freq","","","img/blue_2bandit_b2.png","70","","70","test","1","","65","","","","circle","square","63","20","3","0.9365079365079365","","","","","","","",""
"null","262543","SARL_v6","SARL_v6qqvka3m1","6151e68ec5f6f5f9039ebace","freq_resp","","","img/blue_2bandit_b.png","70","img/blue_2bandit_b.png","70","test","","","","","","","","","","","3","","","","","","","","",""
"null","262696","SARL_v6","SARL_v6qqvka3m1","6151e68ec5f6f5f9039ebace","fixation","","","img/fixation.png","null","","","test","","","","","","","","","","","","","","","","","","","",""
"477","263175","SARL_v6","SARL_v6qqvka3m1","6151e68ec5f6f5f9039ebace","infreq","","","img/orange_2bandit_b2.png","68","","68","test","1","","66","","","","circle","square","64","21","3","0.9375","","","","","","","",""
"null","263500","SARL_v6","SARL_v6qqvka3m1","6151e68ec5f6f5f9039ebace","infreq_resp","","","img/orange_2bandit_b.png","68","img/orange_2bandit_b.png","68","test","","","","","","","","","","","3","","","","","","","","",""
"null","263661","SARL_v6","SARL_v6qqvka3m1","6151e68ec5f6f5f9039ebace","fixation","","","img/fixation.png","null","","","test","","","","","","","","","","","","","","","","","","","",""
"690","264352","SARL_v6","SARL_v6qqvka3m1","6151e68ec5f6f5f9039ebace","freq","","","img/blue_2bandit_b2.png","70","","70","test","1","","67","","","","circle","square","65","22","3","0.9384615384615385","","","","","","","",""
"null","264477","SARL_v6","SARL_v6qqvka3m1","6151e68ec5f6f5f9039ebace","freq_resp","","","img/blue_2bandit_b.png","70","img/blue_2bandit_b.png","70","test","","","","","","","","","","","3","","","","","","","","",""
"null","264632","SARL_v6","SARL_v6qqvka3m1","6151e68ec5f6f5f9039ebace","fixation","","","img/fixation.png","null","","","test","","","","","","","","","","","","","","","","","","","",""
"590","265223","SARL_v6","SARL_v6qqvka3m1","6151e68ec5f6f5f9039ebace","rl","","","img/black_2bandit_b2.png","75","","0","test","","","68","","","-4","circle","square","","0","3","","75","-8","-4","-8","-4","square","3","0"
"null","265978","SARL_v6","SARL_v6qqvka3m1","6151e68ec5f6f5f9039ebace","feedback","","","<div class=""verylowPoints_sq""> -4 </div>","null","","na","test","","","NaN","","","","","","","","3","","75","","","","","","3",""
"500","266479","SARL_v6","SARL_v6qqvka3m1","6151e68ec5f6f5f9039ebace","freq","","","img/blue_2bandit_b2.png","70","","70","test","1","","69","","","","circle","square","66","1","4","0.9393939393939394","","","","","","","",""
"null","266785","SARL_v6","SARL_v6qqvka3m1","6151e68ec5f6f5f9039ebace","freq_resp","","","img/blue_2bandit_b.png","70","img/blue_2bandit_b.png","70","test","","","","","","","","","","","4","","","","","","","","",""
"null","266936","SARL_v6","SARL_v6qqvka3m1","6151e68ec5f6f5f9039ebace","fixation","","","img/fixation.png","null","","","test","","","","","","","","","","","","","","","","","","","",""
"349","267287","SARL_v6","SARL_v6qqvka3m1","6151e68ec5f6f5f9039ebace","freq","","","img/blue_2bandit_b2.png","70","","70","test","1","","70","","","","circle","square","67","2","4","0.9402985074626866","","","","","","","",""
"null","267755","SARL_v6","SARL_v6qqvka3m1","6151e68ec5f6f5f9039ebace","freq_resp","","","img/blue_2bandit_b.png","70","img/blue_2bandit_b.png","70","test","","","","","","","","","","","4","","","","","","","","",""
"null","267911","SARL_v6","SARL_v6qqvka3m1","6151e68ec5f6f5f9039ebace","fixation","","","img/fixation.png","null","","","test","","","","","","","","","","","","","","","","","","","",""
"303","268215","SARL_v6","SARL_v6qqvka3m1","6151e68ec5f6f5f9039ebace","freq","","","img/blue_2bandit_b2.png","70","","70","test","1","","71","","","","circle","square","68","3","4","0.9411764705882353","","","","","","","",""
"null","268718","SARL_v6","SARL_v6qqvka3m1","6151e68ec5f6f5f9039ebace","freq_resp","","","img/blue_2bandit_b.png","70","img/blue_2bandit_b.png","70","test","","","","","","","","","","","4","","","","","","","","",""
"null","268874","SARL_v6","SARL_v6qqvka3m1","6151e68ec5f6f5f9039ebace","fixation","","","img/fixation.png","null","","","test","","","","","","","","","","","","","","","","","","","",""
"299","269175","SARL_v6","SARL_v6qqvka3m1","6151e68ec5f6f5f9039ebace","freq","","","img/blue_2bandit_b2.png","70","","70","test","1","","72","","","","circle","square","69","4","4","0.9420289855072463","","","","","","","",""
"null","269692","SARL_v6","SARL_v6qqvka3m1","6151e68ec5f6f5f9039ebace","freq_resp","","","img/blue_2bandit_b.png","70","img/blue_2bandit_b.png","70","test","","","","","","","","","","","4","","","","","","","","",""
"null","269845","SARL_v6","SARL_v6qqvka3m1","6151e68ec5f6f5f9039ebace","fixation","","","img/fixation.png","null","","","test","","","","","","","","","","","","","","","","","","","",""
"345","270191","SARL_v6","SARL_v6qqvka3m1","6151e68ec5f6f5f9039ebace","freq","","","img/blue_2bandit_b2.png","70","","70","test","1","","73","","","","circle","square","70","5","4","0.9428571428571428","","","","","","","",""
"null","270650","SARL_v6","SARL_v6qqvka3m1","6151e68ec5f6f5f9039ebace","freq_resp","","","img/blue_2bandit_b.png","70","img/blue_2bandit_b.png","70","test","","","","","","","","","","","4","","","","","","","","",""
"null","270803","SARL_v6","SARL_v6qqvka3m1","6151e68ec5f6f5f9039ebace","fixation","","","img/fixation.png","null","","","test","","","","","","","","","","","","","","","","","","","",""
"324","271128","SARL_v6","SARL_v6qqvka3m1","6151e68ec5f6f5f9039ebace","freq","","","img/blue_2bandit_b2.png","70","","70","test","1","","74","","","","circle","square","71","6","4","0.9436619718309859","","","","","","","",""
"null","271608","SARL_v6","SARL_v6qqvka3m1","6151e68ec5f6f5f9039ebace","freq_resp","","","img/blue_2bandit_b.png","70","img/blue_2bandit_b.png","70","test","","","","","","","","","","","4","","","","","","","","",""
"null","271763","SARL_v6","SARL_v6qqvka3m1","6151e68ec5f6f5f9039ebace","fixation","","","img/fixation.png","null","","","test","","","","","","","","","","","","","","","","","","","",""
"316","272080","SARL_v6","SARL_v6qqvka3m1","6151e68ec5f6f5f9039ebace","freq","","","img/blue_2bandit_b2.png","70","","70","test","1","","75","","","","circle","square","72","7","4","0.9444444444444444","","","","","","","",""
"null","272578","SARL_v6","SARL_v6qqvka3m1","6151e68ec5f6f5f9039ebace","freq_resp","","","img/blue_2bandit_b.png","70","img/blue_2bandit_b.png","70","test","","","","","","","","","","","4","","","","","","","","",""
"null","272730","SARL_v6","SARL_v6qqvka3m1","6151e68ec5f6f5f9039ebace","fixation","","","img/fixation.png","null","","","test","","","","","","","","","","","","","","","","","","","",""
"285","273016","SARL_v6","SARL_v6qqvka3m1","6151e68ec5f6f5f9039ebace","freq","","","img/blue_2bandit_b2.png","70","","70","test","1","","76","","","","circle","square","73","8","4","0.9452054794520548","","","","","","","",""
"null","273536","SARL_v6","SARL_v6qqvka3m1","6151e68ec5f6f5f9039ebace","freq_resp","","","img/blue_2bandit_b.png","70","img/blue_2bandit_b.png","70","test","","","","","","","","","","","4","","","","","","","","",""
"null","273691","SARL_v6","SARL_v6qqvka3m1","6151e68ec5f6f5f9039ebace","fixation","","","img/fixation.png","null","","","test","","","","","","","","","","","","","","","","","","","",""
"363","274056","SARL_v6","SARL_v6qqvka3m1","6151e68ec5f6f5f9039ebace","freq","","","img/blue_2bandit_b2.png","70","","70","test","1","","77","","","","circle","square","74","9","4","0.9459459459459459","","","","","","","",""
"null","274510","SARL_v6","SARL_v6qqvka3m1","6151e68ec5f6f5f9039ebace","freq_resp","","","img/blue_2bandit_b.png","70","img/blue_2bandit_b.png","70","test","","","","","","","","","","","4","","","","","","","","",""
"null","274667","SARL_v6","SARL_v6qqvka3m1","6151e68ec5f6f5f9039ebace","fixation","","","img/fixation.png","null","","","test","","","","","","","","","","","","","","","","","","","",""
"380","275048","SARL_v6","SARL_v6qqvka3m1","6151e68ec5f6f5f9039ebace","freq","","","img/blue_2bandit_b2.png","70","","70","test","1","","78","","","","circle","square","75","10","4","0.9466666666666667","","","","","","","",""
"null","275482","SARL_v6","SARL_v6qqvka3m1","6151e68ec5f6f5f9039ebace","freq_resp","","","img/blue_2bandit_b.png","70","img/blue_2bandit_b.png","70","test","","","","","","","","","","","4","","","","","","","","",""
"null","275637","SARL_v6","SARL_v6qqvka3m1","6151e68ec5f6f5f9039ebace","fixation","","","img/fixation.png","null","","","test","","","","","","","","","","","","","","","","","","","",""
"369","276008","SARL_v6","SARL_v6qqvka3m1","6151e68ec5f6f5f9039ebace","freq","","","img/blue_2bandit_b2.png","70","","70","test","1","","79","","","","circle","square","76","11","4","0.9473684210526315","","","","","","","",""
"null","276445","SARL_v6","SARL_v6qqvka3m1","6151e68ec5f6f5f9039ebace","freq_resp","","","img/blue_2bandit_b.png","70","img/blue_2bandit_b.png","70","test","","","","","","","","","","","4","","","","","","","","",""
"null","276601","SARL_v6","SARL_v6qqvka3m1","6151e68ec5f6f5f9039ebace","fixation","","","img/fixation.png","null","","","test","","","","","","","","","","","","","","","","","","","",""
"350","276952","SARL_v6","SARL_v6qqvka3m1","6151e68ec5f6f5f9039ebace","freq","","","img/blue_2bandit_b2.png","70","","70","test","1","","80","","","","circle","square","77","12","4","0.948051948051948","","","","","","","",""
"null","277409","SARL_v6","SARL_v6qqvka3m1","6151e68ec5f6f5f9039ebace","freq_resp","","","img/blue_2bandit_b.png","70","img/blue_2bandit_b.png","70","test","","","","","","","","","","","4","","","","","","","","",""
"null","277565","SARL_v6","SARL_v6qqvka3m1","6151e68ec5f6f5f9039ebace","fixation","","","img/fixation.png","null","","","test","","","","","","","","","","","","","","","","","","","",""
"339","277904","SARL_v6","SARL_v6qqvka3m1","6151e68ec5f6f5f9039ebace","freq","","","img/blue_2bandit_b2.png","70","","70","test","1","","81","","","","circle","square","78","13","4","0.9487179487179487","","","","","","","",""
"null","278377","SARL_v6","SARL_v6qqvka3m1","6151e68ec5f6f5f9039ebace","freq_resp","","","img/blue_2bandit_b.png","70","img/blue_2bandit_b.png","70","test","","","","","","","","","","","4","","","","","","","","",""
"null","278541","SARL_v6","SARL_v6qqvka3m1","6151e68ec5f6f5f9039ebace","fixation","","","img/fixation.png","null","","","test","","","","","","","","","","","","","","","","","","","",""
"331","278873","SARL_v6","SARL_v6qqvka3m1","6151e68ec5f6f5f9039ebace","freq","","","img/blue_2bandit_b2.png","70","","70","test","1","","82","","","","circle","square","79","14","4","0.9493670886075949","","","","","","","",""
"null","279351","SARL_v6","SARL_v6qqvka3m1","6151e68ec5f6f5f9039ebace","freq_resp","","","img/blue_2bandit_b.png","70","img/blue_2bandit_b.png","70","test","","","","","","","","","","","4","","","","","","","","",""
"null","279502","SARL_v6","SARL_v6qqvka3m1","6151e68ec5f6f5f9039ebace","fixation","","","img/fixation.png","null","","","test","","","","","","","","","","","","","","","","","","","",""
"400","279904","SARL_v6","SARL_v6qqvka3m1","6151e68ec5f6f5f9039ebace","freq","","","img/blue_2bandit_b2.png","70","","70","test","1","","83","","","","circle","square","80","15","4","0.95","","","","","","","",""
"null","280311","SARL_v6","SARL_v6qqvka3m1","6151e68ec5f6f5f9039ebace","freq_resp","","","img/blue_2bandit_b.png","70","img/blue_2bandit_b.png","70","test","","","","","","","","","","","4","","","","","","","","",""
"null","280467","SARL_v6","SARL_v6qqvka3m1","6151e68ec5f6f5f9039ebace","fixation","","","img/fixation.png","null","","","test","","","","","","","","","","","","","","","","","","","",""
"428","280896","SARL_v6","SARL_v6qqvka3m1","6151e68ec5f6f5f9039ebace","freq","","","img/blue_2bandit_b2.png","70","","70","test","1","","84","","","","circle","square","81","16","4","0.9506172839506173","","","","","","","",""
"null","281272","SARL_v6","SARL_v6qqvka3m1","6151e68ec5f6f5f9039ebace","freq_resp","","","img/blue_2bandit_b.png","70","img/blue_2bandit_b.png","70","test","","","","","","","","","","","4","","","","","","","","",""
"null","281428","SARL_v6","SARL_v6qqvka3m1","6151e68ec5f6f5f9039ebace","fixation","","","img/fixation.png","null","","","test","","","","","","","","","","","","","","","","","","","",""
"395","281825","SARL_v6","SARL_v6qqvka3m1","6151e68ec5f6f5f9039ebace","freq","","","img/blue_2bandit_b2.png","70","","70","test","1","","85","","","","circle","square","82","17","4","0.9512195121951219","","","","","","","",""
"null","282238","SARL_v6","SARL_v6qqvka3m1","6151e68ec5f6f5f9039ebace","freq_resp","","","img/blue_2bandit_b.png","70","img/blue_2bandit_b.png","70","test","","","","","","","","","","","4","","","","","","","","",""
"null","282394","SARL_v6","SARL_v6qqvka3m1","6151e68ec5f6f5f9039ebace","fixation","","","img/fixation.png","null","","","test","","","","","","","","","","","","","","","","","","","",""
"365","282760","SARL_v6","SARL_v6qqvka3m1","6151e68ec5f6f5f9039ebace","freq","","","img/blue_2bandit_b2.png","70","","70","test","1","","86","","","","circle","square","83","18","4","0.9518072289156626","","","","","","","",""
"null","283197","SARL_v6","SARL_v6qqvka3m1","6151e68ec5f6f5f9039ebace","freq_resp","","","img/blue_2bandit_b.png","70","img/blue_2bandit_b.png","70","test","","","","","","","","","","","4","","","","","","","","",""
"null","283354","SARL_v6","SARL_v6qqvka3m1","6151e68ec5f6f5f9039ebace","fixation","","","img/fixation.png","null","","","test","","","","","","","","","","","","","","","","","","","",""
"381","283736","SARL_v6","SARL_v6qqvka3m1","6151e68ec5f6f5f9039ebace","freq","","","img/blue_2bandit_b2.png","70","","70","test","1","","87","","","","circle","square","84","19","4","0.9523809523809523","","","","","","","",""
"null","284167","SARL_v6","SARL_v6qqvka3m1","6151e68ec5f6f5f9039ebace","freq_resp","","","img/blue_2bandit_b.png","70","img/blue_2bandit_b.png","70","test","","","","","","","","","","","4","","","","","","","","",""
"null","284323","SARL_v6","SARL_v6qqvka3m1","6151e68ec5f6f5f9039ebace","fixation","","","img/fixation.png","null","","","test","","","","","","","","","","","","","","","","","","","",""
"380","284704","SARL_v6","SARL_v6qqvka3m1","6151e68ec5f6f5f9039ebace","freq","","","img/blue_2bandit_b2.png","70","","70","test","1","","88","","","","circle","square","85","20","4","0.9529411764705882","","","","","","","",""
"null","285140","SARL_v6","SARL_v6qqvka3m1","6151e68ec5f6f5f9039ebace","freq_resp","","","img/blue_2bandit_b.png","70","img/blue_2bandit_b.png","70","test","","","","","","","","","","","4","","","","","","","","",""
"null","285297","SARL_v6","SARL_v6qqvka3m1","6151e68ec5f6f5f9039ebace","fixation","","","img/fixation.png","null","","","test","","","","","","","","","","","","","","","","","","","",""
"415","285712","SARL_v6","SARL_v6qqvka3m1","6151e68ec5f6f5f9039ebace","infreq","","","img/orange_2bandit_b2.png","68","","68","test","1","","89","","","","circle","square","86","21","4","0.9534883720930233","","","","","","","",""
"null","286114","SARL_v6","SARL_v6qqvka3m1","6151e68ec5f6f5f9039ebace","infreq_resp","","","img/orange_2bandit_b.png","68","img/orange_2bandit_b.png","68","test","","","","","","","","","","","4","","","","","","","","",""
"null","286269","SARL_v6","SARL_v6qqvka3m1","6151e68ec5f6f5f9039ebace","fixation","","","img/fixation.png","null","","","test","","","","","","","","","","","","","","","","","","","",""
"289","286560","SARL_v6","SARL_v6qqvka3m1","6151e68ec5f6f5f9039ebace","freq","","","img/blue_2bandit_b2.png","70","","70","test","1","","90","","","","circle","square","87","22","4","0.9540229885057471","","","","","","","",""
"null","287075","SARL_v6","SARL_v6qqvka3m1","6151e68ec5f6f5f9039ebace","freq_resp","","","img/blue_2bandit_b.png","70","img/blue_2bandit_b.png","70","test","","","","","","","","","","","4","","","","","","","","",""
"null","287231","SARL_v6","SARL_v6qqvka3m1","6151e68ec5f6f5f9039ebace","fixation","","","img/fixation.png","null","","","test","","","","","","","","","","","","","","","","","","","",""
"248","287480","SARL_v6","SARL_v6qqvka3m1","6151e68ec5f6f5f9039ebace","infreq","","","img/orange_2bandit_b2.png","70","","68","test","0","","91","","","","circle","square","88","23","4","0.9431818181818182","","","","","","","",""
"null","288043","SARL_v6","SARL_v6qqvka3m1","6151e68ec5f6f5f9039ebace","infreq_resp","","","img/orange_2bandit_b.png","70","img/orange_2bandit_b.png","68","test","","","","","","","","","","","4","","","","","","","","",""
"null","288194","SARL_v6","SARL_v6qqvka3m1","6151e68ec5f6f5f9039ebace","fixation","","","img/fixation.png","null","","","test","","","","","","","","","","","","","","","","","","","",""
"422","288617","SARL_v6","SARL_v6qqvka3m1","6151e68ec5f6f5f9039ebace","freq","","","img/blue_2bandit_b2.png","70","","70","test","1","","92","","","","circle","square","89","24","4","0.9438202247191011","","","","","","","",""
"null","289006","SARL_v6","SARL_v6qqvka3m1","6151e68ec5f6f5f9039ebace","freq_resp","","","img/blue_2bandit_b.png","70","img/blue_2bandit_b.png","70","test","","","","","","","","","","","4","","","","","","","","",""
"null","289162","SARL_v6","SARL_v6qqvka3m1","6151e68ec5f6f5f9039ebace","fixation","","","img/fixation.png","null","","","test","","","","","","","","","","","","","","","","","","","",""
"341","289504","SARL_v6","SARL_v6qqvka3m1","6151e68ec5f6f5f9039ebace","freq","","","img/blue_2bandit_b2.png","70","","70","test","1","","93","","","","circle","square","90","25","4","0.9444444444444444","","","","","","","",""
"null","289966","SARL_v6","SARL_v6qqvka3m1","6151e68ec5f6f5f9039ebace","freq_resp","","","img/blue_2bandit_b.png","70","img/blue_2bandit_b.png","70","test","","","","","","","","","","","4","","","","","","","","",""
"null","290123","SARL_v6","SARL_v6qqvka3m1","6151e68ec5f6f5f9039ebace","fixation","","","img/fixation.png","null","","","test","","","","","","","","","","","","","","","","","","","",""
"604","290728","SARL_v6","SARL_v6qqvka3m1","6151e68ec5f6f5f9039ebace","rl","","","img/black_2bandit_b2.png","75","","0","test","","","94","","","0","circle","square","","0","4","","75","-12","0","-12","0","square","4","0"
"null","291480","SARL_v6","SARL_v6qqvka3m1","6151e68ec5f6f5f9039ebace","feedback","","","<div class=""verylowPoints_sq""> 0 </div>","null","","na","test","","","NaN","","","","","","","","4","","75","","","","","","4",""
"318","291800","SARL_v6","SARL_v6qqvka3m1","6151e68ec5f6f5f9039ebace","freq","","","img/blue_2bandit_b2.png","70","","70","test","1","","95","","","","circle","square","91","1","5","0.945054945054945","","","","","","","",""
"null","292295","SARL_v6","SARL_v6qqvka3m1","6151e68ec5f6f5f9039ebace","freq_resp","","","img/blue_2bandit_b.png","70","img/blue_2bandit_b.png","70","test","","","","","","","","","","","5","","","","","","","","",""
"null","292447","SARL_v6","SARL_v6qqvka3m1","6151e68ec5f6f5f9039ebace","fixation","","","img/fixation.png","null","","","test","","","","","","","","","","","","","","","","","","","",""
"144","292592","SARL_v6","SARL_v6qqvka3m1","6151e68ec5f6f5f9039ebace","freq","","","img/blue_2bandit_b2.png","70","","70","test","1","","96","","","","circle","square","92","2","5","0.9456521739130435","","","","","","","",""
"null","293261","SARL_v6","SARL_v6qqvka3m1","6151e68ec5f6f5f9039ebace","freq_resp","","","img/blue_2bandit_b.png","70","img/blue_2bandit_b.png","70","test","","","","","","","","","","","5","","","","","","","","",""
"null","293416","SARL_v6","SARL_v6qqvka3m1","6151e68ec5f6f5f9039ebace","fixation","","","img/fixation.png","null","","","test","","","","","","","","","","","","","","","","","","","",""
"287","293704","SARL_v6","SARL_v6qqvka3m1","6151e68ec5f6f5f9039ebace","freq","","","img/blue_2bandit_b2.png","70","","70","test","1","","97","","","","circle","square","93","3","5","0.946236559139785","","","","","","","",""
"null","294230","SARL_v6","SARL_v6qqvka3m1","6151e68ec5f6f5f9039ebace","freq_resp","","","img/blue_2bandit_b.png","70","img/blue_2bandit_b.png","70","test","","","","","","","","","","","5","","","","","","","","",""
"null","294382","SARL_v6","SARL_v6qqvka3m1","6151e68ec5f6f5f9039ebace","fixation","","","img/fixation.png","null","","","test","","","","","","","","","","","","","","","","","","","",""
"289","294672","SARL_v6","SARL_v6qqvka3m1","6151e68ec5f6f5f9039ebace","freq","","","img/blue_2bandit_b2.png","70","","70","test","1","","98","","","","circle","square","94","4","5","0.9468085106382979","","","","","","","",""
"null","295194","SARL_v6","SARL_v6qqvka3m1","6151e68ec5f6f5f9039ebace","freq_resp","","","img/blue_2bandit_b.png","70","img/blue_2bandit_b.png","70","test","","","","","","","","","","","5","","","","","","","","",""
"null","295347","SARL_v6","SARL_v6qqvka3m1","6151e68ec5f6f5f9039ebace","fixation","","","img/fixation.png","null","","","test","","","","","","","","","","","","","","","","","","","",""
"340","295687","SARL_v6","SARL_v6qqvka3m1","6151e68ec5f6f5f9039ebace","freq","","","img/blue_2bandit_b2.png","70","","70","test","1","","99","","","","circle","square","95","5","5","0.9473684210526315","","","","","","","",""
"null","296156","SARL_v6","SARL_v6qqvka3m1","6151e68ec5f6f5f9039ebace","freq_resp","","","img/blue_2bandit_b.png","70","img/blue_2bandit_b.png","70","test","","","","","","","","","","","5","","","","","","","","",""
"null","296321","SARL_v6","SARL_v6qqvka3m1","6151e68ec5f6f5f9039ebace","fixation","","","img/fixation.png","null","","","test","","","","","","","","","","","","","","","","","","","",""
"309","296632","SARL_v6","SARL_v6qqvka3m1","6151e68ec5f6f5f9039ebace","freq","","","img/blue_2bandit_b2.png","70","","70","test","1","","100","","","","circle","square","96","6","5","0.9479166666666666","","","","","","","",""
"null","297129","SARL_v6","SARL_v6qqvka3m1","6151e68ec5f6f5f9039ebace","freq_resp","","","img/blue_2bandit_b.png","70","img/blue_2bandit_b.png","70","test","","","","","","","","","","","5","","","","","","","","",""
"null","297281","SARL_v6","SARL_v6qqvka3m1","6151e68ec5f6f5f9039ebace","fixation","","","img/fixation.png","null","","","test","","","","","","","","","","","","","","","","","","","",""
"342","297624","SARL_v6","SARL_v6qqvka3m1","6151e68ec5f6f5f9039ebace","freq","","","img/blue_2bandit_b2.png","70","","70","test","1","","101","","","","circle","square","97","7","5","0.9484536082474226","","","","","","","",""
"null","298090","SARL_v6","SARL_v6qqvka3m1","6151e68ec5f6f5f9039ebace","freq_resp","","","img/blue_2bandit_b.png","70","img/blue_2bandit_b.png","70","test","","","","","","","","","","","5","","","","","","","","",""
"null","298248","SARL_v6","SARL_v6qqvka3m1","6151e68ec5f6f5f9039ebace","fixation","","","img/fixation.png","null","","","test","","","","","","","","","","","","","","","","","","","",""
"359","298608","SARL_v6","SARL_v6qqvka3m1","6151e68ec5f6f5f9039ebace","freq","","","img/blue_2bandit_b2.png","70","","70","test","1","","102","","","","circle","square","98","8","5","0.9489795918367347","","","","","","","",""
"null","299053","SARL_v6","SARL_v6qqvka3m1","6151e68ec5f6f5f9039ebace","freq_resp","","","img/blue_2bandit_b.png","70","img/blue_2bandit_b.png","70","test","","","","","","","","","","","5","","","","","","","","",""
"null","299209","SARL_v6","SARL_v6qqvka3m1","6151e68ec5f6f5f9039ebace","fixation","","","img/fixation.png","null","","","test","","","","","","","","","","","","","","","","","","","",""
"285","299495","SARL_v6","SARL_v6qqvka3m1","6151e68ec5f6f5f9039ebace","freq","","","img/blue_2bandit_b2.png","70","","70","test","1","","103","","","","circle","square","99","9","5","0.9494949494949495","","","","","","","",""
"null","300024","SARL_v6","SARL_v6qqvka3m1","6151e68ec5f6f5f9039ebace","freq_resp","","","img/blue_2bandit_b.png","70","img/blue_2bandit_b.png","70","test","","","","","","","","","","","5","","","","","","","","",""
"null","300183","SARL_v6","SARL_v6qqvka3m1","6151e68ec5f6f5f9039ebace","fixation","","","img/fixation.png","null","","","test","","","","","","","","","","","","","","","","","","","",""
"312","300496","SARL_v6","SARL_v6qqvka3m1","6151e68ec5f6f5f9039ebace","freq","","","img/blue_2bandit_b2.png","70","","70","test","1","","104","","","","circle","square","100","10","5","0.95","","","","","","","",""
"null","300997","SARL_v6","SARL_v6qqvka3m1","6151e68ec5f6f5f9039ebace","freq_resp","","","img/blue_2bandit_b.png","70","img/blue_2bandit_b.png","70","test","","","","","","","","","","","5","","","","","","","","",""
"null","301148","SARL_v6","SARL_v6qqvka3m1","6151e68ec5f6f5f9039ebace","fixation","","","img/fixation.png","null","","","test","","","","","","","","","","","","","","","","","","","",""
"339","301488","SARL_v6","SARL_v6qqvka3m1","6151e68ec5f6f5f9039ebace","freq","","","img/blue_2bandit_b2.png","70","","70","test","1","","105","","","","circle","square","101","11","5","0.9504950495049505","","","","","","","",""
"null","301953","SARL_v6","SARL_v6qqvka3m1","6151e68ec5f6f5f9039ebace","freq_resp","","","img/blue_2bandit_b.png","70","img/blue_2bandit_b.png","70","test","","","","","","","","","","","5","","","","","","","","",""
"null","302109","SARL_v6","SARL_v6qqvka3m1","6151e68ec5f6f5f9039ebace","fixation","","","img/fixation.png","null","","","test","","","","","","","","","","","","","","","","","","","",""
"345","302455","SARL_v6","SARL_v6qqvka3m1","6151e68ec5f6f5f9039ebace","freq","","","img/blue_2bandit_b2.png","70","","70","test","1","","106","","","","circle","square","102","12","5","0.9509803921568627","","","","","","","",""
"null","302920","SARL_v6","SARL_v6qqvka3m1","6151e68ec5f6f5f9039ebace","freq_resp","","","img/blue_2bandit_b.png","70","img/blue_2bandit_b.png","70","test","","","","","","","","","","","5","","","","","","","","",""
"null","303075","SARL_v6","SARL_v6qqvka3m1","6151e68ec5f6f5f9039ebace","fixation","","","img/fixation.png","null","","","test","","","","","","","","","","","","","","","","","","","",""
"410","303488","SARL_v6","SARL_v6qqvka3m1","6151e68ec5f6f5f9039ebace","freq","","","img/blue_2bandit_b2.png","70","","70","test","1","","107","","","","circle","square","103","13","5","0.9514563106796117","","","","","","","",""
"null","303883","SARL_v6","SARL_v6qqvka3m1","6151e68ec5f6f5f9039ebace","freq_resp","","","img/blue_2bandit_b.png","70","img/blue_2bandit_b.png","70","test","","","","","","","","","","","5","","","","","","","","",""
"null","304038","SARL_v6","SARL_v6qqvka3m1","6151e68ec5f6f5f9039ebace","fixation","","","img/fixation.png","null","","","test","","","","","","","","","","","","","","","","","","","",""
"424","304464","SARL_v6","SARL_v6qqvka3m1","6151e68ec5f6f5f9039ebace","freq","","","img/blue_2bandit_b2.png","70","","70","test","1","","108","","","","circle","square","104","14","5","0.9519230769230769","","","","","","","",""
"null","304843","SARL_v6","SARL_v6qqvka3m1","6151e68ec5f6f5f9039ebace","freq_resp","","","img/blue_2bandit_b.png","70","img/blue_2bandit_b.png","70","test","","","","","","","","","","","5","","","","","","","","",""
"null","304995","SARL_v6","SARL_v6qqvka3m1","6151e68ec5f6f5f9039ebace","fixation","","","img/fixation.png","null","","","test","","","","","","","","","","","","","","","","","","","",""
"332","305327","SARL_v6","SARL_v6qqvka3m1","6151e68ec5f6f5f9039ebace","freq","","","img/blue_2bandit_b2.png","70","","70","test","1","","109","","","","circle","square","105","15","5","0.9523809523809523","","","","","","","",""
"null","305804","SARL_v6","SARL_v6qqvka3m1","6151e68ec5f6f5f9039ebace","freq_resp","","","img/blue_2bandit_b.png","70","img/blue_2bandit_b.png","70","test","","","","","","","","","","","5","","","","","","","","",""
"null","305961","SARL_v6","SARL_v6qqvka3m1","6151e68ec5f6f5f9039ebace","fixation","","","img/fixation.png","null","","","test","","","","","","","","","","","","","","","","","","","",""
"382","306344","SARL_v6","SARL_v6qqvka3m1","6151e68ec5f6f5f9039ebace","freq","","","img/blue_2bandit_b2.png","70","","70","test","1","","110","","","","circle","square","106","16","5","0.9528301886792453","","","","","","","",""
"null","306764","SARL_v6","SARL_v6qqvka3m1","6151e68ec5f6f5f9039ebace","freq_resp","","","img/blue_2bandit_b.png","70","img/blue_2bandit_b.png","70","test","","","","","","","","","","","5","","","","","","","","",""
"null","306919","SARL_v6","SARL_v6qqvka3m1","6151e68ec5f6f5f9039ebace","fixation","","","img/fixation.png","null","","","test","","","","","","","","","","","","","","","","","","","",""
"440","307360","SARL_v6","SARL_v6qqvka3m1","6151e68ec5f6f5f9039ebace","freq","","","img/blue_2bandit_b2.png","70","","70","test","1","","111","","","","circle","square","107","17","5","0.9532710280373832","","","","","","","",""
"null","307724","SARL_v6","SARL_v6qqvka3m1","6151e68ec5f6f5f9039ebace","freq_resp","","","img/blue_2bandit_b.png","70","img/blue_2bandit_b.png","70","test","","","","","","","","","","","5","","","","","","","","",""
"null","307881","SARL_v6","SARL_v6qqvka3m1","6151e68ec5f6f5f9039ebace","fixation","","","img/fixation.png","null","","","test","","","","","","","","","","","","","","","","","","","",""
"398","308280","SARL_v6","SARL_v6qqvka3m1","6151e68ec5f6f5f9039ebace","freq","","","img/blue_2bandit_b2.png","70","","70","test","1","","112","","","","circle","square","108","18","5","0.9537037037037037","","","","","","","",""
"null","308687","SARL_v6","SARL_v6qqvka3m1","6151e68ec5f6f5f9039ebace","freq_resp","","","img/blue_2bandit_b.png","70","img/blue_2bandit_b.png","70","test","","","","","","","","","","","5","","","","","","","","",""
"null","308845","SARL_v6","SARL_v6qqvka3m1","6151e68ec5f6f5f9039ebace","fixation","","","img/fixation.png","null","","","test","","","","","","","","","","","","","","","","","","","",""
"442","309288","SARL_v6","SARL_v6qqvka3m1","6151e68ec5f6f5f9039ebace","freq","","","img/blue_2bandit_b2.png","70","","70","test","1","","113","","","","circle","square","109","19","5","0.9541284403669725","","","","","","","",""
"null","309653","SARL_v6","SARL_v6qqvka3m1","6151e68ec5f6f5f9039ebace","freq_resp","","","img/blue_2bandit_b.png","70","img/blue_2bandit_b.png","70","test","","","","","","","","","","","5","","","","","","","","",""
"null","309810","SARL_v6","SARL_v6qqvka3m1","6151e68ec5f6f5f9039ebace","fixation","","","img/fixation.png","null","","","test","","","","","","","","","","","","","","","","","","","",""
"526","310336","SARL_v6","SARL_v6qqvka3m1","6151e68ec5f6f5f9039ebace","freq","","","img/blue_2bandit_b2.png","70","","70","test","1","","114","","","","circle","square","110","20","5","0.9545454545454546","","","","","","","",""
"null","310626","SARL_v6","SARL_v6qqvka3m1","6151e68ec5f6f5f9039ebace","freq_resp","","","img/blue_2bandit_b.png","70","img/blue_2bandit_b.png","70","test","","","","","","","","","","","5","","","","","","","","",""
"null","310780","SARL_v6","SARL_v6qqvka3m1","6151e68ec5f6f5f9039ebace","fixation","","","img/fixation.png","null","","","test","","","","","","","","","","","","","","","","","","","",""
"595","311376","SARL_v6","SARL_v6qqvka3m1","6151e68ec5f6f5f9039ebace","infreq","","","img/orange_2bandit_b2.png","68","","68","test","1","","115","","","","circle","square","111","21","5","0.954954954954955","","","","","","","",""
"null","311598","SARL_v6","SARL_v6qqvka3m1","6151e68ec5f6f5f9039ebace","infreq_resp","","","img/orange_2bandit_b.png","68","img/orange_2bandit_b.png","68","test","","","","","","","","","","","5","","","","","","","","",""
"null","311754","SARL_v6","SARL_v6qqvka3m1","6151e68ec5f6f5f9039ebace","fixation","","","img/fixation.png","null","","","test","","","","","","","","","","","","","","","","","","","",""
"428","312183","SARL_v6","SARL_v6qqvka3m1","6151e68ec5f6f5f9039ebace","infreq","","","img/orange_2bandit_b2.png","68","","68","test","1","","116","","","","circle","square","112","22","5","0.9553571428571429","","","","","","","",""
"null","312561","SARL_v6","SARL_v6qqvka3m1","6151e68ec5f6f5f9039ebace","infreq_resp","","","img/orange_2bandit_b.png","68","img/orange_2bandit_b.png","68","test","","","","","","","","","","","5","","","","","","","","",""
"null","312726","SARL_v6","SARL_v6qqvka3m1","6151e68ec5f6f5f9039ebace","fixation","","","img/fixation.png","null","","","test","","","","","","","","","","","","","","","","","","","",""
"408","313136","SARL_v6","SARL_v6qqvka3m1","6151e68ec5f6f5f9039ebace","freq","","","img/blue_2bandit_b2.png","70","","70","test","1","","117","","","","circle","square","113","23","5","0.9557522123893806","","","","","","","",""
"null","313534","SARL_v6","SARL_v6qqvka3m1","6151e68ec5f6f5f9039ebace","freq_resp","","","img/blue_2bandit_b.png","70","img/blue_2bandit_b.png","70","test","","","","","","","","","","","5","","","","","","","","",""
"null","313696","SARL_v6","SARL_v6qqvka3m1","6151e68ec5f6f5f9039ebace","fixation","","","img/fixation.png","null","","","test","","","","","","","","","","","","","","","","","","","",""
"301","314000","SARL_v6","SARL_v6qqvka3m1","6151e68ec5f6f5f9039ebace","freq","","","img/blue_2bandit_b2.png","70","","70","test","1","","118","","","","circle","square","114","24","5","0.956140350877193","","","","","","","",""
"null","314511","SARL_v6","SARL_v6qqvka3m1","6151e68ec5f6f5f9039ebace","freq_resp","","","img/blue_2bandit_b.png","70","img/blue_2bandit_b.png","70","test","","","","","","","","","","","5","","","","","","","","",""
"null","314663","SARL_v6","SARL_v6qqvka3m1","6151e68ec5f6f5f9039ebace","fixation","","","img/fixation.png","null","","","test","","","","","","","","","","","","","","","","","","","",""
"575","315240","SARL_v6","SARL_v6qqvka3m1","6151e68ec5f6f5f9039ebace","rl","","","img/black_2bandit_b2.png","74","","0","test","","","119","","","-7","circle","square","","0","5","","74","-7","4","-7","4","circle","5","0"
"null","315993","SARL_v6","SARL_v6qqvka3m1","6151e68ec5f6f5f9039ebace","feedback","","","<div class=""verylowPoints""> -7 </div>","null","","na","test","","","NaN","","","","","","","","5","","74","","","","","","5",""
"null","316801","SARL_v6","SARL_v6qqvka3m1","6151e68ec5f6f5f9039ebace","freq","","","img/blue_2bandit_b2.png","null","","70","test","0","","120","","","","circle","square","115","1","6","0.9478260869565217","","","","","","","",""
"null","316956","SARL_v6","SARL_v6qqvka3m1","6151e68ec5f6f5f9039ebace","fixation","","","img/fixation.png","null","","","test","","","","","","","","","","","","","","","","","","","",""
"602","317560","SARL_v6","SARL_v6qqvka3m1","6151e68ec5f6f5f9039ebace","freq","","","img/blue_2bandit_b2.png","70","","70","test","1","","121","","","","circle","square","116","2","6","0.9482758620689655","","","","","","","",""
"null","317764","SARL_v6","SARL_v6qqvka3m1","6151e68ec5f6f5f9039ebace","freq_resp","","","img/blue_2bandit_b.png","70","img/blue_2bandit_b.png","70","test","","","","","","","","","","","6","","","","","","","","",""
"null","317921","SARL_v6","SARL_v6qqvka3m1","6151e68ec5f6f5f9039ebace","fixation","","","img/fixation.png","null","","","test","","","","","","","","","","","","","","","","","","","",""
"294","318216","SARL_v6","SARL_v6qqvka3m1","6151e68ec5f6f5f9039ebace","freq","","","img/blue_2bandit_b2.png","70","","70","test","1","","122","","","","circle","square","117","3","6","0.9487179487179487","","","","","","","",""
"null","318729","SARL_v6","SARL_v6qqvka3m1","6151e68ec5f6f5f9039ebace","freq_resp","","","img/blue_2bandit_b.png","70","img/blue_2bandit_b.png","70","test","","","","","","","","","","","6","","","","","","","","",""
"null","318880","SARL_v6","SARL_v6qqvka3m1","6151e68ec5f6f5f9039ebace","fixation","","","img/fixation.png","null","","","test","","","","","","","","","","","","","","","","","","","",""
"231","319112","SARL_v6","SARL_v6qqvka3m1","6151e68ec5f6f5f9039ebace","infreq","","","img/orange_2bandit_b2.png","70","","68","test","0","","123","","","","circle","square","118","4","6","0.940677966101695","","","","","","","",""
"null","319689","SARL_v6","SARL_v6qqvka3m1","6151e68ec5f6f5f9039ebace","infreq_resp","","","img/orange_2bandit_b.png","70","img/orange_2bandit_b.png","68","test","","","","","","","","","","","6","","","","","","","","",""
"null","319848","SARL_v6","SARL_v6qqvka3m1","6151e68ec5f6f5f9039ebace","fixation","","","img/fixation.png","null","","","test","","","","","","","","","","","","","","","","","","","",""
"535","320384","SARL_v6","SARL_v6qqvka3m1","6151e68ec5f6f5f9039ebace","freq","","","img/blue_2bandit_b2.png","70","","70","test","1","","124","","","","circle","square","119","5","6","0.9411764705882353","","","","","","","",""
"null","320665","SARL_v6","SARL_v6qqvka3m1","6151e68ec5f6f5f9039ebace","freq_resp","","","img/blue_2bandit_b.png","70","img/blue_2bandit_b.png","70","test","","","","","","","","","","","6","","","","","","","","",""
"null","320817","SARL_v6","SARL_v6qqvka3m1","6151e68ec5f6f5f9039ebace","fixation","","","img/fixation.png","null","","","test","","","","","","","","","","","","","","","","","","","",""
"382","321200","SARL_v6","SARL_v6qqvka3m1","6151e68ec5f6f5f9039ebace","freq","","","img/blue_2bandit_b2.png","70","","70","test","1","","125","","","","circle","square","120","6","6","0.9416666666666667","","","","","","","",""
"null","321621","SARL_v6","SARL_v6qqvka3m1","6151e68ec5f6f5f9039ebace","freq_resp","","","img/blue_2bandit_b.png","70","img/blue_2bandit_b.png","70","test","","","","","","","","","","","6","","","","","","","","",""
"null","321775","SARL_v6","SARL_v6qqvka3m1","6151e68ec5f6f5f9039ebace","fixation","","","img/fixation.png","null","","","test","","","","","","","","","","","","","","","","","","","",""
"264","322040","SARL_v6","SARL_v6qqvka3m1","6151e68ec5f6f5f9039ebace","freq","","","img/blue_2bandit_b2.png","70","","70","test","1","","126","","","","circle","square","121","7","6","0.9421487603305785","","","","","","","",""
"null","322578","SARL_v6","SARL_v6qqvka3m1","6151e68ec5f6f5f9039ebace","freq_resp","","","img/blue_2bandit_b.png","70","img/blue_2bandit_b.png","70","test","","","","","","","","","","","6","","","","","","","","",""
"null","322730","SARL_v6","SARL_v6qqvka3m1","6151e68ec5f6f5f9039ebace","fixation","","","img/fixation.png","null","","","test","","","","","","","","","","","","","","","","","","","",""
"253","322984","SARL_v6","SARL_v6qqvka3m1","6151e68ec5f6f5f9039ebace","freq","","","img/blue_2bandit_b2.png","70","","70","test","1","","127","","","","circle","square","122","8","6","0.9426229508196722","","","","","","","",""
"null","323537","SARL_v6","SARL_v6qqvka3m1","6151e68ec5f6f5f9039ebace","freq_resp","","","img/blue_2bandit_b.png","70","img/blue_2bandit_b.png","70","test","","","","","","","","","","","6","","","","","","","","",""
"null","323693","SARL_v6","SARL_v6qqvka3m1","6151e68ec5f6f5f9039ebace","fixation","","","img/fixation.png","null","","","test","","","","","","","","","","","","","","","","","","","",""
"314","324008","SARL_v6","SARL_v6qqvka3m1","6151e68ec5f6f5f9039ebace","infreq","","","img/orange_2bandit_b2.png","70","","68","test","0","","128","","","","circle","square","123","9","6","0.9349593495934959","","","","","","","",""
"null","324509","SARL_v6","SARL_v6qqvka3m1","6151e68ec5f6f5f9039ebace","infreq_resp","","","img/orange_2bandit_b.png","70","img/orange_2bandit_b.png","68","test","","","","","","","","","","","6","","","","","","","","",""
"null","324661","SARL_v6","SARL_v6qqvka3m1","6151e68ec5f6f5f9039ebace","fixation","","","img/fixation.png","null","","","test","","","","","","","","","","","","","","","","","","","",""
"378","325040","SARL_v6","SARL_v6qqvka3m1","6151e68ec5f6f5f9039ebace","freq","","","img/blue_2bandit_b2.png","70","","70","test","1","","129","","","","circle","square","124","10","6","0.9354838709677419","","","","","","","",""
"null","325464","SARL_v6","SARL_v6qqvka3m1","6151e68ec5f6f5f9039ebace","freq_resp","","","img/blue_2bandit_b.png","70","img/blue_2bandit_b.png","70","test","","","","","","","","","","","6","","","","","","","","",""
"null","325621","SARL_v6","SARL_v6qqvka3m1","6151e68ec5f6f5f9039ebace","fixation","","","img/fixation.png","null","","","test","","","","","","","","","","","","","","","","","","","",""
"314","325936","SARL_v6","SARL_v6qqvka3m1","6151e68ec5f6f5f9039ebace","freq","","","img/blue_2bandit_b2.png","70","","70","test","1","","130","","","","circle","square","125","11","6","0.936","","","","","","","",""
"null","326436","SARL_v6","SARL_v6qqvka3m1","6151e68ec5f6f5f9039ebace","freq_resp","","","img/blue_2bandit_b.png","70","img/blue_2bandit_b.png","70","test","","","","","","","","","","","6","","","","","","","","",""
"null","326592","SARL_v6","SARL_v6qqvka3m1","6151e68ec5f6f5f9039ebace","fixation","","","img/fixation.png","null","","","test","","","","","","","","","","","","","","","","","","","",""
"302","326896","SARL_v6","SARL_v6qqvka3m1","6151e68ec5f6f5f9039ebace","freq","","","img/blue_2bandit_b2.png","70","","70","test","1","","131","","","","circle","square","126","12","6","0.9365079365079365","","","","","","","",""
"null","327408","SARL_v6","SARL_v6qqvka3m1","6151e68ec5f6f5f9039ebace","freq_resp","","","img/blue_2bandit_b.png","70","img/blue_2bandit_b.png","70","test","","","","","","","","","","","6","","","","","","","","",""
"null","327566","SARL_v6","SARL_v6qqvka3m1","6151e68ec5f6f5f9039ebace","fixation","","","img/fixation.png","null","","","test","","","","","","","","","","","","","","","","","","","",""
"360","327928","SARL_v6","SARL_v6qqvka3m1","6151e68ec5f6f5f9039ebace","freq","","","img/blue_2bandit_b2.png","70","","70","test","1","","132","","","","circle","square","127","13","6","0.937007874015748","","","","","","","",""
"null","328390","SARL_v6","SARL_v6qqvka3m1","6151e68ec5f6f5f9039ebace","freq_resp","","","img/blue_2bandit_b.png","70","img/blue_2bandit_b.png","70","test","","","","","","","","","","","6","","","","","","","","",""
"null","328543","SARL_v6","SARL_v6qqvka3m1","6151e68ec5f6f5f9039ebace","fixation","","","img/fixation.png","null","","","test","","","","","","","","","","","","","","","","","","","",""
"336","328880","SARL_v6","SARL_v6qqvka3m1","6151e68ec5f6f5f9039ebace","freq","","","img/blue_2bandit_b2.png","70","","70","test","1","","133","","","","circle","square","128","14","6","0.9375","","","","","","","",""
"null","329355","SARL_v6","SARL_v6qqvka3m1","6151e68ec5f6f5f9039ebace","freq_resp","","","img/blue_2bandit_b.png","70","img/blue_2bandit_b.png","70","test","","","","","","","","","","","6","","","","","","","","",""
"null","329506","SARL_v6","SARL_v6qqvka3m1","6151e68ec5f6f5f9039ebace","fixation","","","img/fixation.png","null","","","test","","","","","","","","","","","","","","","","","","","",""
