"rt","time_elapsed","expId","subject","prolificID","trialType","rlType","attType","stimulus","key_press","stim","corrresp","phase","corr","pracCounter","trialNum","rewardOne","rewardTwo","reward","bandOne","bandTwo","attentionNum","attentionRunNum","blockNum","performance","bandChosen","circleVal","squareVal","bandOneVal","bandTwoVal","shapeChosen","rlNum","badFlag"
"6422","6438","SARL_v6","SARL_v6zsz7xp8q","60079f45348bb62bdcd363ff","","","","","","","","","","","","","","","","","","","","","","","","","","","",""
"","9685","SARL_v6","SARL_v6zsz7xp8q","60079f45348bb62bdcd363ff","fullscreen","fullscreen","fullscreen","","","","","","","","","","","","","","","","","","","","","","","","",""
"214900","224591","SARL_v6","SARL_v6zsz7xp8q","60079f45348bb62bdcd363ff","","","","","","","","","","","","","","","","","","","","","","","","","","","",""
"null","225415","SARL_v6","SARL_v6zsz7xp8q","60079f45348bb62bdcd363ff","freqPrac","","","img/orange_2bandit_b2.png","null","img/orange_2bandit_b2.png","70","prac","0","1","","","","","","","","","","","","","","","","","",""
"null","226423","SARL_v6","SARL_v6zsz7xp8q","60079f45348bb62bdcd363ff","feedback","","","img/tooSlow.png","null","","na","prac","","","","","","","","","","","","","","","","","","","",""
"null","226578","SARL_v6","SARL_v6zsz7xp8q","60079f45348bb62bdcd363ff","fixation","","","img/fixation.png","null","","","prac","","","","","","","","","","","","","","","","","","","",""
"637","227222","SARL_v6","SARL_v6zsz7xp8q","60079f45348bb62bdcd363ff","infreqPrac","","","img/blue_2bandit_b2.png","68","img/blue_2bandit_b2.png","68","prac","1","1","","","","","","","","","","","","","","","","","",""
"637","227406","SARL_v6","SARL_v6zsz7xp8q","60079f45348bb62bdcd363ff","infreqPrac_resp","","","img/blue_2bandit_b.png","68","img/blue_2bandit_b.png","68","prac","","","","","","","","","","","","","","","","","","","",""
"null","227561","SARL_v6","SARL_v6zsz7xp8q","60079f45348bb62bdcd363ff","fixation","","","img/fixation.png","null","","","prac","","","","","","","","","","","","","","","","","","","",""
"762","228326","SARL_v6","SARL_v6zsz7xp8q","60079f45348bb62bdcd363ff","freqPrac","","","img/orange_2bandit_b2.png","70","img/orange_2bandit_b2.png","70","prac","1","1","","","","","","","","","","","","","","","","","",""
"762","228378","SARL_v6","SARL_v6zsz7xp8q","60079f45348bb62bdcd363ff","freqPrac_resp","","","img/orange_2bandit_b.png","70","img/orange_2bandit_b.png","70","prac","","","","","","","","","","","","","","","","","","","",""
"null","228538","SARL_v6","SARL_v6zsz7xp8q","60079f45348bb62bdcd363ff","fixation","","","img/fixation.png","null","","","prac","","","","","","","","","","","","","","","","","","","",""
"683","229226","SARL_v6","SARL_v6zsz7xp8q","60079f45348bb62bdcd363ff","infreqPrac","","","img/blue_2bandit_b2.png","68","img/blue_2bandit_b2.png","68","prac","1","1","","","","","","","","","","","","","","","","","",""
"683","229362","SARL_v6","SARL_v6zsz7xp8q","60079f45348bb62bdcd363ff","infreqPrac_resp","","","img/blue_2bandit_b.png","68","img/blue_2bandit_b.png","68","prac","","","","","","","","","","","","","","","","","","","",""
"null","229532","SARL_v6","SARL_v6zsz7xp8q","60079f45348bb62bdcd363ff","fixation","","","img/fixation.png","null","","","prac","","","","","","","","","","","","","","","","","","","",""
"587","230123","SARL_v6","SARL_v6zsz7xp8q","60079f45348bb62bdcd363ff","infreqPrac","","","img/blue_2bandit_b2.png","70","img/blue_2bandit_b2.png","68","prac","0","2","","","","","","","","","","","","","","","","","",""
"587","230340","SARL_v6","SARL_v6zsz7xp8q","60079f45348bb62bdcd363ff","infreqPrac_resp","","","img/blue_2bandit_b.png","70","img/blue_2bandit_b.png","68","prac","","","","","","","","","","","","","","","","","","","",""
"null","231355","SARL_v6","SARL_v6zsz7xp8q","60079f45348bb62bdcd363ff","feedback","","","img/wrongKey.png","null","","na","prac","","","","","","","","","","","","","","","","","","","",""
"null","231510","SARL_v6","SARL_v6zsz7xp8q","60079f45348bb62bdcd363ff","fixation","","","img/fixation.png","null","","","prac","","","","","","","","","","","","","","","","","","","",""
"791","232304","SARL_v6","SARL_v6zsz7xp8q","60079f45348bb62bdcd363ff","infreqPrac","","","img/blue_2bandit_b2.png","68","img/blue_2bandit_b2.png","68","prac","1","2","","","","","","","","","","","","","","","","","",""
"791","232315","SARL_v6","SARL_v6zsz7xp8q","60079f45348bb62bdcd363ff","infreqPrac_resp","","","img/blue_2bandit_b.png","68","img/blue_2bandit_b.png","68","prac","","","","","","","","","","","","","","","","","","","",""
"null","232475","SARL_v6","SARL_v6zsz7xp8q","60079f45348bb62bdcd363ff","fixation","","","img/fixation.png","null","","","prac","","","","","","","","","","","","","","","","","","","",""
"683","233162","SARL_v6","SARL_v6zsz7xp8q","60079f45348bb62bdcd363ff","freqPrac","","","img/orange_2bandit_b2.png","70","img/orange_2bandit_b2.png","70","prac","1","2","","","","","","","","","","","","","","","","","",""
"683","233288","SARL_v6","SARL_v6zsz7xp8q","60079f45348bb62bdcd363ff","freqPrac_resp","","","img/orange_2bandit_b.png","70","img/orange_2bandit_b.png","70","prac","","","","","","","","","","","","","","","","","","","",""
"null","233441","SARL_v6","SARL_v6zsz7xp8q","60079f45348bb62bdcd363ff","fixation","","","img/fixation.png","null","","","prac","","","","","","","","","","","","","","","","","","","",""
"580","234026","SARL_v6","SARL_v6zsz7xp8q","60079f45348bb62bdcd363ff","infreqPrac","","","img/blue_2bandit_b2.png","68","img/blue_2bandit_b2.png","68","prac","1","2","","","","","","","","","","","","","","","","","",""
"580","234254","SARL_v6","SARL_v6zsz7xp8q","60079f45348bb62bdcd363ff","infreqPrac_resp","","","img/blue_2bandit_b.png","68","img/blue_2bandit_b.png","68","prac","","","","","","","","","","","","","","","","","","","",""
"null","234423","SARL_v6","SARL_v6zsz7xp8q","60079f45348bb62bdcd363ff","fixation","","","img/fixation.png","null","","","prac","","","","","","","","","","","","","","","","","","","",""
"633","235060","SARL_v6","SARL_v6zsz7xp8q","60079f45348bb62bdcd363ff","freqPrac","","","img/orange_2bandit_b2.png","70","img/orange_2bandit_b2.png","70","prac","1","2","","","","","","","","","","","","","","","","","",""
"633","235247","SARL_v6","SARL_v6zsz7xp8q","60079f45348bb62bdcd363ff","freqPrac_resp","","","img/orange_2bandit_b.png","70","img/orange_2bandit_b.png","70","prac","","","","","","","","","","","","","","","","","","","",""
"null","235402","SARL_v6","SARL_v6zsz7xp8q","60079f45348bb62bdcd363ff","fixation","","","img/fixation.png","null","","","prac","","","","","","","","","","","","","","","","","","","",""
"460","235865","SARL_v6","SARL_v6zsz7xp8q","60079f45348bb62bdcd363ff","freqPrac","","","img/orange_2bandit_b2.png","68","img/orange_2bandit_b2.png","70","prac","0","3","","","","","","","","","","","","","","","","","",""
"460","236225","SARL_v6","SARL_v6zsz7xp8q","60079f45348bb62bdcd363ff","freqPrac_resp","","","img/orange_2bandit_b.png","68","img/orange_2bandit_b.png","70","prac","","","","","","","","","","","","","","","","","","","",""
"null","237243","SARL_v6","SARL_v6zsz7xp8q","60079f45348bb62bdcd363ff","feedback","","","img/wrongKey.png","null","","na","prac","","","","","","","","","","","","","","","","","","","",""
"null","237410","SARL_v6","SARL_v6zsz7xp8q","60079f45348bb62bdcd363ff","fixation","","","img/fixation.png","null","","","prac","","","","","","","","","","","","","","","","","","","",""
"54669","292082","SARL_v6","SARL_v6zsz7xp8q","60079f45348bb62bdcd363ff","","","","","","","","prac","","","","","","","","","","","","","","","","","","","",""
"null","293603","SARL_v6","SARL_v6zsz7xp8q","60079f45348bb62bdcd363ff","rlPractice","","","img/black_2bandit_b2.png","null","img/black_2bandit_b2.png","","prac","","","0","","","","","","","","","","","","","","","","",""
"null","294365","SARL_v6","SARL_v6zsz7xp8q","60079f45348bb62bdcd363ff","feedback","","","<div font size = 80> TOO SLOW  </div>","null","","na","prac","","","1","10","-14","10","","","","","","","","","","","","","",""
"null","294519","SARL_v6","SARL_v6zsz7xp8q","60079f45348bb62bdcd363ff","fixation","","","img/fixation.png","null","","","prac","","","","","","","","","","","","","","","","","","","",""
"726","295248","SARL_v6","SARL_v6zsz7xp8q","60079f45348bb62bdcd363ff","rlPractice","","","img/black_2bandit_b2.png","74","img/black_2bandit_b2.png","","prac","","","1","","","","","","","","","","","","","","","","",""
"null","296015","SARL_v6","SARL_v6zsz7xp8q","60079f45348bb62bdcd363ff","feedback","","","<div class=""veryhighPoints""> 5 </div>","null","","na","prac","","","2","5","-5","5","","","","","","","","","","","","","",""
"null","296184","SARL_v6","SARL_v6zsz7xp8q","60079f45348bb62bdcd363ff","fixation","","","img/fixation.png","null","","","prac","","","","","","","","","","","","","","","","","","","",""
"620","296807","SARL_v6","SARL_v6zsz7xp8q","60079f45348bb62bdcd363ff","rlPractice","","","img/black_2bandit_b2.png","74","img/black_2bandit_b2.png","","prac","","","2","","","","","","","","","","","","","","","","",""
"null","297574","SARL_v6","SARL_v6zsz7xp8q","60079f45348bb62bdcd363ff","feedback","","","<div class=""veryhighPoints""> 30 </div>","null","","na","prac","","","3","30","2","30","","","","","","","","","","","","","",""
"null","297730","SARL_v6","SARL_v6zsz7xp8q","60079f45348bb62bdcd363ff","fixation","","","img/fixation.png","null","","","prac","","","","","","","","","","","","","","","","","","","",""
"574","298309","SARL_v6","SARL_v6zsz7xp8q","60079f45348bb62bdcd363ff","rlPractice","","","img/black_2bandit_b2.png","74","img/black_2bandit_b2.png","","prac","","","3","","","","","","","","","","","","","","","","",""
"null","299072","SARL_v6","SARL_v6zsz7xp8q","60079f45348bb62bdcd363ff","feedback","","","<div class=""verylowPoints""> -2 </div>","null","","na","prac","","","4","-2","20","-2","","","","","","","","","","","","","",""
"null","299227","SARL_v6","SARL_v6zsz7xp8q","60079f45348bb62bdcd363ff","fixation","","","img/fixation.png","null","","","prac","","","","","","","","","","","","","","","","","","","",""
"35784","335015","SARL_v6","SARL_v6zsz7xp8q","60079f45348bb62bdcd363ff","","","","","","","","prac","","","","","","","","","","","","","","","","","","","",""
"null","335832","SARL_v6","SARL_v6zsz7xp8q","60079f45348bb62bdcd363ff","mixAttFreqPrac","","","img/orange_2bandit_b2.png","null","img/orange_2bandit_b2.png","70","prac","","","1","","","","","","","","","","","","","","","","",""
"null","335988","SARL_v6","SARL_v6zsz7xp8q","60079f45348bb62bdcd363ff","fixation","","","img/fixation.png","null","","","prac","","","","","","","","","","","","","","","","","","","",""
"null","336798","SARL_v6","SARL_v6zsz7xp8q","60079f45348bb62bdcd363ff","mixAttInfreqPrac","","","img/blue_2bandit_b2.png","null","img/blue_2bandit_b2.png","68","prac","","","2","","","","","","","","","","","","","","","","",""
"null","336954","SARL_v6","SARL_v6zsz7xp8q","60079f45348bb62bdcd363ff","fixation","","","img/fixation.png","null","","","prac","","","","","","","","","","","","","","","","","","","",""
"null","337760","SARL_v6","SARL_v6zsz7xp8q","60079f45348bb62bdcd363ff","mixAttInfreqPrac","","","img/blue_2bandit_b2.png","null","img/blue_2bandit_b2.png","68","prac","","","3","","","","","","","","","","","","","","","","",""
"123","337914","SARL_v6","SARL_v6zsz7xp8q","60079f45348bb62bdcd363ff","fixation","","","img/fixation.png","68","","","prac","","","","","","","","","","","","","","","","","","","",""
"752","338669","SARL_v6","SARL_v6zsz7xp8q","60079f45348bb62bdcd363ff","mixAttInfreqPrac","","","img/blue_2bandit_b2.png","68","img/blue_2bandit_b2.png","68","prac","","","4","","","","","","","","","","","","","","","","",""
"752","338721","SARL_v6","SARL_v6zsz7xp8q","60079f45348bb62bdcd363ff","infreqPrac_resp","","","img/blue_2bandit_b.png","68","img/orange_2bandit_b.png","68","prac","","","4","","","","","","","","","","","","","","","","",""
"null","338880","SARL_v6","SARL_v6zsz7xp8q","60079f45348bb62bdcd363ff","fixation","","","img/fixation.png","null","","","prac","","","","","","","","","","","","","","","","","","","",""
"759","339642","SARL_v6","SARL_v6zsz7xp8q","60079f45348bb62bdcd363ff","mixAttFreqPrac","","","img/orange_2bandit_b2.png","70","img/orange_2bandit_b2.png","70","prac","","","5","","","","","","","","","","","","","","","","",""
"759","339687","SARL_v6","SARL_v6zsz7xp8q","60079f45348bb62bdcd363ff","freqPrac_resp","","","img/orange_2bandit_b.png","70","img/orange_2bandit_b.png","70","prac","","","5","","","","","","","","","","","","","","","","",""
"null","339843","SARL_v6","SARL_v6zsz7xp8q","60079f45348bb62bdcd363ff","fixation","","","img/fixation.png","null","","","prac","","","","","","","","","","","","","","","","","","","",""
"1096","340942","SARL_v6","SARL_v6zsz7xp8q","60079f45348bb62bdcd363ff","mixRLPractice","","","img/black_2bandit_b2.png","74","img/black_2bandit_b2.png","","prac","","","5","","","","","","","","","","","","","","","","",""
"null","341698","SARL_v6","SARL_v6zsz7xp8q","60079f45348bb62bdcd363ff","feedback","","","<div class=""verylowPoints""> -14 </div>","null","","na","prac","","","6","-14","10","-14","","","","","","","","","","","","","",""
"null","341854","SARL_v6","SARL_v6zsz7xp8q","60079f45348bb62bdcd363ff","fixation","","","img/fixation.png","null","","","prac","","","","","","","","","","","","","","","","","","","",""
"null","342664","SARL_v6","SARL_v6zsz7xp8q","60079f45348bb62bdcd363ff","mixAttFreqPrac","","","img/orange_2bandit_b2.png","null","img/orange_2bandit_b2.png","70","prac","","","7","","","","","","","","","","","","","","","","",""
"null","342819","SARL_v6","SARL_v6zsz7xp8q","60079f45348bb62bdcd363ff","fixation","","","img/fixation.png","null","","","prac","","","","","","","","","","","","","","","","","","","",""
"353","343178","SARL_v6","SARL_v6zsz7xp8q","60079f45348bb62bdcd363ff","mixAttInfreqPrac","","","img/blue_2bandit_b2.png","70","img/blue_2bandit_b2.png","68","prac","","","8","","","","","","","","","","","","","","","","",""
"353","343642","SARL_v6","SARL_v6zsz7xp8q","60079f45348bb62bdcd363ff","infreqPrac_resp","","","img/blue_2bandit_b.png","70","img/orange_2bandit_b.png","68","prac","","","8","","","","","","","","","","","","","","","","",""
"144","343796","SARL_v6","SARL_v6zsz7xp8q","60079f45348bb62bdcd363ff","fixation","","","img/fixation.png","68","","","prac","","","","","","","","","","","","","","","","","","","",""
"651","344450","SARL_v6","SARL_v6zsz7xp8q","60079f45348bb62bdcd363ff","mixAttFreqPrac","","","img/orange_2bandit_b2.png","70","img/orange_2bandit_b2.png","70","prac","","","9","","","","","","","","","","","","","","","","",""
"651","344606","SARL_v6","SARL_v6zsz7xp8q","60079f45348bb62bdcd363ff","freqPrac_resp","","","img/orange_2bandit_b.png","70","img/orange_2bandit_b.png","70","prac","","","9","","","","","","","","","","","","","","","","",""
"null","344760","SARL_v6","SARL_v6zsz7xp8q","60079f45348bb62bdcd363ff","fixation","","","img/fixation.png","null","","","prac","","","","","","","","","","","","","","","","","","","",""
"685","345448","SARL_v6","SARL_v6zsz7xp8q","60079f45348bb62bdcd363ff","mixAttFreqPrac","","","img/orange_2bandit_b2.png","70","img/orange_2bandit_b2.png","70","prac","","","10","","","","","","","","","","","","","","","","",""
"685","345572","SARL_v6","SARL_v6zsz7xp8q","60079f45348bb62bdcd363ff","freqPrac_resp","","","img/orange_2bandit_b.png","70","img/orange_2bandit_b.png","70","prac","","","10","","","","","","","","","","","","","","","","",""
"null","345725","SARL_v6","SARL_v6zsz7xp8q","60079f45348bb62bdcd363ff","fixation","","","img/fixation.png","null","","","prac","","","","","","","","","","","","","","","","","","","",""
"707","346437","SARL_v6","SARL_v6zsz7xp8q","60079f45348bb62bdcd363ff","mixAttInfreqPrac","","","img/blue_2bandit_b2.png","68","img/blue_2bandit_b2.png","68","prac","","","11","","","","","","","","","","","","","","","","",""
"707","346538","SARL_v6","SARL_v6zsz7xp8q","60079f45348bb62bdcd363ff","infreqPrac_resp","","","img/blue_2bandit_b.png","68","img/orange_2bandit_b.png","68","prac","","","11","","","","","","","","","","","","","","","","",""
"null","346692","SARL_v6","SARL_v6zsz7xp8q","60079f45348bb62bdcd363ff","fixation","","","img/fixation.png","null","","","prac","","","","","","","","","","","","","","","","","","","",""
"845","347540","SARL_v6","SARL_v6zsz7xp8q","60079f45348bb62bdcd363ff","mixRLPractice","","","img/black_2bandit_b2.png","75","img/black_2bandit_b2.png","","prac","","","11","","","","","","","","","","","","","","","","",""
"null","348300","SARL_v6","SARL_v6zsz7xp8q","60079f45348bb62bdcd363ff","feedback","","","<div class=""verylowPoints_sq""> -5 </div>","null","","na","prac","","","12","5","-5","5","","","","","","","","","","","","","",""
"null","348456","SARL_v6","SARL_v6zsz7xp8q","60079f45348bb62bdcd363ff","fixation","","","img/fixation.png","null","","","prac","","","","","","","","","","","","","","","","","","","",""
"18283","366742","SARL_v6","SARL_v6zsz7xp8q","60079f45348bb62bdcd363ff","","","","","","","","prac","","","","","","","","","","","","","","","","","","","",""
"null","367550","SARL_v6","SARL_v6zsz7xp8q","60079f45348bb62bdcd363ff","freq","","","img/orange_2bandit_b2.png","null","","70","test","0","","1","","","","circle","square","1","1","1","0","","","","","","","",""
"null","367704","SARL_v6","SARL_v6zsz7xp8q","60079f45348bb62bdcd363ff","fixation","","","img/fixation.png","null","","","test","","","","","","","","","","","","","","","","","","","",""
"164","367872","SARL_v6","SARL_v6zsz7xp8q","60079f45348bb62bdcd363ff","freq","","","img/orange_2bandit_b2.png","70","","70","test","1","","2","","","","circle","square","2","2","1","0.5","","","","","","","",""
"null","368516","SARL_v6","SARL_v6zsz7xp8q","60079f45348bb62bdcd363ff","freq_resp","","","img/orange_2bandit_b.png","70","img/orange_2bandit_b.png","70","test","","","","","","","","","","","1","","","","","","","","",""
"null","368671","SARL_v6","SARL_v6zsz7xp8q","60079f45348bb62bdcd363ff","fixation","","","img/fixation.png","null","","","test","","","","","","","","","","","","","","","","","","","",""
"545","369219","SARL_v6","SARL_v6zsz7xp8q","60079f45348bb62bdcd363ff","freq","","","img/orange_2bandit_b2.png","70","","70","test","1","","3","","","","circle","square","3","3","1","0.6666666666666666","","","","","","","",""
"null","369479","SARL_v6","SARL_v6zsz7xp8q","60079f45348bb62bdcd363ff","freq_resp","","","img/orange_2bandit_b.png","70","img/orange_2bandit_b.png","70","test","","","","","","","","","","","1","","","","","","","","",""
"null","369633","SARL_v6","SARL_v6zsz7xp8q","60079f45348bb62bdcd363ff","fixation","","","img/fixation.png","null","","","test","","","","","","","","","","","","","","","","","","","",""
"615","370253","SARL_v6","SARL_v6zsz7xp8q","60079f45348bb62bdcd363ff","freq","","","img/orange_2bandit_b2.png","70","","70","test","1","","4","","","","circle","square","4","4","1","0.75","","","","","","","",""
"null","370444","SARL_v6","SARL_v6zsz7xp8q","60079f45348bb62bdcd363ff","freq_resp","","","img/orange_2bandit_b.png","70","img/orange_2bandit_b.png","70","test","","","","","","","","","","","1","","","","","","","","",""
"null","370613","SARL_v6","SARL_v6zsz7xp8q","60079f45348bb62bdcd363ff","fixation","","","img/fixation.png","null","","","test","","","","","","","","","","","","","","","","","","","",""
"700","371317","SARL_v6","SARL_v6zsz7xp8q","60079f45348bb62bdcd363ff","freq","","","img/orange_2bandit_b2.png","70","","70","test","1","","5","","","","circle","square","5","5","1","0.8","","","","","","","",""
"null","371436","SARL_v6","SARL_v6zsz7xp8q","60079f45348bb62bdcd363ff","freq_resp","","","img/orange_2bandit_b.png","70","img/orange_2bandit_b.png","70","test","","","","","","","","","","","1","","","","","","","","",""
"null","371592","SARL_v6","SARL_v6zsz7xp8q","60079f45348bb62bdcd363ff","fixation","","","img/fixation.png","null","","","test","","","","","","","","","","","","","","","","","","","",""
"715","372310","SARL_v6","SARL_v6zsz7xp8q","60079f45348bb62bdcd363ff","infreq","","","img/blue_2bandit_b2.png","68","","68","test","1","","6","","","","circle","square","6","6","1","0.8333333333333334","","","","","","","",""
"null","372406","SARL_v6","SARL_v6zsz7xp8q","60079f45348bb62bdcd363ff","infreq_resp","","","img/blue_2bandit_b.png","68","img/blue_2bandit_b.png","68","test","","","","","","","","","","","1","","","","","","","","",""
"null","372560","SARL_v6","SARL_v6zsz7xp8q","60079f45348bb62bdcd363ff","fixation","","","img/fixation.png","null","","","test","","","","","","","","","","","","","","","","","","","",""
"718","373283","SARL_v6","SARL_v6zsz7xp8q","60079f45348bb62bdcd363ff","freq","","","img/orange_2bandit_b2.png","70","","70","test","1","","7","","","","circle","square","7","7","1","0.8571428571428571","","","","","","","",""
"null","373368","SARL_v6","SARL_v6zsz7xp8q","60079f45348bb62bdcd363ff","freq_resp","","","img/orange_2bandit_b.png","70","img/orange_2bandit_b.png","70","test","","","","","","","","","","","1","","","","","","","","",""
"null","373522","SARL_v6","SARL_v6zsz7xp8q","60079f45348bb62bdcd363ff","fixation","","","img/fixation.png","null","","","test","","","","","","","","","","","","","","","","","","","",""
"621","374148","SARL_v6","SARL_v6zsz7xp8q","60079f45348bb62bdcd363ff","freq","","","img/orange_2bandit_b2.png","70","","70","test","1","","8","","","","circle","square","8","8","1","0.875","","","","","","","",""
"null","374345","SARL_v6","SARL_v6zsz7xp8q","60079f45348bb62bdcd363ff","freq_resp","","","img/orange_2bandit_b.png","70","img/orange_2bandit_b.png","70","test","","","","","","","","","","","1","","","","","","","","",""
"null","374499","SARL_v6","SARL_v6zsz7xp8q","60079f45348bb62bdcd363ff","fixation","","","img/fixation.png","null","","","test","","","","","","","","","","","","","","","","","","","",""
"652","375155","SARL_v6","SARL_v6zsz7xp8q","60079f45348bb62bdcd363ff","freq","","","img/orange_2bandit_b2.png","70","","70","test","1","","9","","","","circle","square","9","9","1","0.8888888888888888","","","","","","","",""
"null","375311","SARL_v6","SARL_v6zsz7xp8q","60079f45348bb62bdcd363ff","freq_resp","","","img/orange_2bandit_b.png","70","img/orange_2bandit_b.png","70","test","","","","","","","","","","","1","","","","","","","","",""
"null","375466","SARL_v6","SARL_v6zsz7xp8q","60079f45348bb62bdcd363ff","fixation","","","img/fixation.png","null","","","test","","","","","","","","","","","","","","","","","","","",""
"669","376139","SARL_v6","SARL_v6zsz7xp8q","60079f45348bb62bdcd363ff","freq","","","img/orange_2bandit_b2.png","70","","70","test","1","","10","","","","circle","square","10","10","1","0.9","","","","","","","",""
"null","376276","SARL_v6","SARL_v6zsz7xp8q","60079f45348bb62bdcd363ff","freq_resp","","","img/orange_2bandit_b.png","70","img/orange_2bandit_b.png","70","test","","","","","","","","","","","1","","","","","","","","",""
"null","376431","SARL_v6","SARL_v6zsz7xp8q","60079f45348bb62bdcd363ff","fixation","","","img/fixation.png","null","","","test","","","","","","","","","","","","","","","","","","","",""
"713","377148","SARL_v6","SARL_v6zsz7xp8q","60079f45348bb62bdcd363ff","freq","","","img/orange_2bandit_b2.png","70","","70","test","1","","11","","","","circle","square","11","11","1","0.9090909090909091","","","","","","","",""
"null","377239","SARL_v6","SARL_v6zsz7xp8q","60079f45348bb62bdcd363ff","freq_resp","","","img/orange_2bandit_b.png","70","img/orange_2bandit_b.png","70","test","","","","","","","","","","","1","","","","","","","","",""
"null","377408","SARL_v6","SARL_v6zsz7xp8q","60079f45348bb62bdcd363ff","fixation","","","img/fixation.png","null","","","test","","","","","","","","","","","","","","","","","","","",""
"575","377987","SARL_v6","SARL_v6zsz7xp8q","60079f45348bb62bdcd363ff","freq","","","img/orange_2bandit_b2.png","70","","70","test","1","","12","","","","circle","square","12","12","1","0.9166666666666666","","","","","","","",""
"null","378231","SARL_v6","SARL_v6zsz7xp8q","60079f45348bb62bdcd363ff","freq_resp","","","img/orange_2bandit_b.png","70","img/orange_2bandit_b.png","70","test","","","","","","","","","","","1","","","","","","","","",""
"null","378385","SARL_v6","SARL_v6zsz7xp8q","60079f45348bb62bdcd363ff","fixation","","","img/fixation.png","null","","","test","","","","","","","","","","","","","","","","","","","",""
"519","378907","SARL_v6","SARL_v6zsz7xp8q","60079f45348bb62bdcd363ff","freq","","","img/orange_2bandit_b2.png","70","","70","test","1","","13","","","","circle","square","13","13","1","0.9230769230769231","","","","","","","",""
"null","379197","SARL_v6","SARL_v6zsz7xp8q","60079f45348bb62bdcd363ff","freq_resp","","","img/orange_2bandit_b.png","70","img/orange_2bandit_b.png","70","test","","","","","","","","","","","1","","","","","","","","",""
"null","379352","SARL_v6","SARL_v6zsz7xp8q","60079f45348bb62bdcd363ff","fixation","","","img/fixation.png","null","","","test","","","","","","","","","","","","","","","","","","","",""
"528","379884","SARL_v6","SARL_v6zsz7xp8q","60079f45348bb62bdcd363ff","freq","","","img/orange_2bandit_b2.png","70","","70","test","1","","14","","","","circle","square","14","14","1","0.9285714285714286","","","","","","","",""
"null","380161","SARL_v6","SARL_v6zsz7xp8q","60079f45348bb62bdcd363ff","freq_resp","","","img/orange_2bandit_b.png","70","img/orange_2bandit_b.png","70","test","","","","","","","","","","","1","","","","","","","","",""
"null","380316","SARL_v6","SARL_v6zsz7xp8q","60079f45348bb62bdcd363ff","fixation","","","img/fixation.png","null","","","test","","","","","","","","","","","","","","","","","","","",""
"551","380870","SARL_v6","SARL_v6zsz7xp8q","60079f45348bb62bdcd363ff","freq","","","img/orange_2bandit_b2.png","70","","70","test","1","","15","","","","circle","square","15","15","1","0.9333333333333333","","","","","","","",""
"null","381123","SARL_v6","SARL_v6zsz7xp8q","60079f45348bb62bdcd363ff","freq_resp","","","img/orange_2bandit_b.png","70","img/orange_2bandit_b.png","70","test","","","","","","","","","","","1","","","","","","","","",""
"null","381279","SARL_v6","SARL_v6zsz7xp8q","60079f45348bb62bdcd363ff","fixation","","","img/fixation.png","null","","","test","","","","","","","","","","","","","","","","","","","",""
"null","382090","SARL_v6","SARL_v6zsz7xp8q","60079f45348bb62bdcd363ff","freq","","","img/orange_2bandit_b2.png","null","","70","test","0","","16","","","","circle","square","16","16","1","0.875","","","","","","","",""
"null","382245","SARL_v6","SARL_v6zsz7xp8q","60079f45348bb62bdcd363ff","fixation","","","img/fixation.png","null","","","test","","","","","","","","","","","","","","","","","","","",""
"null","383054","SARL_v6","SARL_v6zsz7xp8q","60079f45348bb62bdcd363ff","freq","","","img/orange_2bandit_b2.png","null","","70","test","0","","17","","","","circle","square","17","17","1","0.8235294117647058","","","","","","","",""
"null","383208","SARL_v6","SARL_v6zsz7xp8q","60079f45348bb62bdcd363ff","fixation","","","img/fixation.png","null","","","test","","","","","","","","","","","","","","","","","","","",""
"33","383249","SARL_v6","SARL_v6zsz7xp8q","60079f45348bb62bdcd363ff","freq","","","img/orange_2bandit_b2.png","70","","70","test","1","","18","","","","circle","square","18","18","1","0.8333333333333334","","","","","","","",""
"null","384033","SARL_v6","SARL_v6zsz7xp8q","60079f45348bb62bdcd363ff","freq_resp","","","img/orange_2bandit_b.png","70","img/orange_2bandit_b.png","70","test","","","","","","","","","","","1","","","","","","","","",""
"null","384187","SARL_v6","SARL_v6zsz7xp8q","60079f45348bb62bdcd363ff","fixation","","","img/fixation.png","null","","","test","","","","","","","","","","","","","","","","","","","",""
"null","384998","SARL_v6","SARL_v6zsz7xp8q","60079f45348bb62bdcd363ff","infreq","","","img/blue_2bandit_b2.png","null","","68","test","0","","19","","","","circle","square","19","19","1","0.7894736842105263","","","","","","","",""
"null","385153","SARL_v6","SARL_v6zsz7xp8q","60079f45348bb62bdcd363ff","fixation","","","img/fixation.png","null","","","test","","","","","","","","","","","","","","","","","","","",""
"null","385963","SARL_v6","SARL_v6zsz7xp8q","60079f45348bb62bdcd363ff","freq","","","img/orange_2bandit_b2.png","null","","70","test","0","","20","","","","circle","square","20","20","1","0.75","","","","","","","",""
"null","386119","SARL_v6","SARL_v6zsz7xp8q","60079f45348bb62bdcd363ff","fixation","","","img/fixation.png","null","","","test","","","","","","","","","","","","","","","","","","","",""
"null","386928","SARL_v6","SARL_v6zsz7xp8q","60079f45348bb62bdcd363ff","freq","","","img/orange_2bandit_b2.png","null","","70","test","0","","21","","","","circle","square","21","21","1","0.7142857142857143","","","","","","","",""
"null","387082","SARL_v6","SARL_v6zsz7xp8q","60079f45348bb62bdcd363ff","fixation","","","img/fixation.png","null","","","test","","","","","","","","","","","","","","","","","","","",""
"740","387826","SARL_v6","SARL_v6zsz7xp8q","60079f45348bb62bdcd363ff","freq","","","img/orange_2bandit_b2.png","70","","70","test","1","","22","","","","circle","square","22","22","1","0.7272727272727273","","","","","","","",""
"null","387891","SARL_v6","SARL_v6zsz7xp8q","60079f45348bb62bdcd363ff","freq_resp","","","img/orange_2bandit_b.png","70","img/orange_2bandit_b.png","70","test","","","","","","","","","","","1","","","","","","","","",""
"null","388047","SARL_v6","SARL_v6zsz7xp8q","60079f45348bb62bdcd363ff","fixation","","","img/fixation.png","null","","","test","","","","","","","","","","","","","","","","","","","",""
"792","388843","SARL_v6","SARL_v6zsz7xp8q","60079f45348bb62bdcd363ff","freq","","","img/orange_2bandit_b2.png","70","","70","test","1","","23","","","","circle","square","23","23","1","0.7391304347826086","","","","","","","",""
"null","388856","SARL_v6","SARL_v6zsz7xp8q","60079f45348bb62bdcd363ff","freq_resp","","","img/orange_2bandit_b.png","70","img/orange_2bandit_b.png","70","test","","","","","","","","","","","1","","","","","","","","",""
"null","389013","SARL_v6","SARL_v6zsz7xp8q","60079f45348bb62bdcd363ff","fixation","","","img/fixation.png","null","","","test","","","","","","","","","","","","","","","","","","","",""
"null","389824","SARL_v6","SARL_v6zsz7xp8q","60079f45348bb62bdcd363ff","freq","","","img/orange_2bandit_b2.png","null","","70","test","0","","24","","","","circle","square","24","24","1","0.7083333333333334","","","","","","","",""
"null","389982","SARL_v6","SARL_v6zsz7xp8q","60079f45348bb62bdcd363ff","fixation","","","img/fixation.png","null","","","test","","","","","","","","","","","","","","","","","","","",""
"null","390787","SARL_v6","SARL_v6zsz7xp8q","60079f45348bb62bdcd363ff","freq","","","img/orange_2bandit_b2.png","null","","70","test","0","","25","","","","circle","square","25","25","1","0.68","","","","","","","",""
"null","390943","SARL_v6","SARL_v6zsz7xp8q","60079f45348bb62bdcd363ff","fixation","","","img/fixation.png","null","","","test","","","","","","","","","","","","","","","","","","","",""
"null","391750","SARL_v6","SARL_v6zsz7xp8q","60079f45348bb62bdcd363ff","freq","","","img/orange_2bandit_b2.png","null","","70","test","0","","26","","","","circle","square","26","26","1","0.6538461538461539","","","","","","","",""
"null","391904","SARL_v6","SARL_v6zsz7xp8q","60079f45348bb62bdcd363ff","fixation","","","img/fixation.png","null","","","test","","","","","","","","","","","","","","","","","","","",""
"966","392875","SARL_v6","SARL_v6zsz7xp8q","60079f45348bb62bdcd363ff","rl","","","img/black_2bandit_b2.png","75","","0","test","","","27","","","-3","circle","square","","0","1","","75","-3","-3","-3","-3","square","1","0"
"null","393631","SARL_v6","SARL_v6zsz7xp8q","60079f45348bb62bdcd363ff","feedback","","","<div class=""verylowPoints_sq""> -3 </div>","null","","na","test","","","NaN","","","","","","","","1","","75","","","","","","1",""
"null","394439","SARL_v6","SARL_v6zsz7xp8q","60079f45348bb62bdcd363ff","freq","","","img/orange_2bandit_b2.png","null","","70","test","0","","28","","","","circle","square","27","1","2","0.6296296296296297","","","","","","","",""
"null","394594","SARL_v6","SARL_v6zsz7xp8q","60079f45348bb62bdcd363ff","fixation","","","img/fixation.png","null","","","test","","","","","","","","","","","","","","","","","","","",""
"45","394646","SARL_v6","SARL_v6zsz7xp8q","60079f45348bb62bdcd363ff","freq","","","img/orange_2bandit_b2.png","70","","70","test","1","","29","","","","circle","square","28","2","2","0.6428571428571429","","","","","","","",""
"null","395417","SARL_v6","SARL_v6zsz7xp8q","60079f45348bb62bdcd363ff","freq_resp","","","img/orange_2bandit_b.png","70","img/orange_2bandit_b.png","70","test","","","","","","","","","","","2","","","","","","","","",""
"null","395572","SARL_v6","SARL_v6zsz7xp8q","60079f45348bb62bdcd363ff","fixation","","","img/fixation.png","null","","","test","","","","","","","","","","","","","","","","","","","",""
"322","395898","SARL_v6","SARL_v6zsz7xp8q","60079f45348bb62bdcd363ff","freq","","","img/orange_2bandit_b2.png","70","","70","test","1","","30","","","","circle","square","29","3","2","0.6551724137931034","","","","","","","",""
"null","396381","SARL_v6","SARL_v6zsz7xp8q","60079f45348bb62bdcd363ff","freq_resp","","","img/orange_2bandit_b.png","70","img/orange_2bandit_b.png","70","test","","","","","","","","","","","2","","","","","","","","",""
"null","396534","SARL_v6","SARL_v6zsz7xp8q","60079f45348bb62bdcd363ff","fixation","","","img/fixation.png","null","","","test","","","","","","","","","","","","","","","","","","","",""
"472","397011","SARL_v6","SARL_v6zsz7xp8q","60079f45348bb62bdcd363ff","freq","","","img/orange_2bandit_b2.png","70","","70","test","1","","31","","","","circle","square","30","4","2","0.6666666666666666","","","","","","","",""
"null","397356","SARL_v6","SARL_v6zsz7xp8q","60079f45348bb62bdcd363ff","freq_resp","","","img/orange_2bandit_b.png","70","img/orange_2bandit_b.png","70","test","","","","","","","","","","","2","","","","","","","","",""
"null","397510","SARL_v6","SARL_v6zsz7xp8q","60079f45348bb62bdcd363ff","fixation","","","img/fixation.png","null","","","test","","","","","","","","","","","","","","","","","","","",""
"562","398076","SARL_v6","SARL_v6zsz7xp8q","60079f45348bb62bdcd363ff","freq","","","img/orange_2bandit_b2.png","70","","70","test","1","","32","","","","circle","square","31","5","2","0.6774193548387096","","","","","","","",""
"null","398332","SARL_v6","SARL_v6zsz7xp8q","60079f45348bb62bdcd363ff","freq_resp","","","img/orange_2bandit_b.png","70","img/orange_2bandit_b.png","70","test","","","","","","","","","","","2","","","","","","","","",""
"null","398486","SARL_v6","SARL_v6zsz7xp8q","60079f45348bb62bdcd363ff","fixation","","","img/fixation.png","null","","","test","","","","","","","","","","","","","","","","","","","",""
"697","399187","SARL_v6","SARL_v6zsz7xp8q","60079f45348bb62bdcd363ff","freq","","","img/orange_2bandit_b2.png","70","","70","test","1","","33","","","","circle","square","32","6","2","0.6875","","","","","","","",""
"null","399310","SARL_v6","SARL_v6zsz7xp8q","60079f45348bb62bdcd363ff","freq_resp","","","img/orange_2bandit_b.png","70","img/orange_2bandit_b.png","70","test","","","","","","","","","","","2","","","","","","","","",""
"null","399464","SARL_v6","SARL_v6zsz7xp8q","60079f45348bb62bdcd363ff","fixation","","","img/fixation.png","null","","","test","","","","","","","","","","","","","","","","","","","",""
"743","400211","SARL_v6","SARL_v6zsz7xp8q","60079f45348bb62bdcd363ff","freq","","","img/orange_2bandit_b2.png","70","","70","test","1","","34","","","","circle","square","33","7","2","0.696969696969697","","","","","","","",""
"null","400274","SARL_v6","SARL_v6zsz7xp8q","60079f45348bb62bdcd363ff","freq_resp","","","img/orange_2bandit_b.png","70","img/orange_2bandit_b.png","70","test","","","","","","","","","","","2","","","","","","","","",""
"null","400430","SARL_v6","SARL_v6zsz7xp8q","60079f45348bb62bdcd363ff","fixation","","","img/fixation.png","null","","","test","","","","","","","","","","","","","","","","","","","",""
"null","401241","SARL_v6","SARL_v6zsz7xp8q","60079f45348bb62bdcd363ff","freq","","","img/orange_2bandit_b2.png","null","","70","test","0","","35","","","","circle","square","34","8","2","0.6764705882352942","","","","","","","",""
"null","401397","SARL_v6","SARL_v6zsz7xp8q","60079f45348bb62bdcd363ff","fixation","","","img/fixation.png","null","","","test","","","","","","","","","","","","","","","","","","","",""
"null","402204","SARL_v6","SARL_v6zsz7xp8q","60079f45348bb62bdcd363ff","infreq","","","img/blue_2bandit_b2.png","null","","68","test","0","","36","","","","circle","square","35","9","2","0.6571428571428571","","","","","","","",""
"null","402373","SARL_v6","SARL_v6zsz7xp8q","60079f45348bb62bdcd363ff","fixation","","","img/fixation.png","null","","","test","","","","","","","","","","","","","","","","","","","",""
"792","403169","SARL_v6","SARL_v6zsz7xp8q","60079f45348bb62bdcd363ff","freq","","","img/orange_2bandit_b2.png","70","","70","test","1","","37","","","","circle","square","36","10","2","0.6666666666666666","","","","","","","",""
"null","403182","SARL_v6","SARL_v6zsz7xp8q","60079f45348bb62bdcd363ff","freq_resp","","","img/orange_2bandit_b.png","70","img/orange_2bandit_b.png","70","test","","","","","","","","","","","2","","","","","","","","",""
"null","403340","SARL_v6","SARL_v6zsz7xp8q","60079f45348bb62bdcd363ff","fixation","","","img/fixation.png","null","","","test","","","","","","","","","","","","","","","","","","","",""
"761","404105","SARL_v6","SARL_v6zsz7xp8q","60079f45348bb62bdcd363ff","freq","","","img/orange_2bandit_b2.png","70","","70","test","1","","38","","","","circle","square","37","11","2","0.6756756756756757","","","","","","","",""
"null","404158","SARL_v6","SARL_v6zsz7xp8q","60079f45348bb62bdcd363ff","freq_resp","","","img/orange_2bandit_b.png","70","img/orange_2bandit_b.png","70","test","","","","","","","","","","","2","","","","","","","","",""
"null","404312","SARL_v6","SARL_v6zsz7xp8q","60079f45348bb62bdcd363ff","fixation","","","img/fixation.png","null","","","test","","","","","","","","","","","","","","","","","","","",""
"663","404978","SARL_v6","SARL_v6zsz7xp8q","60079f45348bb62bdcd363ff","freq","","","img/orange_2bandit_b2.png","70","","70","test","1","","39","","","","circle","square","38","12","2","0.6842105263157895","","","","","","","",""
"null","405124","SARL_v6","SARL_v6zsz7xp8q","60079f45348bb62bdcd363ff","freq_resp","","","img/orange_2bandit_b.png","70","img/orange_2bandit_b.png","70","test","","","","","","","","","","","2","","","","","","","","",""
"null","405277","SARL_v6","SARL_v6zsz7xp8q","60079f45348bb62bdcd363ff","fixation","","","img/fixation.png","null","","","test","","","","","","","","","","","","","","","","","","","",""
"655","405936","SARL_v6","SARL_v6zsz7xp8q","60079f45348bb62bdcd363ff","freq","","","img/orange_2bandit_b2.png","70","","70","test","1","","40","","","","circle","square","39","13","2","0.6923076923076923","","","","","","","",""
"null","406100","SARL_v6","SARL_v6zsz7xp8q","60079f45348bb62bdcd363ff","freq_resp","","","img/orange_2bandit_b.png","70","img/orange_2bandit_b.png","70","test","","","","","","","","","","","2","","","","","","","","",""
"null","406255","SARL_v6","SARL_v6zsz7xp8q","60079f45348bb62bdcd363ff","fixation","","","img/fixation.png","null","","","test","","","","","","","","","","","","","","","","","","","",""
"664","406922","SARL_v6","SARL_v6zsz7xp8q","60079f45348bb62bdcd363ff","freq","","","img/orange_2bandit_b2.png","70","","70","test","1","","41","","","","circle","square","40","14","2","0.7","","","","","","","",""
"null","407067","SARL_v6","SARL_v6zsz7xp8q","60079f45348bb62bdcd363ff","freq_resp","","","img/orange_2bandit_b.png","70","img/orange_2bandit_b.png","70","test","","","","","","","","","","","2","","","","","","","","",""
"null","407225","SARL_v6","SARL_v6zsz7xp8q","60079f45348bb62bdcd363ff","fixation","","","img/fixation.png","null","","","test","","","","","","","","","","","","","","","","","","","",""
"651","407881","SARL_v6","SARL_v6zsz7xp8q","60079f45348bb62bdcd363ff","freq","","","img/orange_2bandit_b2.png","70","","70","test","1","","42","","","","circle","square","41","15","2","0.7073170731707317","","","","","","","",""
"null","408035","SARL_v6","SARL_v6zsz7xp8q","60079f45348bb62bdcd363ff","freq_resp","","","img/orange_2bandit_b.png","70","img/orange_2bandit_b.png","70","test","","","","","","","","","","","2","","","","","","","","",""
"null","408191","SARL_v6","SARL_v6zsz7xp8q","60079f45348bb62bdcd363ff","fixation","","","img/fixation.png","null","","","test","","","","","","","","","","","","","","","","","","","",""
"626","408821","SARL_v6","SARL_v6zsz7xp8q","60079f45348bb62bdcd363ff","freq","","","img/orange_2bandit_b2.png","70","","70","test","1","","43","","","","circle","square","42","16","2","0.7142857142857143","","","","","","","",""
"null","409002","SARL_v6","SARL_v6zsz7xp8q","60079f45348bb62bdcd363ff","freq_resp","","","img/orange_2bandit_b.png","70","img/orange_2bandit_b.png","70","test","","","","","","","","","","","2","","","","","","","","",""
"null","409172","SARL_v6","SARL_v6zsz7xp8q","60079f45348bb62bdcd363ff","fixation","","","img/fixation.png","null","","","test","","","","","","","","","","","","","","","","","","","",""
"754","409930","SARL_v6","SARL_v6zsz7xp8q","60079f45348bb62bdcd363ff","infreq","","","img/blue_2bandit_b2.png","68","","68","test","1","","44","","","","circle","square","43","17","2","0.7209302325581395","","","","","","","",""
"null","409982","SARL_v6","SARL_v6zsz7xp8q","60079f45348bb62bdcd363ff","infreq_resp","","","img/blue_2bandit_b.png","68","img/blue_2bandit_b.png","68","test","","","","","","","","","","","2","","","","","","","","",""
"null","410138","SARL_v6","SARL_v6zsz7xp8q","60079f45348bb62bdcd363ff","fixation","","","img/fixation.png","null","","","test","","","","","","","","","","","","","","","","","","","",""
"700","410841","SARL_v6","SARL_v6zsz7xp8q","60079f45348bb62bdcd363ff","infreq","","","img/blue_2bandit_b2.png","68","","68","test","1","","45","","","","circle","square","44","18","2","0.7272727272727273","","","","","","","",""
"null","410947","SARL_v6","SARL_v6zsz7xp8q","60079f45348bb62bdcd363ff","infreq_resp","","","img/blue_2bandit_b.png","68","img/blue_2bandit_b.png","68","test","","","","","","","","","","","2","","","","","","","","",""
"null","411101","SARL_v6","SARL_v6zsz7xp8q","60079f45348bb62bdcd363ff","fixation","","","img/fixation.png","null","","","test","","","","","","","","","","","","","","","","","","","",""
"744","411849","SARL_v6","SARL_v6zsz7xp8q","60079f45348bb62bdcd363ff","freq","","","img/orange_2bandit_b2.png","70","","70","test","1","","46","","","","circle","square","45","19","2","0.7333333333333333","","","","","","","",""
"null","411925","SARL_v6","SARL_v6zsz7xp8q","60079f45348bb62bdcd363ff","freq_resp","","","img/orange_2bandit_b.png","70","img/orange_2bandit_b.png","70","test","","","","","","","","","","","2","","","","","","","","",""
"null","412080","SARL_v6","SARL_v6zsz7xp8q","60079f45348bb62bdcd363ff","fixation","","","img/fixation.png","null","","","test","","","","","","","","","","","","","","","","","","","",""
"null","412888","SARL_v6","SARL_v6zsz7xp8q","60079f45348bb62bdcd363ff","freq","","","img/orange_2bandit_b2.png","null","","70","test","0","","47","","","","circle","square","46","20","2","0.717391304347826","","","","","","","",""
"null","413055","SARL_v6","SARL_v6zsz7xp8q","60079f45348bb62bdcd363ff","fixation","","","img/fixation.png","null","","","test","","","","","","","","","","","","","","","","","","","",""
"629","413687","SARL_v6","SARL_v6zsz7xp8q","60079f45348bb62bdcd363ff","freq","","","img/orange_2bandit_b2.png","70","","70","test","1","","48","","","","circle","square","47","21","2","0.723404255319149","","","","","","","",""
"null","413872","SARL_v6","SARL_v6zsz7xp8q","60079f45348bb62bdcd363ff","freq_resp","","","img/orange_2bandit_b.png","70","img/orange_2bandit_b.png","70","test","","","","","","","","","","","2","","","","","","","","",""
"null","414026","SARL_v6","SARL_v6zsz7xp8q","60079f45348bb62bdcd363ff","fixation","","","img/fixation.png","null","","","test","","","","","","","","","","","","","","","","","","","",""
"698","414728","SARL_v6","SARL_v6zsz7xp8q","60079f45348bb62bdcd363ff","rl","","","img/black_2bandit_b2.png","74","","0","test","","","49","","","-5","circle","square","","0","2","","74","-5","-8","-5","-8","circle","2","0"
"null","415486","SARL_v6","SARL_v6zsz7xp8q","60079f45348bb62bdcd363ff","feedback","","","<div class=""verylowPoints""> -5 </div>","null","","na","test","","","NaN","","","","","","","","2","","74","","","","","","2",""
"734","416224","SARL_v6","SARL_v6zsz7xp8q","60079f45348bb62bdcd363ff","freq","","","img/orange_2bandit_b2.png","70","","70","test","1","","50","","","","circle","square","48","1","3","0.7291666666666666","","","","","","","",""
"null","416295","SARL_v6","SARL_v6zsz7xp8q","60079f45348bb62bdcd363ff","freq_resp","","","img/orange_2bandit_b.png","70","img/orange_2bandit_b.png","70","test","","","","","","","","","","","3","","","","","","","","",""
"null","416450","SARL_v6","SARL_v6zsz7xp8q","60079f45348bb62bdcd363ff","fixation","","","img/fixation.png","null","","","test","","","","","","","","","","","","","","","","","","","",""
"634","417089","SARL_v6","SARL_v6zsz7xp8q","60079f45348bb62bdcd363ff","freq","","","img/orange_2bandit_b2.png","70","","70","test","1","","51","","","","circle","square","49","2","3","0.7346938775510204","","","","","","","",""
"null","417274","SARL_v6","SARL_v6zsz7xp8q","60079f45348bb62bdcd363ff","freq_resp","","","img/orange_2bandit_b.png","70","img/orange_2bandit_b.png","70","test","","","","","","","","","","","3","","","","","","","","",""
"null","417427","SARL_v6","SARL_v6zsz7xp8q","60079f45348bb62bdcd363ff","fixation","","","img/fixation.png","null","","","test","","","","","","","","","","","","","","","","","","","",""
"682","418113","SARL_v6","SARL_v6zsz7xp8q","60079f45348bb62bdcd363ff","freq","","","img/orange_2bandit_b2.png","70","","70","test","1","","52","","","","circle","square","50","3","3","0.74","","","","","","","",""
"null","418238","SARL_v6","SARL_v6zsz7xp8q","60079f45348bb62bdcd363ff","freq_resp","","","img/orange_2bandit_b.png","70","img/orange_2bandit_b.png","70","test","","","","","","","","","","","3","","","","","","","","",""
"null","418392","SARL_v6","SARL_v6zsz7xp8q","60079f45348bb62bdcd363ff","fixation","","","img/fixation.png","null","","","test","","","","","","","","","","","","","","","","","","","",""
"662","419057","SARL_v6","SARL_v6zsz7xp8q","60079f45348bb62bdcd363ff","freq","","","img/orange_2bandit_b2.png","70","","70","test","1","","53","","","","circle","square","51","4","3","0.7450980392156863","","","","","","","",""
"null","419203","SARL_v6","SARL_v6zsz7xp8q","60079f45348bb62bdcd363ff","freq_resp","","","img/orange_2bandit_b.png","70","img/orange_2bandit_b.png","70","test","","","","","","","","","","","3","","","","","","","","",""
"null","419357","SARL_v6","SARL_v6zsz7xp8q","60079f45348bb62bdcd363ff","fixation","","","img/fixation.png","null","","","test","","","","","","","","","","","","","","","","","","","",""
"575","419937","SARL_v6","SARL_v6zsz7xp8q","60079f45348bb62bdcd363ff","freq","","","img/orange_2bandit_b2.png","70","","70","test","1","","54","","","","circle","square","52","5","3","0.75","","","","","","","",""
"null","420169","SARL_v6","SARL_v6zsz7xp8q","60079f45348bb62bdcd363ff","freq_resp","","","img/orange_2bandit_b.png","70","img/orange_2bandit_b.png","70","test","","","","","","","","","","","3","","","","","","","","",""
"null","420324","SARL_v6","SARL_v6zsz7xp8q","60079f45348bb62bdcd363ff","fixation","","","img/fixation.png","null","","","test","","","","","","","","","","","","","","","","","","","",""
"552","420881","SARL_v6","SARL_v6zsz7xp8q","60079f45348bb62bdcd363ff","freq","","","img/orange_2bandit_b2.png","70","","70","test","1","","55","","","","circle","square","53","6","3","0.7547169811320755","","","","","","","",""
"null","421145","SARL_v6","SARL_v6zsz7xp8q","60079f45348bb62bdcd363ff","freq_resp","","","img/orange_2bandit_b.png","70","img/orange_2bandit_b.png","70","test","","","","","","","","","","","3","","","","","","","","",""
"null","421314","SARL_v6","SARL_v6zsz7xp8q","60079f45348bb62bdcd363ff","fixation","","","img/fixation.png","null","","","test","","","","","","","","","","","","","","","","","","","",""
"741","422060","SARL_v6","SARL_v6zsz7xp8q","60079f45348bb62bdcd363ff","freq","","","img/orange_2bandit_b2.png","70","","70","test","1","","56","","","","circle","square","54","7","3","0.7592592592592593","","","","","","","",""
"null","422125","SARL_v6","SARL_v6zsz7xp8q","60079f45348bb62bdcd363ff","freq_resp","","","img/orange_2bandit_b.png","70","img/orange_2bandit_b.png","70","test","","","","","","","","","","","3","","","","","","","","",""
"null","422294","SARL_v6","SARL_v6zsz7xp8q","60079f45348bb62bdcd363ff","fixation","","","img/fixation.png","null","","","test","","","","","","","","","","","","","","","","","","","",""
"666","422964","SARL_v6","SARL_v6zsz7xp8q","60079f45348bb62bdcd363ff","freq","","","img/orange_2bandit_b2.png","70","","70","test","1","","57","","","","circle","square","55","8","3","0.7636363636363637","","","","","","","",""
"null","423105","SARL_v6","SARL_v6zsz7xp8q","60079f45348bb62bdcd363ff","freq_resp","","","img/orange_2bandit_b.png","70","img/orange_2bandit_b.png","70","test","","","","","","","","","","","3","","","","","","","","",""
"null","423260","SARL_v6","SARL_v6zsz7xp8q","60079f45348bb62bdcd363ff","fixation","","","img/fixation.png","null","","","test","","","","","","","","","","","","","","","","","","","",""
"601","423865","SARL_v6","SARL_v6zsz7xp8q","60079f45348bb62bdcd363ff","freq","","","img/orange_2bandit_b2.png","70","","70","test","1","","58","","","","circle","square","56","9","3","0.7678571428571429","","","","","","","",""
"null","424069","SARL_v6","SARL_v6zsz7xp8q","60079f45348bb62bdcd363ff","freq_resp","","","img/orange_2bandit_b.png","70","img/orange_2bandit_b.png","70","test","","","","","","","","","","","3","","","","","","","","",""
"null","424224","SARL_v6","SARL_v6zsz7xp8q","60079f45348bb62bdcd363ff","fixation","","","img/fixation.png","null","","","test","","","","","","","","","","","","","","","","","","","",""
"757","424986","SARL_v6","SARL_v6zsz7xp8q","60079f45348bb62bdcd363ff","infreq","","","img/blue_2bandit_b2.png","68","","68","test","1","","59","","","","circle","square","57","10","3","0.7719298245614035","","","","","","","",""
"null","425034","SARL_v6","SARL_v6zsz7xp8q","60079f45348bb62bdcd363ff","infreq_resp","","","img/blue_2bandit_b.png","68","img/blue_2bandit_b.png","68","test","","","","","","","","","","","3","","","","","","","","",""
"null","425188","SARL_v6","SARL_v6zsz7xp8q","60079f45348bb62bdcd363ff","fixation","","","img/fixation.png","null","","","test","","","","","","","","","","","","","","","","","","","",""
"666","425858","SARL_v6","SARL_v6zsz7xp8q","60079f45348bb62bdcd363ff","infreq","","","img/blue_2bandit_b2.png","68","","68","test","1","","60","","","","circle","square","58","11","3","0.7758620689655172","","","","","","","",""
"null","425997","SARL_v6","SARL_v6zsz7xp8q","60079f45348bb62bdcd363ff","infreq_resp","","","img/blue_2bandit_b.png","68","img/blue_2bandit_b.png","68","test","","","","","","","","","","","3","","","","","","","","",""
"null","426152","SARL_v6","SARL_v6zsz7xp8q","60079f45348bb62bdcd363ff","fixation","","","img/fixation.png","null","","","test","","","","","","","","","","","","","","","","","","","",""
"764","426919","SARL_v6","SARL_v6zsz7xp8q","60079f45348bb62bdcd363ff","freq","","","img/orange_2bandit_b2.png","70","","70","test","1","","61","","","","circle","square","59","12","3","0.7796610169491526","","","","","","","",""
"null","426962","SARL_v6","SARL_v6zsz7xp8q","60079f45348bb62bdcd363ff","freq_resp","","","img/orange_2bandit_b.png","70","img/orange_2bandit_b.png","70","test","","","","","","","","","","","3","","","","","","","","",""
"null","427119","SARL_v6","SARL_v6zsz7xp8q","60079f45348bb62bdcd363ff","fixation","","","img/fixation.png","null","","","test","","","","","","","","","","","","","","","","","","","",""
"744","427865","SARL_v6","SARL_v6zsz7xp8q","60079f45348bb62bdcd363ff","freq","","","img/orange_2bandit_b2.png","70","","70","test","1","","62","","","","circle","square","60","13","3","0.7833333333333333","","","","","","","",""
"null","427929","SARL_v6","SARL_v6zsz7xp8q","60079f45348bb62bdcd363ff","freq_resp","","","img/orange_2bandit_b.png","70","img/orange_2bandit_b.png","70","test","","","","","","","","","","","3","","","","","","","","",""
"null","428083","SARL_v6","SARL_v6zsz7xp8q","60079f45348bb62bdcd363ff","fixation","","","img/fixation.png","null","","","test","","","","","","","","","","","","","","","","","","","",""
"787","428873","SARL_v6","SARL_v6zsz7xp8q","60079f45348bb62bdcd363ff","freq","","","img/orange_2bandit_b2.png","70","","70","test","1","","63","","","","circle","square","61","14","3","0.7868852459016393","","","","","","","",""
"null","428892","SARL_v6","SARL_v6zsz7xp8q","60079f45348bb62bdcd363ff","freq_resp","","","img/orange_2bandit_b.png","70","img/orange_2bandit_b.png","70","test","","","","","","","","","","","3","","","","","","","","",""
"null","429061","SARL_v6","SARL_v6zsz7xp8q","60079f45348bb62bdcd363ff","fixation","","","img/fixation.png","null","","","test","","","","","","","","","","","","","","","","","","","",""
"null","429869","SARL_v6","SARL_v6zsz7xp8q","60079f45348bb62bdcd363ff","freq","","","img/orange_2bandit_b2.png","null","","70","test","0","","64","","","","circle","square","62","15","3","0.7741935483870968","","","","","","","",""
"null","430039","SARL_v6","SARL_v6zsz7xp8q","60079f45348bb62bdcd363ff","fixation","","","img/fixation.png","null","","","test","","","","","","","","","","","","","","","","","","","",""
"742","430784","SARL_v6","SARL_v6zsz7xp8q","60079f45348bb62bdcd363ff","freq","","","img/orange_2bandit_b2.png","70","","70","test","1","","65","","","","circle","square","63","16","3","0.7777777777777778","","","","","","","",""
"null","430847","SARL_v6","SARL_v6zsz7xp8q","60079f45348bb62bdcd363ff","freq_resp","","","img/orange_2bandit_b.png","70","img/orange_2bandit_b.png","70","test","","","","","","","","","","","3","","","","","","","","",""
"null","431015","SARL_v6","SARL_v6zsz7xp8q","60079f45348bb62bdcd363ff","fixation","","","img/fixation.png","null","","","test","","","","","","","","","","","","","","","","","","","",""
"767","431786","SARL_v6","SARL_v6zsz7xp8q","60079f45348bb62bdcd363ff","freq","","","img/orange_2bandit_b2.png","70","","70","test","1","","66","","","","circle","square","64","17","3","0.78125","","","","","","","",""
"null","431826","SARL_v6","SARL_v6zsz7xp8q","60079f45348bb62bdcd363ff","freq_resp","","","img/orange_2bandit_b.png","70","img/orange_2bandit_b.png","70","test","","","","","","","","","","","3","","","","","","","","",""
"null","431995","SARL_v6","SARL_v6zsz7xp8q","60079f45348bb62bdcd363ff","fixation","","","img/fixation.png","null","","","test","","","","","","","","","","","","","","","","","","","",""
"794","432794","SARL_v6","SARL_v6zsz7xp8q","60079f45348bb62bdcd363ff","freq","","","img/orange_2bandit_b2.png","70","","70","test","1","","67","","","","circle","square","65","18","3","0.7846153846153846","","","","","","","",""
"null","432806","SARL_v6","SARL_v6zsz7xp8q","60079f45348bb62bdcd363ff","freq_resp","","","img/orange_2bandit_b.png","70","img/orange_2bandit_b.png","70","test","","","","","","","","","","","3","","","","","","","","",""
"null","432975","SARL_v6","SARL_v6zsz7xp8q","60079f45348bb62bdcd363ff","fixation","","","img/fixation.png","null","","","test","","","","","","","","","","","","","","","","","","","",""
"721","433699","SARL_v6","SARL_v6zsz7xp8q","60079f45348bb62bdcd363ff","freq","","","img/orange_2bandit_b2.png","70","","70","test","1","","68","","","","circle","square","66","19","3","0.7878787878787878","","","","","","","",""
"null","433782","SARL_v6","SARL_v6zsz7xp8q","60079f45348bb62bdcd363ff","freq_resp","","","img/orange_2bandit_b.png","70","img/orange_2bandit_b.png","70","test","","","","","","","","","","","3","","","","","","","","",""
"null","433936","SARL_v6","SARL_v6zsz7xp8q","60079f45348bb62bdcd363ff","fixation","","","img/fixation.png","null","","","test","","","","","","","","","","","","","","","","","","","",""
"null","434750","SARL_v6","SARL_v6zsz7xp8q","60079f45348bb62bdcd363ff","freq","","","img/orange_2bandit_b2.png","null","","70","test","0","","69","","","","circle","square","67","20","3","0.7761194029850746","","","","","","","",""
"null","434905","SARL_v6","SARL_v6zsz7xp8q","60079f45348bb62bdcd363ff","fixation","","","img/fixation.png","null","","","test","","","","","","","","","","","","","","","","","","","",""
"724","435632","SARL_v6","SARL_v6zsz7xp8q","60079f45348bb62bdcd363ff","freq","","","img/orange_2bandit_b2.png","70","","70","test","1","","70","","","","circle","square","68","21","3","0.7794117647058824","","","","","","","",""
"null","435712","SARL_v6","SARL_v6zsz7xp8q","60079f45348bb62bdcd363ff","freq_resp","","","img/orange_2bandit_b.png","70","img/orange_2bandit_b.png","70","test","","","","","","","","","","","3","","","","","","","","",""
"null","435872","SARL_v6","SARL_v6zsz7xp8q","60079f45348bb62bdcd363ff","fixation","","","img/fixation.png","null","","","test","","","","","","","","","","","","","","","","","","","",""
"967","436842","SARL_v6","SARL_v6zsz7xp8q","60079f45348bb62bdcd363ff","rl","","","img/black_2bandit_b2.png","75","","0","test","","","71","","","-8","circle","square","","0","3","","75","-4","-8","-4","-8","square","3","0"
"null","437599","SARL_v6","SARL_v6zsz7xp8q","60079f45348bb62bdcd363ff","feedback","","","<div class=""verylowPoints_sq""> -8 </div>","null","","na","test","","","NaN","","","","","","","","3","","75","","","","","","3",""
"null","438408","SARL_v6","SARL_v6zsz7xp8q","60079f45348bb62bdcd363ff","freq","","","img/orange_2bandit_b2.png","null","","70","test","0","","72","","","","circle","square","69","1","4","0.7681159420289855","","","","","","","",""
"null","438564","SARL_v6","SARL_v6zsz7xp8q","60079f45348bb62bdcd363ff","fixation","","","img/fixation.png","null","","","test","","","","","","","","","","","","","","","","","","","",""
"9","438577","SARL_v6","SARL_v6zsz7xp8q","60079f45348bb62bdcd363ff","freq","","","img/orange_2bandit_b2.png","70","","70","test","1","","73","","","","circle","square","70","2","4","0.7714285714285715","","","","","","","",""
"null","439374","SARL_v6","SARL_v6zsz7xp8q","60079f45348bb62bdcd363ff","freq_resp","","","img/orange_2bandit_b.png","70","img/orange_2bandit_b.png","70","test","","","","","","","","","","","4","","","","","","","","",""
"null","439529","SARL_v6","SARL_v6zsz7xp8q","60079f45348bb62bdcd363ff","fixation","","","img/fixation.png","null","","","test","","","","","","","","","","","","","","","","","","","",""
"null","440338","SARL_v6","SARL_v6zsz7xp8q","60079f45348bb62bdcd363ff","freq","","","img/orange_2bandit_b2.png","null","","70","test","0","","74","","","","circle","square","71","3","4","0.7605633802816901","","","","","","","",""
"null","440494","SARL_v6","SARL_v6zsz7xp8q","60079f45348bb62bdcd363ff","fixation","","","img/fixation.png","null","","","test","","","","","","","","","","","","","","","","","","","",""
"null","441301","SARL_v6","SARL_v6zsz7xp8q","60079f45348bb62bdcd363ff","freq","","","img/orange_2bandit_b2.png","null","","70","test","0","","75","","","","circle","square","72","4","4","0.75","","","","","","","",""
"null","441457","SARL_v6","SARL_v6zsz7xp8q","60079f45348bb62bdcd363ff","fixation","","","img/fixation.png","null","","","test","","","","","","","","","","","","","","","","","","","",""
"468","441928","SARL_v6","SARL_v6zsz7xp8q","60079f45348bb62bdcd363ff","freq","","","img/orange_2bandit_b2.png","70","","70","test","1","","76","","","","circle","square","73","5","4","0.7534246575342466","","","","","","","",""
"null","442264","SARL_v6","SARL_v6zsz7xp8q","60079f45348bb62bdcd363ff","freq_resp","","","img/orange_2bandit_b.png","70","img/orange_2bandit_b.png","70","test","","","","","","","","","","","4","","","","","","","","",""
"null","442421","SARL_v6","SARL_v6zsz7xp8q","60079f45348bb62bdcd363ff","fixation","","","img/fixation.png","null","","","test","","","","","","","","","","","","","","","","","","","",""
"574","442999","SARL_v6","SARL_v6zsz7xp8q","60079f45348bb62bdcd363ff","freq","","","img/orange_2bandit_b2.png","70","","70","test","1","","77","","","","circle","square","74","6","4","0.7567567567567568","","","","","","","",""
"null","443233","SARL_v6","SARL_v6zsz7xp8q","60079f45348bb62bdcd363ff","freq_resp","","","img/orange_2bandit_b.png","70","img/orange_2bandit_b.png","70","test","","","","","","","","","","","4","","","","","","","","",""
"null","443391","SARL_v6","SARL_v6zsz7xp8q","60079f45348bb62bdcd363ff","fixation","","","img/fixation.png","null","","","test","","","","","","","","","","","","","","","","","","","",""
"735","444129","SARL_v6","SARL_v6zsz7xp8q","60079f45348bb62bdcd363ff","infreq","","","img/blue_2bandit_b2.png","68","","68","test","1","","78","","","","circle","square","75","7","4","0.76","","","","","","","",""
"null","444212","SARL_v6","SARL_v6zsz7xp8q","60079f45348bb62bdcd363ff","infreq_resp","","","img/blue_2bandit_b.png","68","img/blue_2bandit_b.png","68","test","","","","","","","","","","","4","","","","","","","","",""
"null","444367","SARL_v6","SARL_v6zsz7xp8q","60079f45348bb62bdcd363ff","fixation","","","img/fixation.png","null","","","test","","","","","","","","","","","","","","","","","","","",""
"748","445119","SARL_v6","SARL_v6zsz7xp8q","60079f45348bb62bdcd363ff","freq","","","img/orange_2bandit_b2.png","70","","70","test","1","","79","","","","circle","square","76","8","4","0.7631578947368421","","","","","","","",""
"null","445176","SARL_v6","SARL_v6zsz7xp8q","60079f45348bb62bdcd363ff","freq_resp","","","img/orange_2bandit_b.png","70","img/orange_2bandit_b.png","70","test","","","","","","","","","","","4","","","","","","","","",""
"null","445333","SARL_v6","SARL_v6zsz7xp8q","60079f45348bb62bdcd363ff","fixation","","","img/fixation.png","null","","","test","","","","","","","","","","","","","","","","","","","",""
"771","446108","SARL_v6","SARL_v6zsz7xp8q","60079f45348bb62bdcd363ff","freq","","","img/orange_2bandit_b2.png","70","","70","test","1","","80","","","","circle","square","77","9","4","0.7662337662337663","","","","","","","",""
"null","446140","SARL_v6","SARL_v6zsz7xp8q","60079f45348bb62bdcd363ff","freq_resp","","","img/orange_2bandit_b.png","70","img/orange_2bandit_b.png","70","test","","","","","","","","","","","4","","","","","","","","",""
"null","446299","SARL_v6","SARL_v6zsz7xp8q","60079f45348bb62bdcd363ff","fixation","","","img/fixation.png","null","","","test","","","","","","","","","","","","","","","","","","","",""
"null","447107","SARL_v6","SARL_v6zsz7xp8q","60079f45348bb62bdcd363ff","freq","","","img/orange_2bandit_b2.png","null","","70","test","0","","81","","","","circle","square","78","10","4","0.7564102564102564","","","","","","","",""
"null","447276","SARL_v6","SARL_v6zsz7xp8q","60079f45348bb62bdcd363ff","fixation","","","img/fixation.png","null","","","test","","","","","","","","","","","","","","","","","","","",""
"null","448086","SARL_v6","SARL_v6zsz7xp8q","60079f45348bb62bdcd363ff","freq","","","img/orange_2bandit_b2.png","null","","70","test","0","","82","","","","circle","square","79","11","4","0.7468354430379747","","","","","","","",""
"null","448241","SARL_v6","SARL_v6zsz7xp8q","60079f45348bb62bdcd363ff","fixation","","","img/fixation.png","null","","","test","","","","","","","","","","","","","","","","","","","",""
"37","448281","SARL_v6","SARL_v6zsz7xp8q","60079f45348bb62bdcd363ff","freq","","","img/orange_2bandit_b2.png","70","","70","test","1","","83","","","","circle","square","80","12","4","0.75","","","","","","","",""
"null","449050","SARL_v6","SARL_v6zsz7xp8q","60079f45348bb62bdcd363ff","freq_resp","","","img/orange_2bandit_b.png","70","img/orange_2bandit_b.png","70","test","","","","","","","","","","","4","","","","","","","","",""
"null","449205","SARL_v6","SARL_v6zsz7xp8q","60079f45348bb62bdcd363ff","fixation","","","img/fixation.png","null","","","test","","","","","","","","","","","","","","","","","","","",""
"464","449673","SARL_v6","SARL_v6zsz7xp8q","60079f45348bb62bdcd363ff","freq","","","img/orange_2bandit_b2.png","70","","70","test","1","","84","","","","circle","square","81","13","4","0.7530864197530864","","","","","","","",""
"null","450026","SARL_v6","SARL_v6zsz7xp8q","60079f45348bb62bdcd363ff","freq_resp","","","img/orange_2bandit_b.png","70","img/orange_2bandit_b.png","70","test","","","","","","","","","","","4","","","","","","","","",""
"null","450183","SARL_v6","SARL_v6zsz7xp8q","60079f45348bb62bdcd363ff","fixation","","","img/fixation.png","null","","","test","","","","","","","","","","","","","","","","","","","",""
"759","450945","SARL_v6","SARL_v6zsz7xp8q","60079f45348bb62bdcd363ff","infreq","","","img/blue_2bandit_b2.png","68","","68","test","1","","85","","","","circle","square","82","14","4","0.7560975609756098","","","","","","","",""
"null","450990","SARL_v6","SARL_v6zsz7xp8q","60079f45348bb62bdcd363ff","infreq_resp","","","img/blue_2bandit_b.png","68","img/blue_2bandit_b.png","68","test","","","","","","","","","","","4","","","","","","","","",""
"null","451145","SARL_v6","SARL_v6zsz7xp8q","60079f45348bb62bdcd363ff","fixation","","","img/fixation.png","null","","","test","","","","","","","","","","","","","","","","","","","",""
"730","451878","SARL_v6","SARL_v6zsz7xp8q","60079f45348bb62bdcd363ff","freq","","","img/orange_2bandit_b2.png","70","","70","test","1","","86","","","","circle","square","83","15","4","0.7590361445783133","","","","","","","",""
"null","451954","SARL_v6","SARL_v6zsz7xp8q","60079f45348bb62bdcd363ff","freq_resp","","","img/orange_2bandit_b.png","70","img/orange_2bandit_b.png","70","test","","","","","","","","","","","4","","","","","","","","",""
"null","452107","SARL_v6","SARL_v6zsz7xp8q","60079f45348bb62bdcd363ff","fixation","","","img/fixation.png","null","","","test","","","","","","","","","","","","","","","","","","","",""
"762","452874","SARL_v6","SARL_v6zsz7xp8q","60079f45348bb62bdcd363ff","freq","","","img/orange_2bandit_b2.png","70","","70","test","1","","87","","","","circle","square","84","16","4","0.7619047619047619","","","","","","","",""
"null","452918","SARL_v6","SARL_v6zsz7xp8q","60079f45348bb62bdcd363ff","freq_resp","","","img/orange_2bandit_b.png","70","img/orange_2bandit_b.png","70","test","","","","","","","","","","","4","","","","","","","","",""
"null","453085","SARL_v6","SARL_v6zsz7xp8q","60079f45348bb62bdcd363ff","fixation","","","img/fixation.png","null","","","test","","","","","","","","","","","","","","","","","","","",""
"null","453892","SARL_v6","SARL_v6zsz7xp8q","60079f45348bb62bdcd363ff","freq","","","img/orange_2bandit_b2.png","null","","70","test","0","","88","","","","circle","square","85","17","4","0.7529411764705882","","","","","","","",""
"null","454047","SARL_v6","SARL_v6zsz7xp8q","60079f45348bb62bdcd363ff","fixation","","","img/fixation.png","null","","","test","","","","","","","","","","","","","","","","","","","",""
"70","454120","SARL_v6","SARL_v6zsz7xp8q","60079f45348bb62bdcd363ff","freq","","","img/orange_2bandit_b2.png","70","","70","test","1","","89","","","","circle","square","86","18","4","0.7558139534883721","","","","","","","",""
"null","454869","SARL_v6","SARL_v6zsz7xp8q","60079f45348bb62bdcd363ff","freq_resp","","","img/orange_2bandit_b.png","70","img/orange_2bandit_b.png","70","test","","","","","","","","","","","4","","","","","","","","",""
"null","455026","SARL_v6","SARL_v6zsz7xp8q","60079f45348bb62bdcd363ff","fixation","","","img/fixation.png","null","","","test","","","","","","","","","","","","","","","","","","","",""
"442","455471","SARL_v6","SARL_v6zsz7xp8q","60079f45348bb62bdcd363ff","freq","","","img/orange_2bandit_b2.png","70","","70","test","1","","90","","","","circle","square","87","19","4","0.7586206896551724","","","","","","","",""
"null","455836","SARL_v6","SARL_v6zsz7xp8q","60079f45348bb62bdcd363ff","freq_resp","","","img/orange_2bandit_b.png","70","img/orange_2bandit_b.png","70","test","","","","","","","","","","","4","","","","","","","","",""
"null","456005","SARL_v6","SARL_v6zsz7xp8q","60079f45348bb62bdcd363ff","fixation","","","img/fixation.png","null","","","test","","","","","","","","","","","","","","","","","","","",""
"704","456713","SARL_v6","SARL_v6zsz7xp8q","60079f45348bb62bdcd363ff","freq","","","img/orange_2bandit_b2.png","70","","70","test","1","","91","","","","circle","square","88","20","4","0.7613636363636364","","","","","","","",""
"null","456814","SARL_v6","SARL_v6zsz7xp8q","60079f45348bb62bdcd363ff","freq_resp","","","img/orange_2bandit_b.png","70","img/orange_2bandit_b.png","70","test","","","","","","","","","","","4","","","","","","","","",""
"null","456971","SARL_v6","SARL_v6zsz7xp8q","60079f45348bb62bdcd363ff","fixation","","","img/fixation.png","null","","","test","","","","","","","","","","","","","","","","","","","",""
"null","457780","SARL_v6","SARL_v6zsz7xp8q","60079f45348bb62bdcd363ff","freq","","","img/orange_2bandit_b2.png","null","","70","test","0","","92","","","","circle","square","89","21","4","0.7528089887640449","","","","","","","",""
"null","457934","SARL_v6","SARL_v6zsz7xp8q","60079f45348bb62bdcd363ff","fixation","","","img/fixation.png","null","","","test","","","","","","","","","","","","","","","","","","","",""
"863","458800","SARL_v6","SARL_v6zsz7xp8q","60079f45348bb62bdcd363ff","rl","","","img/black_2bandit_b2.png","74","","0","test","","","93","","","0","circle","square","","0","4","","74","0","-12","0","-12","circle","4","0"
"null","459569","SARL_v6","SARL_v6zsz7xp8q","60079f45348bb62bdcd363ff","feedback","","","<div class=""verylowPoints""> 0 </div>","null","","na","test","","","NaN","","","","","","","","4","","74","","","","","","4",""
"null","460378","SARL_v6","SARL_v6zsz7xp8q","60079f45348bb62bdcd363ff","freq","","","img/orange_2bandit_b2.png","null","","70","test","0","","94","","","","circle","square","90","1","5","0.7444444444444445","","","","","","","",""
"null","460533","SARL_v6","SARL_v6zsz7xp8q","60079f45348bb62bdcd363ff","fixation","","","img/fixation.png","null","","","test","","","","","","","","","","","","","","","","","","","",""
"606","461143","SARL_v6","SARL_v6zsz7xp8q","60079f45348bb62bdcd363ff","freq","","","img/orange_2bandit_b2.png","70","","70","test","1","","95","","","","circle","square","91","2","5","0.7472527472527473","","","","","","","",""
"null","461343","SARL_v6","SARL_v6zsz7xp8q","60079f45348bb62bdcd363ff","freq_resp","","","img/orange_2bandit_b.png","70","img/orange_2bandit_b.png","70","test","","","","","","","","","","","5","","","","","","","","",""
"null","461497","SARL_v6","SARL_v6zsz7xp8q","60079f45348bb62bdcd363ff","fixation","","","img/fixation.png","null","","","test","","","","","","","","","","","","","","","","","","","",""
"762","462263","SARL_v6","SARL_v6zsz7xp8q","60079f45348bb62bdcd363ff","freq","","","img/orange_2bandit_b2.png","70","","70","test","1","","96","","","","circle","square","92","3","5","0.75","","","","","","","",""
"null","462305","SARL_v6","SARL_v6zsz7xp8q","60079f45348bb62bdcd363ff","freq_resp","","","img/orange_2bandit_b.png","70","img/orange_2bandit_b.png","70","test","","","","","","","","","","","5","","","","","","","","",""
"null","462464","SARL_v6","SARL_v6zsz7xp8q","60079f45348bb62bdcd363ff","fixation","","","img/fixation.png","null","","","test","","","","","","","","","","","","","","","","","","","",""
"null","463275","SARL_v6","SARL_v6zsz7xp8q","60079f45348bb62bdcd363ff","freq","","","img/orange_2bandit_b2.png","null","","70","test","0","","97","","","","circle","square","93","4","5","0.7419354838709677","","","","","","","",""
"null","463432","SARL_v6","SARL_v6zsz7xp8q","60079f45348bb62bdcd363ff","fixation","","","img/fixation.png","null","","","test","","","","","","","","","","","","","","","","","","","",""
"122","463559","SARL_v6","SARL_v6zsz7xp8q","60079f45348bb62bdcd363ff","infreq","","","img/blue_2bandit_b2.png","70","","68","test","0","","98","","","","circle","square","94","5","5","0.7340425531914894","","","","","","","",""
"null","464246","SARL_v6","SARL_v6zsz7xp8q","60079f45348bb62bdcd363ff","infreq_resp","","","img/blue_2bandit_b.png","70","img/blue_2bandit_b.png","68","test","","","","","","","","","","","5","","","","","","","","",""
"null","464413","SARL_v6","SARL_v6zsz7xp8q","60079f45348bb62bdcd363ff","fixation","","","img/fixation.png","null","","","test","","","","","","","","","","","","","","","","","","","",""
"null","465234","SARL_v6","SARL_v6zsz7xp8q","60079f45348bb62bdcd363ff","infreq","","","img/blue_2bandit_b2.png","null","","68","test","0","","99","","","","circle","square","95","6","5","0.7263157894736842","","","","","","","",""
"null","465390","SARL_v6","SARL_v6zsz7xp8q","60079f45348bb62bdcd363ff","fixation","","","img/fixation.png","null","","","test","","","","","","","","","","","","","","","","","","","",""
"33","465430","SARL_v6","SARL_v6zsz7xp8q","60079f45348bb62bdcd363ff","freq","","","img/orange_2bandit_b2.png","68","","70","test","0","","100","","","","circle","square","96","7","5","0.71875","","","","","","","",""
"null","466214","SARL_v6","SARL_v6zsz7xp8q","60079f45348bb62bdcd363ff","freq_resp","","","img/orange_2bandit_b.png","68","img/orange_2bandit_b.png","70","test","","","","","","","","","","","5","","","","","","","","",""
"null","466368","SARL_v6","SARL_v6zsz7xp8q","60079f45348bb62bdcd363ff","fixation","","","img/fixation.png","null","","","test","","","","","","","","","","","","","","","","","","","",""
"469","466840","SARL_v6","SARL_v6zsz7xp8q","60079f45348bb62bdcd363ff","freq","","","img/orange_2bandit_b2.png","70","","70","test","1","","101","","","","circle","square","97","8","5","0.7216494845360825","","","","","","","",""
"null","467177","SARL_v6","SARL_v6zsz7xp8q","60079f45348bb62bdcd363ff","freq_resp","","","img/orange_2bandit_b.png","70","img/orange_2bandit_b.png","70","test","","","","","","","","","","","5","","","","","","","","",""
"null","467332","SARL_v6","SARL_v6zsz7xp8q","60079f45348bb62bdcd363ff","fixation","","","img/fixation.png","null","","","test","","","","","","","","","","","","","","","","","","","",""
"659","467995","SARL_v6","SARL_v6zsz7xp8q","60079f45348bb62bdcd363ff","freq","","","img/orange_2bandit_b2.png","70","","70","test","1","","102","","","","circle","square","98","9","5","0.7244897959183674","","","","","","","",""
"null","468143","SARL_v6","SARL_v6zsz7xp8q","60079f45348bb62bdcd363ff","freq_resp","","","img/orange_2bandit_b.png","70","img/orange_2bandit_b.png","70","test","","","","","","","","","","","5","","","","","","","","",""
"null","468297","SARL_v6","SARL_v6zsz7xp8q","60079f45348bb62bdcd363ff","fixation","","","img/fixation.png","null","","","test","","","","","","","","","","","","","","","","","","","",""
"801","469103","SARL_v6","SARL_v6zsz7xp8q","60079f45348bb62bdcd363ff","freq","","","img/orange_2bandit_b2.png","70","","70","test","1","","103","","","","circle","square","99","10","5","0.7272727272727273","","","","","","","",""
"null","469260","SARL_v6","SARL_v6zsz7xp8q","60079f45348bb62bdcd363ff","fixation","","","img/fixation.png","null","","","test","","","","","","","","","","","","","","","","","","","",""
"null","470073","SARL_v6","SARL_v6zsz7xp8q","60079f45348bb62bdcd363ff","freq","","","img/orange_2bandit_b2.png","null","","70","test","0","","104","","","","circle","square","100","11","5","0.72","","","","","","","",""
"null","470240","SARL_v6","SARL_v6zsz7xp8q","60079f45348bb62bdcd363ff","fixation","","","img/fixation.png","null","","","test","","","","","","","","","","","","","","","","","","","",""
"541","470786","SARL_v6","SARL_v6zsz7xp8q","60079f45348bb62bdcd363ff","freq","","","img/orange_2bandit_b2.png","70","","70","test","1","","105","","","","circle","square","101","12","5","0.7227722772277227","","","","","","","",""
"null","471052","SARL_v6","SARL_v6zsz7xp8q","60079f45348bb62bdcd363ff","freq_resp","","","img/orange_2bandit_b.png","70","img/orange_2bandit_b.png","70","test","","","","","","","","","","","5","","","","","","","","",""
"null","471207","SARL_v6","SARL_v6zsz7xp8q","60079f45348bb62bdcd363ff","fixation","","","img/fixation.png","null","","","test","","","","","","","","","","","","","","","","","","","",""
"629","471841","SARL_v6","SARL_v6zsz7xp8q","60079f45348bb62bdcd363ff","freq","","","img/orange_2bandit_b2.png","70","","70","test","1","","106","","","","circle","square","102","13","5","0.7254901960784313","","","","","","","",""
"null","472018","SARL_v6","SARL_v6zsz7xp8q","60079f45348bb62bdcd363ff","freq_resp","","","img/orange_2bandit_b.png","70","img/orange_2bandit_b.png","70","test","","","","","","","","","","","5","","","","","","","","",""
"null","472174","SARL_v6","SARL_v6zsz7xp8q","60079f45348bb62bdcd363ff","fixation","","","img/fixation.png","null","","","test","","","","","","","","","","","","","","","","","","","",""
"684","472862","SARL_v6","SARL_v6zsz7xp8q","60079f45348bb62bdcd363ff","freq","","","img/orange_2bandit_b2.png","70","","70","test","1","","107","","","","circle","square","103","14","5","0.7281553398058253","","","","","","","",""
"null","472984","SARL_v6","SARL_v6zsz7xp8q","60079f45348bb62bdcd363ff","freq_resp","","","img/orange_2bandit_b.png","70","img/orange_2bandit_b.png","70","test","","","","","","","","","","","5","","","","","","","","",""
"null","473140","SARL_v6","SARL_v6zsz7xp8q","60079f45348bb62bdcd363ff","fixation","","","img/fixation.png","null","","","test","","","","","","","","","","","","","","","","","","","",""
"null","473950","SARL_v6","SARL_v6zsz7xp8q","60079f45348bb62bdcd363ff","freq","","","img/orange_2bandit_b2.png","null","","70","test","0","","108","","","","circle","square","104","15","5","0.7211538461538461","","","","","","","",""
"null","474105","SARL_v6","SARL_v6zsz7xp8q","60079f45348bb62bdcd363ff","fixation","","","img/fixation.png","null","","","test","","","","","","","","","","","","","","","","","","","",""
"null","474916","SARL_v6","SARL_v6zsz7xp8q","60079f45348bb62bdcd363ff","freq","","","img/orange_2bandit_b2.png","null","","70","test","0","","109","","","","circle","square","105","16","5","0.7142857142857143","","","","","","","",""
"null","475071","SARL_v6","SARL_v6zsz7xp8q","60079f45348bb62bdcd363ff","fixation","","","img/fixation.png","null","","","test","","","","","","","","","","","","","","","","","","","",""
"478","475553","SARL_v6","SARL_v6zsz7xp8q","60079f45348bb62bdcd363ff","freq","","","img/orange_2bandit_b2.png","70","","70","test","1","","110","","","","circle","square","106","17","5","0.7169811320754716","","","","","","","",""
"null","475882","SARL_v6","SARL_v6zsz7xp8q","60079f45348bb62bdcd363ff","freq_resp","","","img/orange_2bandit_b.png","70","img/orange_2bandit_b.png","70","test","","","","","","","","","","","5","","","","","","","","",""
"null","476038","SARL_v6","SARL_v6zsz7xp8q","60079f45348bb62bdcd363ff","fixation","","","img/fixation.png","null","","","test","","","","","","","","","","","","","","","","","","","",""
"711","476753","SARL_v6","SARL_v6zsz7xp8q","60079f45348bb62bdcd363ff","freq","","","img/orange_2bandit_b2.png","70","","70","test","1","","111","","","","circle","square","107","18","5","0.719626168224299","","","","","","","",""
"null","476846","SARL_v6","SARL_v6zsz7xp8q","60079f45348bb62bdcd363ff","freq_resp","","","img/orange_2bandit_b.png","70","img/orange_2bandit_b.png","70","test","","","","","","","","","","","5","","","","","","","","",""
"null","476999","SARL_v6","SARL_v6zsz7xp8q","60079f45348bb62bdcd363ff","fixation","","","img/fixation.png","null","","","test","","","","","","","","","","","","","","","","","","","",""
"755","477757","SARL_v6","SARL_v6zsz7xp8q","60079f45348bb62bdcd363ff","freq","","","img/orange_2bandit_b2.png","70","","70","test","1","","112","","","","circle","square","108","19","5","0.7222222222222222","","","","","","","",""
"null","477811","SARL_v6","SARL_v6zsz7xp8q","60079f45348bb62bdcd363ff","freq_resp","","","img/orange_2bandit_b.png","70","img/orange_2bandit_b.png","70","test","","","","","","","","","","","5","","","","","","","","",""
"null","477967","SARL_v6","SARL_v6zsz7xp8q","60079f45348bb62bdcd363ff","fixation","","","img/fixation.png","null","","","test","","","","","","","","","","","","","","","","","","","",""
"661","478632","SARL_v6","SARL_v6zsz7xp8q","60079f45348bb62bdcd363ff","freq","","","img/orange_2bandit_b2.png","70","","70","test","1","","113","","","","circle","square","109","20","5","0.7247706422018348","","","","","","","",""
"null","478790","SARL_v6","SARL_v6zsz7xp8q","60079f45348bb62bdcd363ff","freq_resp","","","img/orange_2bandit_b.png","70","img/orange_2bandit_b.png","70","test","","","","","","","","","","","5","","","","","","","","",""
"null","478945","SARL_v6","SARL_v6zsz7xp8q","60079f45348bb62bdcd363ff","fixation","","","img/fixation.png","null","","","test","","","","","","","","","","","","","","","","","","","",""
"null","479756","SARL_v6","SARL_v6zsz7xp8q","60079f45348bb62bdcd363ff","freq","","","img/orange_2bandit_b2.png","null","","70","test","0","","114","","","","circle","square","110","21","5","0.7181818181818181","","","","","","","",""
"null","479911","SARL_v6","SARL_v6zsz7xp8q","60079f45348bb62bdcd363ff","fixation","","","img/fixation.png","null","","","test","","","","","","","","","","","","","","","","","","","",""
"41","479958","SARL_v6","SARL_v6zsz7xp8q","60079f45348bb62bdcd363ff","freq","","","img/orange_2bandit_b2.png","70","","70","test","1","","115","","","","circle","square","111","22","5","0.7207207207207207","","","","","","","",""
"null","480735","SARL_v6","SARL_v6zsz7xp8q","60079f45348bb62bdcd363ff","freq_resp","","","img/orange_2bandit_b.png","70","img/orange_2bandit_b.png","70","test","","","","","","","","","","","5","","","","","","","","",""
"null","480889","SARL_v6","SARL_v6zsz7xp8q","60079f45348bb62bdcd363ff","fixation","","","img/fixation.png","null","","","test","","","","","","","","","","","","","","","","","","","",""
"490","481382","SARL_v6","SARL_v6zsz7xp8q","60079f45348bb62bdcd363ff","freq","","","img/orange_2bandit_b2.png","70","","70","test","1","","116","","","","circle","square","112","23","5","0.7232142857142857","","","","","","","",""
"null","481697","SARL_v6","SARL_v6zsz7xp8q","60079f45348bb62bdcd363ff","freq_resp","","","img/orange_2bandit_b.png","70","img/orange_2bandit_b.png","70","test","","","","","","","","","","","5","","","","","","","","",""
"null","481851","SARL_v6","SARL_v6zsz7xp8q","60079f45348bb62bdcd363ff","fixation","","","img/fixation.png","null","","","test","","","","","","","","","","","","","","","","","","","",""
"704","482558","SARL_v6","SARL_v6zsz7xp8q","60079f45348bb62bdcd363ff","infreq","","","img/blue_2bandit_b2.png","68","","68","test","1","","117","","","","circle","square","113","24","5","0.7256637168141593","","","","","","","",""
"null","482663","SARL_v6","SARL_v6zsz7xp8q","60079f45348bb62bdcd363ff","infreq_resp","","","img/blue_2bandit_b.png","68","img/blue_2bandit_b.png","68","test","","","","","","","","","","","5","","","","","","","","",""
"null","482818","SARL_v6","SARL_v6zsz7xp8q","60079f45348bb62bdcd363ff","fixation","","","img/fixation.png","null","","","test","","","","","","","","","","","","","","","","","","","",""
"730","483552","SARL_v6","SARL_v6zsz7xp8q","60079f45348bb62bdcd363ff","freq","","","img/orange_2bandit_b2.png","70","","70","test","1","","118","","","","circle","square","114","25","5","0.7280701754385965","","","","","","","",""
"null","483627","SARL_v6","SARL_v6zsz7xp8q","60079f45348bb62bdcd363ff","freq_resp","","","img/orange_2bandit_b.png","70","img/orange_2bandit_b.png","70","test","","","","","","","","","","","5","","","","","","","","",""
"null","483783","SARL_v6","SARL_v6zsz7xp8q","60079f45348bb62bdcd363ff","fixation","","","img/fixation.png","null","","","test","","","","","","","","","","","","","","","","","","","",""
"788","484575","SARL_v6","SARL_v6zsz7xp8q","60079f45348bb62bdcd363ff","rl","","","img/black_2bandit_b2.png","74","","0","test","","","119","","","4","circle","square","","0","5","","74","4","-7","4","-7","circle","5","0"
"null","485342","SARL_v6","SARL_v6zsz7xp8q","60079f45348bb62bdcd363ff","feedback","","","<div class=""veryhighPoints""> 4 </div>","null","","na","test","","","NaN","","","","","","","","5","","74","","","","","","5",""
"null","486152","SARL_v6","SARL_v6zsz7xp8q","60079f45348bb62bdcd363ff","freq","","","img/orange_2bandit_b2.png","null","","70","test","0","","120","","","","circle","square","115","1","6","0.7217391304347827","","","","","","","",""
"null","486307","SARL_v6","SARL_v6zsz7xp8q","60079f45348bb62bdcd363ff","fixation","","","img/fixation.png","null","","","test","","","","","","","","","","","","","","","","","","","",""
"607","486918","SARL_v6","SARL_v6zsz7xp8q","60079f45348bb62bdcd363ff","freq","","","img/orange_2bandit_b2.png","70","","70","test","1","","121","","","","circle","square","116","2","6","0.7241379310344828","","","","","","","",""
"null","487117","SARL_v6","SARL_v6zsz7xp8q","60079f45348bb62bdcd363ff","freq_resp","","","img/orange_2bandit_b.png","70","img/orange_2bandit_b.png","70","test","","","","","","","","","","","6","","","","","","","","",""
"null","487271","SARL_v6","SARL_v6zsz7xp8q","60079f45348bb62bdcd363ff","fixation","","","img/fixation.png","null","","","test","","","","","","","","","","","","","","","","","","","",""
"733","488008","SARL_v6","SARL_v6zsz7xp8q","60079f45348bb62bdcd363ff","freq","","","img/orange_2bandit_b2.png","70","","70","test","1","","122","","","","circle","square","117","3","6","0.7264957264957265","","","","","","","",""
"null","488093","SARL_v6","SARL_v6zsz7xp8q","60079f45348bb62bdcd363ff","freq_resp","","","img/orange_2bandit_b.png","70","img/orange_2bandit_b.png","70","test","","","","","","","","","","","6","","","","","","","","",""
"null","488247","SARL_v6","SARL_v6zsz7xp8q","60079f45348bb62bdcd363ff","fixation","","","img/fixation.png","null","","","test","","","","","","","","","","","","","","","","","","","",""
"null","489056","SARL_v6","SARL_v6zsz7xp8q","60079f45348bb62bdcd363ff","freq","","","img/orange_2bandit_b2.png","null","","70","test","0","","123","","","","circle","square","118","4","6","0.7203389830508474","","","","","","","",""
"null","489213","SARL_v6","SARL_v6zsz7xp8q","60079f45348bb62bdcd363ff","fixation","","","img/fixation.png","null","","","test","","","","","","","","","","","","","","","","","","","",""
"86","489304","SARL_v6","SARL_v6zsz7xp8q","60079f45348bb62bdcd363ff","freq","","","img/orange_2bandit_b2.png","70","","70","test","1","","124","","","","circle","square","119","5","6","0.7226890756302521","","","","","","","",""
"null","490031","SARL_v6","SARL_v6zsz7xp8q","60079f45348bb62bdcd363ff","freq_resp","","","img/orange_2bandit_b.png","70","img/orange_2bandit_b.png","70","test","","","","","","","","","","","6","","","","","","","","",""
"null","490185","SARL_v6","SARL_v6zsz7xp8q","60079f45348bb62bdcd363ff","fixation","","","img/fixation.png","null","","","test","","","","","","","","","","","","","","","","","","","",""
"458","490648","SARL_v6","SARL_v6zsz7xp8q","60079f45348bb62bdcd363ff","freq","","","img/orange_2bandit_b2.png","68","","70","test","0","","125","","","","circle","square","120","6","6","0.7166666666666667","","","","","","","",""
"null","490999","SARL_v6","SARL_v6zsz7xp8q","60079f45348bb62bdcd363ff","freq_resp","","","img/orange_2bandit_b.png","68","img/orange_2bandit_b.png","70","test","","","","","","","","","","","6","","","","","","","","",""
"null","491154","SARL_v6","SARL_v6zsz7xp8q","60079f45348bb62bdcd363ff","fixation","","","img/fixation.png","null","","","test","","","","","","","","","","","","","","","","","","","",""
"694","491851","SARL_v6","SARL_v6zsz7xp8q","60079f45348bb62bdcd363ff","freq","","","img/orange_2bandit_b2.png","70","","70","test","1","","126","","","","circle","square","121","7","6","0.71900826446281","","","","","","","",""
"null","491966","SARL_v6","SARL_v6zsz7xp8q","60079f45348bb62bdcd363ff","freq_resp","","","img/orange_2bandit_b.png","70","img/orange_2bandit_b.png","70","test","","","","","","","","","","","6","","","","","","","","",""
"null","492121","SARL_v6","SARL_v6zsz7xp8q","60079f45348bb62bdcd363ff","fixation","","","img/fixation.png","null","","","test","","","","","","","","","","","","","","","","","","","",""
"null","492932","SARL_v6","SARL_v6zsz7xp8q","60079f45348bb62bdcd363ff","freq","","","img/orange_2bandit_b2.png","null","","70","test","0","","127","","","","circle","square","122","8","6","0.7131147540983607","","","","","","","",""
"null","493086","SARL_v6","SARL_v6zsz7xp8q","60079f45348bb62bdcd363ff","fixation","","","img/fixation.png","null","","","test","","","","","","","","","","","","","","","","","","","",""
"31","493125","SARL_v6","SARL_v6zsz7xp8q","60079f45348bb62bdcd363ff","infreq","","","img/blue_2bandit_b2.png","70","","68","test","0","","128","","","","circle","square","123","9","6","0.7073170731707317","","","","","","","",""
"null","493903","SARL_v6","SARL_v6zsz7xp8q","60079f45348bb62bdcd363ff","infreq_resp","","","img/blue_2bandit_b.png","70","img/blue_2bandit_b.png","68","test","","","","","","","","","","","6","","","","","","","","",""
"null","494062","SARL_v6","SARL_v6zsz7xp8q","60079f45348bb62bdcd363ff","fixation","","","img/fixation.png","null","","","test","","","","","","","","","","","","","","","","","","","",""
"null","494871","SARL_v6","SARL_v6zsz7xp8q","60079f45348bb62bdcd363ff","freq","","","img/orange_2bandit_b2.png","null","","70","test","0","","129","","","","circle","square","124","10","6","0.7016129032258065","","","","","","","",""
"null","495025","SARL_v6","SARL_v6zsz7xp8q","60079f45348bb62bdcd363ff","fixation","","","img/fixation.png","null","","","test","","","","","","","","","","","","","","","","","","","",""
"473","495503","SARL_v6","SARL_v6zsz7xp8q","60079f45348bb62bdcd363ff","freq","","","img/orange_2bandit_b2.png","70","","70","test","1","","130","","","","circle","square","125","11","6","0.704","","","","","","","",""
"null","495834","SARL_v6","SARL_v6zsz7xp8q","60079f45348bb62bdcd363ff","freq_resp","","","img/orange_2bandit_b.png","70","img/orange_2bandit_b.png","70","test","","","","","","","","","","","6","","","","","","","","",""
"null","495992","SARL_v6","SARL_v6zsz7xp8q","60079f45348bb62bdcd363ff","fixation","","","img/fixation.png","null","","","test","","","","","","","","","","","","","","","","","","","",""
"689","496686","SARL_v6","SARL_v6zsz7xp8q","60079f45348bb62bdcd363ff","freq","","","img/orange_2bandit_b2.png","70","","70","test","1","","131","","","","circle","square","126","12","6","0.7063492063492064","","","","","","","",""
"null","496816","SARL_v6","SARL_v6zsz7xp8q","60079f45348bb62bdcd363ff","freq_resp","","","img/orange_2bandit_b.png","70","img/orange_2bandit_b.png","70","test","","","","","","","","","","","6","","","","","","","","",""
"null","496972","SARL_v6","SARL_v6zsz7xp8q","60079f45348bb62bdcd363ff","fixation","","","img/fixation.png","null","","","test","","","","","","","","","","","","","","","","","","","",""
"751","497727","SARL_v6","SARL_v6zsz7xp8q","60079f45348bb62bdcd363ff","infreq","","","img/blue_2bandit_b2.png","68","","68","test","1","","132","","","","circle","square","127","13","6","0.7086614173228346","","","","","","","",""
"null","497793","SARL_v6","SARL_v6zsz7xp8q","60079f45348bb62bdcd363ff","infreq_resp","","","img/blue_2bandit_b.png","68","img/blue_2bandit_b.png","68","test","","","","","","","","","","","6","","","","","","","","",""
"null","497949","SARL_v6","SARL_v6zsz7xp8q","60079f45348bb62bdcd363ff","fixation","","","img/fixation.png","null","","","test","","","","","","","","","","","","","","","","","","","",""
"null","498754","SARL_v6","SARL_v6zsz7xp8q","60079f45348bb62bdcd363ff","freq","","","img/orange_2bandit_b2.png","null","","70","test","0","","133","","","","circle","square","128","14","6","0.703125","","","","","","","",""
"null","498908","SARL_v6","SARL_v6zsz7xp8q","60079f45348bb62bdcd363ff","fixation","","","img/fixation.png","null","","","test","","","","","","","","","","","","","","","","","","","",""
"477","499389","SARL_v6","SARL_v6zsz7xp8q","60079f45348bb62bdcd363ff","freq","","","img/orange_2bandit_b2.png","70","","70","test","1","","134","","","","circle","square","129","15","6","0.7054263565891473","","","","","","","",""
"null","499720","SARL_v6","SARL_v6zsz7xp8q","60079f45348bb62bdcd363ff","freq_resp","","","img/orange_2bandit_b.png","70","img/orange_2bandit_b.png","70","test","","","","","","","","","","","6","","","","","","","","",""
"null","499874","SARL_v6","SARL_v6zsz7xp8q","60079f45348bb62bdcd363ff","fixation","","","img/fixation.png","null","","","test","","","","","","","","","","","","","","","","","","","",""
"552","500430","SARL_v6","SARL_v6zsz7xp8q","60079f45348bb62bdcd363ff","freq","","","img/orange_2bandit_b2.png","70","","70","test","1","","135","","","","circle","square","130","16","6","0.7076923076923077","","","","","","","",""
"null","500697","SARL_v6","SARL_v6zsz7xp8q","60079f45348bb62bdcd363ff","freq_resp","","","img/orange_2bandit_b.png","70","img/orange_2bandit_b.png","70","test","","","","","","","","","","","6","","","","","","","","",""
"null","500866","SARL_v6","SARL_v6zsz7xp8q","60079f45348bb62bdcd363ff","fixation","","","img/fixation.png","null","","","test","","","","","","","","","","","","","","","","","","","",""
"720","501591","SARL_v6","SARL_v6zsz7xp8q","60079f45348bb62bdcd363ff","infreq","","","img/blue_2bandit_b2.png","68","","68","test","1","","136","","","","circle","square","131","17","6","0.7099236641221374","","","","","","","",""
"null","501676","SARL_v6","SARL_v6zsz7xp8q","60079f45348bb62bdcd363ff","infreq_resp","","","img/blue_2bandit_b.png","68","img/blue_2bandit_b.png","68","test","","","","","","","","","","","6","","","","","","","","",""
"null","501845","SARL_v6","SARL_v6zsz7xp8q","60079f45348bb62bdcd363ff","fixation","","","img/fixation.png","null","","","test","","","","","","","","","","","","","","","","","","","",""
"null","502654","SARL_v6","SARL_v6zsz7xp8q","60079f45348bb62bdcd363ff","freq","","","img/orange_2bandit_b2.png","null","","70","test","0","","137","","","","circle","square","132","18","6","0.7045454545454546","","","","","","","",""
"null","502808","SARL_v6","SARL_v6zsz7xp8q","60079f45348bb62bdcd363ff","fixation","","","img/fixation.png","null","","","test","","","","","","","","","","","","","","","","","","","",""
"403","503215","SARL_v6","SARL_v6zsz7xp8q","60079f45348bb62bdcd363ff","freq","","","img/orange_2bandit_b2.png","70","","70","test","1","","138","","","","circle","square","133","19","6","0.706766917293233","","","","","","","",""
"null","503619","SARL_v6","SARL_v6zsz7xp8q","60079f45348bb62bdcd363ff","freq_resp","","","img/orange_2bandit_b.png","70","img/orange_2bandit_b.png","70","test","","","","","","","","","","","6","","","","","","","","",""
"null","503773","SARL_v6","SARL_v6zsz7xp8q","60079f45348bb62bdcd363ff","fixation","","","img/fixation.png","null","","","test","","","","","","","","","","","","","","","","","","","",""
"588","504366","SARL_v6","SARL_v6zsz7xp8q","60079f45348bb62bdcd363ff","freq","","","img/orange_2bandit_b2.png","70","","70","test","1","","139","","","","circle","square","134","20","6","0.7089552238805971","","","","","","","",""
"null","504585","SARL_v6","SARL_v6zsz7xp8q","60079f45348bb62bdcd363ff","freq_resp","","","img/orange_2bandit_b.png","70","img/orange_2bandit_b.png","70","test","","","","","","","","","","","6","","","","","","","","",""
"null","504753","SARL_v6","SARL_v6zsz7xp8q","60079f45348bb62bdcd363ff","fixation","","","img/fixation.png","null","","","test","","","","","","","","","","","","","","","","","","","",""
"null","505560","SARL_v6","SARL_v6zsz7xp8q","60079f45348bb62bdcd363ff","freq","","","img/orange_2bandit_b2.png","null","","70","test","0","","140","","","","circle","square","135","21","6","0.7037037037037037","","","","","","","",""
"null","505716","SARL_v6","SARL_v6zsz7xp8q","60079f45348bb62bdcd363ff","fixation","","","img/fixation.png","null","","","test","","","","","","","","","","","","","","","","","","","",""
"453","506174","SARL_v6","SARL_v6zsz7xp8q","60079f45348bb62bdcd363ff","freq","","","img/orange_2bandit_b2.png","70","","70","test","1","","141","","","","circle","square","136","22","6","0.7058823529411765","","","","","","","",""
"null","506528","SARL_v6","SARL_v6zsz7xp8q","60079f45348bb62bdcd363ff","freq_resp","","","img/orange_2bandit_b.png","70","img/orange_2bandit_b.png","70","test","","","","","","","","","","","6","","","","","","","","",""
"null","506687","SARL_v6","SARL_v6zsz7xp8q","60079f45348bb62bdcd363ff","fixation","","","img/fixation.png","null","","","test","","","","","","","","","","","","","","","","","","","",""
"603","507294","SARL_v6","SARL_v6zsz7xp8q","60079f45348bb62bdcd363ff","freq","","","img/orange_2bandit_b2.png","70","","70","test","1","","142","","","","circle","square","137","23","6","0.708029197080292","","","","","","","",""
"null","507500","SARL_v6","SARL_v6zsz7xp8q","60079f45348bb62bdcd363ff","freq_resp","","","img/orange_2bandit_b.png","70","img/orange_2bandit_b.png","70","test","","","","","","","","","","","6","","","","","","","","",""
"null","507657","SARL_v6","SARL_v6zsz7xp8q","60079f45348bb62bdcd363ff","fixation","","","img/fixation.png","null","","","test","","","","","","","","","","","","","","","","","","","",""
"964","508625","SARL_v6","SARL_v6zsz7xp8q","60079f45348bb62bdcd363ff","rl","","","img/black_2bandit_b2.png","74","","0","test","","","143","","","-4","circle","square","","0","6","","74","-4","-1","-4","-1","circle","6","0"
"null","509383","SARL_v6","SARL_v6zsz7xp8q","60079f45348bb62bdcd363ff","feedback","","","<div class=""verylowPoints""> -4 </div>","null","","na","test","","","NaN","","","","","","","","6","","74","","","","","","6",""
"null","510195","SARL_v6","SARL_v6zsz7xp8q","60079f45348bb62bdcd363ff","freq","","","img/orange_2bandit_b2.png","null","","70","test","0","","144","","","","circle","square","138","1","7","0.7028985507246377","","","","","","","",""
"null","510349","SARL_v6","SARL_v6zsz7xp8q","60079f45348bb62bdcd363ff","fixation","","","img/fixation.png","null","","","test","","","","","","","","","","","","","","","","","","","",""
"572","510925","SARL_v6","SARL_v6zsz7xp8q","60079f45348bb62bdcd363ff","freq","","","img/orange_2bandit_b2.png","70","","70","test","1","","145","","","","circle","square","139","2","7","0.7050359712230215","","","","","","","",""
"null","511161","SARL_v6","SARL_v6zsz7xp8q","60079f45348bb62bdcd363ff","freq_resp","","","img/orange_2bandit_b.png","70","img/orange_2bandit_b.png","70","test","","","","","","","","","","","7","","","","","","","","",""
"null","511315","SARL_v6","SARL_v6zsz7xp8q","60079f45348bb62bdcd363ff","fixation","","","img/fixation.png","null","","","test","","","","","","","","","","","","","","","","","","","",""
