"rt","time_elapsed","expId","subject","prolificID","trialType","rlType","attType","stimulus","key_press","stim","corrresp","phase","corr","pracCounter","trialNum","rewardOne","rewardTwo","reward","bandOne","bandTwo","attentionNum","attentionRunNum","blockNum","performance","bandChosen","circleVal","squareVal","bandOneVal","bandTwoVal","shapeChosen","rlNum","badFlag"
"4346.5","4353","SARL_v6","SARL_v6xe9oz1l8","62e7f9fec0521e596587319d","","","","","","","","","","","","","","","","","","","","","","","","","","","",""
"","7693","SARL_v6","SARL_v6xe9oz1l8","62e7f9fec0521e596587319d","fullscreen","fullscreen","fullscreen","","","","","","","","","","","","","","","","","","","","","","","","",""
"179605.80000019073","187298","SARL_v6","SARL_v6xe9oz1l8","62e7f9fec0521e596587319d","","","","","","","","","","","","","","","","","","","","","","","","","","","",""
"null","188110","SARL_v6","SARL_v6xe9oz1l8","62e7f9fec0521e596587319d","freqPrac","","","img/orange_2bandit_a2.png","null","img/orange_2bandit_a2.png","70","prac","0","1","","","","","","","","","","","","","","","","","",""
"null","189131","SARL_v6","SARL_v6xe9oz1l8","62e7f9fec0521e596587319d","feedback","","","img/tooSlow.png","null","","na","prac","","","","","","","","","","","","","","","","","","","",""
"null","189292","SARL_v6","SARL_v6xe9oz1l8","62e7f9fec0521e596587319d","fixation","","","img/fixation.png","null","","","prac","","","","","","","","","","","","","","","","","","","",""
"null","190105","SARL_v6","SARL_v6xe9oz1l8","62e7f9fec0521e596587319d","infreqPrac","","","img/blue_2bandit_a2.png","null","img/blue_2bandit_a2.png","68","prac","0","2","","","","","","","","","","","","","","","","","",""
"null","191117","SARL_v6","SARL_v6xe9oz1l8","62e7f9fec0521e596587319d","feedback","","","img/tooSlow.png","null","","na","prac","","","","","","","","","","","","","","","","","","","",""
"null","191277","SARL_v6","SARL_v6xe9oz1l8","62e7f9fec0521e596587319d","fixation","","","img/fixation.png","null","","","prac","","","","","","","","","","","","","","","","","","","",""
"362.5","191642","SARL_v6","SARL_v6xe9oz1l8","62e7f9fec0521e596587319d","freqPrac","","","img/orange_2bandit_a2.png","70","img/orange_2bandit_a2.png","70","prac","1","2","","","","","","","","","","","","","","","","","",""
"362.5","192089","SARL_v6","SARL_v6xe9oz1l8","62e7f9fec0521e596587319d","freqPrac_resp","","","img/orange_2bandit_a.png","70","img/orange_2bandit_a.png","70","prac","","","","","","","","","","","","","","","","","","","",""
"null","192251","SARL_v6","SARL_v6xe9oz1l8","62e7f9fec0521e596587319d","fixation","","","img/fixation.png","null","","","prac","","","","","","","","","","","","","","","","","","","",""
"491.5999994277954","192745","SARL_v6","SARL_v6xe9oz1l8","62e7f9fec0521e596587319d","infreqPrac","","","img/blue_2bandit_a2.png","68","img/blue_2bandit_a2.png","68","prac","1","2","","","","","","","","","","","","","","","","","",""
"491.5999994277954","193065","SARL_v6","SARL_v6xe9oz1l8","62e7f9fec0521e596587319d","infreqPrac_resp","","","img/blue_2bandit_a.png","68","img/blue_2bandit_a.png","68","prac","","","","","","","","","","","","","","","","","","","",""
"null","193224","SARL_v6","SARL_v6xe9oz1l8","62e7f9fec0521e596587319d","fixation","","","img/fixation.png","null","","","prac","","","","","","","","","","","","","","","","","","","",""
"374.8999996185303","193601","SARL_v6","SARL_v6xe9oz1l8","62e7f9fec0521e596587319d","infreqPrac","","","img/blue_2bandit_a2.png","68","img/blue_2bandit_a2.png","68","prac","1","2","","","","","","","","","","","","","","","","","",""
"374.8999996185303","194040","SARL_v6","SARL_v6xe9oz1l8","62e7f9fec0521e596587319d","infreqPrac_resp","","","img/blue_2bandit_a.png","68","img/blue_2bandit_a.png","68","prac","","","","","","","","","","","","","","","","","","","",""
"null","194204","SARL_v6","SARL_v6xe9oz1l8","62e7f9fec0521e596587319d","fixation","","","img/fixation.png","null","","","prac","","","","","","","","","","","","","","","","","","","",""
"306.4000005722046","194513","SARL_v6","SARL_v6xe9oz1l8","62e7f9fec0521e596587319d","infreqPrac","","","img/blue_2bandit_a2.png","68","img/blue_2bandit_a2.png","68","prac","1","2","","","","","","","","","","","","","","","","","",""
"306.4000005722046","195016","SARL_v6","SARL_v6xe9oz1l8","62e7f9fec0521e596587319d","infreqPrac_resp","","","img/blue_2bandit_a.png","68","img/blue_2bandit_a.png","68","prac","","","","","","","","","","","","","","","","","","","",""
"null","195179","SARL_v6","SARL_v6xe9oz1l8","62e7f9fec0521e596587319d","fixation","","","img/fixation.png","null","","","prac","","","","","","","","","","","","","","","","","","","",""
"428.1000003814697","195609","SARL_v6","SARL_v6xe9oz1l8","62e7f9fec0521e596587319d","freqPrac","","","img/orange_2bandit_a2.png","70","img/orange_2bandit_a2.png","70","prac","1","2","","","","","","","","","","","","","","","","","",""
"428.1000003814697","195992","SARL_v6","SARL_v6xe9oz1l8","62e7f9fec0521e596587319d","freqPrac_resp","","","img/orange_2bandit_a.png","70","img/orange_2bandit_a.png","70","prac","","","","","","","","","","","","","","","","","","","",""
"null","196151","SARL_v6","SARL_v6xe9oz1l8","62e7f9fec0521e596587319d","fixation","","","img/fixation.png","null","","","prac","","","","","","","","","","","","","","","","","","","",""
"439.30000019073486","196593","SARL_v6","SARL_v6xe9oz1l8","62e7f9fec0521e596587319d","infreqPrac","","","img/blue_2bandit_a2.png","68","img/blue_2bandit_a2.png","68","prac","1","2","","","","","","","","","","","","","","","","","",""
"439.30000019073486","196972","SARL_v6","SARL_v6xe9oz1l8","62e7f9fec0521e596587319d","infreqPrac_resp","","","img/blue_2bandit_a.png","68","img/blue_2bandit_a.png","68","prac","","","","","","","","","","","","","","","","","","","",""
"null","197128","SARL_v6","SARL_v6xe9oz1l8","62e7f9fec0521e596587319d","fixation","","","img/fixation.png","null","","","prac","","","","","","","","","","","","","","","","","","","",""
"446.0999994277954","197577","SARL_v6","SARL_v6xe9oz1l8","62e7f9fec0521e596587319d","freqPrac","","","img/orange_2bandit_a2.png","70","img/orange_2bandit_a2.png","70","prac","1","2","","","","","","","","","","","","","","","","","",""
"446.0999994277954","197946","SARL_v6","SARL_v6xe9oz1l8","62e7f9fec0521e596587319d","freqPrac_resp","","","img/orange_2bandit_a.png","70","img/orange_2bandit_a.png","70","prac","","","","","","","","","","","","","","","","","","","",""
"null","198104","SARL_v6","SARL_v6xe9oz1l8","62e7f9fec0521e596587319d","fixation","","","img/fixation.png","null","","","prac","","","","","","","","","","","","","","","","","","","",""
"422.5","198529","SARL_v6","SARL_v6xe9oz1l8","62e7f9fec0521e596587319d","freqPrac","","","img/orange_2bandit_a2.png","70","img/orange_2bandit_a2.png","70","prac","1","2","","","","","","","","","","","","","","","","","",""
"422.5","198924","SARL_v6","SARL_v6xe9oz1l8","62e7f9fec0521e596587319d","freqPrac_resp","","","img/orange_2bandit_a.png","70","img/orange_2bandit_a.png","70","prac","","","","","","","","","","","","","","","","","","","",""
"null","199084","SARL_v6","SARL_v6xe9oz1l8","62e7f9fec0521e596587319d","fixation","","","img/fixation.png","null","","","prac","","","","","","","","","","","","","","","","","","","",""
"13934.699999809265","213021","SARL_v6","SARL_v6xe9oz1l8","62e7f9fec0521e596587319d","","","","","","","","prac","","","","","","","","","","","","","","","","","","","",""
"null","214540","SARL_v6","SARL_v6xe9oz1l8","62e7f9fec0521e596587319d","rlPractice","","","img/black_2bandit_a2.png","null","img/black_2bandit_a2.png","","prac","","","0","","","","","","","","","","","","","","","","",""
"null","215308","SARL_v6","SARL_v6xe9oz1l8","62e7f9fec0521e596587319d","feedback","","","<div font size = 80> TOO SLOW  </div>","null","","na","prac","","","1","10","-14","10","","","","","","","","","","","","","",""
"null","215468","SARL_v6","SARL_v6xe9oz1l8","62e7f9fec0521e596587319d","fixation","","","img/fixation.png","null","","","prac","","","","","","","","","","","","","","","","","","","",""
"560.6999998092651","216031","SARL_v6","SARL_v6xe9oz1l8","62e7f9fec0521e596587319d","rlPractice","","","img/black_2bandit_a2.png","74","img/black_2bandit_a2.png","","prac","","","1","","","","","","","","","","","","","","","","",""
"null","216793","SARL_v6","SARL_v6xe9oz1l8","62e7f9fec0521e596587319d","feedback","","","<div class=""verylowPoints_sq""> -5 </div>","null","","na","prac","","","2","5","-5","5","","","","","","","","","","","","","",""
"null","216951","SARL_v6","SARL_v6xe9oz1l8","62e7f9fec0521e596587319d","fixation","","","img/fixation.png","null","","","prac","","","","","","","","","","","","","","","","","","","",""
"333.19999980926514","217287","SARL_v6","SARL_v6xe9oz1l8","62e7f9fec0521e596587319d","rlPractice","","","img/black_2bandit_a2.png","75","img/black_2bandit_a2.png","","prac","","","2","","","","","","","","","","","","","","","","",""
"null","218057","SARL_v6","SARL_v6xe9oz1l8","62e7f9fec0521e596587319d","feedback","","","<div class=""veryhighPoints""> 30 </div>","null","","na","prac","","","3","30","2","30","","","","","","","","","","","","","",""
"null","218215","SARL_v6","SARL_v6xe9oz1l8","62e7f9fec0521e596587319d","fixation","","","img/fixation.png","null","","","prac","","","","","","","","","","","","","","","","","","","",""
"533.2999992370605","218751","SARL_v6","SARL_v6xe9oz1l8","62e7f9fec0521e596587319d","rlPractice","","","img/black_2bandit_a2.png","75","img/black_2bandit_a2.png","","prac","","","3","","","","","","","","","","","","","","","","",""
"null","219516","SARL_v6","SARL_v6xe9oz1l8","62e7f9fec0521e596587319d","feedback","","","<div class=""verylowPoints""> -2 </div>","null","","na","prac","","","4","-2","20","-2","","","","","","","","","","","","","",""
"null","219671","SARL_v6","SARL_v6xe9oz1l8","62e7f9fec0521e596587319d","fixation","","","img/fixation.png","null","","","prac","","","","","","","","","","","","","","","","","","","",""
"9779.20000076294","229452","SARL_v6","SARL_v6xe9oz1l8","62e7f9fec0521e596587319d","","","","","","","","prac","","","","","","","","","","","","","","","","","","","",""
"null","230268","SARL_v6","SARL_v6xe9oz1l8","62e7f9fec0521e596587319d","mixAttFreqPrac","","","img/orange_2bandit_a2.png","null","img/orange_2bandit_a2.png","70","prac","","","1","","","","","","","","","","","","","","","","",""
"32.40000057220459","230426","SARL_v6","SARL_v6xe9oz1l8","62e7f9fec0521e596587319d","fixation","","","img/fixation.png","70","","","prac","","","","","","","","","","","","","","","","","","","",""
"null","231242","SARL_v6","SARL_v6xe9oz1l8","62e7f9fec0521e596587319d","mixAttInfreqPrac","","","img/blue_2bandit_a2.png","null","img/blue_2bandit_a2.png","68","prac","","","2","","","","","","","","","","","","","","","","",""
"null","231403","SARL_v6","SARL_v6xe9oz1l8","62e7f9fec0521e596587319d","fixation","","","img/fixation.png","null","","","prac","","","","","","","","","","","","","","","","","","","",""
"240.69999980926514","231647","SARL_v6","SARL_v6xe9oz1l8","62e7f9fec0521e596587319d","mixAttInfreqPrac","","","img/blue_2bandit_a2.png","70","img/blue_2bandit_a2.png","68","prac","","","3","","","","","","","","","","","","","","","","",""
"240.69999980926514","232220","SARL_v6","SARL_v6xe9oz1l8","62e7f9fec0521e596587319d","infreqPrac_resp","","","img/blue_2bandit_a.png","70","img/orange_2bandit_a.png","68","prac","","","3","","","","","","","","","","","","","","","","",""
"null","232380","SARL_v6","SARL_v6xe9oz1l8","62e7f9fec0521e596587319d","fixation","","","img/fixation.png","null","","","prac","","","","","","","","","","","","","","","","","","","",""
"360.6000003814697","232743","SARL_v6","SARL_v6xe9oz1l8","62e7f9fec0521e596587319d","mixAttInfreqPrac","","","img/blue_2bandit_a2.png","68","img/blue_2bandit_a2.png","68","prac","","","4","","","","","","","","","","","","","","","","",""
"360.6000003814697","233191","SARL_v6","SARL_v6xe9oz1l8","62e7f9fec0521e596587319d","infreqPrac_resp","","","img/blue_2bandit_a.png","68","img/orange_2bandit_a.png","68","prac","","","4","","","","","","","","","","","","","","","","",""
"null","233353","SARL_v6","SARL_v6xe9oz1l8","62e7f9fec0521e596587319d","fixation","","","img/fixation.png","null","","","prac","","","","","","","","","","","","","","","","","","","",""
"410.3999996185303","233766","SARL_v6","SARL_v6xe9oz1l8","62e7f9fec0521e596587319d","mixAttFreqPrac","","","img/orange_2bandit_a2.png","70","img/orange_2bandit_a2.png","70","prac","","","5","","","","","","","","","","","","","","","","",""
"410.3999996185303","234168","SARL_v6","SARL_v6xe9oz1l8","62e7f9fec0521e596587319d","freqPrac_resp","","","img/orange_2bandit_a.png","70","img/orange_2bandit_a.png","70","prac","","","5","","","","","","","","","","","","","","","","",""
"null","234332","SARL_v6","SARL_v6xe9oz1l8","62e7f9fec0521e596587319d","fixation","","","img/fixation.png","null","","","prac","","","","","","","","","","","","","","","","","","","",""
"680.6999998092651","235015","SARL_v6","SARL_v6xe9oz1l8","62e7f9fec0521e596587319d","mixRLPractice","","","img/black_2bandit_a2.png","74","img/black_2bandit_a2.png","","prac","","","5","","","","","","","","","","","","","","","","",""
"null","235788","SARL_v6","SARL_v6xe9oz1l8","62e7f9fec0521e596587319d","feedback","","","<div class=""veryhighPoints_sq""> 10 </div>","null","","na","prac","","","6","-14","10","-14","","","","","","","","","","","","","",""
"null","235946","SARL_v6","SARL_v6xe9oz1l8","62e7f9fec0521e596587319d","fixation","","","img/fixation.png","null","","","prac","","","","","","","","","","","","","","","","","","","",""
"null","236759","SARL_v6","SARL_v6xe9oz1l8","62e7f9fec0521e596587319d","mixAttFreqPrac","","","img/orange_2bandit_a2.png","null","img/orange_2bandit_a2.png","70","prac","","","7","","","","","","","","","","","","","","","","",""
"101.09999942779541","236920","SARL_v6","SARL_v6xe9oz1l8","62e7f9fec0521e596587319d","fixation","","","img/fixation.png","68","","","prac","","","","","","","","","","","","","","","","","","","",""
"556.5999994277954","237479","SARL_v6","SARL_v6xe9oz1l8","62e7f9fec0521e596587319d","mixAttInfreqPrac","","","img/blue_2bandit_a2.png","68","img/blue_2bandit_a2.png","68","prac","","","8","","","","","","","","","","","","","","","","",""
"556.5999994277954","237740","SARL_v6","SARL_v6xe9oz1l8","62e7f9fec0521e596587319d","infreqPrac_resp","","","img/blue_2bandit_a.png","68","img/orange_2bandit_a.png","68","prac","","","8","","","","","","","","","","","","","","","","",""
"null","237900","SARL_v6","SARL_v6xe9oz1l8","62e7f9fec0521e596587319d","fixation","","","img/fixation.png","null","","","prac","","","","","","","","","","","","","","","","","","","",""
"424.19999980926514","238326","SARL_v6","SARL_v6xe9oz1l8","62e7f9fec0521e596587319d","mixAttFreqPrac","","","img/orange_2bandit_a2.png","70","img/orange_2bandit_a2.png","70","prac","","","9","","","","","","","","","","","","","","","","",""
"424.19999980926514","238716","SARL_v6","SARL_v6xe9oz1l8","62e7f9fec0521e596587319d","freqPrac_resp","","","img/orange_2bandit_a.png","70","img/orange_2bandit_a.png","70","prac","","","9","","","","","","","","","","","","","","","","",""
"null","238874","SARL_v6","SARL_v6xe9oz1l8","62e7f9fec0521e596587319d","fixation","","","img/fixation.png","null","","","prac","","","","","","","","","","","","","","","","","","","",""
"450.30000019073486","239327","SARL_v6","SARL_v6xe9oz1l8","62e7f9fec0521e596587319d","mixAttFreqPrac","","","img/orange_2bandit_a2.png","70","img/orange_2bandit_a2.png","70","prac","","","10","","","","","","","","","","","","","","","","",""
"450.30000019073486","239688","SARL_v6","SARL_v6xe9oz1l8","62e7f9fec0521e596587319d","freqPrac_resp","","","img/orange_2bandit_a.png","70","img/orange_2bandit_a.png","70","prac","","","10","","","","","","","","","","","","","","","","",""
"null","239849","SARL_v6","SARL_v6xe9oz1l8","62e7f9fec0521e596587319d","fixation","","","img/fixation.png","null","","","prac","","","","","","","","","","","","","","","","","","","",""
"499.1000003814697","240351","SARL_v6","SARL_v6xe9oz1l8","62e7f9fec0521e596587319d","mixAttInfreqPrac","","","img/blue_2bandit_a2.png","68","img/blue_2bandit_a2.png","68","prac","","","11","","","","","","","","","","","","","","","","",""
"499.1000003814697","240666","SARL_v6","SARL_v6xe9oz1l8","62e7f9fec0521e596587319d","infreqPrac_resp","","","img/blue_2bandit_a.png","68","img/orange_2bandit_a.png","68","prac","","","11","","","","","","","","","","","","","","","","",""
"null","240827","SARL_v6","SARL_v6xe9oz1l8","62e7f9fec0521e596587319d","fixation","","","img/fixation.png","null","","","prac","","","","","","","","","","","","","","","","","","","",""
"568.8000001907349","241398","SARL_v6","SARL_v6xe9oz1l8","62e7f9fec0521e596587319d","mixRLPractice","","","img/black_2bandit_a2.png","74","img/black_2bandit_a2.png","","prac","","","11","","","","","","","","","","","","","","","","",""
"null","242172","SARL_v6","SARL_v6xe9oz1l8","62e7f9fec0521e596587319d","feedback","","","<div class=""verylowPoints_sq""> -5 </div>","null","","na","prac","","","12","5","-5","5","","","","","","","","","","","","","",""
"null","242331","SARL_v6","SARL_v6xe9oz1l8","62e7f9fec0521e596587319d","fixation","","","img/fixation.png","null","","","prac","","","","","","","","","","","","","","","","","","","",""
"11625.900000572205","253959","SARL_v6","SARL_v6xe9oz1l8","62e7f9fec0521e596587319d","","","","","","","","prac","","","","","","","","","","","","","","","","","","","",""
"null","254776","SARL_v6","SARL_v6xe9oz1l8","62e7f9fec0521e596587319d","freq","","","img/orange_2bandit_a2.png","null","","70","test","0","","1","","","","square","circle","1","1","1","0","","","","","","","",""
"null","254936","SARL_v6","SARL_v6xe9oz1l8","62e7f9fec0521e596587319d","fixation","","","img/fixation.png","null","","","test","","","","","","","","","","","","","","","","","","","",""
"3.8999996185302734","254942","SARL_v6","SARL_v6xe9oz1l8","62e7f9fec0521e596587319d","freq","","","img/orange_2bandit_a2.png","70","","70","test","1","","2","","","","square","circle","2","2","1","0.5","","","","","","","",""
"null","255751","SARL_v6","SARL_v6xe9oz1l8","62e7f9fec0521e596587319d","freq_resp","","","img/orange_2bandit_a.png","70","img/orange_2bandit_a.png","70","test","","","","","","","","","","","1","","","","","","","","",""
"null","255916","SARL_v6","SARL_v6xe9oz1l8","62e7f9fec0521e596587319d","fixation","","","img/fixation.png","null","","","test","","","","","","","","","","","","","","","","","","","",""
"384","256302","SARL_v6","SARL_v6xe9oz1l8","62e7f9fec0521e596587319d","freq","","","img/orange_2bandit_a2.png","70","","70","test","1","","3","","","","square","circle","3","3","1","0.6666666666666666","","","","","","","",""
"null","256728","SARL_v6","SARL_v6xe9oz1l8","62e7f9fec0521e596587319d","freq_resp","","","img/orange_2bandit_a.png","70","img/orange_2bandit_a.png","70","test","","","","","","","","","","","1","","","","","","","","",""
"null","256890","SARL_v6","SARL_v6xe9oz1l8","62e7f9fec0521e596587319d","fixation","","","img/fixation.png","null","","","test","","","","","","","","","","","","","","","","","","","",""
"369","257262","SARL_v6","SARL_v6xe9oz1l8","62e7f9fec0521e596587319d","freq","","","img/orange_2bandit_a2.png","70","","70","test","1","","4","","","","square","circle","4","4","1","0.75","","","","","","","",""
"null","257707","SARL_v6","SARL_v6xe9oz1l8","62e7f9fec0521e596587319d","freq_resp","","","img/orange_2bandit_a.png","70","img/orange_2bandit_a.png","70","test","","","","","","","","","","","1","","","","","","","","",""
"null","257863","SARL_v6","SARL_v6xe9oz1l8","62e7f9fec0521e596587319d","fixation","","","img/fixation.png","null","","","test","","","","","","","","","","","","","","","","","","","",""
"356.5","258222","SARL_v6","SARL_v6xe9oz1l8","62e7f9fec0521e596587319d","infreq","","","img/blue_2bandit_a2.png","68","","68","test","1","","5","","","","square","circle","5","5","1","0.8","","","","","","","",""
"null","258683","SARL_v6","SARL_v6xe9oz1l8","62e7f9fec0521e596587319d","infreq_resp","","","img/blue_2bandit_a.png","68","img/blue_2bandit_a.png","68","test","","","","","","","","","","","1","","","","","","","","",""
"null","258841","SARL_v6","SARL_v6xe9oz1l8","62e7f9fec0521e596587319d","fixation","","","img/fixation.png","null","","","test","","","","","","","","","","","","","","","","","","","",""
"506.30000019073486","259350","SARL_v6","SARL_v6xe9oz1l8","62e7f9fec0521e596587319d","freq","","","img/orange_2bandit_a2.png","70","","70","test","1","","6","","","","square","circle","6","6","1","0.8333333333333334","","","","","","","",""
"null","259655","SARL_v6","SARL_v6xe9oz1l8","62e7f9fec0521e596587319d","freq_resp","","","img/orange_2bandit_a.png","70","img/orange_2bandit_a.png","70","test","","","","","","","","","","","1","","","","","","","","",""
"null","259817","SARL_v6","SARL_v6xe9oz1l8","62e7f9fec0521e596587319d","fixation","","","img/fixation.png","null","","","test","","","","","","","","","","","","","","","","","","","",""
"378.19999980926514","260198","SARL_v6","SARL_v6xe9oz1l8","62e7f9fec0521e596587319d","freq","","","img/orange_2bandit_a2.png","70","","70","test","1","","7","","","","square","circle","7","7","1","0.8571428571428571","","","","","","","",""
"null","260635","SARL_v6","SARL_v6xe9oz1l8","62e7f9fec0521e596587319d","freq_resp","","","img/orange_2bandit_a.png","70","img/orange_2bandit_a.png","70","test","","","","","","","","","","","1","","","","","","","","",""
"null","260790","SARL_v6","SARL_v6xe9oz1l8","62e7f9fec0521e596587319d","fixation","","","img/fixation.png","null","","","test","","","","","","","","","","","","","","","","","","","",""
"373.4000005722046","261166","SARL_v6","SARL_v6xe9oz1l8","62e7f9fec0521e596587319d","freq","","","img/orange_2bandit_a2.png","70","","70","test","1","","8","","","","square","circle","8","8","1","0.875","","","","","","","",""
"null","261611","SARL_v6","SARL_v6xe9oz1l8","62e7f9fec0521e596587319d","freq_resp","","","img/orange_2bandit_a.png","70","img/orange_2bandit_a.png","70","test","","","","","","","","","","","1","","","","","","","","",""
"null","261767","SARL_v6","SARL_v6xe9oz1l8","62e7f9fec0521e596587319d","fixation","","","img/fixation.png","null","","","test","","","","","","","","","","","","","","","","","","","",""
"381","262150","SARL_v6","SARL_v6xe9oz1l8","62e7f9fec0521e596587319d","freq","","","img/orange_2bandit_a2.png","70","","70","test","1","","9","","","","square","circle","9","9","1","0.8888888888888888","","","","","","","",""
"null","262583","SARL_v6","SARL_v6xe9oz1l8","62e7f9fec0521e596587319d","freq_resp","","","img/orange_2bandit_a.png","70","img/orange_2bandit_a.png","70","test","","","","","","","","","","","1","","","","","","","","",""
"null","262745","SARL_v6","SARL_v6xe9oz1l8","62e7f9fec0521e596587319d","fixation","","","img/fixation.png","null","","","test","","","","","","","","","","","","","","","","","","","",""
"378.8999996185303","263126","SARL_v6","SARL_v6xe9oz1l8","62e7f9fec0521e596587319d","freq","","","img/orange_2bandit_a2.png","70","","70","test","1","","10","","","","square","circle","10","10","1","0.9","","","","","","","",""
"null","263562","SARL_v6","SARL_v6xe9oz1l8","62e7f9fec0521e596587319d","freq_resp","","","img/orange_2bandit_a.png","70","img/orange_2bandit_a.png","70","test","","","","","","","","","","","1","","","","","","","","",""
"null","263723","SARL_v6","SARL_v6xe9oz1l8","62e7f9fec0521e596587319d","fixation","","","img/fixation.png","null","","","test","","","","","","","","","","","","","","","","","","","",""
"344.5999994277954","264070","SARL_v6","SARL_v6xe9oz1l8","62e7f9fec0521e596587319d","freq","","","img/orange_2bandit_a2.png","70","","70","test","1","","11","","","","square","circle","11","11","1","0.9090909090909091","","","","","","","",""
"null","264539","SARL_v6","SARL_v6xe9oz1l8","62e7f9fec0521e596587319d","freq_resp","","","img/orange_2bandit_a.png","70","img/orange_2bandit_a.png","70","test","","","","","","","","","","","1","","","","","","","","",""
"null","264696","SARL_v6","SARL_v6xe9oz1l8","62e7f9fec0521e596587319d","fixation","","","img/fixation.png","null","","","test","","","","","","","","","","","","","","","","","","","",""
"355.70000076293945","265054","SARL_v6","SARL_v6xe9oz1l8","62e7f9fec0521e596587319d","freq","","","img/orange_2bandit_a2.png","70","","70","test","1","","12","","","","square","circle","12","12","1","0.9166666666666666","","","","","","","",""
"null","265511","SARL_v6","SARL_v6xe9oz1l8","62e7f9fec0521e596587319d","freq_resp","","","img/orange_2bandit_a.png","70","img/orange_2bandit_a.png","70","test","","","","","","","","","","","1","","","","","","","","",""
"null","265671","SARL_v6","SARL_v6xe9oz1l8","62e7f9fec0521e596587319d","fixation","","","img/fixation.png","null","","","test","","","","","","","","","","","","","","","","","","","",""
"348.4000005722046","266022","SARL_v6","SARL_v6xe9oz1l8","62e7f9fec0521e596587319d","freq","","","img/orange_2bandit_a2.png","70","","70","test","1","","13","","","","square","circle","13","13","1","0.9230769230769231","","","","","","","",""
"null","266488","SARL_v6","SARL_v6xe9oz1l8","62e7f9fec0521e596587319d","freq_resp","","","img/orange_2bandit_a.png","70","img/orange_2bandit_a.png","70","test","","","","","","","","","","","1","","","","","","","","",""
"null","266649","SARL_v6","SARL_v6xe9oz1l8","62e7f9fec0521e596587319d","fixation","","","img/fixation.png","null","","","test","","","","","","","","","","","","","","","","","","","",""
"386.3999996185303","267038","SARL_v6","SARL_v6xe9oz1l8","62e7f9fec0521e596587319d","freq","","","img/orange_2bandit_a2.png","70","","70","test","1","","14","","","","square","circle","14","14","1","0.9285714285714286","","","","","","","",""
"null","267467","SARL_v6","SARL_v6xe9oz1l8","62e7f9fec0521e596587319d","freq_resp","","","img/orange_2bandit_a.png","70","img/orange_2bandit_a.png","70","test","","","","","","","","","","","1","","","","","","","","",""
"null","267627","SARL_v6","SARL_v6xe9oz1l8","62e7f9fec0521e596587319d","fixation","","","img/fixation.png","null","","","test","","","","","","","","","","","","","","","","","","","",""
"416.30000019073486","268046","SARL_v6","SARL_v6xe9oz1l8","62e7f9fec0521e596587319d","freq","","","img/orange_2bandit_a2.png","70","","70","test","1","","15","","","","square","circle","15","15","1","0.9333333333333333","","","","","","","",""
"null","268441","SARL_v6","SARL_v6xe9oz1l8","62e7f9fec0521e596587319d","freq_resp","","","img/orange_2bandit_a.png","70","img/orange_2bandit_a.png","70","test","","","","","","","","","","","1","","","","","","","","",""
"null","268600","SARL_v6","SARL_v6xe9oz1l8","62e7f9fec0521e596587319d","fixation","","","img/fixation.png","null","","","test","","","","","","","","","","","","","","","","","","","",""
"378.8999996185303","268982","SARL_v6","SARL_v6xe9oz1l8","62e7f9fec0521e596587319d","freq","","","img/orange_2bandit_a2.png","70","","70","test","1","","16","","","","square","circle","16","16","1","0.9375","","","","","","","",""
"null","269418","SARL_v6","SARL_v6xe9oz1l8","62e7f9fec0521e596587319d","freq_resp","","","img/orange_2bandit_a.png","70","img/orange_2bandit_a.png","70","test","","","","","","","","","","","1","","","","","","","","",""
"null","269575","SARL_v6","SARL_v6xe9oz1l8","62e7f9fec0521e596587319d","fixation","","","img/fixation.png","null","","","test","","","","","","","","","","","","","","","","","","","",""
"475.9000005722046","270054","SARL_v6","SARL_v6xe9oz1l8","62e7f9fec0521e596587319d","infreq","","","img/blue_2bandit_a2.png","68","","68","test","1","","17","","","","square","circle","17","17","1","0.9411764705882353","","","","","","","",""
"null","270395","SARL_v6","SARL_v6xe9oz1l8","62e7f9fec0521e596587319d","infreq_resp","","","img/blue_2bandit_a.png","68","img/blue_2bandit_a.png","68","test","","","","","","","","","","","1","","","","","","","","",""
"null","270551","SARL_v6","SARL_v6xe9oz1l8","62e7f9fec0521e596587319d","fixation","","","img/fixation.png","null","","","test","","","","","","","","","","","","","","","","","","","",""
"460.5","271014","SARL_v6","SARL_v6xe9oz1l8","62e7f9fec0521e596587319d","freq","","","img/orange_2bandit_a2.png","70","","70","test","1","","18","","","","square","circle","18","18","1","0.9444444444444444","","","","","","","",""
"null","271370","SARL_v6","SARL_v6xe9oz1l8","62e7f9fec0521e596587319d","freq_resp","","","img/orange_2bandit_a.png","70","img/orange_2bandit_a.png","70","test","","","","","","","","","","","1","","","","","","","","",""
"null","271529","SARL_v6","SARL_v6xe9oz1l8","62e7f9fec0521e596587319d","fixation","","","img/fixation.png","null","","","test","","","","","","","","","","","","","","","","","","","",""
"409.80000019073486","271942","SARL_v6","SARL_v6xe9oz1l8","62e7f9fec0521e596587319d","freq","","","img/orange_2bandit_a2.png","70","","70","test","1","","19","","","","square","circle","19","19","1","0.9473684210526315","","","","","","","",""
"null","272346","SARL_v6","SARL_v6xe9oz1l8","62e7f9fec0521e596587319d","freq_resp","","","img/orange_2bandit_a.png","70","img/orange_2bandit_a.png","70","test","","","","","","","","","","","1","","","","","","","","",""
"null","272507","SARL_v6","SARL_v6xe9oz1l8","62e7f9fec0521e596587319d","fixation","","","img/fixation.png","null","","","test","","","","","","","","","","","","","","","","","","","",""
"640.1999998092651","273150","SARL_v6","SARL_v6xe9oz1l8","62e7f9fec0521e596587319d","rl","","","img/black_2bandit_a2.png","74","","0","test","","","20","","","-3","square","circle","","0","1","","74","-3","-3","-3","-3","square","1","0"
"null","273915","SARL_v6","SARL_v6xe9oz1l8","62e7f9fec0521e596587319d","feedback","","","<div class=""verylowPoints_sq""> -3 </div>","null","","na","test","","","NaN","","","","","","","","1","","74","","","","","","1",""
"480.29999923706055","274398","SARL_v6","SARL_v6xe9oz1l8","62e7f9fec0521e596587319d","freq","","","img/orange_2bandit_a2.png","70","","70","test","1","","21","","","","square","circle","20","1","2","0.95","","","","","","","",""
"null","274731","SARL_v6","SARL_v6xe9oz1l8","62e7f9fec0521e596587319d","freq_resp","","","img/orange_2bandit_a.png","70","img/orange_2bandit_a.png","70","test","","","","","","","","","","","2","","","","","","","","",""
"null","274887","SARL_v6","SARL_v6xe9oz1l8","62e7f9fec0521e596587319d","fixation","","","img/fixation.png","null","","","test","","","","","","","","","","","","","","","","","","","",""
"372.30000019073486","275262","SARL_v6","SARL_v6xe9oz1l8","62e7f9fec0521e596587319d","freq","","","img/orange_2bandit_a2.png","70","","70","test","1","","22","","","","square","circle","21","2","2","0.9523809523809523","","","","","","","",""
"null","275702","SARL_v6","SARL_v6xe9oz1l8","62e7f9fec0521e596587319d","freq_resp","","","img/orange_2bandit_a.png","70","img/orange_2bandit_a.png","70","test","","","","","","","","","","","2","","","","","","","","",""
"null","275866","SARL_v6","SARL_v6xe9oz1l8","62e7f9fec0521e596587319d","fixation","","","img/fixation.png","null","","","test","","","","","","","","","","","","","","","","","","","",""
"313.30000019073486","276182","SARL_v6","SARL_v6xe9oz1l8","62e7f9fec0521e596587319d","freq","","","img/orange_2bandit_a2.png","70","","70","test","1","","23","","","","square","circle","22","3","2","0.9545454545454546","","","","","","","",""
"null","276679","SARL_v6","SARL_v6xe9oz1l8","62e7f9fec0521e596587319d","freq_resp","","","img/orange_2bandit_a.png","70","img/orange_2bandit_a.png","70","test","","","","","","","","","","","2","","","","","","","","",""
"null","276842","SARL_v6","SARL_v6xe9oz1l8","62e7f9fec0521e596587319d","fixation","","","img/fixation.png","null","","","test","","","","","","","","","","","","","","","","","","","",""
"337.30000019073486","277182","SARL_v6","SARL_v6xe9oz1l8","62e7f9fec0521e596587319d","freq","","","img/orange_2bandit_a2.png","70","","70","test","1","","24","","","","square","circle","23","4","2","0.9565217391304348","","","","","","","",""
"null","277659","SARL_v6","SARL_v6xe9oz1l8","62e7f9fec0521e596587319d","freq_resp","","","img/orange_2bandit_a.png","70","img/orange_2bandit_a.png","70","test","","","","","","","","","","","2","","","","","","","","",""
"null","277814","SARL_v6","SARL_v6xe9oz1l8","62e7f9fec0521e596587319d","fixation","","","img/fixation.png","null","","","test","","","","","","","","","","","","","","","","","","","",""
"308.5999994277954","278126","SARL_v6","SARL_v6xe9oz1l8","62e7f9fec0521e596587319d","freq","","","img/orange_2bandit_a2.png","70","","70","test","1","","25","","","","square","circle","24","5","2","0.9583333333333334","","","","","","","",""
"null","278635","SARL_v6","SARL_v6xe9oz1l8","62e7f9fec0521e596587319d","freq_resp","","","img/orange_2bandit_a.png","70","img/orange_2bandit_a.png","70","test","","","","","","","","","","","2","","","","","","","","",""
"null","278790","SARL_v6","SARL_v6xe9oz1l8","62e7f9fec0521e596587319d","fixation","","","img/fixation.png","null","","","test","","","","","","","","","","","","","","","","","","","",""
"348.8999996185303","279142","SARL_v6","SARL_v6xe9oz1l8","62e7f9fec0521e596587319d","freq","","","img/orange_2bandit_a2.png","70","","70","test","1","","26","","","","square","circle","25","6","2","0.96","","","","","","","",""
"null","279610","SARL_v6","SARL_v6xe9oz1l8","62e7f9fec0521e596587319d","freq_resp","","","img/orange_2bandit_a.png","70","img/orange_2bandit_a.png","70","test","","","","","","","","","","","2","","","","","","","","",""
"null","279771","SARL_v6","SARL_v6xe9oz1l8","62e7f9fec0521e596587319d","fixation","","","img/fixation.png","null","","","test","","","","","","","","","","","","","","","","","","","",""
"368.3999996185303","280142","SARL_v6","SARL_v6xe9oz1l8","62e7f9fec0521e596587319d","freq","","","img/orange_2bandit_a2.png","70","","70","test","1","","27","","","","square","circle","26","7","2","0.9615384615384616","","","","","","","",""
"null","280583","SARL_v6","SARL_v6xe9oz1l8","62e7f9fec0521e596587319d","freq_resp","","","img/orange_2bandit_a.png","70","img/orange_2bandit_a.png","70","test","","","","","","","","","","","2","","","","","","","","",""
"null","280744","SARL_v6","SARL_v6xe9oz1l8","62e7f9fec0521e596587319d","fixation","","","img/fixation.png","null","","","test","","","","","","","","","","","","","","","","","","","",""
"354.69999980926514","281102","SARL_v6","SARL_v6xe9oz1l8","62e7f9fec0521e596587319d","freq","","","img/orange_2bandit_a2.png","70","","70","test","1","","28","","","","square","circle","27","8","2","0.9629629629629629","","","","","","","",""
"null","281558","SARL_v6","SARL_v6xe9oz1l8","62e7f9fec0521e596587319d","freq_resp","","","img/orange_2bandit_a.png","70","img/orange_2bandit_a.png","70","test","","","","","","","","","","","2","","","","","","","","",""
"null","281720","SARL_v6","SARL_v6xe9oz1l8","62e7f9fec0521e596587319d","fixation","","","img/fixation.png","null","","","test","","","","","","","","","","","","","","","","","","","",""
"347.0999994277954","282070","SARL_v6","SARL_v6xe9oz1l8","62e7f9fec0521e596587319d","freq","","","img/orange_2bandit_a2.png","70","","70","test","1","","29","","","","square","circle","28","9","2","0.9642857142857143","","","","","","","",""
"null","282536","SARL_v6","SARL_v6xe9oz1l8","62e7f9fec0521e596587319d","freq_resp","","","img/orange_2bandit_a.png","70","img/orange_2bandit_a.png","70","test","","","","","","","","","","","2","","","","","","","","",""
"null","282695","SARL_v6","SARL_v6xe9oz1l8","62e7f9fec0521e596587319d","fixation","","","img/fixation.png","null","","","test","","","","","","","","","","","","","","","","","","","",""
"308.30000019073486","283006","SARL_v6","SARL_v6xe9oz1l8","62e7f9fec0521e596587319d","freq","","","img/orange_2bandit_a2.png","70","","70","test","1","","30","","","","square","circle","29","10","2","0.9655172413793104","","","","","","","",""
"null","283510","SARL_v6","SARL_v6xe9oz1l8","62e7f9fec0521e596587319d","freq_resp","","","img/orange_2bandit_a.png","70","img/orange_2bandit_a.png","70","test","","","","","","","","","","","2","","","","","","","","",""
"null","283674","SARL_v6","SARL_v6xe9oz1l8","62e7f9fec0521e596587319d","fixation","","","img/fixation.png","null","","","test","","","","","","","","","","","","","","","","","","","",""
"320.8999996185303","283998","SARL_v6","SARL_v6xe9oz1l8","62e7f9fec0521e596587319d","freq","","","img/orange_2bandit_a2.png","70","","70","test","1","","31","","","","square","circle","30","11","2","0.9666666666666667","","","","","","","",""
"null","284490","SARL_v6","SARL_v6xe9oz1l8","62e7f9fec0521e596587319d","freq_resp","","","img/orange_2bandit_a.png","70","img/orange_2bandit_a.png","70","test","","","","","","","","","","","2","","","","","","","","",""
"null","284648","SARL_v6","SARL_v6xe9oz1l8","62e7f9fec0521e596587319d","fixation","","","img/fixation.png","null","","","test","","","","","","","","","","","","","","","","","","","",""
"386.80000019073486","285038","SARL_v6","SARL_v6xe9oz1l8","62e7f9fec0521e596587319d","freq","","","img/orange_2bandit_a2.png","70","","70","test","1","","32","","","","square","circle","31","12","2","0.967741935483871","","","","","","","",""
"null","285463","SARL_v6","SARL_v6xe9oz1l8","62e7f9fec0521e596587319d","freq_resp","","","img/orange_2bandit_a.png","70","img/orange_2bandit_a.png","70","test","","","","","","","","","","","2","","","","","","","","",""
"null","285627","SARL_v6","SARL_v6xe9oz1l8","62e7f9fec0521e596587319d","fixation","","","img/fixation.png","null","","","test","","","","","","","","","","","","","","","","","","","",""
"384.4000005722046","286014","SARL_v6","SARL_v6xe9oz1l8","62e7f9fec0521e596587319d","freq","","","img/orange_2bandit_a2.png","70","","70","test","1","","33","","","","square","circle","32","13","2","0.96875","","","","","","","",""
"null","286438","SARL_v6","SARL_v6xe9oz1l8","62e7f9fec0521e596587319d","freq_resp","","","img/orange_2bandit_a.png","70","img/orange_2bandit_a.png","70","test","","","","","","","","","","","2","","","","","","","","",""
"null","286602","SARL_v6","SARL_v6xe9oz1l8","62e7f9fec0521e596587319d","fixation","","","img/fixation.png","null","","","test","","","","","","","","","","","","","","","","","","","",""
"384.5","286989","SARL_v6","SARL_v6xe9oz1l8","62e7f9fec0521e596587319d","freq","","","img/orange_2bandit_a2.png","70","","70","test","1","","34","","","","square","circle","33","14","2","0.9696969696969697","","","","","","","",""
"null","287414","SARL_v6","SARL_v6xe9oz1l8","62e7f9fec0521e596587319d","freq_resp","","","img/orange_2bandit_a.png","70","img/orange_2bandit_a.png","70","test","","","","","","","","","","","2","","","","","","","","",""
"null","287574","SARL_v6","SARL_v6xe9oz1l8","62e7f9fec0521e596587319d","fixation","","","img/fixation.png","null","","","test","","","","","","","","","","","","","","","","","","","",""
"660.3000001907349","288237","SARL_v6","SARL_v6xe9oz1l8","62e7f9fec0521e596587319d","infreq","","","img/blue_2bandit_a2.png","68","","68","test","1","","35","","","","square","circle","34","15","2","0.9705882352941176","","","","","","","",""
"null","288394","SARL_v6","SARL_v6xe9oz1l8","62e7f9fec0521e596587319d","infreq_resp","","","img/blue_2bandit_a.png","68","img/blue_2bandit_a.png","68","test","","","","","","","","","","","2","","","","","","","","",""
"null","288550","SARL_v6","SARL_v6xe9oz1l8","62e7f9fec0521e596587319d","fixation","","","img/fixation.png","null","","","test","","","","","","","","","","","","","","","","","","","",""
"573.1999998092651","289126","SARL_v6","SARL_v6xe9oz1l8","62e7f9fec0521e596587319d","freq","","","img/orange_2bandit_a2.png","70","","70","test","1","","36","","","","square","circle","35","16","2","0.9714285714285714","","","","","","","",""
"null","289369","SARL_v6","SARL_v6xe9oz1l8","62e7f9fec0521e596587319d","freq_resp","","","img/orange_2bandit_a.png","70","img/orange_2bandit_a.png","70","test","","","","","","","","","","","2","","","","","","","","",""
"null","289528","SARL_v6","SARL_v6xe9oz1l8","62e7f9fec0521e596587319d","fixation","","","img/fixation.png","null","","","test","","","","","","","","","","","","","","","","","","","",""
"346.8999996185303","289878","SARL_v6","SARL_v6xe9oz1l8","62e7f9fec0521e596587319d","freq","","","img/orange_2bandit_a2.png","70","","70","test","1","","37","","","","square","circle","36","17","2","0.9722222222222222","","","","","","","",""
"null","290345","SARL_v6","SARL_v6xe9oz1l8","62e7f9fec0521e596587319d","freq_resp","","","img/orange_2bandit_a.png","70","img/orange_2bandit_a.png","70","test","","","","","","","","","","","2","","","","","","","","",""
"null","290506","SARL_v6","SARL_v6xe9oz1l8","62e7f9fec0521e596587319d","fixation","","","img/fixation.png","null","","","test","","","","","","","","","","","","","","","","","","","",""
"424.30000019073486","290934","SARL_v6","SARL_v6xe9oz1l8","62e7f9fec0521e596587319d","freq","","","img/orange_2bandit_a2.png","70","","70","test","1","","38","","","","square","circle","37","18","2","0.972972972972973","","","","","","","",""
"null","291318","SARL_v6","SARL_v6xe9oz1l8","62e7f9fec0521e596587319d","freq_resp","","","img/orange_2bandit_a.png","70","img/orange_2bandit_a.png","70","test","","","","","","","","","","","2","","","","","","","","",""
"null","291482","SARL_v6","SARL_v6xe9oz1l8","62e7f9fec0521e596587319d","fixation","","","img/fixation.png","null","","","test","","","","","","","","","","","","","","","","","","","",""
"273.0999994277954","291757","SARL_v6","SARL_v6xe9oz1l8","62e7f9fec0521e596587319d","infreq","","","img/blue_2bandit_a2.png","70","","68","test","0","","39","","","","square","circle","38","19","2","0.9473684210526315","","","","","","","",""
"null","292293","SARL_v6","SARL_v6xe9oz1l8","62e7f9fec0521e596587319d","infreq_resp","","","img/blue_2bandit_a.png","70","img/blue_2bandit_a.png","68","test","","","","","","","","","","","2","","","","","","","","",""
"null","292458","SARL_v6","SARL_v6xe9oz1l8","62e7f9fec0521e596587319d","fixation","","","img/fixation.png","null","","","test","","","","","","","","","","","","","","","","","","","",""
"640.3999996185303","293101","SARL_v6","SARL_v6xe9oz1l8","62e7f9fec0521e596587319d","freq","","","img/orange_2bandit_a2.png","70","","70","test","1","","40","","","","square","circle","39","20","2","0.9487179487179487","","","","","","","",""
"null","293270","SARL_v6","SARL_v6xe9oz1l8","62e7f9fec0521e596587319d","freq_resp","","","img/orange_2bandit_a.png","70","img/orange_2bandit_a.png","70","test","","","","","","","","","","","2","","","","","","","","",""
"null","293434","SARL_v6","SARL_v6xe9oz1l8","62e7f9fec0521e596587319d","fixation","","","img/fixation.png","null","","","test","","","","","","","","","","","","","","","","","","","",""
"400.8999996185303","293837","SARL_v6","SARL_v6xe9oz1l8","62e7f9fec0521e596587319d","freq","","","img/orange_2bandit_a2.png","70","","70","test","1","","41","","","","square","circle","40","21","2","0.95","","","","","","","",""
"null","294248","SARL_v6","SARL_v6xe9oz1l8","62e7f9fec0521e596587319d","freq_resp","","","img/orange_2bandit_a.png","70","img/orange_2bandit_a.png","70","test","","","","","","","","","","","2","","","","","","","","",""
"null","294406","SARL_v6","SARL_v6xe9oz1l8","62e7f9fec0521e596587319d","fixation","","","img/fixation.png","null","","","test","","","","","","","","","","","","","","","","","","","",""
"340.30000019073486","294749","SARL_v6","SARL_v6xe9oz1l8","62e7f9fec0521e596587319d","freq","","","img/orange_2bandit_a2.png","70","","70","test","1","","42","","","","square","circle","41","22","2","0.9512195121951219","","","","","","","",""
"null","295223","SARL_v6","SARL_v6xe9oz1l8","62e7f9fec0521e596587319d","freq_resp","","","img/orange_2bandit_a.png","70","img/orange_2bandit_a.png","70","test","","","","","","","","","","","2","","","","","","","","",""
"null","295386","SARL_v6","SARL_v6xe9oz1l8","62e7f9fec0521e596587319d","fixation","","","img/fixation.png","null","","","test","","","","","","","","","","","","","","","","","","","",""
"904.3000001907349","296293","SARL_v6","SARL_v6xe9oz1l8","62e7f9fec0521e596587319d","rl","","","img/black_2bandit_a2.png","74","","0","test","","","43","","","-5","square","circle","","0","2","","74","-8","-5","-5","-8","square","2","0"
"null","297064","SARL_v6","SARL_v6xe9oz1l8","62e7f9fec0521e596587319d","feedback","","","<div class=""verylowPoints_sq""> -5 </div>","null","","na","test","","","NaN","","","","","","","","2","","74","","","","","","2",""
"563.0999994277954","297629","SARL_v6","SARL_v6xe9oz1l8","62e7f9fec0521e596587319d","freq","","","img/orange_2bandit_a2.png","70","","70","test","1","","44","","","","square","circle","42","1","3","0.9523809523809523","","","","","","","",""
"null","297882","SARL_v6","SARL_v6xe9oz1l8","62e7f9fec0521e596587319d","freq_resp","","","img/orange_2bandit_a.png","70","img/orange_2bandit_a.png","70","test","","","","","","","","","","","3","","","","","","","","",""
"null","298040","SARL_v6","SARL_v6xe9oz1l8","62e7f9fec0521e596587319d","fixation","","","img/fixation.png","null","","","test","","","","","","","","","","","","","","","","","","","",""
"290.80000019073486","298333","SARL_v6","SARL_v6xe9oz1l8","62e7f9fec0521e596587319d","freq","","","img/orange_2bandit_a2.png","70","","70","test","1","","45","","","","square","circle","43","2","3","0.9534883720930233","","","","","","","",""
"null","298854","SARL_v6","SARL_v6xe9oz1l8","62e7f9fec0521e596587319d","freq_resp","","","img/orange_2bandit_a.png","70","img/orange_2bandit_a.png","70","test","","","","","","","","","","","3","","","","","","","","",""
"null","299014","SARL_v6","SARL_v6xe9oz1l8","62e7f9fec0521e596587319d","fixation","","","img/fixation.png","null","","","test","","","","","","","","","","","","","","","","","","","",""
"388.79999923706055","299405","SARL_v6","SARL_v6xe9oz1l8","62e7f9fec0521e596587319d","freq","","","img/orange_2bandit_a2.png","70","","70","test","1","","46","","","","square","circle","44","3","3","0.9545454545454546","","","","","","","",""
"null","299830","SARL_v6","SARL_v6xe9oz1l8","62e7f9fec0521e596587319d","freq_resp","","","img/orange_2bandit_a.png","70","img/orange_2bandit_a.png","70","test","","","","","","","","","","","3","","","","","","","","",""
"null","299994","SARL_v6","SARL_v6xe9oz1l8","62e7f9fec0521e596587319d","fixation","","","img/fixation.png","null","","","test","","","","","","","","","","","","","","","","","","","",""
"336.1000003814697","300333","SARL_v6","SARL_v6xe9oz1l8","62e7f9fec0521e596587319d","freq","","","img/orange_2bandit_a2.png","70","","70","test","1","","47","","","","square","circle","45","4","3","0.9555555555555556","","","","","","","",""
"null","300809","SARL_v6","SARL_v6xe9oz1l8","62e7f9fec0521e596587319d","freq_resp","","","img/orange_2bandit_a.png","70","img/orange_2bandit_a.png","70","test","","","","","","","","","","","3","","","","","","","","",""
"null","300966","SARL_v6","SARL_v6xe9oz1l8","62e7f9fec0521e596587319d","fixation","","","img/fixation.png","null","","","test","","","","","","","","","","","","","","","","","","","",""
"404.3999996185303","301373","SARL_v6","SARL_v6xe9oz1l8","62e7f9fec0521e596587319d","freq","","","img/orange_2bandit_a2.png","70","","70","test","1","","48","","","","square","circle","46","5","3","0.9565217391304348","","","","","","","",""
"null","301783","SARL_v6","SARL_v6xe9oz1l8","62e7f9fec0521e596587319d","freq_resp","","","img/orange_2bandit_a.png","70","img/orange_2bandit_a.png","70","test","","","","","","","","","","","3","","","","","","","","",""
"null","301944","SARL_v6","SARL_v6xe9oz1l8","62e7f9fec0521e596587319d","fixation","","","img/fixation.png","null","","","test","","","","","","","","","","","","","","","","","","","",""
"418.8999996185303","302365","SARL_v6","SARL_v6xe9oz1l8","62e7f9fec0521e596587319d","infreq","","","img/blue_2bandit_a2.png","68","","68","test","1","","49","","","","square","circle","47","6","3","0.9574468085106383","","","","","","","",""
"null","302758","SARL_v6","SARL_v6xe9oz1l8","62e7f9fec0521e596587319d","infreq_resp","","","img/blue_2bandit_a.png","68","img/blue_2bandit_a.png","68","test","","","","","","","","","","","3","","","","","","","","",""
"null","302922","SARL_v6","SARL_v6xe9oz1l8","62e7f9fec0521e596587319d","fixation","","","img/fixation.png","null","","","test","","","","","","","","","","","","","","","","","","","",""
"552.6999998092651","303477","SARL_v6","SARL_v6xe9oz1l8","62e7f9fec0521e596587319d","freq","","","img/orange_2bandit_a2.png","70","","70","test","1","","50","","","","square","circle","48","7","3","0.9583333333333334","","","","","","","",""
"null","303735","SARL_v6","SARL_v6xe9oz1l8","62e7f9fec0521e596587319d","freq_resp","","","img/orange_2bandit_a.png","70","img/orange_2bandit_a.png","70","test","","","","","","","","","","","3","","","","","","","","",""
"null","303899","SARL_v6","SARL_v6xe9oz1l8","62e7f9fec0521e596587319d","fixation","","","img/fixation.png","null","","","test","","","","","","","","","","","","","","","","","","","",""
"400.1000003814697","304301","SARL_v6","SARL_v6xe9oz1l8","62e7f9fec0521e596587319d","freq","","","img/orange_2bandit_a2.png","70","","70","test","1","","51","","","","square","circle","49","8","3","0.9591836734693877","","","","","","","",""
"null","304711","SARL_v6","SARL_v6xe9oz1l8","62e7f9fec0521e596587319d","freq_resp","","","img/orange_2bandit_a.png","70","img/orange_2bandit_a.png","70","test","","","","","","","","","","","3","","","","","","","","",""
"null","304873","SARL_v6","SARL_v6xe9oz1l8","62e7f9fec0521e596587319d","fixation","","","img/fixation.png","null","","","test","","","","","","","","","","","","","","","","","","","",""
"337.4000005722046","305213","SARL_v6","SARL_v6xe9oz1l8","62e7f9fec0521e596587319d","freq","","","img/orange_2bandit_a2.png","70","","70","test","1","","52","","","","square","circle","50","9","3","0.96","","","","","","","",""
"null","305690","SARL_v6","SARL_v6xe9oz1l8","62e7f9fec0521e596587319d","freq_resp","","","img/orange_2bandit_a.png","70","img/orange_2bandit_a.png","70","test","","","","","","","","","","","3","","","","","","","","",""
"null","305846","SARL_v6","SARL_v6xe9oz1l8","62e7f9fec0521e596587319d","fixation","","","img/fixation.png","null","","","test","","","","","","","","","","","","","","","","","","","",""
"404.69999980926514","306253","SARL_v6","SARL_v6xe9oz1l8","62e7f9fec0521e596587319d","freq","","","img/orange_2bandit_a2.png","70","","70","test","1","","53","","","","square","circle","51","10","3","0.9607843137254902","","","","","","","",""
"null","306662","SARL_v6","SARL_v6xe9oz1l8","62e7f9fec0521e596587319d","freq_resp","","","img/orange_2bandit_a.png","70","img/orange_2bandit_a.png","70","test","","","","","","","","","","","3","","","","","","","","",""
"null","306826","SARL_v6","SARL_v6xe9oz1l8","62e7f9fec0521e596587319d","fixation","","","img/fixation.png","null","","","test","","","","","","","","","","","","","","","","","","","",""
"360.30000019073486","307189","SARL_v6","SARL_v6xe9oz1l8","62e7f9fec0521e596587319d","freq","","","img/orange_2bandit_a2.png","70","","70","test","1","","54","","","","square","circle","52","11","3","0.9615384615384616","","","","","","","",""
"null","307640","SARL_v6","SARL_v6xe9oz1l8","62e7f9fec0521e596587319d","freq_resp","","","img/orange_2bandit_a.png","70","img/orange_2bandit_a.png","70","test","","","","","","","","","","","3","","","","","","","","",""
"null","307800","SARL_v6","SARL_v6xe9oz1l8","62e7f9fec0521e596587319d","fixation","","","img/fixation.png","null","","","test","","","","","","","","","","","","","","","","","","","",""
"265.80000019073486","308069","SARL_v6","SARL_v6xe9oz1l8","62e7f9fec0521e596587319d","freq","","","img/orange_2bandit_a2.png","70","","70","test","1","","55","","","","square","circle","53","12","3","0.9622641509433962","","","","","","","",""
"null","308613","SARL_v6","SARL_v6xe9oz1l8","62e7f9fec0521e596587319d","freq_resp","","","img/orange_2bandit_a.png","70","img/orange_2bandit_a.png","70","test","","","","","","","","","","","3","","","","","","","","",""
"null","308774","SARL_v6","SARL_v6xe9oz1l8","62e7f9fec0521e596587319d","fixation","","","img/fixation.png","null","","","test","","","","","","","","","","","","","","","","","","","",""
"364.19999980926514","309141","SARL_v6","SARL_v6xe9oz1l8","62e7f9fec0521e596587319d","freq","","","img/orange_2bandit_a2.png","70","","70","test","1","","56","","","","square","circle","54","13","3","0.9629629629629629","","","","","","","",""
"null","309594","SARL_v6","SARL_v6xe9oz1l8","62e7f9fec0521e596587319d","freq_resp","","","img/orange_2bandit_a.png","70","img/orange_2bandit_a.png","70","test","","","","","","","","","","","3","","","","","","","","",""
"null","309752","SARL_v6","SARL_v6xe9oz1l8","62e7f9fec0521e596587319d","fixation","","","img/fixation.png","null","","","test","","","","","","","","","","","","","","","","","","","",""
"266.80000019073486","310021","SARL_v6","SARL_v6xe9oz1l8","62e7f9fec0521e596587319d","freq","","","img/orange_2bandit_a2.png","70","","70","test","1","","57","","","","square","circle","55","14","3","0.9636363636363636","","","","","","","",""
"null","310570","SARL_v6","SARL_v6xe9oz1l8","62e7f9fec0521e596587319d","freq_resp","","","img/orange_2bandit_a.png","70","img/orange_2bandit_a.png","70","test","","","","","","","","","","","3","","","","","","","","",""
"null","310726","SARL_v6","SARL_v6xe9oz1l8","62e7f9fec0521e596587319d","fixation","","","img/fixation.png","null","","","test","","","","","","","","","","","","","","","","","","","",""
"300.1000003814697","311029","SARL_v6","SARL_v6xe9oz1l8","62e7f9fec0521e596587319d","freq","","","img/orange_2bandit_a2.png","70","","70","test","1","","58","","","","square","circle","56","15","3","0.9642857142857143","","","","","","","",""
"null","311544","SARL_v6","SARL_v6xe9oz1l8","62e7f9fec0521e596587319d","freq_resp","","","img/orange_2bandit_a.png","70","img/orange_2bandit_a.png","70","test","","","","","","","","","","","3","","","","","","","","",""
"null","311706","SARL_v6","SARL_v6xe9oz1l8","62e7f9fec0521e596587319d","fixation","","","img/fixation.png","null","","","test","","","","","","","","","","","","","","","","","","","",""
"328.5","312037","SARL_v6","SARL_v6xe9oz1l8","62e7f9fec0521e596587319d","freq","","","img/orange_2bandit_a2.png","70","","70","test","1","","59","","","","square","circle","57","16","3","0.9649122807017544","","","","","","","",""
"null","312522","SARL_v6","SARL_v6xe9oz1l8","62e7f9fec0521e596587319d","freq_resp","","","img/orange_2bandit_a.png","70","img/orange_2bandit_a.png","70","test","","","","","","","","","","","3","","","","","","","","",""
"null","312677","SARL_v6","SARL_v6xe9oz1l8","62e7f9fec0521e596587319d","fixation","","","img/fixation.png","null","","","test","","","","","","","","","","","","","","","","","","","",""
"332.69999980926514","313013","SARL_v6","SARL_v6xe9oz1l8","62e7f9fec0521e596587319d","freq","","","img/orange_2bandit_a2.png","70","","70","test","1","","60","","","","square","circle","58","17","3","0.9655172413793104","","","","","","","",""
"null","313496","SARL_v6","SARL_v6xe9oz1l8","62e7f9fec0521e596587319d","freq_resp","","","img/orange_2bandit_a.png","70","img/orange_2bandit_a.png","70","test","","","","","","","","","","","3","","","","","","","","",""
"null","313658","SARL_v6","SARL_v6xe9oz1l8","62e7f9fec0521e596587319d","fixation","","","img/fixation.png","null","","","test","","","","","","","","","","","","","","","","","","","",""
"352.5","314013","SARL_v6","SARL_v6xe9oz1l8","62e7f9fec0521e596587319d","freq","","","img/orange_2bandit_a2.png","70","","70","test","1","","61","","","","square","circle","59","18","3","0.9661016949152542","","","","","","","",""
"null","314474","SARL_v6","SARL_v6xe9oz1l8","62e7f9fec0521e596587319d","freq_resp","","","img/orange_2bandit_a.png","70","img/orange_2bandit_a.png","70","test","","","","","","","","","","","3","","","","","","","","",""
"null","314634","SARL_v6","SARL_v6xe9oz1l8","62e7f9fec0521e596587319d","fixation","","","img/fixation.png","null","","","test","","","","","","","","","","","","","","","","","","","",""
"320.19999980926514","314957","SARL_v6","SARL_v6xe9oz1l8","62e7f9fec0521e596587319d","freq","","","img/orange_2bandit_a2.png","70","","70","test","1","","62","","","","square","circle","60","19","3","0.9666666666666667","","","","","","","",""
"null","315445","SARL_v6","SARL_v6xe9oz1l8","62e7f9fec0521e596587319d","freq_resp","","","img/orange_2bandit_a.png","70","img/orange_2bandit_a.png","70","test","","","","","","","","","","","3","","","","","","","","",""
"null","315608","SARL_v6","SARL_v6xe9oz1l8","62e7f9fec0521e596587319d","fixation","","","img/fixation.png","null","","","test","","","","","","","","","","","","","","","","","","","",""
"426.5","316037","SARL_v6","SARL_v6xe9oz1l8","62e7f9fec0521e596587319d","infreq","","","img/blue_2bandit_a2.png","68","","68","test","1","","63","","","","square","circle","61","20","3","0.9672131147540983","","","","","","","",""
"null","316422","SARL_v6","SARL_v6xe9oz1l8","62e7f9fec0521e596587319d","infreq_resp","","","img/blue_2bandit_a.png","68","img/blue_2bandit_a.png","68","test","","","","","","","","","","","3","","","","","","","","",""
"null","316586","SARL_v6","SARL_v6xe9oz1l8","62e7f9fec0521e596587319d","fixation","","","img/fixation.png","null","","","test","","","","","","","","","","","","","","","","","","","",""
"592.3999996185303","317181","SARL_v6","SARL_v6xe9oz1l8","62e7f9fec0521e596587319d","freq","","","img/orange_2bandit_a2.png","70","","70","test","1","","64","","","","square","circle","62","21","3","0.967741935483871","","","","","","","",""
"null","317397","SARL_v6","SARL_v6xe9oz1l8","62e7f9fec0521e596587319d","freq_resp","","","img/orange_2bandit_a.png","70","img/orange_2bandit_a.png","70","test","","","","","","","","","","","3","","","","","","","","",""
"null","317561","SARL_v6","SARL_v6xe9oz1l8","62e7f9fec0521e596587319d","fixation","","","img/fixation.png","null","","","test","","","","","","","","","","","","","","","","","","","",""
"345","317909","SARL_v6","SARL_v6xe9oz1l8","62e7f9fec0521e596587319d","freq","","","img/orange_2bandit_a2.png","70","","70","test","1","","65","","","","square","circle","63","22","3","0.9682539682539683","","","","","","","",""
"null","318378","SARL_v6","SARL_v6xe9oz1l8","62e7f9fec0521e596587319d","freq_resp","","","img/orange_2bandit_a.png","70","img/orange_2bandit_a.png","70","test","","","","","","","","","","","3","","","","","","","","",""
"null","318534","SARL_v6","SARL_v6xe9oz1l8","62e7f9fec0521e596587319d","fixation","","","img/fixation.png","null","","","test","","","","","","","","","","","","","","","","","","","",""
"627.8000001907349","319165","SARL_v6","SARL_v6xe9oz1l8","62e7f9fec0521e596587319d","rl","","","img/black_2bandit_a2.png","74","","0","test","","","66","","","-4","square","circle","","0","3","","74","-8","-4","-4","-8","square","3","0"
"null","319927","SARL_v6","SARL_v6xe9oz1l8","62e7f9fec0521e596587319d","feedback","","","<div class=""verylowPoints_sq""> -4 </div>","null","","na","test","","","NaN","","","","","","","","3","","74","","","","","","3",""
"618.3999996185303","320548","SARL_v6","SARL_v6xe9oz1l8","62e7f9fec0521e596587319d","freq","","","img/orange_2bandit_a2.png","70","","70","test","1","","67","","","","square","circle","64","1","4","0.96875","","","","","","","",""
"null","320743","SARL_v6","SARL_v6xe9oz1l8","62e7f9fec0521e596587319d","freq_resp","","","img/orange_2bandit_a.png","70","img/orange_2bandit_a.png","70","test","","","","","","","","","","","4","","","","","","","","",""
"null","320906","SARL_v6","SARL_v6xe9oz1l8","62e7f9fec0521e596587319d","fixation","","","img/fixation.png","null","","","test","","","","","","","","","","","","","","","","","","","",""
"344.3999996185303","321253","SARL_v6","SARL_v6xe9oz1l8","62e7f9fec0521e596587319d","freq","","","img/orange_2bandit_a2.png","70","","70","test","1","","68","","","","square","circle","65","2","4","0.9692307692307692","","","","","","","",""
"null","321717","SARL_v6","SARL_v6xe9oz1l8","62e7f9fec0521e596587319d","freq_resp","","","img/orange_2bandit_a.png","70","img/orange_2bandit_a.png","70","test","","","","","","","","","","","4","","","","","","","","",""
"null","321882","SARL_v6","SARL_v6xe9oz1l8","62e7f9fec0521e596587319d","fixation","","","img/fixation.png","null","","","test","","","","","","","","","","","","","","","","","","","",""
"376.0999994277954","322260","SARL_v6","SARL_v6xe9oz1l8","62e7f9fec0521e596587319d","freq","","","img/orange_2bandit_a2.png","70","","70","test","1","","69","","","","square","circle","66","3","4","0.9696969696969697","","","","","","","",""
"null","322698","SARL_v6","SARL_v6xe9oz1l8","62e7f9fec0521e596587319d","freq_resp","","","img/orange_2bandit_a.png","70","img/orange_2bandit_a.png","70","test","","","","","","","","","","","4","","","","","","","","",""
"null","322854","SARL_v6","SARL_v6xe9oz1l8","62e7f9fec0521e596587319d","fixation","","","img/fixation.png","null","","","test","","","","","","","","","","","","","","","","","","","",""
"364.30000019073486","323221","SARL_v6","SARL_v6xe9oz1l8","62e7f9fec0521e596587319d","freq","","","img/orange_2bandit_a2.png","70","","70","test","1","","70","","","","square","circle","67","4","4","0.9701492537313433","","","","","","","",""
"null","323669","SARL_v6","SARL_v6xe9oz1l8","62e7f9fec0521e596587319d","freq_resp","","","img/orange_2bandit_a.png","70","img/orange_2bandit_a.png","70","test","","","","","","","","","","","4","","","","","","","","",""
"null","323830","SARL_v6","SARL_v6xe9oz1l8","62e7f9fec0521e596587319d","fixation","","","img/fixation.png","null","","","test","","","","","","","","","","","","","","","","","","","",""
"387.9000005722046","324221","SARL_v6","SARL_v6xe9oz1l8","62e7f9fec0521e596587319d","freq","","","img/orange_2bandit_a2.png","70","","70","test","1","","71","","","","square","circle","68","5","4","0.9705882352941176","","","","","","","",""
"null","324647","SARL_v6","SARL_v6xe9oz1l8","62e7f9fec0521e596587319d","freq_resp","","","img/orange_2bandit_a.png","70","img/orange_2bandit_a.png","70","test","","","","","","","","","","","4","","","","","","","","",""
"null","324810","SARL_v6","SARL_v6xe9oz1l8","62e7f9fec0521e596587319d","fixation","","","img/fixation.png","null","","","test","","","","","","","","","","","","","","","","","","","",""
"384.19999980926514","325196","SARL_v6","SARL_v6xe9oz1l8","62e7f9fec0521e596587319d","freq","","","img/orange_2bandit_a2.png","70","","70","test","1","","72","","","","square","circle","69","6","4","0.9710144927536232","","","","","","","",""
"null","325625","SARL_v6","SARL_v6xe9oz1l8","62e7f9fec0521e596587319d","freq_resp","","","img/orange_2bandit_a.png","70","img/orange_2bandit_a.png","70","test","","","","","","","","","","","4","","","","","","","","",""
"null","325784","SARL_v6","SARL_v6xe9oz1l8","62e7f9fec0521e596587319d","fixation","","","img/fixation.png","null","","","test","","","","","","","","","","","","","","","","","","","",""
"298.19999980926514","326084","SARL_v6","SARL_v6xe9oz1l8","62e7f9fec0521e596587319d","freq","","","img/orange_2bandit_a2.png","70","","70","test","1","","73","","","","square","circle","70","7","4","0.9714285714285714","","","","","","","",""
"null","326598","SARL_v6","SARL_v6xe9oz1l8","62e7f9fec0521e596587319d","freq_resp","","","img/orange_2bandit_a.png","70","img/orange_2bandit_a.png","70","test","","","","","","","","","","","4","","","","","","","","",""
"null","326762","SARL_v6","SARL_v6xe9oz1l8","62e7f9fec0521e596587319d","fixation","","","img/fixation.png","null","","","test","","","","","","","","","","","","","","","","","","","",""
"376.5","327141","SARL_v6","SARL_v6xe9oz1l8","62e7f9fec0521e596587319d","freq","","","img/orange_2bandit_a2.png","70","","70","test","1","","74","","","","square","circle","71","8","4","0.971830985915493","","","","","","","",""
"null","327577","SARL_v6","SARL_v6xe9oz1l8","62e7f9fec0521e596587319d","freq_resp","","","img/orange_2bandit_a.png","70","img/orange_2bandit_a.png","70","test","","","","","","","","","","","4","","","","","","","","",""
"null","327738","SARL_v6","SARL_v6xe9oz1l8","62e7f9fec0521e596587319d","fixation","","","img/fixation.png","null","","","test","","","","","","","","","","","","","","","","","","","",""
"352.20000076293945","328092","SARL_v6","SARL_v6xe9oz1l8","62e7f9fec0521e596587319d","freq","","","img/orange_2bandit_a2.png","70","","70","test","1","","75","","","","square","circle","72","9","4","0.9722222222222222","","","","","","","",""
"null","328551","SARL_v6","SARL_v6xe9oz1l8","62e7f9fec0521e596587319d","freq_resp","","","img/orange_2bandit_a.png","70","img/orange_2bandit_a.png","70","test","","","","","","","","","","","4","","","","","","","","",""
"null","328710","SARL_v6","SARL_v6xe9oz1l8","62e7f9fec0521e596587319d","fixation","","","img/fixation.png","null","","","test","","","","","","","","","","","","","","","","","","","",""
"331.69999980926514","329044","SARL_v6","SARL_v6xe9oz1l8","62e7f9fec0521e596587319d","freq","","","img/orange_2bandit_a2.png","70","","70","test","1","","76","","","","square","circle","73","10","4","0.9726027397260274","","","","","","","",""
"null","329525","SARL_v6","SARL_v6xe9oz1l8","62e7f9fec0521e596587319d","freq_resp","","","img/orange_2bandit_a.png","70","img/orange_2bandit_a.png","70","test","","","","","","","","","","","4","","","","","","","","",""
"null","329685","SARL_v6","SARL_v6xe9oz1l8","62e7f9fec0521e596587319d","fixation","","","img/fixation.png","null","","","test","","","","","","","","","","","","","","","","","","","",""
"332.8999996185303","330021","SARL_v6","SARL_v6xe9oz1l8","62e7f9fec0521e596587319d","freq","","","img/orange_2bandit_a2.png","70","","70","test","1","","77","","","","square","circle","74","11","4","0.972972972972973","","","","","","","",""
"null","330505","SARL_v6","SARL_v6xe9oz1l8","62e7f9fec0521e596587319d","freq_resp","","","img/orange_2bandit_a.png","70","img/orange_2bandit_a.png","70","test","","","","","","","","","","","4","","","","","","","","",""
"null","330666","SARL_v6","SARL_v6xe9oz1l8","62e7f9fec0521e596587319d","fixation","","","img/fixation.png","null","","","test","","","","","","","","","","","","","","","","","","","",""
"320.3999996185303","330988","SARL_v6","SARL_v6xe9oz1l8","62e7f9fec0521e596587319d","freq","","","img/orange_2bandit_a2.png","70","","70","test","1","","78","","","","square","circle","75","12","4","0.9733333333333334","","","","","","","",""
"null","331481","SARL_v6","SARL_v6xe9oz1l8","62e7f9fec0521e596587319d","freq_resp","","","img/orange_2bandit_a.png","70","img/orange_2bandit_a.png","70","test","","","","","","","","","","","4","","","","","","","","",""
"null","331640","SARL_v6","SARL_v6xe9oz1l8","62e7f9fec0521e596587319d","fixation","","","img/fixation.png","null","","","test","","","","","","","","","","","","","","","","","","","",""
"297.6000003814697","331941","SARL_v6","SARL_v6xe9oz1l8","62e7f9fec0521e596587319d","freq","","","img/orange_2bandit_a2.png","70","","70","test","1","","79","","","","square","circle","76","13","4","0.9736842105263158","","","","","","","",""
"null","332457","SARL_v6","SARL_v6xe9oz1l8","62e7f9fec0521e596587319d","freq_resp","","","img/orange_2bandit_a.png","70","img/orange_2bandit_a.png","70","test","","","","","","","","","","","4","","","","","","","","",""
"null","332617","SARL_v6","SARL_v6xe9oz1l8","62e7f9fec0521e596587319d","fixation","","","img/fixation.png","null","","","test","","","","","","","","","","","","","","","","","","","",""
"328.6000003814697","332949","SARL_v6","SARL_v6xe9oz1l8","62e7f9fec0521e596587319d","freq","","","img/orange_2bandit_a2.png","70","","70","test","1","","80","","","","square","circle","77","14","4","0.974025974025974","","","","","","","",""
"null","333432","SARL_v6","SARL_v6xe9oz1l8","62e7f9fec0521e596587319d","freq_resp","","","img/orange_2bandit_a.png","70","img/orange_2bandit_a.png","70","test","","","","","","","","","","","4","","","","","","","","",""
"null","333591","SARL_v6","SARL_v6xe9oz1l8","62e7f9fec0521e596587319d","fixation","","","img/fixation.png","null","","","test","","","","","","","","","","","","","","","","","","","",""
"299","333893","SARL_v6","SARL_v6xe9oz1l8","62e7f9fec0521e596587319d","freq","","","img/orange_2bandit_a2.png","70","","70","test","1","","81","","","","square","circle","78","15","4","0.9743589743589743","","","","","","","",""
"null","334410","SARL_v6","SARL_v6xe9oz1l8","62e7f9fec0521e596587319d","freq_resp","","","img/orange_2bandit_a.png","70","img/orange_2bandit_a.png","70","test","","","","","","","","","","","4","","","","","","","","",""
"null","334565","SARL_v6","SARL_v6xe9oz1l8","62e7f9fec0521e596587319d","fixation","","","img/fixation.png","null","","","test","","","","","","","","","","","","","","","","","","","",""
"516.3000001907349","335084","SARL_v6","SARL_v6xe9oz1l8","62e7f9fec0521e596587319d","infreq","","","img/blue_2bandit_a2.png","68","","68","test","1","","82","","","","square","circle","79","16","4","0.9746835443037974","","","","","","","",""
"null","335385","SARL_v6","SARL_v6xe9oz1l8","62e7f9fec0521e596587319d","infreq_resp","","","img/blue_2bandit_a.png","68","img/blue_2bandit_a.png","68","test","","","","","","","","","","","4","","","","","","","","",""
"null","335544","SARL_v6","SARL_v6xe9oz1l8","62e7f9fec0521e596587319d","fixation","","","img/fixation.png","null","","","test","","","","","","","","","","","","","","","","","","","",""
"561.8999996185303","336108","SARL_v6","SARL_v6xe9oz1l8","62e7f9fec0521e596587319d","freq","","","img/orange_2bandit_a2.png","70","","70","test","1","","83","","","","square","circle","80","17","4","0.975","","","","","","","",""
"null","336358","SARL_v6","SARL_v6xe9oz1l8","62e7f9fec0521e596587319d","freq_resp","","","img/orange_2bandit_a.png","70","img/orange_2bandit_a.png","70","test","","","","","","","","","","","4","","","","","","","","",""
"null","336520","SARL_v6","SARL_v6xe9oz1l8","62e7f9fec0521e596587319d","fixation","","","img/fixation.png","null","","","test","","","","","","","","","","","","","","","","","","","",""
"546.1000003814697","337068","SARL_v6","SARL_v6xe9oz1l8","62e7f9fec0521e596587319d","infreq","","","img/blue_2bandit_a2.png","68","","68","test","1","","84","","","","square","circle","81","18","4","0.9753086419753086","","","","","","","",""
"null","337337","SARL_v6","SARL_v6xe9oz1l8","62e7f9fec0521e596587319d","infreq_resp","","","img/blue_2bandit_a.png","68","img/blue_2bandit_a.png","68","test","","","","","","","","","","","4","","","","","","","","",""
"null","337497","SARL_v6","SARL_v6xe9oz1l8","62e7f9fec0521e596587319d","fixation","","","img/fixation.png","null","","","test","","","","","","","","","","","","","","","","","","","",""
"465","337964","SARL_v6","SARL_v6xe9oz1l8","62e7f9fec0521e596587319d","freq","","","img/orange_2bandit_a2.png","70","","70","test","1","","85","","","","square","circle","82","19","4","0.975609756097561","","","","","","","",""
"null","338313","SARL_v6","SARL_v6xe9oz1l8","62e7f9fec0521e596587319d","freq_resp","","","img/orange_2bandit_a.png","70","img/orange_2bandit_a.png","70","test","","","","","","","","","","","4","","","","","","","","",""
"null","338469","SARL_v6","SARL_v6xe9oz1l8","62e7f9fec0521e596587319d","fixation","","","img/fixation.png","null","","","test","","","","","","","","","","","","","","","","","","","",""
"340.5","338813","SARL_v6","SARL_v6xe9oz1l8","62e7f9fec0521e596587319d","freq","","","img/orange_2bandit_a2.png","70","","70","test","1","","86","","","","square","circle","83","20","4","0.9759036144578314","","","","","","","",""
"null","339285","SARL_v6","SARL_v6xe9oz1l8","62e7f9fec0521e596587319d","freq_resp","","","img/orange_2bandit_a.png","70","img/orange_2bandit_a.png","70","test","","","","","","","","","","","4","","","","","","","","",""
"null","339447","SARL_v6","SARL_v6xe9oz1l8","62e7f9fec0521e596587319d","fixation","","","img/fixation.png","null","","","test","","","","","","","","","","","","","","","","","","","",""
"266.4000005722046","339716","SARL_v6","SARL_v6xe9oz1l8","62e7f9fec0521e596587319d","freq","","","img/orange_2bandit_a2.png","70","","70","test","1","","87","","","","square","circle","84","21","4","0.9761904761904762","","","","","","","",""
"null","340261","SARL_v6","SARL_v6xe9oz1l8","62e7f9fec0521e596587319d","freq_resp","","","img/orange_2bandit_a.png","70","img/orange_2bandit_a.png","70","test","","","","","","","","","","","4","","","","","","","","",""
"null","340425","SARL_v6","SARL_v6xe9oz1l8","62e7f9fec0521e596587319d","fixation","","","img/fixation.png","null","","","test","","","","","","","","","","","","","","","","","","","",""
"600.4000005722046","341028","SARL_v6","SARL_v6xe9oz1l8","62e7f9fec0521e596587319d","rl","","","img/black_2bandit_a2.png","75","","0","test","","","88","","","-12","square","circle","","0","4","","75","-12","0","0","-12","circle","4","0"
"null","341797","SARL_v6","SARL_v6xe9oz1l8","62e7f9fec0521e596587319d","feedback","","","<div class=""verylowPoints""> -12 </div>","null","","na","test","","","NaN","","","","","","","","4","","75","","","","","","4",""
"588.1000003814697","342388","SARL_v6","SARL_v6xe9oz1l8","62e7f9fec0521e596587319d","freq","","","img/orange_2bandit_a2.png","70","","70","test","1","","89","","","","square","circle","85","1","5","0.9764705882352941","","","","","","","",""
"null","342617","SARL_v6","SARL_v6xe9oz1l8","62e7f9fec0521e596587319d","freq_resp","","","img/orange_2bandit_a.png","70","img/orange_2bandit_a.png","70","test","","","","","","","","","","","5","","","","","","","","",""
"null","342776","SARL_v6","SARL_v6xe9oz1l8","62e7f9fec0521e596587319d","fixation","","","img/fixation.png","null","","","test","","","","","","","","","","","","","","","","","","","",""
"417.19999980926514","343196","SARL_v6","SARL_v6xe9oz1l8","62e7f9fec0521e596587319d","freq","","","img/orange_2bandit_a2.png","70","","70","test","1","","90","","","","square","circle","86","2","5","0.9767441860465116","","","","","","","",""
"null","343589","SARL_v6","SARL_v6xe9oz1l8","62e7f9fec0521e596587319d","freq_resp","","","img/orange_2bandit_a.png","70","img/orange_2bandit_a.png","70","test","","","","","","","","","","","5","","","","","","","","",""
"null","343752","SARL_v6","SARL_v6xe9oz1l8","62e7f9fec0521e596587319d","fixation","","","img/fixation.png","null","","","test","","","","","","","","","","","","","","","","","","","",""
"529.3999996185303","344284","SARL_v6","SARL_v6xe9oz1l8","62e7f9fec0521e596587319d","freq","","","img/orange_2bandit_a2.png","70","","70","test","1","","91","","","","square","circle","87","3","5","0.9770114942528736","","","","","","","",""
"null","344569","SARL_v6","SARL_v6xe9oz1l8","62e7f9fec0521e596587319d","freq_resp","","","img/orange_2bandit_a.png","70","img/orange_2bandit_a.png","70","test","","","","","","","","","","","5","","","","","","","","",""
"null","344729","SARL_v6","SARL_v6xe9oz1l8","62e7f9fec0521e596587319d","fixation","","","img/fixation.png","null","","","test","","","","","","","","","","","","","","","","","","","",""
"344.6000003814697","345077","SARL_v6","SARL_v6xe9oz1l8","62e7f9fec0521e596587319d","freq","","","img/orange_2bandit_a2.png","70","","70","test","1","","92","","","","square","circle","88","4","5","0.9772727272727273","","","","","","","",""
"null","345543","SARL_v6","SARL_v6xe9oz1l8","62e7f9fec0521e596587319d","freq_resp","","","img/orange_2bandit_a.png","70","img/orange_2bandit_a.png","70","test","","","","","","","","","","","5","","","","","","","","",""
"null","345701","SARL_v6","SARL_v6xe9oz1l8","62e7f9fec0521e596587319d","fixation","","","img/fixation.png","null","","","test","","","","","","","","","","","","","","","","","","","",""
"340.19999980926514","346044","SARL_v6","SARL_v6xe9oz1l8","62e7f9fec0521e596587319d","freq","","","img/orange_2bandit_a2.png","70","","70","test","1","","93","","","","square","circle","89","5","5","0.9775280898876404","","","","","","","",""
"null","346518","SARL_v6","SARL_v6xe9oz1l8","62e7f9fec0521e596587319d","freq_resp","","","img/orange_2bandit_a.png","70","img/orange_2bandit_a.png","70","test","","","","","","","","","","","5","","","","","","","","",""
"null","346681","SARL_v6","SARL_v6xe9oz1l8","62e7f9fec0521e596587319d","fixation","","","img/fixation.png","null","","","test","","","","","","","","","","","","","","","","","","","",""
"512.5","347196","SARL_v6","SARL_v6xe9oz1l8","62e7f9fec0521e596587319d","infreq","","","img/blue_2bandit_a2.png","68","","68","test","1","","94","","","","square","circle","90","6","5","0.9777777777777777","","","","","","","",""
"null","347493","SARL_v6","SARL_v6xe9oz1l8","62e7f9fec0521e596587319d","infreq_resp","","","img/blue_2bandit_a.png","68","img/blue_2bandit_a.png","68","test","","","","","","","","","","","5","","","","","","","","",""
"null","347657","SARL_v6","SARL_v6xe9oz1l8","62e7f9fec0521e596587319d","fixation","","","img/fixation.png","null","","","test","","","","","","","","","","","","","","","","","","","",""
"456.5","348116","SARL_v6","SARL_v6xe9oz1l8","62e7f9fec0521e596587319d","freq","","","img/orange_2bandit_a2.png","70","","70","test","1","","95","","","","square","circle","91","7","5","0.978021978021978","","","","","","","",""
"null","348472","SARL_v6","SARL_v6xe9oz1l8","62e7f9fec0521e596587319d","freq_resp","","","img/orange_2bandit_a.png","70","img/orange_2bandit_a.png","70","test","","","","","","","","","","","5","","","","","","","","",""
"null","348629","SARL_v6","SARL_v6xe9oz1l8","62e7f9fec0521e596587319d","fixation","","","img/fixation.png","null","","","test","","","","","","","","","","","","","","","","","","","",""
"268","348900","SARL_v6","SARL_v6xe9oz1l8","62e7f9fec0521e596587319d","freq","","","img/orange_2bandit_a2.png","70","","70","test","1","","96","","","","square","circle","92","8","5","0.9782608695652174","","","","","","","",""
"null","349444","SARL_v6","SARL_v6xe9oz1l8","62e7f9fec0521e596587319d","freq_resp","","","img/orange_2bandit_a.png","70","img/orange_2bandit_a.png","70","test","","","","","","","","","","","5","","","","","","","","",""
"null","349605","SARL_v6","SARL_v6xe9oz1l8","62e7f9fec0521e596587319d","fixation","","","img/fixation.png","null","","","test","","","","","","","","","","","","","","","","","","","",""
"332.4000005722046","349940","SARL_v6","SARL_v6xe9oz1l8","62e7f9fec0521e596587319d","freq","","","img/orange_2bandit_a2.png","70","","70","test","1","","97","","","","square","circle","93","9","5","0.978494623655914","","","","","","","",""
"null","350425","SARL_v6","SARL_v6xe9oz1l8","62e7f9fec0521e596587319d","freq_resp","","","img/orange_2bandit_a.png","70","img/orange_2bandit_a.png","70","test","","","","","","","","","","","5","","","","","","","","",""
"null","350585","SARL_v6","SARL_v6xe9oz1l8","62e7f9fec0521e596587319d","fixation","","","img/fixation.png","null","","","test","","","","","","","","","","","","","","","","","","","",""
"184.4000005722046","350772","SARL_v6","SARL_v6xe9oz1l8","62e7f9fec0521e596587319d","freq","","","img/orange_2bandit_a2.png","70","","70","test","1","","98","","","","square","circle","94","10","5","0.9787234042553191","","","","","","","",""
"null","351397","SARL_v6","SARL_v6xe9oz1l8","62e7f9fec0521e596587319d","freq_resp","","","img/orange_2bandit_a.png","70","img/orange_2bandit_a.png","70","test","","","","","","","","","","","5","","","","","","","","",""
"null","351557","SARL_v6","SARL_v6xe9oz1l8","62e7f9fec0521e596587319d","fixation","","","img/fixation.png","null","","","test","","","","","","","","","","","","","","","","","","","",""
"388.9000005722046","351948","SARL_v6","SARL_v6xe9oz1l8","62e7f9fec0521e596587319d","freq","","","img/orange_2bandit_a2.png","70","","70","test","1","","99","","","","square","circle","95","11","5","0.9789473684210527","","","","","","","",""
"null","352377","SARL_v6","SARL_v6xe9oz1l8","62e7f9fec0521e596587319d","freq_resp","","","img/orange_2bandit_a.png","70","img/orange_2bandit_a.png","70","test","","","","","","","","","","","5","","","","","","","","",""
"null","352537","SARL_v6","SARL_v6xe9oz1l8","62e7f9fec0521e596587319d","fixation","","","img/fixation.png","null","","","test","","","","","","","","","","","","","","","","","","","",""
"337.4000005722046","352877","SARL_v6","SARL_v6xe9oz1l8","62e7f9fec0521e596587319d","freq","","","img/orange_2bandit_a2.png","70","","70","test","1","","100","","","","square","circle","96","12","5","0.9791666666666666","","","","","","","",""
"null","353349","SARL_v6","SARL_v6xe9oz1l8","62e7f9fec0521e596587319d","freq_resp","","","img/orange_2bandit_a.png","70","img/orange_2bandit_a.png","70","test","","","","","","","","","","","5","","","","","","","","",""
"null","353510","SARL_v6","SARL_v6xe9oz1l8","62e7f9fec0521e596587319d","fixation","","","img/fixation.png","null","","","test","","","","","","","","","","","","","","","","","","","",""
"338.8999996185303","353852","SARL_v6","SARL_v6xe9oz1l8","62e7f9fec0521e596587319d","freq","","","img/orange_2bandit_a2.png","70","","70","test","1","","101","","","","square","circle","97","13","5","0.979381443298969","","","","","","","",""
"null","354329","SARL_v6","SARL_v6xe9oz1l8","62e7f9fec0521e596587319d","freq_resp","","","img/orange_2bandit_a.png","70","img/orange_2bandit_a.png","70","test","","","","","","","","","","","5","","","","","","","","",""
"null","354484","SARL_v6","SARL_v6xe9oz1l8","62e7f9fec0521e596587319d","fixation","","","img/fixation.png","null","","","test","","","","","","","","","","","","","","","","","","","",""
"317.0999994277954","354804","SARL_v6","SARL_v6xe9oz1l8","62e7f9fec0521e596587319d","freq","","","img/orange_2bandit_a2.png","70","","70","test","1","","102","","","","square","circle","98","14","5","0.9795918367346939","","","","","","","",""
"null","355305","SARL_v6","SARL_v6xe9oz1l8","62e7f9fec0521e596587319d","freq_resp","","","img/orange_2bandit_a.png","70","img/orange_2bandit_a.png","70","test","","","","","","","","","","","5","","","","","","","","",""
"null","355462","SARL_v6","SARL_v6xe9oz1l8","62e7f9fec0521e596587319d","fixation","","","img/fixation.png","null","","","test","","","","","","","","","","","","","","","","","","","",""
"379.30000019073486","355844","SARL_v6","SARL_v6xe9oz1l8","62e7f9fec0521e596587319d","infreq","","","img/blue_2bandit_a2.png","68","","68","test","1","","103","","","","square","circle","99","15","5","0.9797979797979798","","","","","","","",""
"null","356277","SARL_v6","SARL_v6xe9oz1l8","62e7f9fec0521e596587319d","infreq_resp","","","img/blue_2bandit_a.png","68","img/blue_2bandit_a.png","68","test","","","","","","","","","","","5","","","","","","","","",""
"null","356439","SARL_v6","SARL_v6xe9oz1l8","62e7f9fec0521e596587319d","fixation","","","img/fixation.png","null","","","test","","","","","","","","","","","","","","","","","","","",""
"474.80000019073486","356916","SARL_v6","SARL_v6xe9oz1l8","62e7f9fec0521e596587319d","freq","","","img/orange_2bandit_a2.png","70","","70","test","1","","104","","","","square","circle","100","16","5","0.98","","","","","","","",""
"null","357253","SARL_v6","SARL_v6xe9oz1l8","62e7f9fec0521e596587319d","freq_resp","","","img/orange_2bandit_a.png","70","img/orange_2bandit_a.png","70","test","","","","","","","","","","","5","","","","","","","","",""
"null","357414","SARL_v6","SARL_v6xe9oz1l8","62e7f9fec0521e596587319d","fixation","","","img/fixation.png","null","","","test","","","","","","","","","","","","","","","","","","","",""
"315","357732","SARL_v6","SARL_v6xe9oz1l8","62e7f9fec0521e596587319d","freq","","","img/orange_2bandit_a2.png","70","","70","test","1","","105","","","","square","circle","101","17","5","0.9801980198019802","","","","","","","",""
"null","358233","SARL_v6","SARL_v6xe9oz1l8","62e7f9fec0521e596587319d","freq_resp","","","img/orange_2bandit_a.png","70","img/orange_2bandit_a.png","70","test","","","","","","","","","","","5","","","","","","","","",""
"null","358389","SARL_v6","SARL_v6xe9oz1l8","62e7f9fec0521e596587319d","fixation","","","img/fixation.png","null","","","test","","","","","","","","","","","","","","","","","","","",""
"307.80000019073486","358700","SARL_v6","SARL_v6xe9oz1l8","62e7f9fec0521e596587319d","freq","","","img/orange_2bandit_a2.png","70","","70","test","1","","106","","","","square","circle","102","18","5","0.9803921568627451","","","","","","","",""
"null","359204","SARL_v6","SARL_v6xe9oz1l8","62e7f9fec0521e596587319d","freq_resp","","","img/orange_2bandit_a.png","70","img/orange_2bandit_a.png","70","test","","","","","","","","","","","5","","","","","","","","",""
"null","359365","SARL_v6","SARL_v6xe9oz1l8","62e7f9fec0521e596587319d","fixation","","","img/fixation.png","null","","","test","","","","","","","","","","","","","","","","","","","",""
"332.5","359700","SARL_v6","SARL_v6xe9oz1l8","62e7f9fec0521e596587319d","freq","","","img/orange_2bandit_a2.png","70","","70","test","1","","107","","","","square","circle","103","19","5","0.9805825242718447","","","","","","","",""
"null","360184","SARL_v6","SARL_v6xe9oz1l8","62e7f9fec0521e596587319d","freq_resp","","","img/orange_2bandit_a.png","70","img/orange_2bandit_a.png","70","test","","","","","","","","","","","5","","","","","","","","",""
"null","360343","SARL_v6","SARL_v6xe9oz1l8","62e7f9fec0521e596587319d","fixation","","","img/fixation.png","null","","","test","","","","","","","","","","","","","","","","","","","",""
"370.5","360716","SARL_v6","SARL_v6xe9oz1l8","62e7f9fec0521e596587319d","freq","","","img/orange_2bandit_a2.png","70","","70","test","1","","108","","","","square","circle","104","20","5","0.9807692307692307","","","","","","","",""
"null","361161","SARL_v6","SARL_v6xe9oz1l8","62e7f9fec0521e596587319d","freq_resp","","","img/orange_2bandit_a.png","70","img/orange_2bandit_a.png","70","test","","","","","","","","","","","5","","","","","","","","",""
"null","361321","SARL_v6","SARL_v6xe9oz1l8","62e7f9fec0521e596587319d","fixation","","","img/fixation.png","null","","","test","","","","","","","","","","","","","","","","","","","",""
"560.3000001907349","361884","SARL_v6","SARL_v6xe9oz1l8","62e7f9fec0521e596587319d","rl","","","img/black_2bandit_a2.png","75","","0","test","","","109","","","-7","square","circle","","0","5","","75","-7","4","4","-7","circle","5","0"
"null","362645","SARL_v6","SARL_v6xe9oz1l8","62e7f9fec0521e596587319d","feedback","","","<div class=""verylowPoints""> -7 </div>","null","","na","test","","","NaN","","","","","","","","5","","75","","","","","","5",""
"428.19999980926514","363076","SARL_v6","SARL_v6xe9oz1l8","62e7f9fec0521e596587319d","freq","","","img/orange_2bandit_a2.png","70","","70","test","1","","110","","","","square","circle","105","1","6","0.9809523809523809","","","","","","","",""
"null","363460","SARL_v6","SARL_v6xe9oz1l8","62e7f9fec0521e596587319d","freq_resp","","","img/orange_2bandit_a.png","70","img/orange_2bandit_a.png","70","test","","","","","","","","","","","6","","","","","","","","",""
"null","363622","SARL_v6","SARL_v6xe9oz1l8","62e7f9fec0521e596587319d","fixation","","","img/fixation.png","null","","","test","","","","","","","","","","","","","","","","","","","",""
"147.19999980926514","363772","SARL_v6","SARL_v6xe9oz1l8","62e7f9fec0521e596587319d","infreq","","","img/blue_2bandit_a2.png","70","","68","test","0","","111","","","","square","circle","106","2","6","0.9716981132075472","","","","","","","",""
"null","364436","SARL_v6","SARL_v6xe9oz1l8","62e7f9fec0521e596587319d","infreq_resp","","","img/blue_2bandit_a.png","70","img/blue_2bandit_a.png","68","test","","","","","","","","","","","6","","","","","","","","",""
"null","364601","SARL_v6","SARL_v6xe9oz1l8","62e7f9fec0521e596587319d","fixation","","","img/fixation.png","null","","","test","","","","","","","","","","","","","","","","","","","",""
"296.30000019073486","364900","SARL_v6","SARL_v6xe9oz1l8","62e7f9fec0521e596587319d","freq","","","img/orange_2bandit_a2.png","70","","70","test","1","","112","","","","square","circle","107","3","6","0.9719626168224299","","","","","","","",""
"null","365416","SARL_v6","SARL_v6xe9oz1l8","62e7f9fec0521e596587319d","freq_resp","","","img/orange_2bandit_a.png","70","img/orange_2bandit_a.png","70","test","","","","","","","","","","","6","","","","","","","","",""
"null","365577","SARL_v6","SARL_v6xe9oz1l8","62e7f9fec0521e596587319d","fixation","","","img/fixation.png","null","","","test","","","","","","","","","","","","","","","","","","","",""
"272.5","365852","SARL_v6","SARL_v6xe9oz1l8","62e7f9fec0521e596587319d","freq","","","img/orange_2bandit_a2.png","70","","70","test","1","","113","","","","square","circle","108","4","6","0.9722222222222222","","","","","","","",""
"null","366389","SARL_v6","SARL_v6xe9oz1l8","62e7f9fec0521e596587319d","freq_resp","","","img/orange_2bandit_a.png","70","img/orange_2bandit_a.png","70","test","","","","","","","","","","","6","","","","","","","","",""
"null","366550","SARL_v6","SARL_v6xe9oz1l8","62e7f9fec0521e596587319d","fixation","","","img/fixation.png","null","","","test","","","","","","","","","","","","","","","","","","","",""
"354.70000076293945","366908","SARL_v6","SARL_v6xe9oz1l8","62e7f9fec0521e596587319d","freq","","","img/orange_2bandit_a2.png","70","","70","test","1","","114","","","","square","circle","109","5","6","0.9724770642201835","","","","","","","",""
"null","367368","SARL_v6","SARL_v6xe9oz1l8","62e7f9fec0521e596587319d","freq_resp","","","img/orange_2bandit_a.png","70","img/orange_2bandit_a.png","70","test","","","","","","","","","","","6","","","","","","","","",""
"null","367525","SARL_v6","SARL_v6xe9oz1l8","62e7f9fec0521e596587319d","fixation","","","img/fixation.png","null","","","test","","","","","","","","","","","","","","","","","","","",""
"356","367883","SARL_v6","SARL_v6xe9oz1l8","62e7f9fec0521e596587319d","freq","","","img/orange_2bandit_a2.png","70","","70","test","1","","115","","","","square","circle","110","6","6","0.9727272727272728","","","","","","","",""
"null","368342","SARL_v6","SARL_v6xe9oz1l8","62e7f9fec0521e596587319d","freq_resp","","","img/orange_2bandit_a.png","70","img/orange_2bandit_a.png","70","test","","","","","","","","","","","6","","","","","","","","",""
"null","368500","SARL_v6","SARL_v6xe9oz1l8","62e7f9fec0521e596587319d","fixation","","","img/fixation.png","null","","","test","","","","","","","","","","","","","","","","","","","",""
"397.30000019073486","368900","SARL_v6","SARL_v6xe9oz1l8","62e7f9fec0521e596587319d","freq","","","img/orange_2bandit_a2.png","70","","70","test","1","","116","","","","square","circle","111","7","6","0.972972972972973","","","","","","","",""
"null","369321","SARL_v6","SARL_v6xe9oz1l8","62e7f9fec0521e596587319d","freq_resp","","","img/orange_2bandit_a.png","70","img/orange_2bandit_a.png","70","test","","","","","","","","","","","6","","","","","","","","",""
"null","369480","SARL_v6","SARL_v6xe9oz1l8","62e7f9fec0521e596587319d","fixation","","","img/fixation.png","null","","","test","","","","","","","","","","","","","","","","","","","",""
"361.5999994277954","369844","SARL_v6","SARL_v6xe9oz1l8","62e7f9fec0521e596587319d","freq","","","img/orange_2bandit_a2.png","70","","70","test","1","","117","","","","square","circle","112","8","6","0.9732142857142857","","","","","","","",""
"null","370294","SARL_v6","SARL_v6xe9oz1l8","62e7f9fec0521e596587319d","freq_resp","","","img/orange_2bandit_a.png","70","img/orange_2bandit_a.png","70","test","","","","","","","","","","","6","","","","","","","","",""
"null","370457","SARL_v6","SARL_v6xe9oz1l8","62e7f9fec0521e596587319d","fixation","","","img/fixation.png","null","","","test","","","","","","","","","","","","","","","","","","","",""
"424.3999996185303","370884","SARL_v6","SARL_v6xe9oz1l8","62e7f9fec0521e596587319d","freq","","","img/orange_2bandit_a2.png","70","","70","test","1","","118","","","","square","circle","113","9","6","0.9734513274336283","","","","","","","",""
"null","371269","SARL_v6","SARL_v6xe9oz1l8","62e7f9fec0521e596587319d","freq_resp","","","img/orange_2bandit_a.png","70","img/orange_2bandit_a.png","70","test","","","","","","","","","","","6","","","","","","","","",""
"null","371428","SARL_v6","SARL_v6xe9oz1l8","62e7f9fec0521e596587319d","fixation","","","img/fixation.png","null","","","test","","","","","","","","","","","","","","","","","","","",""
"357","371788","SARL_v6","SARL_v6xe9oz1l8","62e7f9fec0521e596587319d","freq","","","img/orange_2bandit_a2.png","70","","70","test","1","","119","","","","square","circle","114","10","6","0.9736842105263158","","","","","","","",""
"null","372244","SARL_v6","SARL_v6xe9oz1l8","62e7f9fec0521e596587319d","freq_resp","","","img/orange_2bandit_a.png","70","img/orange_2bandit_a.png","70","test","","","","","","","","","","","6","","","","","","","","",""
"null","372406","SARL_v6","SARL_v6xe9oz1l8","62e7f9fec0521e596587319d","fixation","","","img/fixation.png","null","","","test","","","","","","","","","","","","","","","","","","","",""
"411.1000003814697","372820","SARL_v6","SARL_v6xe9oz1l8","62e7f9fec0521e596587319d","freq","","","img/orange_2bandit_a2.png","70","","70","test","1","","120","","","","square","circle","115","11","6","0.9739130434782609","","","","","","","",""
"null","373221","SARL_v6","SARL_v6xe9oz1l8","62e7f9fec0521e596587319d","freq_resp","","","img/orange_2bandit_a.png","70","img/orange_2bandit_a.png","70","test","","","","","","","","","","","6","","","","","","","","",""
"null","373385","SARL_v6","SARL_v6xe9oz1l8","62e7f9fec0521e596587319d","fixation","","","img/fixation.png","null","","","test","","","","","","","","","","","","","","","","","","","",""
"384.4000005722046","373772","SARL_v6","SARL_v6xe9oz1l8","62e7f9fec0521e596587319d","freq","","","img/orange_2bandit_a2.png","70","","70","test","1","","121","","","","square","circle","116","12","6","0.9741379310344828","","","","","","","",""
"null","374197","SARL_v6","SARL_v6xe9oz1l8","62e7f9fec0521e596587319d","freq_resp","","","img/orange_2bandit_a.png","70","img/orange_2bandit_a.png","70","test","","","","","","","","","","","6","","","","","","","","",""
"null","374361","SARL_v6","SARL_v6xe9oz1l8","62e7f9fec0521e596587319d","fixation","","","img/fixation.png","null","","","test","","","","","","","","","","","","","","","","","","","",""
"192.5","374556","SARL_v6","SARL_v6xe9oz1l8","62e7f9fec0521e596587319d","freq","","","img/orange_2bandit_a2.png","70","","70","test","1","","122","","","","square","circle","117","13","6","0.9743589743589743","","","","","","","",""
"null","375177","SARL_v6","SARL_v6xe9oz1l8","62e7f9fec0521e596587319d","freq_resp","","","img/orange_2bandit_a.png","70","img/orange_2bandit_a.png","70","test","","","","","","","","","","","6","","","","","","","","",""
"null","375332","SARL_v6","SARL_v6xe9oz1l8","62e7f9fec0521e596587319d","fixation","","","img/fixation.png","null","","","test","","","","","","","","","","","","","","","","","","","",""
"412.5999994277954","375748","SARL_v6","SARL_v6xe9oz1l8","62e7f9fec0521e596587319d","freq","","","img/orange_2bandit_a2.png","70","","70","test","1","","123","","","","square","circle","118","14","6","0.9745762711864406","","","","","","","",""
"null","376150","SARL_v6","SARL_v6xe9oz1l8","62e7f9fec0521e596587319d","freq_resp","","","img/orange_2bandit_a.png","70","img/orange_2bandit_a.png","70","test","","","","","","","","","","","6","","","","","","","","",""
"null","376308","SARL_v6","SARL_v6xe9oz1l8","62e7f9fec0521e596587319d","fixation","","","img/fixation.png","null","","","test","","","","","","","","","","","","","","","","","","","",""
"364.5","376675","SARL_v6","SARL_v6xe9oz1l8","62e7f9fec0521e596587319d","freq","","","img/orange_2bandit_a2.png","70","","70","test","1","","124","","","","square","circle","119","15","6","0.9747899159663865","","","","","","","",""
"null","377125","SARL_v6","SARL_v6xe9oz1l8","62e7f9fec0521e596587319d","freq_resp","","","img/orange_2bandit_a.png","70","img/orange_2bandit_a.png","70","test","","","","","","","","","","","6","","","","","","","","",""
"null","377288","SARL_v6","SARL_v6xe9oz1l8","62e7f9fec0521e596587319d","fixation","","","img/fixation.png","null","","","test","","","","","","","","","","","","","","","","","","","",""
"440.30000019073486","377731","SARL_v6","SARL_v6xe9oz1l8","62e7f9fec0521e596587319d","freq","","","img/orange_2bandit_a2.png","70","","70","test","1","","125","","","","square","circle","120","16","6","0.975","","","","","","","",""
"null","378104","SARL_v6","SARL_v6xe9oz1l8","62e7f9fec0521e596587319d","freq_resp","","","img/orange_2bandit_a.png","70","img/orange_2bandit_a.png","70","test","","","","","","","","","","","6","","","","","","","","",""
"null","378264","SARL_v6","SARL_v6xe9oz1l8","62e7f9fec0521e596587319d","fixation","","","img/fixation.png","null","","","test","","","","","","","","","","","","","","","","","","","",""
"344.19999980926514","378611","SARL_v6","SARL_v6xe9oz1l8","62e7f9fec0521e596587319d","freq","","","img/orange_2bandit_a2.png","70","","70","test","1","","126","","","","square","circle","121","17","6","0.9752066115702479","","","","","","","",""
"null","379077","SARL_v6","SARL_v6xe9oz1l8","62e7f9fec0521e596587319d","freq_resp","","","img/orange_2bandit_a.png","70","img/orange_2bandit_a.png","70","test","","","","","","","","","","","6","","","","","","","","",""
"null","379237","SARL_v6","SARL_v6xe9oz1l8","62e7f9fec0521e596587319d","fixation","","","img/fixation.png","null","","","test","","","","","","","","","","","","","","","","","","","",""
"612.0999994277954","379852","SARL_v6","SARL_v6xe9oz1l8","62e7f9fec0521e596587319d","freq","","","img/orange_2bandit_a2.png","70","","70","test","1","","127","","","","square","circle","122","18","6","0.9754098360655737","","","","","","","",""
"null","380054","SARL_v6","SARL_v6xe9oz1l8","62e7f9fec0521e596587319d","freq_resp","","","img/orange_2bandit_a.png","70","img/orange_2bandit_a.png","70","test","","","","","","","","","","","6","","","","","","","","",""
"null","380212","SARL_v6","SARL_v6xe9oz1l8","62e7f9fec0521e596587319d","fixation","","","img/fixation.png","null","","","test","","","","","","","","","","","","","","","","","","","",""
"412.30000019073486","380627","SARL_v6","SARL_v6xe9oz1l8","62e7f9fec0521e596587319d","freq","","","img/orange_2bandit_a2.png","70","","70","test","1","","128","","","","square","circle","123","19","6","0.975609756097561","","","","","","","",""
"null","381031","SARL_v6","SARL_v6xe9oz1l8","62e7f9fec0521e596587319d","freq_resp","","","img/orange_2bandit_a.png","70","img/orange_2bandit_a.png","70","test","","","","","","","","","","","6","","","","","","","","",""
"null","381192","SARL_v6","SARL_v6xe9oz1l8","62e7f9fec0521e596587319d","fixation","","","img/fixation.png","null","","","test","","","","","","","","","","","","","","","","","","","",""
"360.19999980926514","381555","SARL_v6","SARL_v6xe9oz1l8","62e7f9fec0521e596587319d","infreq","","","img/blue_2bandit_a2.png","68","","68","test","1","","129","","","","square","circle","124","20","6","0.9758064516129032","","","","","","","",""
"null","382004","SARL_v6","SARL_v6xe9oz1l8","62e7f9fec0521e596587319d","infreq_resp","","","img/blue_2bandit_a.png","68","img/blue_2bandit_a.png","68","test","","","","","","","","","","","6","","","","","","","","",""
"null","382164","SARL_v6","SARL_v6xe9oz1l8","62e7f9fec0521e596587319d","fixation","","","img/fixation.png","null","","","test","","","","","","","","","","","","","","","","","","","",""
