"rt","time_elapsed","expId","subject","prolificID","trialType","rlType","attType","stimulus","key_press","stim","corrresp","phase","corr","pracCounter","trialNum","rewardOne","rewardTwo","reward","bandOne","bandTwo","attentionNum","attentionRunNum","blockNum","performance","bandChosen","circleVal","squareVal","bandOneVal","bandTwoVal","shapeChosen","rlNum","badFlag"
"10449.600000023842","10459","SARL_v6","SARL_v6tjnw8bvz","610041d6fecff598399d5783","","","","","","","","","","","","","","","","","","","","","","","","","","","",""
"","13014","SARL_v6","SARL_v6tjnw8bvz","610041d6fecff598399d5783","fullscreen","fullscreen","fullscreen","","","","","","","","","","","","","","","","","","","","","","","","",""
"60120.90000003576","73138","SARL_v6","SARL_v6tjnw8bvz","610041d6fecff598399d5783","","","","","","","","","","","","","","","","","","","","","","","","","","","",""
"null","73955","SARL_v6","SARL_v6tjnw8bvz","610041d6fecff598399d5783","freqPrac","","","img/blue_2bandit_b2.png","null","img/blue_2bandit_b2.png","70","prac","0","1","","","","","","","","","","","","","","","","","",""
"null","74966","SARL_v6","SARL_v6tjnw8bvz","610041d6fecff598399d5783","feedback","","","img/tooSlow.png","null","","na","prac","","","","","","","","","","","","","","","","","","","",""
"null","75127","SARL_v6","SARL_v6tjnw8bvz","610041d6fecff598399d5783","fixation","","","img/fixation.png","null","","","prac","","","","","","","","","","","","","","","","","","","",""
"426.69999998807907","75561","SARL_v6","SARL_v6tjnw8bvz","610041d6fecff598399d5783","infreqPrac","","","img/orange_2bandit_b2.png","68","img/orange_2bandit_b2.png","68","prac","1","1","","","","","","","","","","","","","","","","","",""
"426.69999998807907","75954","SARL_v6","SARL_v6tjnw8bvz","610041d6fecff598399d5783","infreqPrac_resp","","","img/orange_2bandit_b.png","68","img/orange_2bandit_b.png","68","prac","","","","","","","","","","","","","","","","","","","",""
"null","76120","SARL_v6","SARL_v6tjnw8bvz","610041d6fecff598399d5783","fixation","","","img/fixation.png","null","","","prac","","","","","","","","","","","","","","","","","","","",""
"390.60000002384186","76519","SARL_v6","SARL_v6tjnw8bvz","610041d6fecff598399d5783","freqPrac","","","img/blue_2bandit_b2.png","70","img/blue_2bandit_b2.png","70","prac","1","1","","","","","","","","","","","","","","","","","",""
"390.60000002384186","76946","SARL_v6","SARL_v6tjnw8bvz","610041d6fecff598399d5783","freqPrac_resp","","","img/blue_2bandit_b.png","70","img/blue_2bandit_b.png","70","prac","","","","","","","","","","","","","","","","","","","",""
"null","77110","SARL_v6","SARL_v6tjnw8bvz","610041d6fecff598399d5783","fixation","","","img/fixation.png","null","","","prac","","","","","","","","","","","","","","","","","","","",""
"457.9000000357628","77575","SARL_v6","SARL_v6tjnw8bvz","610041d6fecff598399d5783","infreqPrac","","","img/orange_2bandit_b2.png","68","img/orange_2bandit_b2.png","68","prac","1","1","","","","","","","","","","","","","","","","","",""
"457.9000000357628","77926","SARL_v6","SARL_v6tjnw8bvz","610041d6fecff598399d5783","infreqPrac_resp","","","img/orange_2bandit_b.png","68","img/orange_2bandit_b.png","68","prac","","","","","","","","","","","","","","","","","","","",""
"null","78086","SARL_v6","SARL_v6tjnw8bvz","610041d6fecff598399d5783","fixation","","","img/fixation.png","null","","","prac","","","","","","","","","","","","","","","","","","","",""
"506.7000000476837","78601","SARL_v6","SARL_v6tjnw8bvz","610041d6fecff598399d5783","infreqPrac","","","img/orange_2bandit_b2.png","68","img/orange_2bandit_b2.png","68","prac","1","1","","","","","","","","","","","","","","","","","",""
"506.7000000476837","78910","SARL_v6","SARL_v6tjnw8bvz","610041d6fecff598399d5783","infreqPrac_resp","","","img/orange_2bandit_b.png","68","img/orange_2bandit_b.png","68","prac","","","","","","","","","","","","","","","","","","","",""
"null","79073","SARL_v6","SARL_v6tjnw8bvz","610041d6fecff598399d5783","fixation","","","img/fixation.png","null","","","prac","","","","","","","","","","","","","","","","","","","",""
"437.0999999642372","79517","SARL_v6","SARL_v6tjnw8bvz","610041d6fecff598399d5783","infreqPrac","","","img/orange_2bandit_b2.png","68","img/orange_2bandit_b2.png","68","prac","1","1","","","","","","","","","","","","","","","","","",""
"437.0999999642372","79890","SARL_v6","SARL_v6tjnw8bvz","610041d6fecff598399d5783","infreqPrac_resp","","","img/orange_2bandit_b.png","68","img/orange_2bandit_b.png","68","prac","","","","","","","","","","","","","","","","","","","",""
"null","80052","SARL_v6","SARL_v6tjnw8bvz","610041d6fecff598399d5783","fixation","","","img/fixation.png","null","","","prac","","","","","","","","","","","","","","","","","","","",""
"426.89999997615814","80486","SARL_v6","SARL_v6tjnw8bvz","610041d6fecff598399d5783","freqPrac","","","img/blue_2bandit_b2.png","70","img/blue_2bandit_b2.png","70","prac","1","1","","","","","","","","","","","","","","","","","",""
"426.89999997615814","80866","SARL_v6","SARL_v6tjnw8bvz","610041d6fecff598399d5783","freqPrac_resp","","","img/blue_2bandit_b.png","70","img/blue_2bandit_b.png","70","prac","","","","","","","","","","","","","","","","","","","",""
"null","81033","SARL_v6","SARL_v6tjnw8bvz","610041d6fecff598399d5783","fixation","","","img/fixation.png","null","","","prac","","","","","","","","","","","","","","","","","","","",""
"386.80000001192093","81423","SARL_v6","SARL_v6tjnw8bvz","610041d6fecff598399d5783","infreqPrac","","","img/orange_2bandit_b2.png","68","img/orange_2bandit_b2.png","68","prac","1","1","","","","","","","","","","","","","","","","","",""
"386.80000001192093","81841","SARL_v6","SARL_v6tjnw8bvz","610041d6fecff598399d5783","infreqPrac_resp","","","img/orange_2bandit_b.png","68","img/orange_2bandit_b.png","68","prac","","","","","","","","","","","","","","","","","","","",""
"null","82004","SARL_v6","SARL_v6tjnw8bvz","610041d6fecff598399d5783","fixation","","","img/fixation.png","null","","","prac","","","","","","","","","","","","","","","","","","","",""
"367.5","82378","SARL_v6","SARL_v6tjnw8bvz","610041d6fecff598399d5783","freqPrac","","","img/blue_2bandit_b2.png","70","img/blue_2bandit_b2.png","70","prac","1","1","","","","","","","","","","","","","","","","","",""
"367.5","82818","SARL_v6","SARL_v6tjnw8bvz","610041d6fecff598399d5783","freqPrac_resp","","","img/blue_2bandit_b.png","70","img/blue_2bandit_b.png","70","prac","","","","","","","","","","","","","","","","","","","",""
"null","82976","SARL_v6","SARL_v6tjnw8bvz","610041d6fecff598399d5783","fixation","","","img/fixation.png","null","","","prac","","","","","","","","","","","","","","","","","","","",""
"368.89999997615814","83352","SARL_v6","SARL_v6tjnw8bvz","610041d6fecff598399d5783","freqPrac","","","img/blue_2bandit_b2.png","70","img/blue_2bandit_b2.png","70","prac","1","1","","","","","","","","","","","","","","","","","",""
"368.89999997615814","83801","SARL_v6","SARL_v6tjnw8bvz","610041d6fecff598399d5783","freqPrac_resp","","","img/blue_2bandit_b.png","70","img/blue_2bandit_b.png","70","prac","","","","","","","","","","","","","","","","","","","",""
"null","83970","SARL_v6","SARL_v6tjnw8bvz","610041d6fecff598399d5783","fixation","","","img/fixation.png","null","","","prac","","","","","","","","","","","","","","","","","","","",""
"23983.899999976158","107959","SARL_v6","SARL_v6tjnw8bvz","610041d6fecff598399d5783","","","","","","","","prac","","","","","","","","","","","","","","","","","","","",""
"975.1000000238419","108941","SARL_v6","SARL_v6tjnw8bvz","610041d6fecff598399d5783","rlPractice","","","img/black_2bandit_b2.png","75","img/black_2bandit_b2.png","","prac","","","0","","","","","","","","","","","","","","","","",""
"null","109701","SARL_v6","SARL_v6tjnw8bvz","610041d6fecff598399d5783","feedback","","","<div class=""verylowPoints_sq""> -14 </div>","null","","na","prac","","","1","10","-14","10","","","","","","","","","","","","","",""
"null","109863","SARL_v6","SARL_v6tjnw8bvz","610041d6fecff598399d5783","fixation","","","img/fixation.png","null","","","prac","","","","","","","","","","","","","","","","","","","",""
"505.69999998807907","110376","SARL_v6","SARL_v6tjnw8bvz","610041d6fecff598399d5783","rlPractice","","","img/black_2bandit_b2.png","74","img/black_2bandit_b2.png","","prac","","","1","","","","","","","","","","","","","","","","",""
"null","111145","SARL_v6","SARL_v6tjnw8bvz","610041d6fecff598399d5783","feedback","","","<div class=""veryhighPoints""> 5 </div>","null","","na","prac","","","2","5","-5","5","","","","","","","","","","","","","",""
"null","111310","SARL_v6","SARL_v6tjnw8bvz","610041d6fecff598399d5783","fixation","","","img/fixation.png","null","","","prac","","","","","","","","","","","","","","","","","","","",""
"538.8000000119209","111857","SARL_v6","SARL_v6tjnw8bvz","610041d6fecff598399d5783","rlPractice","","","img/black_2bandit_b2.png","74","img/black_2bandit_b2.png","","prac","","","2","","","","","","","","","","","","","","","","",""
"null","112623","SARL_v6","SARL_v6tjnw8bvz","610041d6fecff598399d5783","feedback","","","<div class=""veryhighPoints""> 30 </div>","null","","na","prac","","","3","30","2","30","","","","","","","","","","","","","",""
"null","112789","SARL_v6","SARL_v6tjnw8bvz","610041d6fecff598399d5783","fixation","","","img/fixation.png","null","","","prac","","","","","","","","","","","","","","","","","","","",""
"517.1999999880791","113314","SARL_v6","SARL_v6tjnw8bvz","610041d6fecff598399d5783","rlPractice","","","img/black_2bandit_b2.png","74","img/black_2bandit_b2.png","","prac","","","3","","","","","","","","","","","","","","","","",""
"null","114077","SARL_v6","SARL_v6tjnw8bvz","610041d6fecff598399d5783","feedback","","","<div class=""verylowPoints""> -2 </div>","null","","na","prac","","","4","-2","20","-2","","","","","","","","","","","","","",""
"null","114240","SARL_v6","SARL_v6tjnw8bvz","610041d6fecff598399d5783","fixation","","","img/fixation.png","null","","","prac","","","","","","","","","","","","","","","","","","","",""
"12288.800000011921","126535","SARL_v6","SARL_v6tjnw8bvz","610041d6fecff598399d5783","","","","","","","","prac","","","","","","","","","","","","","","","","","","","",""
"744.4000000357628","127286","SARL_v6","SARL_v6tjnw8bvz","610041d6fecff598399d5783","mixAttFreqPrac","","","img/blue_2bandit_b2.png","70","img/blue_2bandit_b2.png","70","prac","","","1","","","","","","","","","","","","","","","","",""
"744.4000000357628","127359","SARL_v6","SARL_v6tjnw8bvz","610041d6fecff598399d5783","freqPrac_resp","","","img/blue_2bandit_b.png","70","img/blue_2bandit_b.png","70","prac","","","1","","","","","","","","","","","","","","","","",""
"null","127526","SARL_v6","SARL_v6tjnw8bvz","610041d6fecff598399d5783","fixation","","","img/fixation.png","null","","","prac","","","","","","","","","","","","","","","","","","","",""
"439.89999997615814","127973","SARL_v6","SARL_v6tjnw8bvz","610041d6fecff598399d5783","mixAttInfreqPrac","","","img/orange_2bandit_b2.png","68","img/orange_2bandit_b2.png","68","prac","","","2","","","","","","","","","","","","","","","","",""
"439.89999997615814","128349","SARL_v6","SARL_v6tjnw8bvz","610041d6fecff598399d5783","infreqPrac_resp","","","img/orange_2bandit_b.png","68","img/blue_2bandit_b.png","68","prac","","","2","","","","","","","","","","","","","","","","",""
"null","128515","SARL_v6","SARL_v6tjnw8bvz","610041d6fecff598399d5783","fixation","","","img/fixation.png","null","","","prac","","","","","","","","","","","","","","","","","","","",""
"456.10000002384186","128979","SARL_v6","SARL_v6tjnw8bvz","610041d6fecff598399d5783","mixAttInfreqPrac","","","img/orange_2bandit_b2.png","68","img/orange_2bandit_b2.png","68","prac","","","3","","","","","","","","","","","","","","","","",""
"456.10000002384186","129334","SARL_v6","SARL_v6tjnw8bvz","610041d6fecff598399d5783","infreqPrac_resp","","","img/orange_2bandit_b.png","68","img/blue_2bandit_b.png","68","prac","","","3","","","","","","","","","","","","","","","","",""
"null","129499","SARL_v6","SARL_v6tjnw8bvz","610041d6fecff598399d5783","fixation","","","img/fixation.png","null","","","prac","","","","","","","","","","","","","","","","","","","",""
"443.5999999642372","129949","SARL_v6","SARL_v6tjnw8bvz","610041d6fecff598399d5783","mixAttInfreqPrac","","","img/orange_2bandit_b2.png","68","img/orange_2bandit_b2.png","68","prac","","","4","","","","","","","","","","","","","","","","",""
"443.5999999642372","130319","SARL_v6","SARL_v6tjnw8bvz","610041d6fecff598399d5783","infreqPrac_resp","","","img/orange_2bandit_b.png","68","img/blue_2bandit_b.png","68","prac","","","4","","","","","","","","","","","","","","","","",""
"null","130487","SARL_v6","SARL_v6tjnw8bvz","610041d6fecff598399d5783","fixation","","","img/fixation.png","null","","","prac","","","","","","","","","","","","","","","","","","","",""
"447.5","130942","SARL_v6","SARL_v6tjnw8bvz","610041d6fecff598399d5783","mixAttFreqPrac","","","img/blue_2bandit_b2.png","70","img/blue_2bandit_b2.png","70","prac","","","5","","","","","","","","","","","","","","","","",""
"447.5","131308","SARL_v6","SARL_v6tjnw8bvz","610041d6fecff598399d5783","freqPrac_resp","","","img/blue_2bandit_b.png","70","img/blue_2bandit_b.png","70","prac","","","5","","","","","","","","","","","","","","","","",""
"null","131471","SARL_v6","SARL_v6tjnw8bvz","610041d6fecff598399d5783","fixation","","","img/fixation.png","null","","","prac","","","","","","","","","","","","","","","","","","","",""
"708.5","132185","SARL_v6","SARL_v6tjnw8bvz","610041d6fecff598399d5783","mixRLPractice","","","img/black_2bandit_b2.png","75","img/black_2bandit_b2.png","","prac","","","5","","","","","","","","","","","","","","","","",""
"null","132949","SARL_v6","SARL_v6tjnw8bvz","610041d6fecff598399d5783","feedback","","","<div class=""veryhighPoints_sq""> 10 </div>","null","","na","prac","","","6","-14","10","-14","","","","","","","","","","","","","",""
"null","133110","SARL_v6","SARL_v6tjnw8bvz","610041d6fecff598399d5783","fixation","","","img/fixation.png","null","","","prac","","","","","","","","","","","","","","","","","","","",""
"635.2000000476837","133753","SARL_v6","SARL_v6tjnw8bvz","610041d6fecff598399d5783","mixAttFreqPrac","","","img/blue_2bandit_b2.png","70","img/blue_2bandit_b2.png","70","prac","","","7","","","","","","","","","","","","","","","","",""
"635.2000000476837","133932","SARL_v6","SARL_v6tjnw8bvz","610041d6fecff598399d5783","freqPrac_resp","","","img/blue_2bandit_b.png","70","img/blue_2bandit_b.png","70","prac","","","7","","","","","","","","","","","","","","","","",""
"null","134096","SARL_v6","SARL_v6tjnw8bvz","610041d6fecff598399d5783","fixation","","","img/fixation.png","null","","","prac","","","","","","","","","","","","","","","","","","","",""
"445.89999997615814","134547","SARL_v6","SARL_v6tjnw8bvz","610041d6fecff598399d5783","mixAttInfreqPrac","","","img/orange_2bandit_b2.png","68","img/orange_2bandit_b2.png","68","prac","","","8","","","","","","","","","","","","","","","","",""
"445.89999997615814","134917","SARL_v6","SARL_v6tjnw8bvz","610041d6fecff598399d5783","infreqPrac_resp","","","img/orange_2bandit_b.png","68","img/blue_2bandit_b.png","68","prac","","","8","","","","","","","","","","","","","","","","",""
"null","135087","SARL_v6","SARL_v6tjnw8bvz","610041d6fecff598399d5783","fixation","","","img/fixation.png","null","","","prac","","","","","","","","","","","","","","","","","","","",""
"361.39999997615814","135456","SARL_v6","SARL_v6tjnw8bvz","610041d6fecff598399d5783","mixAttFreqPrac","","","img/blue_2bandit_b2.png","70","img/blue_2bandit_b2.png","70","prac","","","9","","","","","","","","","","","","","","","","",""
"361.39999997615814","135907","SARL_v6","SARL_v6tjnw8bvz","610041d6fecff598399d5783","freqPrac_resp","","","img/blue_2bandit_b.png","70","img/blue_2bandit_b.png","70","prac","","","9","","","","","","","","","","","","","","","","",""
"null","136066","SARL_v6","SARL_v6tjnw8bvz","610041d6fecff598399d5783","fixation","","","img/fixation.png","null","","","prac","","","","","","","","","","","","","","","","","","","",""
"346.9000000357628","136420","SARL_v6","SARL_v6tjnw8bvz","610041d6fecff598399d5783","mixAttFreqPrac","","","img/blue_2bandit_b2.png","70","img/blue_2bandit_b2.png","70","prac","","","10","","","","","","","","","","","","","","","","",""
"346.9000000357628","136884","SARL_v6","SARL_v6tjnw8bvz","610041d6fecff598399d5783","freqPrac_resp","","","img/blue_2bandit_b.png","70","img/blue_2bandit_b.png","70","prac","","","10","","","","","","","","","","","","","","","","",""
"null","137046","SARL_v6","SARL_v6tjnw8bvz","610041d6fecff598399d5783","fixation","","","img/fixation.png","null","","","prac","","","","","","","","","","","","","","","","","","","",""
"442.5","137493","SARL_v6","SARL_v6tjnw8bvz","610041d6fecff598399d5783","mixAttInfreqPrac","","","img/orange_2bandit_b2.png","68","img/orange_2bandit_b2.png","68","prac","","","11","","","","","","","","","","","","","","","","",""
"442.5","137861","SARL_v6","SARL_v6tjnw8bvz","610041d6fecff598399d5783","infreqPrac_resp","","","img/orange_2bandit_b.png","68","img/blue_2bandit_b.png","68","prac","","","11","","","","","","","","","","","","","","","","",""
"null","138031","SARL_v6","SARL_v6tjnw8bvz","610041d6fecff598399d5783","fixation","","","img/fixation.png","null","","","prac","","","","","","","","","","","","","","","","","","","",""
"487.80000001192093","138527","SARL_v6","SARL_v6tjnw8bvz","610041d6fecff598399d5783","mixRLPractice","","","img/black_2bandit_b2.png","75","img/black_2bandit_b2.png","","prac","","","11","","","","","","","","","","","","","","","","",""
"null","139292","SARL_v6","SARL_v6tjnw8bvz","610041d6fecff598399d5783","feedback","","","<div class=""verylowPoints_sq""> -5 </div>","null","","na","prac","","","12","5","-5","5","","","","","","","","","","","","","",""
"null","139454","SARL_v6","SARL_v6tjnw8bvz","610041d6fecff598399d5783","fixation","","","img/fixation.png","null","","","prac","","","","","","","","","","","","","","","","","","","",""
"13399.099999964237","152857","SARL_v6","SARL_v6tjnw8bvz","610041d6fecff598399d5783","","","","","","","","prac","","","","","","","","","","","","","","","","","","","",""
"599.1000000238419","153464","SARL_v6","SARL_v6tjnw8bvz","610041d6fecff598399d5783","freq","","","img/blue_2bandit_b2.png","70","","70","test","1","","1","","","","circle","square","1","1","1","1","","","","","","","",""
"null","153678","SARL_v6","SARL_v6tjnw8bvz","610041d6fecff598399d5783","freq_resp","","","img/blue_2bandit_b.png","70","img/blue_2bandit_b.png","70","test","","","","","","","","","","","1","","","","","","","","",""
"null","153843","SARL_v6","SARL_v6tjnw8bvz","610041d6fecff598399d5783","fixation","","","img/fixation.png","null","","","test","","","","","","","","","","","","","","","","","","","",""
"367.39999997615814","154218","SARL_v6","SARL_v6tjnw8bvz","610041d6fecff598399d5783","freq","","","img/blue_2bandit_b2.png","70","","70","test","1","","2","","","","circle","square","2","2","1","1","","","","","","","",""
"null","154670","SARL_v6","SARL_v6tjnw8bvz","610041d6fecff598399d5783","freq_resp","","","img/blue_2bandit_b.png","70","img/blue_2bandit_b.png","70","test","","","","","","","","","","","1","","","","","","","","",""
"null","154836","SARL_v6","SARL_v6tjnw8bvz","610041d6fecff598399d5783","fixation","","","img/fixation.png","null","","","test","","","","","","","","","","","","","","","","","","","",""
"378.7999999523163","155222","SARL_v6","SARL_v6tjnw8bvz","610041d6fecff598399d5783","freq","","","img/blue_2bandit_b2.png","70","","70","test","1","","3","","","","circle","square","3","3","1","1","","","","","","","",""
"null","155660","SARL_v6","SARL_v6tjnw8bvz","610041d6fecff598399d5783","freq_resp","","","img/blue_2bandit_b.png","70","img/blue_2bandit_b.png","70","test","","","","","","","","","","","1","","","","","","","","",""
"null","155831","SARL_v6","SARL_v6tjnw8bvz","610041d6fecff598399d5783","fixation","","","img/fixation.png","null","","","test","","","","","","","","","","","","","","","","","","","",""
"373.5","156211","SARL_v6","SARL_v6tjnw8bvz","610041d6fecff598399d5783","freq","","","img/blue_2bandit_b2.png","70","","70","test","1","","4","","","","circle","square","4","4","1","1","","","","","","","",""
"null","156653","SARL_v6","SARL_v6tjnw8bvz","610041d6fecff598399d5783","freq_resp","","","img/blue_2bandit_b.png","70","img/blue_2bandit_b.png","70","test","","","","","","","","","","","1","","","","","","","","",""
"null","156819","SARL_v6","SARL_v6tjnw8bvz","610041d6fecff598399d5783","fixation","","","img/fixation.png","null","","","test","","","","","","","","","","","","","","","","","","","",""
"361.7999999523163","157186","SARL_v6","SARL_v6tjnw8bvz","610041d6fecff598399d5783","freq","","","img/blue_2bandit_b2.png","70","","70","test","1","","5","","","","circle","square","5","5","1","1","","","","","","","",""
"null","157637","SARL_v6","SARL_v6tjnw8bvz","610041d6fecff598399d5783","freq_resp","","","img/blue_2bandit_b.png","70","img/blue_2bandit_b.png","70","test","","","","","","","","","","","1","","","","","","","","",""
"null","157803","SARL_v6","SARL_v6tjnw8bvz","610041d6fecff598399d5783","fixation","","","img/fixation.png","null","","","test","","","","","","","","","","","","","","","","","","","",""
"413.7000000476837","158223","SARL_v6","SARL_v6tjnw8bvz","610041d6fecff598399d5783","freq","","","img/blue_2bandit_b2.png","70","","70","test","1","","6","","","","circle","square","6","6","1","1","","","","","","","",""
"null","158619","SARL_v6","SARL_v6tjnw8bvz","610041d6fecff598399d5783","freq_resp","","","img/blue_2bandit_b.png","70","img/blue_2bandit_b.png","70","test","","","","","","","","","","","1","","","","","","","","",""
"null","158780","SARL_v6","SARL_v6tjnw8bvz","610041d6fecff598399d5783","fixation","","","img/fixation.png","null","","","test","","","","","","","","","","","","","","","","","","","",""
"347.80000001192093","159136","SARL_v6","SARL_v6tjnw8bvz","610041d6fecff598399d5783","freq","","","img/blue_2bandit_b2.png","70","","70","test","1","","7","","","","circle","square","7","7","1","1","","","","","","","",""
"null","159606","SARL_v6","SARL_v6tjnw8bvz","610041d6fecff598399d5783","freq_resp","","","img/blue_2bandit_b.png","70","img/blue_2bandit_b.png","70","test","","","","","","","","","","","1","","","","","","","","",""
"null","159768","SARL_v6","SARL_v6tjnw8bvz","610041d6fecff598399d5783","fixation","","","img/fixation.png","null","","","test","","","","","","","","","","","","","","","","","","","",""
"324.10000002384186","160101","SARL_v6","SARL_v6tjnw8bvz","610041d6fecff598399d5783","freq","","","img/blue_2bandit_b2.png","70","","70","test","1","","8","","","","circle","square","8","8","1","1","","","","","","","",""
"null","160590","SARL_v6","SARL_v6tjnw8bvz","610041d6fecff598399d5783","freq_resp","","","img/blue_2bandit_b.png","70","img/blue_2bandit_b.png","70","test","","","","","","","","","","","1","","","","","","","","",""
"null","160757","SARL_v6","SARL_v6tjnw8bvz","610041d6fecff598399d5783","fixation","","","img/fixation.png","null","","","test","","","","","","","","","","","","","","","","","","","",""
"373.7000000476837","161136","SARL_v6","SARL_v6tjnw8bvz","610041d6fecff598399d5783","freq","","","img/blue_2bandit_b2.png","70","","70","test","1","","9","","","","circle","square","9","9","1","1","","","","","","","",""
"null","161570","SARL_v6","SARL_v6tjnw8bvz","610041d6fecff598399d5783","freq_resp","","","img/blue_2bandit_b.png","70","img/blue_2bandit_b.png","70","test","","","","","","","","","","","1","","","","","","","","",""
"null","161731","SARL_v6","SARL_v6tjnw8bvz","610041d6fecff598399d5783","fixation","","","img/fixation.png","null","","","test","","","","","","","","","","","","","","","","","","","",""
"487.89999997615814","162226","SARL_v6","SARL_v6tjnw8bvz","610041d6fecff598399d5783","infreq","","","img/orange_2bandit_b2.png","68","","68","test","1","","10","","","","circle","square","10","10","1","1","","","","","","","",""
"null","162550","SARL_v6","SARL_v6tjnw8bvz","610041d6fecff598399d5783","infreq_resp","","","img/orange_2bandit_b.png","68","img/orange_2bandit_b.png","68","test","","","","","","","","","","","1","","","","","","","","",""
"null","162717","SARL_v6","SARL_v6tjnw8bvz","610041d6fecff598399d5783","fixation","","","img/fixation.png","null","","","test","","","","","","","","","","","","","","","","","","","",""
"413.5","163138","SARL_v6","SARL_v6tjnw8bvz","610041d6fecff598399d5783","freq","","","img/blue_2bandit_b2.png","70","","70","test","1","","11","","","","circle","square","11","11","1","1","","","","","","","",""
"null","163540","SARL_v6","SARL_v6tjnw8bvz","610041d6fecff598399d5783","freq_resp","","","img/blue_2bandit_b.png","70","img/blue_2bandit_b.png","70","test","","","","","","","","","","","1","","","","","","","","",""
"null","163707","SARL_v6","SARL_v6tjnw8bvz","610041d6fecff598399d5783","fixation","","","img/fixation.png","null","","","test","","","","","","","","","","","","","","","","","","","",""
"353.39999997615814","164067","SARL_v6","SARL_v6tjnw8bvz","610041d6fecff598399d5783","freq","","","img/blue_2bandit_b2.png","70","","70","test","1","","12","","","","circle","square","12","12","1","1","","","","","","","",""
"null","164523","SARL_v6","SARL_v6tjnw8bvz","610041d6fecff598399d5783","freq_resp","","","img/blue_2bandit_b.png","70","img/blue_2bandit_b.png","70","test","","","","","","","","","","","1","","","","","","","","",""
"null","164685","SARL_v6","SARL_v6tjnw8bvz","610041d6fecff598399d5783","fixation","","","img/fixation.png","null","","","test","","","","","","","","","","","","","","","","","","","",""
"385.19999998807907","165078","SARL_v6","SARL_v6tjnw8bvz","610041d6fecff598399d5783","freq","","","img/blue_2bandit_b2.png","70","","70","test","1","","13","","","","circle","square","13","13","1","1","","","","","","","",""
"null","165507","SARL_v6","SARL_v6tjnw8bvz","610041d6fecff598399d5783","freq_resp","","","img/blue_2bandit_b.png","70","img/blue_2bandit_b.png","70","test","","","","","","","","","","","1","","","","","","","","",""
"null","165668","SARL_v6","SARL_v6tjnw8bvz","610041d6fecff598399d5783","fixation","","","img/fixation.png","null","","","test","","","","","","","","","","","","","","","","","","","",""
"515","166189","SARL_v6","SARL_v6tjnw8bvz","610041d6fecff598399d5783","infreq","","","img/orange_2bandit_b2.png","68","","68","test","1","","14","","","","circle","square","14","14","1","1","","","","","","","",""
"null","166492","SARL_v6","SARL_v6tjnw8bvz","610041d6fecff598399d5783","infreq_resp","","","img/orange_2bandit_b.png","68","img/orange_2bandit_b.png","68","test","","","","","","","","","","","1","","","","","","","","",""
"null","166662","SARL_v6","SARL_v6tjnw8bvz","610041d6fecff598399d5783","fixation","","","img/fixation.png","null","","","test","","","","","","","","","","","","","","","","","","","",""
"366.19999998807907","167035","SARL_v6","SARL_v6tjnw8bvz","610041d6fecff598399d5783","freq","","","img/blue_2bandit_b2.png","70","","70","test","1","","15","","","","circle","square","15","15","1","1","","","","","","","",""
"null","167485","SARL_v6","SARL_v6tjnw8bvz","610041d6fecff598399d5783","freq_resp","","","img/blue_2bandit_b.png","70","img/blue_2bandit_b.png","70","test","","","","","","","","","","","1","","","","","","","","",""
"null","167649","SARL_v6","SARL_v6tjnw8bvz","610041d6fecff598399d5783","fixation","","","img/fixation.png","null","","","test","","","","","","","","","","","","","","","","","","","",""
"382.10000002384186","168039","SARL_v6","SARL_v6tjnw8bvz","610041d6fecff598399d5783","freq","","","img/blue_2bandit_b2.png","70","","70","test","1","","16","","","","circle","square","16","16","1","1","","","","","","","",""
"null","168467","SARL_v6","SARL_v6tjnw8bvz","610041d6fecff598399d5783","freq_resp","","","img/blue_2bandit_b.png","70","img/blue_2bandit_b.png","70","test","","","","","","","","","","","1","","","","","","","","",""
"null","168629","SARL_v6","SARL_v6tjnw8bvz","610041d6fecff598399d5783","fixation","","","img/fixation.png","null","","","test","","","","","","","","","","","","","","","","","","","",""
"358.7999999523163","168995","SARL_v6","SARL_v6tjnw8bvz","610041d6fecff598399d5783","freq","","","img/blue_2bandit_b2.png","70","","70","test","1","","17","","","","circle","square","17","17","1","1","","","","","","","",""
"null","169447","SARL_v6","SARL_v6tjnw8bvz","610041d6fecff598399d5783","freq_resp","","","img/blue_2bandit_b.png","70","img/blue_2bandit_b.png","70","test","","","","","","","","","","","1","","","","","","","","",""
"null","169611","SARL_v6","SARL_v6tjnw8bvz","610041d6fecff598399d5783","fixation","","","img/fixation.png","null","","","test","","","","","","","","","","","","","","","","","","","",""
"347.89999997615814","169967","SARL_v6","SARL_v6tjnw8bvz","610041d6fecff598399d5783","freq","","","img/blue_2bandit_b2.png","70","","70","test","1","","18","","","","circle","square","18","18","1","1","","","","","","","",""
"null","170435","SARL_v6","SARL_v6tjnw8bvz","610041d6fecff598399d5783","freq_resp","","","img/blue_2bandit_b.png","70","img/blue_2bandit_b.png","70","test","","","","","","","","","","","1","","","","","","","","",""
"null","170595","SARL_v6","SARL_v6tjnw8bvz","610041d6fecff598399d5783","fixation","","","img/fixation.png","null","","","test","","","","","","","","","","","","","","","","","","","",""
"362.2000000476837","170965","SARL_v6","SARL_v6tjnw8bvz","610041d6fecff598399d5783","freq","","","img/blue_2bandit_b2.png","70","","70","test","1","","19","","","","circle","square","19","19","1","1","","","","","","","",""
"null","171419","SARL_v6","SARL_v6tjnw8bvz","610041d6fecff598399d5783","freq_resp","","","img/blue_2bandit_b.png","70","img/blue_2bandit_b.png","70","test","","","","","","","","","","","1","","","","","","","","",""
"null","171588","SARL_v6","SARL_v6tjnw8bvz","610041d6fecff598399d5783","fixation","","","img/fixation.png","null","","","test","","","","","","","","","","","","","","","","","","","",""
"402.5","171999","SARL_v6","SARL_v6tjnw8bvz","610041d6fecff598399d5783","freq","","","img/blue_2bandit_b2.png","70","","70","test","1","","20","","","","circle","square","20","20","1","1","","","","","","","",""
"null","172412","SARL_v6","SARL_v6tjnw8bvz","610041d6fecff598399d5783","freq_resp","","","img/blue_2bandit_b.png","70","img/blue_2bandit_b.png","70","test","","","","","","","","","","","1","","","","","","","","",""
"null","172579","SARL_v6","SARL_v6tjnw8bvz","610041d6fecff598399d5783","fixation","","","img/fixation.png","null","","","test","","","","","","","","","","","","","","","","","","","",""
"382.4000000357628","172969","SARL_v6","SARL_v6tjnw8bvz","610041d6fecff598399d5783","freq","","","img/blue_2bandit_b2.png","70","","70","test","1","","21","","","","circle","square","21","21","1","1","","","","","","","",""
"null","173401","SARL_v6","SARL_v6tjnw8bvz","610041d6fecff598399d5783","freq_resp","","","img/blue_2bandit_b.png","70","img/blue_2bandit_b.png","70","test","","","","","","","","","","","1","","","","","","","","",""
"null","173566","SARL_v6","SARL_v6tjnw8bvz","610041d6fecff598399d5783","fixation","","","img/fixation.png","null","","","test","","","","","","","","","","","","","","","","","","","",""
"663.8000000119209","174235","SARL_v6","SARL_v6tjnw8bvz","610041d6fecff598399d5783","rl","","","img/black_2bandit_b2.png","75","","0","test","","","22","","","-3","circle","square","","0","1","","75","-3","-3","-3","-3","square","1","0"
"null","175003","SARL_v6","SARL_v6tjnw8bvz","610041d6fecff598399d5783","feedback","","","<div class=""verylowPoints_sq""> -3 </div>","null","","na","test","","","NaN","","","","","","","","1","","75","","","","","","1",""
"444.39999997615814","175457","SARL_v6","SARL_v6tjnw8bvz","610041d6fecff598399d5783","freq","","","img/blue_2bandit_b2.png","70","","70","test","1","","23","","","","circle","square","22","1","2","1","","","","","","","",""
"null","175827","SARL_v6","SARL_v6tjnw8bvz","610041d6fecff598399d5783","freq_resp","","","img/blue_2bandit_b.png","70","img/blue_2bandit_b.png","70","test","","","","","","","","","","","2","","","","","","","","",""
"null","175995","SARL_v6","SARL_v6tjnw8bvz","610041d6fecff598399d5783","fixation","","","img/fixation.png","null","","","test","","","","","","","","","","","","","","","","","","","",""
"368.5","176371","SARL_v6","SARL_v6tjnw8bvz","610041d6fecff598399d5783","freq","","","img/blue_2bandit_b2.png","70","","70","test","1","","24","","","","circle","square","23","2","2","1","","","","","","","",""
"null","176817","SARL_v6","SARL_v6tjnw8bvz","610041d6fecff598399d5783","freq_resp","","","img/blue_2bandit_b.png","70","img/blue_2bandit_b.png","70","test","","","","","","","","","","","2","","","","","","","","",""
"null","176979","SARL_v6","SARL_v6tjnw8bvz","610041d6fecff598399d5783","fixation","","","img/fixation.png","null","","","test","","","","","","","","","","","","","","","","","","","",""
"302.7999999523163","177290","SARL_v6","SARL_v6tjnw8bvz","610041d6fecff598399d5783","freq","","","img/blue_2bandit_b2.png","70","","70","test","1","","25","","","","circle","square","24","3","2","1","","","","","","","",""
"null","177795","SARL_v6","SARL_v6tjnw8bvz","610041d6fecff598399d5783","freq_resp","","","img/blue_2bandit_b.png","70","img/blue_2bandit_b.png","70","test","","","","","","","","","","","2","","","","","","","","",""
"null","177961","SARL_v6","SARL_v6tjnw8bvz","610041d6fecff598399d5783","fixation","","","img/fixation.png","null","","","test","","","","","","","","","","","","","","","","","","","",""
"263.39999997615814","178232","SARL_v6","SARL_v6tjnw8bvz","610041d6fecff598399d5783","freq","","","img/blue_2bandit_b2.png","70","","70","test","1","","26","","","","circle","square","25","4","2","1","","","","","","","",""
"null","178778","SARL_v6","SARL_v6tjnw8bvz","610041d6fecff598399d5783","freq_resp","","","img/blue_2bandit_b.png","70","img/blue_2bandit_b.png","70","test","","","","","","","","","","","2","","","","","","","","",""
"null","178941","SARL_v6","SARL_v6tjnw8bvz","610041d6fecff598399d5783","fixation","","","img/fixation.png","null","","","test","","","","","","","","","","","","","","","","","","","",""
"269.80000001192093","179218","SARL_v6","SARL_v6tjnw8bvz","610041d6fecff598399d5783","freq","","","img/blue_2bandit_b2.png","70","","70","test","1","","27","","","","circle","square","26","5","2","1","","","","","","","",""
"null","179762","SARL_v6","SARL_v6tjnw8bvz","610041d6fecff598399d5783","freq_resp","","","img/blue_2bandit_b.png","70","img/blue_2bandit_b.png","70","test","","","","","","","","","","","2","","","","","","","","",""
"null","179925","SARL_v6","SARL_v6tjnw8bvz","610041d6fecff598399d5783","fixation","","","img/fixation.png","null","","","test","","","","","","","","","","","","","","","","","","","",""
"153.89999997615814","180086","SARL_v6","SARL_v6tjnw8bvz","610041d6fecff598399d5783","freq","","","img/blue_2bandit_b2.png","70","","70","test","1","","28","","","","circle","square","27","6","2","1","","","","","","","",""
"null","180745","SARL_v6","SARL_v6tjnw8bvz","610041d6fecff598399d5783","freq_resp","","","img/blue_2bandit_b.png","70","img/blue_2bandit_b.png","70","test","","","","","","","","","","","2","","","","","","","","",""
"null","180906","SARL_v6","SARL_v6tjnw8bvz","610041d6fecff598399d5783","fixation","","","img/fixation.png","null","","","test","","","","","","","","","","","","","","","","","","","",""
"135.80000001192093","181049","SARL_v6","SARL_v6tjnw8bvz","610041d6fecff598399d5783","freq","","","img/blue_2bandit_b2.png","70","","70","test","1","","29","","","","circle","square","28","7","2","1","","","","","","","",""
"null","181734","SARL_v6","SARL_v6tjnw8bvz","610041d6fecff598399d5783","freq_resp","","","img/blue_2bandit_b.png","70","img/blue_2bandit_b.png","70","test","","","","","","","","","","","2","","","","","","","","",""
"null","181900","SARL_v6","SARL_v6tjnw8bvz","610041d6fecff598399d5783","fixation","","","img/fixation.png","null","","","test","","","","","","","","","","","","","","","","","","","",""
"158.5","182065","SARL_v6","SARL_v6tjnw8bvz","610041d6fecff598399d5783","freq","","","img/blue_2bandit_b2.png","70","","70","test","1","","30","","","","circle","square","29","8","2","1","","","","","","","",""
"null","182725","SARL_v6","SARL_v6tjnw8bvz","610041d6fecff598399d5783","freq_resp","","","img/blue_2bandit_b.png","70","img/blue_2bandit_b.png","70","test","","","","","","","","","","","2","","","","","","","","",""
"null","182889","SARL_v6","SARL_v6tjnw8bvz","610041d6fecff598399d5783","fixation","","","img/fixation.png","null","","","test","","","","","","","","","","","","","","","","","","","",""
"310.89999997615814","183208","SARL_v6","SARL_v6tjnw8bvz","610041d6fecff598399d5783","freq","","","img/blue_2bandit_b2.png","70","","70","test","1","","31","","","","circle","square","30","9","2","1","","","","","","","",""
"null","183717","SARL_v6","SARL_v6tjnw8bvz","610041d6fecff598399d5783","freq_resp","","","img/blue_2bandit_b.png","70","img/blue_2bandit_b.png","70","test","","","","","","","","","","","2","","","","","","","","",""
"null","183884","SARL_v6","SARL_v6tjnw8bvz","610041d6fecff598399d5783","fixation","","","img/fixation.png","null","","","test","","","","","","","","","","","","","","","","","","","",""
"506.2999999523163","184397","SARL_v6","SARL_v6tjnw8bvz","610041d6fecff598399d5783","infreq","","","img/orange_2bandit_b2.png","68","","68","test","1","","32","","","","circle","square","31","10","2","1","","","","","","","",""
"null","184707","SARL_v6","SARL_v6tjnw8bvz","610041d6fecff598399d5783","infreq_resp","","","img/orange_2bandit_b.png","68","img/orange_2bandit_b.png","68","test","","","","","","","","","","","2","","","","","","","","",""
"null","184873","SARL_v6","SARL_v6tjnw8bvz","610041d6fecff598399d5783","fixation","","","img/fixation.png","null","","","test","","","","","","","","","","","","","","","","","","","",""
"411.39999997615814","185291","SARL_v6","SARL_v6tjnw8bvz","610041d6fecff598399d5783","freq","","","img/blue_2bandit_b2.png","70","","70","test","1","","33","","","","circle","square","32","11","2","1","","","","","","","",""
"null","185690","SARL_v6","SARL_v6tjnw8bvz","610041d6fecff598399d5783","freq_resp","","","img/blue_2bandit_b.png","70","img/blue_2bandit_b.png","70","test","","","","","","","","","","","2","","","","","","","","",""
"null","185861","SARL_v6","SARL_v6tjnw8bvz","610041d6fecff598399d5783","fixation","","","img/fixation.png","null","","","test","","","","","","","","","","","","","","","","","","","",""
"340.0999999642372","186209","SARL_v6","SARL_v6tjnw8bvz","610041d6fecff598399d5783","freq","","","img/blue_2bandit_b2.png","70","","70","test","1","","34","","","","circle","square","33","12","2","1","","","","","","","",""
"null","186683","SARL_v6","SARL_v6tjnw8bvz","610041d6fecff598399d5783","freq_resp","","","img/blue_2bandit_b.png","70","img/blue_2bandit_b.png","70","test","","","","","","","","","","","2","","","","","","","","",""
"null","186850","SARL_v6","SARL_v6tjnw8bvz","610041d6fecff598399d5783","fixation","","","img/fixation.png","null","","","test","","","","","","","","","","","","","","","","","","","",""
"453.4000000357628","187312","SARL_v6","SARL_v6tjnw8bvz","610041d6fecff598399d5783","infreq","","","img/orange_2bandit_b2.png","68","","68","test","1","","35","","","","circle","square","34","13","2","1","","","","","","","",""
"null","187677","SARL_v6","SARL_v6tjnw8bvz","610041d6fecff598399d5783","infreq_resp","","","img/orange_2bandit_b.png","68","img/orange_2bandit_b.png","68","test","","","","","","","","","","","2","","","","","","","","",""
"null","187844","SARL_v6","SARL_v6tjnw8bvz","610041d6fecff598399d5783","fixation","","","img/fixation.png","null","","","test","","","","","","","","","","","","","","","","","","","",""
"387","188236","SARL_v6","SARL_v6tjnw8bvz","610041d6fecff598399d5783","freq","","","img/blue_2bandit_b2.png","70","","70","test","1","","36","","","","circle","square","35","14","2","1","","","","","","","",""
"null","188667","SARL_v6","SARL_v6tjnw8bvz","610041d6fecff598399d5783","freq_resp","","","img/blue_2bandit_b.png","70","img/blue_2bandit_b.png","70","test","","","","","","","","","","","2","","","","","","","","",""
"null","188834","SARL_v6","SARL_v6tjnw8bvz","610041d6fecff598399d5783","fixation","","","img/fixation.png","null","","","test","","","","","","","","","","","","","","","","","","","",""
"328.2000000476837","189170","SARL_v6","SARL_v6tjnw8bvz","610041d6fecff598399d5783","freq","","","img/blue_2bandit_b2.png","70","","70","test","1","","37","","","","circle","square","36","15","2","1","","","","","","","",""
"null","189660","SARL_v6","SARL_v6tjnw8bvz","610041d6fecff598399d5783","freq_resp","","","img/blue_2bandit_b.png","70","img/blue_2bandit_b.png","70","test","","","","","","","","","","","2","","","","","","","","",""
"null","189827","SARL_v6","SARL_v6tjnw8bvz","610041d6fecff598399d5783","fixation","","","img/fixation.png","null","","","test","","","","","","","","","","","","","","","","","","","",""
"304.89999997615814","190139","SARL_v6","SARL_v6tjnw8bvz","610041d6fecff598399d5783","freq","","","img/blue_2bandit_b2.png","70","","70","test","1","","38","","","","circle","square","37","16","2","1","","","","","","","",""
"null","190643","SARL_v6","SARL_v6tjnw8bvz","610041d6fecff598399d5783","freq_resp","","","img/blue_2bandit_b.png","70","img/blue_2bandit_b.png","70","test","","","","","","","","","","","2","","","","","","","","",""
"null","190810","SARL_v6","SARL_v6tjnw8bvz","610041d6fecff598399d5783","fixation","","","img/fixation.png","null","","","test","","","","","","","","","","","","","","","","","","","",""
"308.7999999523163","191126","SARL_v6","SARL_v6tjnw8bvz","610041d6fecff598399d5783","freq","","","img/blue_2bandit_b2.png","70","","70","test","1","","39","","","","circle","square","38","17","2","1","","","","","","","",""
"null","191634","SARL_v6","SARL_v6tjnw8bvz","610041d6fecff598399d5783","freq_resp","","","img/blue_2bandit_b.png","70","img/blue_2bandit_b.png","70","test","","","","","","","","","","","2","","","","","","","","",""
"null","191800","SARL_v6","SARL_v6tjnw8bvz","610041d6fecff598399d5783","fixation","","","img/fixation.png","null","","","test","","","","","","","","","","","","","","","","","","","",""
"167.4000000357628","191973","SARL_v6","SARL_v6tjnw8bvz","610041d6fecff598399d5783","freq","","","img/blue_2bandit_b2.png","70","","70","test","1","","40","","","","circle","square","39","18","2","1","","","","","","","",""
"null","192620","SARL_v6","SARL_v6tjnw8bvz","610041d6fecff598399d5783","freq_resp","","","img/blue_2bandit_b.png","70","img/blue_2bandit_b.png","70","test","","","","","","","","","","","2","","","","","","","","",""
"null","192784","SARL_v6","SARL_v6tjnw8bvz","610041d6fecff598399d5783","fixation","","","img/fixation.png","null","","","test","","","","","","","","","","","","","","","","","","","",""
"142.89999997615814","192934","SARL_v6","SARL_v6tjnw8bvz","610041d6fecff598399d5783","infreq","","","img/orange_2bandit_b2.png","70","","68","test","0","","41","","","","circle","square","40","19","2","0.975","","","","","","","",""
"null","193605","SARL_v6","SARL_v6tjnw8bvz","610041d6fecff598399d5783","infreq_resp","","","img/orange_2bandit_b.png","70","img/orange_2bandit_b.png","68","test","","","","","","","","","","","2","","","","","","","","",""
"null","193769","SARL_v6","SARL_v6tjnw8bvz","610041d6fecff598399d5783","fixation","","","img/fixation.png","null","","","test","","","","","","","","","","","","","","","","","","","",""
"394.39999997615814","194169","SARL_v6","SARL_v6tjnw8bvz","610041d6fecff598399d5783","freq","","","img/blue_2bandit_b2.png","70","","70","test","1","","42","","","","circle","square","41","20","2","0.975609756097561","","","","","","","",""
"null","194588","SARL_v6","SARL_v6tjnw8bvz","610041d6fecff598399d5783","freq_resp","","","img/blue_2bandit_b.png","70","img/blue_2bandit_b.png","70","test","","","","","","","","","","","2","","","","","","","","",""
"null","194754","SARL_v6","SARL_v6tjnw8bvz","610041d6fecff598399d5783","fixation","","","img/fixation.png","null","","","test","","","","","","","","","","","","","","","","","","","",""
"327.5","195088","SARL_v6","SARL_v6tjnw8bvz","610041d6fecff598399d5783","freq","","","img/blue_2bandit_b2.png","70","","70","test","1","","43","","","","circle","square","42","21","2","0.9761904761904762","","","","","","","",""
"null","195569","SARL_v6","SARL_v6tjnw8bvz","610041d6fecff598399d5783","freq_resp","","","img/blue_2bandit_b.png","70","img/blue_2bandit_b.png","70","test","","","","","","","","","","","2","","","","","","","","",""
"null","195732","SARL_v6","SARL_v6tjnw8bvz","610041d6fecff598399d5783","fixation","","","img/fixation.png","null","","","test","","","","","","","","","","","","","","","","","","","",""
"173.80000001192093","195914","SARL_v6","SARL_v6tjnw8bvz","610041d6fecff598399d5783","freq","","","img/blue_2bandit_b2.png","70","","70","test","1","","44","","","","circle","square","43","22","2","0.9767441860465116","","","","","","","",""
"null","196555","SARL_v6","SARL_v6tjnw8bvz","610041d6fecff598399d5783","freq_resp","","","img/blue_2bandit_b.png","70","img/blue_2bandit_b.png","70","test","","","","","","","","","","","2","","","","","","","","",""
"null","196724","SARL_v6","SARL_v6tjnw8bvz","610041d6fecff598399d5783","fixation","","","img/fixation.png","null","","","test","","","","","","","","","","","","","","","","","","","",""
"210.29999995231628","196942","SARL_v6","SARL_v6tjnw8bvz","610041d6fecff598399d5783","freq","","","img/blue_2bandit_b2.png","70","","70","test","1","","45","","","","circle","square","44","23","2","0.9772727272727273","","","","","","","",""
"null","197548","SARL_v6","SARL_v6tjnw8bvz","610041d6fecff598399d5783","freq_resp","","","img/blue_2bandit_b.png","70","img/blue_2bandit_b.png","70","test","","","","","","","","","","","2","","","","","","","","",""
"null","197715","SARL_v6","SARL_v6tjnw8bvz","610041d6fecff598399d5783","fixation","","","img/fixation.png","null","","","test","","","","","","","","","","","","","","","","","","","",""
"182.9000000357628","197906","SARL_v6","SARL_v6tjnw8bvz","610041d6fecff598399d5783","freq","","","img/blue_2bandit_b2.png","70","","70","test","1","","46","","","","circle","square","45","24","2","0.9777777777777777","","","","","","","",""
"null","198540","SARL_v6","SARL_v6tjnw8bvz","610041d6fecff598399d5783","freq_resp","","","img/blue_2bandit_b.png","70","img/blue_2bandit_b.png","70","test","","","","","","","","","","","2","","","","","","","","",""
"null","198704","SARL_v6","SARL_v6tjnw8bvz","610041d6fecff598399d5783","fixation","","","img/fixation.png","null","","","test","","","","","","","","","","","","","","","","","","","",""
"181.20000004768372","198892","SARL_v6","SARL_v6tjnw8bvz","610041d6fecff598399d5783","freq","","","img/blue_2bandit_b2.png","70","","70","test","1","","47","","","","circle","square","46","25","2","0.9782608695652174","","","","","","","",""
"null","199521","SARL_v6","SARL_v6tjnw8bvz","610041d6fecff598399d5783","freq_resp","","","img/blue_2bandit_b.png","70","img/blue_2bandit_b.png","70","test","","","","","","","","","","","2","","","","","","","","",""
"null","199681","SARL_v6","SARL_v6tjnw8bvz","610041d6fecff598399d5783","fixation","","","img/fixation.png","null","","","test","","","","","","","","","","","","","","","","","","","",""
"926.3999999761581","200616","SARL_v6","SARL_v6tjnw8bvz","610041d6fecff598399d5783","rl","","","img/black_2bandit_b2.png","74","","0","test","","","48","","","-5","circle","square","","0","2","","74","-5","-8","-5","-8","circle","2","0"
"null","201376","SARL_v6","SARL_v6tjnw8bvz","610041d6fecff598399d5783","feedback","","","<div class=""verylowPoints""> -5 </div>","null","","na","test","","","NaN","","","","","","","","2","","74","","","","","","2",""
"474.89999997615814","201857","SARL_v6","SARL_v6tjnw8bvz","610041d6fecff598399d5783","freq","","","img/blue_2bandit_b2.png","70","","70","test","1","","49","","","","circle","square","47","1","3","0.9787234042553191","","","","","","","",""
"null","202192","SARL_v6","SARL_v6tjnw8bvz","610041d6fecff598399d5783","freq_resp","","","img/blue_2bandit_b.png","70","img/blue_2bandit_b.png","70","test","","","","","","","","","","","3","","","","","","","","",""
"null","202356","SARL_v6","SARL_v6tjnw8bvz","610041d6fecff598399d5783","fixation","","","img/fixation.png","null","","","test","","","","","","","","","","","","","","","","","","","",""
"358.69999998807907","202722","SARL_v6","SARL_v6tjnw8bvz","610041d6fecff598399d5783","freq","","","img/blue_2bandit_b2.png","70","","70","test","1","","50","","","","circle","square","48","2","3","0.9791666666666666","","","","","","","",""
"null","203178","SARL_v6","SARL_v6tjnw8bvz","610041d6fecff598399d5783","freq_resp","","","img/blue_2bandit_b.png","70","img/blue_2bandit_b.png","70","test","","","","","","","","","","","3","","","","","","","","",""
"null","203344","SARL_v6","SARL_v6tjnw8bvz","610041d6fecff598399d5783","fixation","","","img/fixation.png","null","","","test","","","","","","","","","","","","","","","","","","","",""
"290.19999998807907","203642","SARL_v6","SARL_v6tjnw8bvz","610041d6fecff598399d5783","freq","","","img/blue_2bandit_b2.png","70","","70","test","1","","51","","","","circle","square","49","3","3","0.9795918367346939","","","","","","","",""
"null","204159","SARL_v6","SARL_v6tjnw8bvz","610041d6fecff598399d5783","freq_resp","","","img/blue_2bandit_b.png","70","img/blue_2bandit_b.png","70","test","","","","","","","","","","","3","","","","","","","","",""
"null","204323","SARL_v6","SARL_v6tjnw8bvz","610041d6fecff598399d5783","fixation","","","img/fixation.png","null","","","test","","","","","","","","","","","","","","","","","","","",""
"286.89999997615814","204615","SARL_v6","SARL_v6tjnw8bvz","610041d6fecff598399d5783","freq","","","img/blue_2bandit_b2.png","70","","70","test","1","","52","","","","circle","square","50","4","3","0.98","","","","","","","",""
"null","205147","SARL_v6","SARL_v6tjnw8bvz","610041d6fecff598399d5783","freq_resp","","","img/blue_2bandit_b.png","70","img/blue_2bandit_b.png","70","test","","","","","","","","","","","3","","","","","","","","",""
"null","205315","SARL_v6","SARL_v6tjnw8bvz","610041d6fecff598399d5783","fixation","","","img/fixation.png","null","","","test","","","","","","","","","","","","","","","","","","","",""
"251.5","205574","SARL_v6","SARL_v6tjnw8bvz","610041d6fecff598399d5783","infreq","","","img/orange_2bandit_b2.png","70","","68","test","0","","53","","","","circle","square","51","5","3","0.9607843137254902","","","","","","","",""
"null","206136","SARL_v6","SARL_v6tjnw8bvz","610041d6fecff598399d5783","infreq_resp","","","img/orange_2bandit_b.png","70","img/orange_2bandit_b.png","68","test","","","","","","","","","","","3","","","","","","","","",""
"null","206298","SARL_v6","SARL_v6tjnw8bvz","610041d6fecff598399d5783","fixation","","","img/fixation.png","null","","","test","","","","","","","","","","","","","","","","","","","",""
"404.80000001192093","206710","SARL_v6","SARL_v6tjnw8bvz","610041d6fecff598399d5783","freq","","","img/blue_2bandit_b2.png","70","","70","test","1","","54","","","","circle","square","52","6","3","0.9615384615384616","","","","","","","",""
"null","207123","SARL_v6","SARL_v6tjnw8bvz","610041d6fecff598399d5783","freq_resp","","","img/blue_2bandit_b.png","70","img/blue_2bandit_b.png","70","test","","","","","","","","","","","3","","","","","","","","",""
"null","207283","SARL_v6","SARL_v6tjnw8bvz","610041d6fecff598399d5783","fixation","","","img/fixation.png","null","","","test","","","","","","","","","","","","","","","","","","","",""
"374.2999999523163","207666","SARL_v6","SARL_v6tjnw8bvz","610041d6fecff598399d5783","freq","","","img/blue_2bandit_b2.png","70","","70","test","1","","55","","","","circle","square","53","7","3","0.9622641509433962","","","","","","","",""
"null","208105","SARL_v6","SARL_v6tjnw8bvz","610041d6fecff598399d5783","freq_resp","","","img/blue_2bandit_b.png","70","img/blue_2bandit_b.png","70","test","","","","","","","","","","","3","","","","","","","","",""
"null","208275","SARL_v6","SARL_v6tjnw8bvz","610041d6fecff598399d5783","fixation","","","img/fixation.png","null","","","test","","","","","","","","","","","","","","","","","","","",""
"303.69999998807907","208586","SARL_v6","SARL_v6tjnw8bvz","610041d6fecff598399d5783","freq","","","img/blue_2bandit_b2.png","70","","70","test","1","","56","","","","circle","square","54","8","3","0.9629629629629629","","","","","","","",""
"null","209093","SARL_v6","SARL_v6tjnw8bvz","610041d6fecff598399d5783","freq_resp","","","img/blue_2bandit_b.png","70","img/blue_2bandit_b.png","70","test","","","","","","","","","","","3","","","","","","","","",""
"null","209258","SARL_v6","SARL_v6tjnw8bvz","610041d6fecff598399d5783","fixation","","","img/fixation.png","null","","","test","","","","","","","","","","","","","","","","","","","",""
"302","209569","SARL_v6","SARL_v6tjnw8bvz","610041d6fecff598399d5783","freq","","","img/blue_2bandit_b2.png","70","","70","test","1","","57","","","","circle","square","55","9","3","0.9636363636363636","","","","","","","",""
"null","210075","SARL_v6","SARL_v6tjnw8bvz","610041d6fecff598399d5783","freq_resp","","","img/blue_2bandit_b.png","70","img/blue_2bandit_b.png","70","test","","","","","","","","","","","3","","","","","","","","",""
"null","210242","SARL_v6","SARL_v6tjnw8bvz","610041d6fecff598399d5783","fixation","","","img/fixation.png","null","","","test","","","","","","","","","","","","","","","","","","","",""
"327.5999999642372","210577","SARL_v6","SARL_v6tjnw8bvz","610041d6fecff598399d5783","freq","","","img/blue_2bandit_b2.png","70","","70","test","1","","58","","","","circle","square","56","10","3","0.9642857142857143","","","","","","","",""
"null","211065","SARL_v6","SARL_v6tjnw8bvz","610041d6fecff598399d5783","freq_resp","","","img/blue_2bandit_b.png","70","img/blue_2bandit_b.png","70","test","","","","","","","","","","","3","","","","","","","","",""
"null","211225","SARL_v6","SARL_v6tjnw8bvz","610041d6fecff598399d5783","fixation","","","img/fixation.png","null","","","test","","","","","","","","","","","","","","","","","","","",""
"500.69999998807907","211733","SARL_v6","SARL_v6tjnw8bvz","610041d6fecff598399d5783","infreq","","","img/orange_2bandit_b2.png","68","","68","test","1","","59","","","","circle","square","57","11","3","0.9649122807017544","","","","","","","",""
"null","212048","SARL_v6","SARL_v6tjnw8bvz","610041d6fecff598399d5783","infreq_resp","","","img/orange_2bandit_b.png","68","img/orange_2bandit_b.png","68","test","","","","","","","","","","","3","","","","","","","","",""
"null","212211","SARL_v6","SARL_v6tjnw8bvz","610041d6fecff598399d5783","fixation","","","img/fixation.png","null","","","test","","","","","","","","","","","","","","","","","","","",""
"362.10000002384186","212580","SARL_v6","SARL_v6tjnw8bvz","610041d6fecff598399d5783","freq","","","img/blue_2bandit_b2.png","70","","70","test","1","","60","","","","circle","square","58","12","3","0.9655172413793104","","","","","","","",""
"null","213035","SARL_v6","SARL_v6tjnw8bvz","610041d6fecff598399d5783","freq_resp","","","img/blue_2bandit_b.png","70","img/blue_2bandit_b.png","70","test","","","","","","","","","","","3","","","","","","","","",""
"null","213200","SARL_v6","SARL_v6tjnw8bvz","610041d6fecff598399d5783","fixation","","","img/fixation.png","null","","","test","","","","","","","","","","","","","","","","","","","",""
"291.60000002384186","213499","SARL_v6","SARL_v6tjnw8bvz","610041d6fecff598399d5783","freq","","","img/blue_2bandit_b2.png","70","","70","test","1","","61","","","","circle","square","59","13","3","0.9661016949152542","","","","","","","",""
"null","214017","SARL_v6","SARL_v6tjnw8bvz","610041d6fecff598399d5783","freq_resp","","","img/blue_2bandit_b.png","70","img/blue_2bandit_b.png","70","test","","","","","","","","","","","3","","","","","","","","",""
"null","214179","SARL_v6","SARL_v6tjnw8bvz","610041d6fecff598399d5783","fixation","","","img/fixation.png","null","","","test","","","","","","","","","","","","","","","","","","","",""
"121.30000001192093","214308","SARL_v6","SARL_v6tjnw8bvz","610041d6fecff598399d5783","freq","","","img/blue_2bandit_b2.png","70","","70","test","1","","62","","","","circle","square","60","14","3","0.9666666666666667","","","","","","","",""
"null","214999","SARL_v6","SARL_v6tjnw8bvz","610041d6fecff598399d5783","freq_resp","","","img/blue_2bandit_b.png","70","img/blue_2bandit_b.png","70","test","","","","","","","","","","","3","","","","","","","","",""
"null","215162","SARL_v6","SARL_v6tjnw8bvz","610041d6fecff598399d5783","fixation","","","img/fixation.png","null","","","test","","","","","","","","","","","","","","","","","","","",""
"296.0999999642372","215465","SARL_v6","SARL_v6tjnw8bvz","610041d6fecff598399d5783","freq","","","img/blue_2bandit_b2.png","70","","70","test","1","","63","","","","circle","square","61","15","3","0.9672131147540983","","","","","","","",""
"null","215985","SARL_v6","SARL_v6tjnw8bvz","610041d6fecff598399d5783","freq_resp","","","img/blue_2bandit_b.png","70","img/blue_2bandit_b.png","70","test","","","","","","","","","","","3","","","","","","","","",""
"null","216148","SARL_v6","SARL_v6tjnw8bvz","610041d6fecff598399d5783","fixation","","","img/fixation.png","null","","","test","","","","","","","","","","","","","","","","","","","",""
"323","216479","SARL_v6","SARL_v6tjnw8bvz","610041d6fecff598399d5783","freq","","","img/blue_2bandit_b2.png","70","","70","test","1","","64","","","","circle","square","62","16","3","0.967741935483871","","","","","","","",""
"null","216971","SARL_v6","SARL_v6tjnw8bvz","610041d6fecff598399d5783","freq_resp","","","img/blue_2bandit_b.png","70","img/blue_2bandit_b.png","70","test","","","","","","","","","","","3","","","","","","","","",""
"null","217135","SARL_v6","SARL_v6tjnw8bvz","610041d6fecff598399d5783","fixation","","","img/fixation.png","null","","","test","","","","","","","","","","","","","","","","","","","",""
"322.39999997615814","217462","SARL_v6","SARL_v6tjnw8bvz","610041d6fecff598399d5783","freq","","","img/blue_2bandit_b2.png","70","","70","test","1","","65","","","","circle","square","63","17","3","0.9682539682539683","","","","","","","",""
"null","217954","SARL_v6","SARL_v6tjnw8bvz","610041d6fecff598399d5783","freq_resp","","","img/blue_2bandit_b.png","70","img/blue_2bandit_b.png","70","test","","","","","","","","","","","3","","","","","","","","",""
"null","218123","SARL_v6","SARL_v6tjnw8bvz","610041d6fecff598399d5783","fixation","","","img/fixation.png","null","","","test","","","","","","","","","","","","","","","","","","","",""
"351.80000001192093","218483","SARL_v6","SARL_v6tjnw8bvz","610041d6fecff598399d5783","freq","","","img/blue_2bandit_b2.png","70","","70","test","1","","66","","","","circle","square","64","18","3","0.96875","","","","","","","",""
"null","218946","SARL_v6","SARL_v6tjnw8bvz","610041d6fecff598399d5783","freq_resp","","","img/blue_2bandit_b.png","70","img/blue_2bandit_b.png","70","test","","","","","","","","","","","3","","","","","","","","",""
"null","219104","SARL_v6","SARL_v6tjnw8bvz","610041d6fecff598399d5783","fixation","","","img/fixation.png","null","","","test","","","","","","","","","","","","","","","","","","","",""
"310.80000001192093","219423","SARL_v6","SARL_v6tjnw8bvz","610041d6fecff598399d5783","freq","","","img/blue_2bandit_b2.png","70","","70","test","1","","67","","","","circle","square","65","19","3","0.9692307692307692","","","","","","","",""
"null","219931","SARL_v6","SARL_v6tjnw8bvz","610041d6fecff598399d5783","freq_resp","","","img/blue_2bandit_b.png","70","img/blue_2bandit_b.png","70","test","","","","","","","","","","","3","","","","","","","","",""
"null","220098","SARL_v6","SARL_v6tjnw8bvz","610041d6fecff598399d5783","fixation","","","img/fixation.png","null","","","test","","","","","","","","","","","","","","","","","","","",""
"327.5","220432","SARL_v6","SARL_v6tjnw8bvz","610041d6fecff598399d5783","freq","","","img/blue_2bandit_b2.png","70","","70","test","1","","68","","","","circle","square","66","20","3","0.9696969696969697","","","","","","","",""
"null","220921","SARL_v6","SARL_v6tjnw8bvz","610041d6fecff598399d5783","freq_resp","","","img/blue_2bandit_b.png","70","img/blue_2bandit_b.png","70","test","","","","","","","","","","","3","","","","","","","","",""
"null","221091","SARL_v6","SARL_v6tjnw8bvz","610041d6fecff598399d5783","fixation","","","img/fixation.png","null","","","test","","","","","","","","","","","","","","","","","","","",""
"542.6999999880791","221638","SARL_v6","SARL_v6tjnw8bvz","610041d6fecff598399d5783","rl","","","img/black_2bandit_b2.png","75","","0","test","","","69","","","-8","circle","square","","0","3","","75","-4","-8","-4","-8","square","3","0"
"null","222399","SARL_v6","SARL_v6tjnw8bvz","610041d6fecff598399d5783","feedback","","","<div class=""verylowPoints_sq""> -8 </div>","null","","na","test","","","NaN","","","","","","","","3","","75","","","","","","3",""
"455.2999999523163","222861","SARL_v6","SARL_v6tjnw8bvz","610041d6fecff598399d5783","freq","","","img/blue_2bandit_b2.png","70","","70","test","1","","70","","","","circle","square","67","1","4","0.9701492537313433","","","","","","","",""
"null","223214","SARL_v6","SARL_v6tjnw8bvz","610041d6fecff598399d5783","freq_resp","","","img/blue_2bandit_b.png","70","img/blue_2bandit_b.png","70","test","","","","","","","","","","","4","","","","","","","","",""
"null","223375","SARL_v6","SARL_v6tjnw8bvz","610041d6fecff598399d5783","fixation","","","img/fixation.png","null","","","test","","","","","","","","","","","","","","","","","","","",""
"346.39999997615814","223729","SARL_v6","SARL_v6tjnw8bvz","610041d6fecff598399d5783","freq","","","img/blue_2bandit_b2.png","70","","70","test","1","","71","","","","circle","square","68","2","4","0.9705882352941176","","","","","","","",""
"null","224192","SARL_v6","SARL_v6tjnw8bvz","610041d6fecff598399d5783","freq_resp","","","img/blue_2bandit_b.png","70","img/blue_2bandit_b.png","70","test","","","","","","","","","","","4","","","","","","","","",""
"null","224354","SARL_v6","SARL_v6tjnw8bvz","610041d6fecff598399d5783","fixation","","","img/fixation.png","null","","","test","","","","","","","","","","","","","","","","","","","",""
"416.5999999642372","224778","SARL_v6","SARL_v6tjnw8bvz","610041d6fecff598399d5783","freq","","","img/blue_2bandit_b2.png","70","","70","test","1","","72","","","","circle","square","69","3","4","0.9710144927536232","","","","","","","",""
"null","225177","SARL_v6","SARL_v6tjnw8bvz","610041d6fecff598399d5783","freq_resp","","","img/blue_2bandit_b.png","70","img/blue_2bandit_b.png","70","test","","","","","","","","","","","4","","","","","","","","",""
"null","225347","SARL_v6","SARL_v6tjnw8bvz","610041d6fecff598399d5783","fixation","","","img/fixation.png","null","","","test","","","","","","","","","","","","","","","","","","","",""
"241.5","225595","SARL_v6","SARL_v6tjnw8bvz","610041d6fecff598399d5783","freq","","","img/blue_2bandit_b2.png","70","","70","test","1","","73","","","","circle","square","70","4","4","0.9714285714285714","","","","","","","",""
"null","226169","SARL_v6","SARL_v6tjnw8bvz","610041d6fecff598399d5783","freq_resp","","","img/blue_2bandit_b.png","70","img/blue_2bandit_b.png","70","test","","","","","","","","","","","4","","","","","","","","",""
"null","226329","SARL_v6","SARL_v6tjnw8bvz","610041d6fecff598399d5783","fixation","","","img/fixation.png","null","","","test","","","","","","","","","","","","","","","","","","","",""
"321.19999998807907","226656","SARL_v6","SARL_v6tjnw8bvz","610041d6fecff598399d5783","freq","","","img/blue_2bandit_b2.png","70","","70","test","1","","74","","","","circle","square","71","5","4","0.971830985915493","","","","","","","",""
"null","227143","SARL_v6","SARL_v6tjnw8bvz","610041d6fecff598399d5783","freq_resp","","","img/blue_2bandit_b.png","70","img/blue_2bandit_b.png","70","test","","","","","","","","","","","4","","","","","","","","",""
"null","227303","SARL_v6","SARL_v6tjnw8bvz","610041d6fecff598399d5783","fixation","","","img/fixation.png","null","","","test","","","","","","","","","","","","","","","","","","","",""
"308","227618","SARL_v6","SARL_v6tjnw8bvz","610041d6fecff598399d5783","freq","","","img/blue_2bandit_b2.png","70","","70","test","1","","75","","","","circle","square","72","6","4","0.9722222222222222","","","","","","","",""
"null","228121","SARL_v6","SARL_v6tjnw8bvz","610041d6fecff598399d5783","freq_resp","","","img/blue_2bandit_b.png","70","img/blue_2bandit_b.png","70","test","","","","","","","","","","","4","","","","","","","","",""
"null","228282","SARL_v6","SARL_v6tjnw8bvz","610041d6fecff598399d5783","fixation","","","img/fixation.png","null","","","test","","","","","","","","","","","","","","","","","","","",""
"256.30000001192093","228546","SARL_v6","SARL_v6tjnw8bvz","610041d6fecff598399d5783","infreq","","","img/orange_2bandit_b2.png","70","","68","test","0","","76","","","","circle","square","73","7","4","0.958904109589041","","","","","","","",""
"null","229106","SARL_v6","SARL_v6tjnw8bvz","610041d6fecff598399d5783","infreq_resp","","","img/orange_2bandit_b.png","70","img/orange_2bandit_b.png","68","test","","","","","","","","","","","4","","","","","","","","",""
"null","229274","SARL_v6","SARL_v6tjnw8bvz","610041d6fecff598399d5783","fixation","","","img/fixation.png","null","","","test","","","","","","","","","","","","","","","","","","","",""
"392.10000002384186","229668","SARL_v6","SARL_v6tjnw8bvz","610041d6fecff598399d5783","freq","","","img/blue_2bandit_b2.png","70","","70","test","1","","77","","","","circle","square","74","8","4","0.9594594594594594","","","","","","","",""
"null","230090","SARL_v6","SARL_v6tjnw8bvz","610041d6fecff598399d5783","freq_resp","","","img/blue_2bandit_b.png","70","img/blue_2bandit_b.png","70","test","","","","","","","","","","","4","","","","","","","","",""
"null","230256","SARL_v6","SARL_v6tjnw8bvz","610041d6fecff598399d5783","fixation","","","img/fixation.png","null","","","test","","","","","","","","","","","","","","","","","","","",""
"324.10000002384186","230587","SARL_v6","SARL_v6tjnw8bvz","610041d6fecff598399d5783","freq","","","img/blue_2bandit_b2.png","70","","70","test","1","","78","","","","circle","square","75","9","4","0.96","","","","","","","",""
"null","231075","SARL_v6","SARL_v6tjnw8bvz","610041d6fecff598399d5783","freq_resp","","","img/blue_2bandit_b.png","70","img/blue_2bandit_b.png","70","test","","","","","","","","","","","4","","","","","","","","",""
"null","231241","SARL_v6","SARL_v6tjnw8bvz","610041d6fecff598399d5783","fixation","","","img/fixation.png","null","","","test","","","","","","","","","","","","","","","","","","","",""
"314.39999997615814","231564","SARL_v6","SARL_v6tjnw8bvz","610041d6fecff598399d5783","freq","","","img/blue_2bandit_b2.png","70","","70","test","1","","79","","","","circle","square","76","10","4","0.9605263157894737","","","","","","","",""
"null","232066","SARL_v6","SARL_v6tjnw8bvz","610041d6fecff598399d5783","freq_resp","","","img/blue_2bandit_b.png","70","img/blue_2bandit_b.png","70","test","","","","","","","","","","","4","","","","","","","","",""
"null","232232","SARL_v6","SARL_v6tjnw8bvz","610041d6fecff598399d5783","fixation","","","img/fixation.png","null","","","test","","","","","","","","","","","","","","","","","","","",""
"108","232348","SARL_v6","SARL_v6tjnw8bvz","610041d6fecff598399d5783","freq","","","img/blue_2bandit_b2.png","70","","70","test","1","","80","","","","circle","square","77","11","4","0.961038961038961","","","","","","","",""
"null","233056","SARL_v6","SARL_v6tjnw8bvz","610041d6fecff598399d5783","freq_resp","","","img/blue_2bandit_b.png","70","img/blue_2bandit_b.png","70","test","","","","","","","","","","","4","","","","","","","","",""
"null","233223","SARL_v6","SARL_v6tjnw8bvz","610041d6fecff598399d5783","fixation","","","img/fixation.png","null","","","test","","","","","","","","","","","","","","","","","","","",""
"129.5","233359","SARL_v6","SARL_v6tjnw8bvz","610041d6fecff598399d5783","freq","","","img/blue_2bandit_b2.png","70","","70","test","1","","81","","","","circle","square","78","12","4","0.9615384615384616","","","","","","","",""
"null","234041","SARL_v6","SARL_v6tjnw8bvz","610041d6fecff598399d5783","freq_resp","","","img/blue_2bandit_b.png","70","img/blue_2bandit_b.png","70","test","","","","","","","","","","","4","","","","","","","","",""
"null","234206","SARL_v6","SARL_v6tjnw8bvz","610041d6fecff598399d5783","fixation","","","img/fixation.png","null","","","test","","","","","","","","","","","","","","","","","","","",""
"156.30000001192093","234370","SARL_v6","SARL_v6tjnw8bvz","610041d6fecff598399d5783","freq","","","img/blue_2bandit_b2.png","70","","70","test","1","","82","","","","circle","square","79","13","4","0.9620253164556962","","","","","","","",""
"null","235024","SARL_v6","SARL_v6tjnw8bvz","610041d6fecff598399d5783","freq_resp","","","img/blue_2bandit_b.png","70","img/blue_2bandit_b.png","70","test","","","","","","","","","","","4","","","","","","","","",""
"null","235181","SARL_v6","SARL_v6tjnw8bvz","610041d6fecff598399d5783","fixation","","","img/fixation.png","null","","","test","","","","","","","","","","","","","","","","","","","",""
"279.5","235466","SARL_v6","SARL_v6tjnw8bvz","610041d6fecff598399d5783","infreq","","","img/orange_2bandit_b2.png","70","","68","test","0","","83","","","","circle","square","80","14","4","0.95","","","","","","","",""
"null","236002","SARL_v6","SARL_v6tjnw8bvz","610041d6fecff598399d5783","infreq_resp","","","img/orange_2bandit_b.png","70","img/orange_2bandit_b.png","68","test","","","","","","","","","","","4","","","","","","","","",""
"null","236170","SARL_v6","SARL_v6tjnw8bvz","610041d6fecff598399d5783","fixation","","","img/fixation.png","null","","","test","","","","","","","","","","","","","","","","","","","",""
"365","236543","SARL_v6","SARL_v6tjnw8bvz","610041d6fecff598399d5783","freq","","","img/blue_2bandit_b2.png","70","","70","test","1","","84","","","","circle","square","81","15","4","0.9506172839506173","","","","","","","",""
"null","236993","SARL_v6","SARL_v6tjnw8bvz","610041d6fecff598399d5783","freq_resp","","","img/blue_2bandit_b.png","70","img/blue_2bandit_b.png","70","test","","","","","","","","","","","4","","","","","","","","",""
"null","237163","SARL_v6","SARL_v6tjnw8bvz","610041d6fecff598399d5783","fixation","","","img/fixation.png","null","","","test","","","","","","","","","","","","","","","","","","","",""
"330.80000001192093","237501","SARL_v6","SARL_v6tjnw8bvz","610041d6fecff598399d5783","freq","","","img/blue_2bandit_b2.png","70","","70","test","1","","85","","","","circle","square","82","16","4","0.9512195121951219","","","","","","","",""
"null","237982","SARL_v6","SARL_v6tjnw8bvz","610041d6fecff598399d5783","freq_resp","","","img/blue_2bandit_b.png","70","img/blue_2bandit_b.png","70","test","","","","","","","","","","","4","","","","","","","","",""
"null","238145","SARL_v6","SARL_v6tjnw8bvz","610041d6fecff598399d5783","fixation","","","img/fixation.png","null","","","test","","","","","","","","","","","","","","","","","","","",""
"266.30000001192093","238418","SARL_v6","SARL_v6tjnw8bvz","610041d6fecff598399d5783","freq","","","img/blue_2bandit_b2.png","70","","70","test","1","","86","","","","circle","square","83","17","4","0.9518072289156626","","","","","","","",""
"null","238966","SARL_v6","SARL_v6tjnw8bvz","610041d6fecff598399d5783","freq_resp","","","img/blue_2bandit_b.png","70","img/blue_2bandit_b.png","70","test","","","","","","","","","","","4","","","","","","","","",""
"null","239128","SARL_v6","SARL_v6tjnw8bvz","610041d6fecff598399d5783","fixation","","","img/fixation.png","null","","","test","","","","","","","","","","","","","","","","","","","",""
"138.19999998807907","239272","SARL_v6","SARL_v6tjnw8bvz","610041d6fecff598399d5783","freq","","","img/blue_2bandit_b2.png","70","","70","test","1","","87","","","","circle","square","84","18","4","0.9523809523809523","","","","","","","",""
"null","239946","SARL_v6","SARL_v6tjnw8bvz","610041d6fecff598399d5783","freq_resp","","","img/blue_2bandit_b.png","70","img/blue_2bandit_b.png","70","test","","","","","","","","","","","4","","","","","","","","",""
"null","240113","SARL_v6","SARL_v6tjnw8bvz","610041d6fecff598399d5783","fixation","","","img/fixation.png","null","","","test","","","","","","","","","","","","","","","","","","","",""
"127.89999997615814","240248","SARL_v6","SARL_v6tjnw8bvz","610041d6fecff598399d5783","freq","","","img/blue_2bandit_b2.png","70","","70","test","1","","88","","","","circle","square","85","19","4","0.9529411764705882","","","","","","","",""
"null","240938","SARL_v6","SARL_v6tjnw8bvz","610041d6fecff598399d5783","freq_resp","","","img/blue_2bandit_b.png","70","img/blue_2bandit_b.png","70","test","","","","","","","","","","","4","","","","","","","","",""
"null","241106","SARL_v6","SARL_v6tjnw8bvz","610041d6fecff598399d5783","fixation","","","img/fixation.png","null","","","test","","","","","","","","","","","","","","","","","","","",""
"140.89999997615814","241253","SARL_v6","SARL_v6tjnw8bvz","610041d6fecff598399d5783","freq","","","img/blue_2bandit_b2.png","70","","70","test","1","","89","","","","circle","square","86","20","4","0.9534883720930233","","","","","","","",""
"null","241929","SARL_v6","SARL_v6tjnw8bvz","610041d6fecff598399d5783","freq_resp","","","img/blue_2bandit_b.png","70","img/blue_2bandit_b.png","70","test","","","","","","","","","","","4","","","","","","","","",""
"null","242095","SARL_v6","SARL_v6tjnw8bvz","610041d6fecff598399d5783","fixation","","","img/fixation.png","null","","","test","","","","","","","","","","","","","","","","","","","",""
"492.7999999523163","242596","SARL_v6","SARL_v6tjnw8bvz","610041d6fecff598399d5783","rl","","","img/black_2bandit_b2.png","75","","0","test","","","90","","","-12","circle","square","","0","4","","75","0","-12","0","-12","square","4","0"
"null","243363","SARL_v6","SARL_v6tjnw8bvz","610041d6fecff598399d5783","feedback","","","<div class=""verylowPoints_sq""> -12 </div>","null","","na","test","","","NaN","","","","","","","","4","","75","","","","","","4",""
"404.10000002384186","243774","SARL_v6","SARL_v6tjnw8bvz","610041d6fecff598399d5783","freq","","","img/blue_2bandit_b2.png","70","","70","test","1","","91","","","","circle","square","87","1","5","0.9540229885057471","","","","","","","",""
"null","244186","SARL_v6","SARL_v6tjnw8bvz","610041d6fecff598399d5783","freq_resp","","","img/blue_2bandit_b.png","70","img/blue_2bandit_b.png","70","test","","","","","","","","","","","5","","","","","","","","",""
"null","244352","SARL_v6","SARL_v6tjnw8bvz","610041d6fecff598399d5783","fixation","","","img/fixation.png","null","","","test","","","","","","","","","","","","","","","","","","","",""
"341","244700","SARL_v6","SARL_v6tjnw8bvz","610041d6fecff598399d5783","freq","","","img/blue_2bandit_b2.png","70","","70","test","1","","92","","","","circle","square","88","2","5","0.9545454545454546","","","","","","","",""
"null","245177","SARL_v6","SARL_v6tjnw8bvz","610041d6fecff598399d5783","freq_resp","","","img/blue_2bandit_b.png","70","img/blue_2bandit_b.png","70","test","","","","","","","","","","","5","","","","","","","","",""
"null","245344","SARL_v6","SARL_v6tjnw8bvz","610041d6fecff598399d5783","fixation","","","img/fixation.png","null","","","test","","","","","","","","","","","","","","","","","","","",""
"331.89999997615814","245684","SARL_v6","SARL_v6tjnw8bvz","610041d6fecff598399d5783","freq","","","img/blue_2bandit_b2.png","70","","70","test","1","","93","","","","circle","square","89","3","5","0.9550561797752809","","","","","","","",""
"null","246167","SARL_v6","SARL_v6tjnw8bvz","610041d6fecff598399d5783","freq_resp","","","img/blue_2bandit_b.png","70","img/blue_2bandit_b.png","70","test","","","","","","","","","","","5","","","","","","","","",""
"null","246328","SARL_v6","SARL_v6tjnw8bvz","610041d6fecff598399d5783","fixation","","","img/fixation.png","null","","","test","","","","","","","","","","","","","","","","","","","",""
"268.19999998807907","246603","SARL_v6","SARL_v6tjnw8bvz","610041d6fecff598399d5783","infreq","","","img/orange_2bandit_b2.png","70","","68","test","0","","94","","","","circle","square","90","4","5","0.9444444444444444","","","","","","","",""
"null","247153","SARL_v6","SARL_v6tjnw8bvz","610041d6fecff598399d5783","infreq_resp","","","img/orange_2bandit_b.png","70","img/orange_2bandit_b.png","68","test","","","","","","","","","","","5","","","","","","","","",""
"null","247321","SARL_v6","SARL_v6tjnw8bvz","610041d6fecff598399d5783","fixation","","","img/fixation.png","null","","","test","","","","","","","","","","","","","","","","","","","",""
"618.1999999880791","247946","SARL_v6","SARL_v6tjnw8bvz","610041d6fecff598399d5783","freq","","","img/blue_2bandit_b2.png","70","","70","test","1","","95","","","","circle","square","91","5","5","0.945054945054945","","","","","","","",""
"null","248144","SARL_v6","SARL_v6tjnw8bvz","610041d6fecff598399d5783","freq_resp","","","img/blue_2bandit_b.png","70","img/blue_2bandit_b.png","70","test","","","","","","","","","","","5","","","","","","","","",""
"null","248311","SARL_v6","SARL_v6tjnw8bvz","610041d6fecff598399d5783","fixation","","","img/fixation.png","null","","","test","","","","","","","","","","","","","","","","","","","",""
"452.60000002384186","248770","SARL_v6","SARL_v6tjnw8bvz","610041d6fecff598399d5783","freq","","","img/blue_2bandit_b2.png","70","","70","test","1","","96","","","","circle","square","92","6","5","0.9456521739130435","","","","","","","",""
"null","249128","SARL_v6","SARL_v6tjnw8bvz","610041d6fecff598399d5783","freq_resp","","","img/blue_2bandit_b.png","70","img/blue_2bandit_b.png","70","test","","","","","","","","","","","5","","","","","","","","",""
"null","249295","SARL_v6","SARL_v6tjnw8bvz","610041d6fecff598399d5783","fixation","","","img/fixation.png","null","","","test","","","","","","","","","","","","","","","","","","","",""
"281","249583","SARL_v6","SARL_v6tjnw8bvz","610041d6fecff598399d5783","freq","","","img/blue_2bandit_b2.png","70","","70","test","1","","97","","","","circle","square","93","7","5","0.946236559139785","","","","","","","",""
"null","250121","SARL_v6","SARL_v6tjnw8bvz","610041d6fecff598399d5783","freq_resp","","","img/blue_2bandit_b.png","70","img/blue_2bandit_b.png","70","test","","","","","","","","","","","5","","","","","","","","",""
"null","250288","SARL_v6","SARL_v6tjnw8bvz","610041d6fecff598399d5783","fixation","","","img/fixation.png","null","","","test","","","","","","","","","","","","","","","","","","","",""
"318.19999998807907","250614","SARL_v6","SARL_v6tjnw8bvz","610041d6fecff598399d5783","freq","","","img/blue_2bandit_b2.png","70","","70","test","1","","98","","","","circle","square","94","8","5","0.9468085106382979","","","","","","","",""
"null","251113","SARL_v6","SARL_v6tjnw8bvz","610041d6fecff598399d5783","freq_resp","","","img/blue_2bandit_b.png","70","img/blue_2bandit_b.png","70","test","","","","","","","","","","","5","","","","","","","","",""
"null","251279","SARL_v6","SARL_v6tjnw8bvz","610041d6fecff598399d5783","fixation","","","img/fixation.png","null","","","test","","","","","","","","","","","","","","","","","","","",""
"160.5","251447","SARL_v6","SARL_v6tjnw8bvz","610041d6fecff598399d5783","freq","","","img/blue_2bandit_b2.png","70","","70","test","1","","99","","","","circle","square","95","9","5","0.9473684210526315","","","","","","","",""
"null","252105","SARL_v6","SARL_v6tjnw8bvz","610041d6fecff598399d5783","freq_resp","","","img/blue_2bandit_b.png","70","img/blue_2bandit_b.png","70","test","","","","","","","","","","","5","","","","","","","","",""
"null","252272","SARL_v6","SARL_v6tjnw8bvz","610041d6fecff598399d5783","fixation","","","img/fixation.png","null","","","test","","","","","","","","","","","","","","","","","","","",""
"283.10000002384186","252563","SARL_v6","SARL_v6tjnw8bvz","610041d6fecff598399d5783","freq","","","img/blue_2bandit_b2.png","70","","70","test","1","","100","","","","circle","square","96","10","5","0.9479166666666666","","","","","","","",""
"null","253097","SARL_v6","SARL_v6tjnw8bvz","610041d6fecff598399d5783","freq_resp","","","img/blue_2bandit_b.png","70","img/blue_2bandit_b.png","70","test","","","","","","","","","","","5","","","","","","","","",""
"null","253262","SARL_v6","SARL_v6tjnw8bvz","610041d6fecff598399d5783","fixation","","","img/fixation.png","null","","","test","","","","","","","","","","","","","","","","","","","",""
"302.10000002384186","253571","SARL_v6","SARL_v6tjnw8bvz","610041d6fecff598399d5783","freq","","","img/blue_2bandit_b2.png","70","","70","test","1","","101","","","","circle","square","97","11","5","0.9484536082474226","","","","","","","",""
"null","254078","SARL_v6","SARL_v6tjnw8bvz","610041d6fecff598399d5783","freq_resp","","","img/blue_2bandit_b.png","70","img/blue_2bandit_b.png","70","test","","","","","","","","","","","5","","","","","","","","",""
"null","254240","SARL_v6","SARL_v6tjnw8bvz","610041d6fecff598399d5783","fixation","","","img/fixation.png","null","","","test","","","","","","","","","","","","","","","","","","","",""
"280.60000002384186","254526","SARL_v6","SARL_v6tjnw8bvz","610041d6fecff598399d5783","infreq","","","img/orange_2bandit_b2.png","70","","68","test","0","","102","","","","circle","square","98","12","5","0.9387755102040817","","","","","","","",""
"null","255062","SARL_v6","SARL_v6tjnw8bvz","610041d6fecff598399d5783","infreq_resp","","","img/orange_2bandit_b.png","70","img/orange_2bandit_b.png","68","test","","","","","","","","","","","5","","","","","","","","",""
"null","255223","SARL_v6","SARL_v6tjnw8bvz","610041d6fecff598399d5783","fixation","","","img/fixation.png","null","","","test","","","","","","","","","","","","","","","","","","","",""
"360","255591","SARL_v6","SARL_v6tjnw8bvz","610041d6fecff598399d5783","freq","","","img/blue_2bandit_b2.png","70","","70","test","1","","103","","","","circle","square","99","13","5","0.9393939393939394","","","","","","","",""
"null","256046","SARL_v6","SARL_v6tjnw8bvz","610041d6fecff598399d5783","freq_resp","","","img/blue_2bandit_b.png","70","img/blue_2bandit_b.png","70","test","","","","","","","","","","","5","","","","","","","","",""
"null","256208","SARL_v6","SARL_v6tjnw8bvz","610041d6fecff598399d5783","fixation","","","img/fixation.png","null","","","test","","","","","","","","","","","","","","","","","","","",""
"382","256596","SARL_v6","SARL_v6tjnw8bvz","610041d6fecff598399d5783","freq","","","img/blue_2bandit_b2.png","70","","70","test","1","","104","","","","circle","square","100","14","5","0.94","","","","","","","",""
"null","257029","SARL_v6","SARL_v6tjnw8bvz","610041d6fecff598399d5783","freq_resp","","","img/blue_2bandit_b.png","70","img/blue_2bandit_b.png","70","test","","","","","","","","","","","5","","","","","","","","",""
"null","257193","SARL_v6","SARL_v6tjnw8bvz","610041d6fecff598399d5783","fixation","","","img/fixation.png","null","","","test","","","","","","","","","","","","","","","","","","","",""
"273.10000002384186","257473","SARL_v6","SARL_v6tjnw8bvz","610041d6fecff598399d5783","freq","","","img/blue_2bandit_b2.png","70","","70","test","1","","105","","","","circle","square","101","15","5","0.9405940594059405","","","","","","","",""
"null","258017","SARL_v6","SARL_v6tjnw8bvz","610041d6fecff598399d5783","freq_resp","","","img/blue_2bandit_b.png","70","img/blue_2bandit_b.png","70","test","","","","","","","","","","","5","","","","","","","","",""
"null","258186","SARL_v6","SARL_v6tjnw8bvz","610041d6fecff598399d5783","fixation","","","img/fixation.png","null","","","test","","","","","","","","","","","","","","","","","","","",""
"100.30000001192093","258293","SARL_v6","SARL_v6tjnw8bvz","610041d6fecff598399d5783","freq","","","img/blue_2bandit_b2.png","70","","70","test","1","","106","","","","circle","square","102","16","5","0.9411764705882353","","","","","","","",""
"null","259010","SARL_v6","SARL_v6tjnw8bvz","610041d6fecff598399d5783","freq_resp","","","img/blue_2bandit_b.png","70","img/blue_2bandit_b.png","70","test","","","","","","","","","","","5","","","","","","","","",""
"null","259177","SARL_v6","SARL_v6tjnw8bvz","610041d6fecff598399d5783","fixation","","","img/fixation.png","null","","","test","","","","","","","","","","","","","","","","","","","",""
"110.30000001192093","259295","SARL_v6","SARL_v6tjnw8bvz","610041d6fecff598399d5783","freq","","","img/blue_2bandit_b2.png","70","","70","test","1","","107","","","","circle","square","103","17","5","0.941747572815534","","","","","","","",""
"null","259997","SARL_v6","SARL_v6tjnw8bvz","610041d6fecff598399d5783","freq_resp","","","img/blue_2bandit_b.png","70","img/blue_2bandit_b.png","70","test","","","","","","","","","","","5","","","","","","","","",""
"null","260160","SARL_v6","SARL_v6tjnw8bvz","610041d6fecff598399d5783","fixation","","","img/fixation.png","null","","","test","","","","","","","","","","","","","","","","","","","",""
"129.30000001192093","260297","SARL_v6","SARL_v6tjnw8bvz","610041d6fecff598399d5783","freq","","","img/blue_2bandit_b2.png","70","","70","test","1","","108","","","","circle","square","104","18","5","0.9423076923076923","","","","","","","",""
"null","260983","SARL_v6","SARL_v6tjnw8bvz","610041d6fecff598399d5783","freq_resp","","","img/blue_2bandit_b.png","70","img/blue_2bandit_b.png","70","test","","","","","","","","","","","5","","","","","","","","",""
"null","261152","SARL_v6","SARL_v6tjnw8bvz","610041d6fecff598399d5783","fixation","","","img/fixation.png","null","","","test","","","","","","","","","","","","","","","","","","","",""
"311","261471","SARL_v6","SARL_v6tjnw8bvz","610041d6fecff598399d5783","freq","","","img/blue_2bandit_b2.png","70","","70","test","1","","109","","","","circle","square","105","19","5","0.9428571428571428","","","","","","","",""
"null","261977","SARL_v6","SARL_v6tjnw8bvz","610041d6fecff598399d5783","freq_resp","","","img/blue_2bandit_b.png","70","img/blue_2bandit_b.png","70","test","","","","","","","","","","","5","","","","","","","","",""
"null","262144","SARL_v6","SARL_v6tjnw8bvz","610041d6fecff598399d5783","fixation","","","img/fixation.png","null","","","test","","","","","","","","","","","","","","","","","","","",""
"305.4000000357628","262457","SARL_v6","SARL_v6tjnw8bvz","610041d6fecff598399d5783","freq","","","img/blue_2bandit_b2.png","70","","70","test","1","","110","","","","circle","square","106","20","5","0.9433962264150944","","","","","","","",""
"null","262969","SARL_v6","SARL_v6tjnw8bvz","610041d6fecff598399d5783","freq_resp","","","img/blue_2bandit_b.png","70","img/blue_2bandit_b.png","70","test","","","","","","","","","","","5","","","","","","","","",""
"null","263132","SARL_v6","SARL_v6tjnw8bvz","610041d6fecff598399d5783","fixation","","","img/fixation.png","null","","","test","","","","","","","","","","","","","","","","","","","",""
"309.19999998807907","263449","SARL_v6","SARL_v6tjnw8bvz","610041d6fecff598399d5783","freq","","","img/blue_2bandit_b2.png","70","","70","test","1","","111","","","","circle","square","107","21","5","0.9439252336448598","","","","","","","",""
"null","263952","SARL_v6","SARL_v6tjnw8bvz","610041d6fecff598399d5783","freq_resp","","","img/blue_2bandit_b.png","70","img/blue_2bandit_b.png","70","test","","","","","","","","","","","5","","","","","","","","",""
"null","264121","SARL_v6","SARL_v6tjnw8bvz","610041d6fecff598399d5783","fixation","","","img/fixation.png","null","","","test","","","","","","","","","","","","","","","","","","","",""
"329.10000002384186","264455","SARL_v6","SARL_v6tjnw8bvz","610041d6fecff598399d5783","freq","","","img/blue_2bandit_b2.png","70","","70","test","1","","112","","","","circle","square","108","22","5","0.9444444444444444","","","","","","","",""
"null","264944","SARL_v6","SARL_v6tjnw8bvz","610041d6fecff598399d5783","freq_resp","","","img/blue_2bandit_b.png","70","img/blue_2bandit_b.png","70","test","","","","","","","","","","","5","","","","","","","","",""
"null","265110","SARL_v6","SARL_v6tjnw8bvz","610041d6fecff598399d5783","fixation","","","img/fixation.png","null","","","test","","","","","","","","","","","","","","","","","","","",""
"328.80000001192093","265447","SARL_v6","SARL_v6tjnw8bvz","610041d6fecff598399d5783","freq","","","img/blue_2bandit_b2.png","70","","70","test","1","","113","","","","circle","square","109","23","5","0.944954128440367","","","","","","","",""
"null","265937","SARL_v6","SARL_v6tjnw8bvz","610041d6fecff598399d5783","freq_resp","","","img/blue_2bandit_b.png","70","img/blue_2bandit_b.png","70","test","","","","","","","","","","","5","","","","","","","","",""
"null","266104","SARL_v6","SARL_v6tjnw8bvz","610041d6fecff598399d5783","fixation","","","img/fixation.png","null","","","test","","","","","","","","","","","","","","","","","","","",""
"828.5999999642372","266940","SARL_v6","SARL_v6tjnw8bvz","610041d6fecff598399d5783","rl","","","img/black_2bandit_b2.png","74","","0","test","","","114","","","4","circle","square","","0","5","","74","4","-7","4","-7","circle","5","0"
"null","267703","SARL_v6","SARL_v6tjnw8bvz","610041d6fecff598399d5783","feedback","","","<div class=""veryhighPoints""> 4 </div>","null","","na","test","","","NaN","","","","","","","","5","","74","","","","","","5",""
"307.5","268018","SARL_v6","SARL_v6tjnw8bvz","610041d6fecff598399d5783","freq","","","img/blue_2bandit_b2.png","70","","70","test","1","","115","","","","circle","square","110","1","6","0.9454545454545454","","","","","","","",""
"null","268527","SARL_v6","SARL_v6tjnw8bvz","610041d6fecff598399d5783","freq_resp","","","img/blue_2bandit_b.png","70","img/blue_2bandit_b.png","70","test","","","","","","","","","","","6","","","","","","","","",""
"null","268692","SARL_v6","SARL_v6tjnw8bvz","610041d6fecff598399d5783","fixation","","","img/fixation.png","null","","","test","","","","","","","","","","","","","","","","","","","",""
"276.30000001192093","268976","SARL_v6","SARL_v6tjnw8bvz","610041d6fecff598399d5783","freq","","","img/blue_2bandit_b2.png","70","","70","test","1","","116","","","","circle","square","111","2","6","0.9459459459459459","","","","","","","",""
"null","269513","SARL_v6","SARL_v6tjnw8bvz","610041d6fecff598399d5783","freq_resp","","","img/blue_2bandit_b.png","70","img/blue_2bandit_b.png","70","test","","","","","","","","","","","6","","","","","","","","",""
"null","269678","SARL_v6","SARL_v6tjnw8bvz","610041d6fecff598399d5783","fixation","","","img/fixation.png","null","","","test","","","","","","","","","","","","","","","","","","","",""
"134.9000000357628","269819","SARL_v6","SARL_v6tjnw8bvz","610041d6fecff598399d5783","freq","","","img/blue_2bandit_b2.png","70","","70","test","1","","117","","","","circle","square","112","3","6","0.9464285714285714","","","","","","","",""
"null","270496","SARL_v6","SARL_v6tjnw8bvz","610041d6fecff598399d5783","freq_resp","","","img/blue_2bandit_b.png","70","img/blue_2bandit_b.png","70","test","","","","","","","","","","","6","","","","","","","","",""
"null","270663","SARL_v6","SARL_v6tjnw8bvz","610041d6fecff598399d5783","fixation","","","img/fixation.png","null","","","test","","","","","","","","","","","","","","","","","","","",""
"132.89999997615814","270803","SARL_v6","SARL_v6tjnw8bvz","610041d6fecff598399d5783","freq","","","img/blue_2bandit_b2.png","70","","70","test","1","","118","","","","circle","square","113","4","6","0.9469026548672567","","","","","","","",""
"null","271488","SARL_v6","SARL_v6tjnw8bvz","610041d6fecff598399d5783","freq_resp","","","img/blue_2bandit_b.png","70","img/blue_2bandit_b.png","70","test","","","","","","","","","","","6","","","","","","","","",""
"null","271653","SARL_v6","SARL_v6tjnw8bvz","610041d6fecff598399d5783","fixation","","","img/fixation.png","null","","","test","","","","","","","","","","","","","","","","","","","",""
"142.89999997615814","271804","SARL_v6","SARL_v6tjnw8bvz","610041d6fecff598399d5783","freq","","","img/blue_2bandit_b2.png","70","","70","test","1","","119","","","","circle","square","114","5","6","0.9473684210526315","","","","","","","",""
"null","272477","SARL_v6","SARL_v6tjnw8bvz","610041d6fecff598399d5783","freq_resp","","","img/blue_2bandit_b.png","70","img/blue_2bandit_b.png","70","test","","","","","","","","","","","6","","","","","","","","",""
"null","272639","SARL_v6","SARL_v6tjnw8bvz","610041d6fecff598399d5783","fixation","","","img/fixation.png","null","","","test","","","","","","","","","","","","","","","","","","","",""
"107.10000002384186","272753","SARL_v6","SARL_v6tjnw8bvz","610041d6fecff598399d5783","infreq","","","img/orange_2bandit_b2.png","70","","68","test","0","","120","","","","circle","square","115","6","6","0.9391304347826087","","","","","","","",""
"null","273465","SARL_v6","SARL_v6tjnw8bvz","610041d6fecff598399d5783","infreq_resp","","","img/orange_2bandit_b.png","70","img/orange_2bandit_b.png","68","test","","","","","","","","","","","6","","","","","","","","",""
"null","273630","SARL_v6","SARL_v6tjnw8bvz","610041d6fecff598399d5783","fixation","","","img/fixation.png","null","","","test","","","","","","","","","","","","","","","","","","","",""
"347.39999997615814","273984","SARL_v6","SARL_v6tjnw8bvz","610041d6fecff598399d5783","freq","","","img/blue_2bandit_b2.png","70","","70","test","1","","121","","","","circle","square","116","7","6","0.9396551724137931","","","","","","","",""
"null","274443","SARL_v6","SARL_v6tjnw8bvz","610041d6fecff598399d5783","freq_resp","","","img/blue_2bandit_b.png","70","img/blue_2bandit_b.png","70","test","","","","","","","","","","","6","","","","","","","","",""
"null","274608","SARL_v6","SARL_v6tjnw8bvz","610041d6fecff598399d5783","fixation","","","img/fixation.png","null","","","test","","","","","","","","","","","","","","","","","","","",""
"251.69999998807907","274866","SARL_v6","SARL_v6tjnw8bvz","610041d6fecff598399d5783","freq","","","img/blue_2bandit_b2.png","70","","70","test","1","","122","","","","circle","square","117","8","6","0.9401709401709402","","","","","","","",""
"null","275428","SARL_v6","SARL_v6tjnw8bvz","610041d6fecff598399d5783","freq_resp","","","img/blue_2bandit_b.png","70","img/blue_2bandit_b.png","70","test","","","","","","","","","","","6","","","","","","","","",""
"null","275593","SARL_v6","SARL_v6tjnw8bvz","610041d6fecff598399d5783","fixation","","","img/fixation.png","null","","","test","","","","","","","","","","","","","","","","","","","",""
"142.5","275743","SARL_v6","SARL_v6tjnw8bvz","610041d6fecff598399d5783","infreq","","","img/orange_2bandit_b2.png","70","","68","test","0","","123","","","","circle","square","118","9","6","0.9322033898305084","","","","","","","",""
"null","276415","SARL_v6","SARL_v6tjnw8bvz","610041d6fecff598399d5783","infreq_resp","","","img/orange_2bandit_b.png","70","img/orange_2bandit_b.png","68","test","","","","","","","","","","","6","","","","","","","","",""
"null","276584","SARL_v6","SARL_v6tjnw8bvz","610041d6fecff598399d5783","fixation","","","img/fixation.png","null","","","test","","","","","","","","","","","","","","","","","","","",""
"519.5","277111","SARL_v6","SARL_v6tjnw8bvz","610041d6fecff598399d5783","freq","","","img/blue_2bandit_b2.png","70","","70","test","1","","124","","","","circle","square","119","10","6","0.9327731092436975","","","","","","","",""
"null","277407","SARL_v6","SARL_v6tjnw8bvz","610041d6fecff598399d5783","freq_resp","","","img/blue_2bandit_b.png","70","img/blue_2bandit_b.png","70","test","","","","","","","","","","","6","","","","","","","","",""
"null","277576","SARL_v6","SARL_v6tjnw8bvz","610041d6fecff598399d5783","fixation","","","img/fixation.png","null","","","test","","","","","","","","","","","","","","","","","","","",""
"319","277902","SARL_v6","SARL_v6tjnw8bvz","610041d6fecff598399d5783","freq","","","img/blue_2bandit_b2.png","70","","70","test","1","","125","","","","circle","square","120","11","6","0.9333333333333333","","","","","","","",""
"null","278400","SARL_v6","SARL_v6tjnw8bvz","610041d6fecff598399d5783","freq_resp","","","img/blue_2bandit_b.png","70","img/blue_2bandit_b.png","70","test","","","","","","","","","","","6","","","","","","","","",""
"null","278569","SARL_v6","SARL_v6tjnw8bvz","610041d6fecff598399d5783","fixation","","","img/fixation.png","null","","","test","","","","","","","","","","","","","","","","","","","",""
"283.5","278859","SARL_v6","SARL_v6tjnw8bvz","610041d6fecff598399d5783","freq","","","img/blue_2bandit_b2.png","70","","70","test","1","","126","","","","circle","square","121","12","6","0.9338842975206612","","","","","","","",""
"null","279392","SARL_v6","SARL_v6tjnw8bvz","610041d6fecff598399d5783","freq_resp","","","img/blue_2bandit_b.png","70","img/blue_2bandit_b.png","70","test","","","","","","","","","","","6","","","","","","","","",""
"null","279558","SARL_v6","SARL_v6tjnw8bvz","610041d6fecff598399d5783","fixation","","","img/fixation.png","null","","","test","","","","","","","","","","","","","","","","","","","",""
"97.69999998807907","279664","SARL_v6","SARL_v6tjnw8bvz","610041d6fecff598399d5783","freq","","","img/blue_2bandit_b2.png","70","","70","test","1","","127","","","","circle","square","122","13","6","0.9344262295081968","","","","","","","",""
"null","280384","SARL_v6","SARL_v6tjnw8bvz","610041d6fecff598399d5783","freq_resp","","","img/blue_2bandit_b.png","70","img/blue_2bandit_b.png","70","test","","","","","","","","","","","6","","","","","","","","",""
"null","280553","SARL_v6","SARL_v6tjnw8bvz","610041d6fecff598399d5783","fixation","","","img/fixation.png","null","","","test","","","","","","","","","","","","","","","","","","","",""
"102.80000001192093","280663","SARL_v6","SARL_v6tjnw8bvz","610041d6fecff598399d5783","freq","","","img/blue_2bandit_b2.png","70","","70","test","1","","128","","","","circle","square","123","14","6","0.9349593495934959","","","","","","","",""
"null","281375","SARL_v6","SARL_v6tjnw8bvz","610041d6fecff598399d5783","freq_resp","","","img/blue_2bandit_b.png","70","img/blue_2bandit_b.png","70","test","","","","","","","","","","","6","","","","","","","","",""
"null","281541","SARL_v6","SARL_v6tjnw8bvz","610041d6fecff598399d5783","fixation","","","img/fixation.png","null","","","test","","","","","","","","","","","","","","","","","","","",""
"128","281676","SARL_v6","SARL_v6tjnw8bvz","610041d6fecff598399d5783","freq","","","img/blue_2bandit_b2.png","70","","70","test","1","","129","","","","circle","square","124","15","6","0.9354838709677419","","","","","","","",""
"null","282359","SARL_v6","SARL_v6tjnw8bvz","610041d6fecff598399d5783","freq_resp","","","img/blue_2bandit_b.png","70","img/blue_2bandit_b.png","70","test","","","","","","","","","","","6","","","","","","","","",""
"null","282526","SARL_v6","SARL_v6tjnw8bvz","610041d6fecff598399d5783","fixation","","","img/fixation.png","null","","","test","","","","","","","","","","","","","","","","","","","",""
"132.29999995231628","282664","SARL_v6","SARL_v6tjnw8bvz","610041d6fecff598399d5783","freq","","","img/blue_2bandit_b2.png","70","","70","test","1","","130","","","","circle","square","125","16","6","0.936","","","","","","","",""
