"rt","time_elapsed","expId","subject","prolificID","trialType","rlType","attType","stimulus","key_press","stim","corrresp","phase","corr","pracCounter","trialNum","rewardOne","rewardTwo","reward","bandOne","bandTwo","attentionNum","attentionRunNum","blockNum","performance","bandChosen","circleVal","squareVal","bandOneVal","bandTwoVal","shapeChosen","rlNum","badFlag"
"2242.699999809265","2246","SARL_v6","SARL_v6blzcl0fk","5f39eb3c94f71318adf97910","","","","","","","","","","","","","","","","","","","","","","","","","","","",""
"","4189","SARL_v6","SARL_v6blzcl0fk","5f39eb3c94f71318adf97910","fullscreen","fullscreen","fullscreen","","","","","","","","","","","","","","","","","","","","","","","","",""
"15348.699999809265","19540","SARL_v6","SARL_v6blzcl0fk","5f39eb3c94f71318adf97910","","","","","","","","","","","","","","","","","","","","","","","","","","","",""
"null","20342","SARL_v6","SARL_v6blzcl0fk","5f39eb3c94f71318adf97910","freqPrac","","","img/orange_2bandit_a2.png","null","img/orange_2bandit_a2.png","70","prac","0","1","","","","","","","","","","","","","","","","","",""
"null","21347","SARL_v6","SARL_v6blzcl0fk","5f39eb3c94f71318adf97910","feedback","","","img/tooSlow.png","null","","na","prac","","","","","","","","","","","","","","","","","","","",""
"null","21502","SARL_v6","SARL_v6blzcl0fk","5f39eb3c94f71318adf97910","fixation","","","img/fixation.png","null","","","prac","","","","","","","","","","","","","","","","","","","",""
"431.19999980926514","21935","SARL_v6","SARL_v6blzcl0fk","5f39eb3c94f71318adf97910","infreqPrac","","","img/blue_2bandit_a2.png","68","img/blue_2bandit_a2.png","68","prac","1","1","","","","","","","","","","","","","","","","","",""
"431.19999980926514","22314","SARL_v6","SARL_v6blzcl0fk","5f39eb3c94f71318adf97910","infreqPrac_resp","","","img/blue_2bandit_a.png","68","img/blue_2bandit_a.png","68","prac","","","","","","","","","","","","","","","","","","","",""
"null","22469","SARL_v6","SARL_v6blzcl0fk","5f39eb3c94f71318adf97910","fixation","","","img/fixation.png","null","","","prac","","","","","","","","","","","","","","","","","","","",""
"304.09999990463257","22774","SARL_v6","SARL_v6blzcl0fk","5f39eb3c94f71318adf97910","freqPrac","","","img/orange_2bandit_a2.png","68","img/orange_2bandit_a2.png","70","prac","0","2","","","","","","","","","","","","","","","","","",""
"304.09999990463257","23285","SARL_v6","SARL_v6blzcl0fk","5f39eb3c94f71318adf97910","freqPrac_resp","","","img/orange_2bandit_a.png","68","img/orange_2bandit_a.png","70","prac","","","","","","","","","","","","","","","","","","","",""
"null","24299","SARL_v6","SARL_v6blzcl0fk","5f39eb3c94f71318adf97910","feedback","","","img/wrongKey.png","null","","na","prac","","","","","","","","","","","","","","","","","","","",""
"null","24455","SARL_v6","SARL_v6blzcl0fk","5f39eb3c94f71318adf97910","fixation","","","img/fixation.png","null","","","prac","","","","","","","","","","","","","","","","","","","",""
"542.0999999046326","24999","SARL_v6","SARL_v6blzcl0fk","5f39eb3c94f71318adf97910","infreqPrac","","","img/blue_2bandit_a2.png","68","img/blue_2bandit_a2.png","68","prac","1","2","","","","","","","","","","","","","","","","","",""
"542.0999999046326","25270","SARL_v6","SARL_v6blzcl0fk","5f39eb3c94f71318adf97910","infreqPrac_resp","","","img/blue_2bandit_a.png","68","img/blue_2bandit_a.png","68","prac","","","","","","","","","","","","","","","","","","","",""
"null","25423","SARL_v6","SARL_v6blzcl0fk","5f39eb3c94f71318adf97910","fixation","","","img/fixation.png","null","","","prac","","","","","","","","","","","","","","","","","","","",""
"797.6999998092651","26222","SARL_v6","SARL_v6blzcl0fk","5f39eb3c94f71318adf97910","infreqPrac","","","img/blue_2bandit_a2.png","68","img/blue_2bandit_a2.png","68","prac","1","2","","","","","","","","","","","","","","","","","",""
"797.6999998092651","26228","SARL_v6","SARL_v6blzcl0fk","5f39eb3c94f71318adf97910","infreqPrac_resp","","","img/blue_2bandit_a.png","68","img/blue_2bandit_a.png","68","prac","","","","","","","","","","","","","","","","","","","",""
"null","26381","SARL_v6","SARL_v6blzcl0fk","5f39eb3c94f71318adf97910","fixation","","","img/fixation.png","null","","","prac","","","","","","","","","","","","","","","","","","","",""
"455.69999980926514","26838","SARL_v6","SARL_v6blzcl0fk","5f39eb3c94f71318adf97910","infreqPrac","","","img/blue_2bandit_a2.png","68","img/blue_2bandit_a2.png","68","prac","1","2","","","","","","","","","","","","","","","","","",""
"455.69999980926514","27191","SARL_v6","SARL_v6blzcl0fk","5f39eb3c94f71318adf97910","infreqPrac_resp","","","img/blue_2bandit_a.png","68","img/blue_2bandit_a.png","68","prac","","","","","","","","","","","","","","","","","","","",""
"null","27347","SARL_v6","SARL_v6blzcl0fk","5f39eb3c94f71318adf97910","fixation","","","img/fixation.png","null","","","prac","","","","","","","","","","","","","","","","","","","",""
"346.19999980926514","27694","SARL_v6","SARL_v6blzcl0fk","5f39eb3c94f71318adf97910","freqPrac","","","img/orange_2bandit_a2.png","70","img/orange_2bandit_a2.png","70","prac","1","2","","","","","","","","","","","","","","","","","",""
"346.19999980926514","28158","SARL_v6","SARL_v6blzcl0fk","5f39eb3c94f71318adf97910","freqPrac_resp","","","img/orange_2bandit_a.png","70","img/orange_2bandit_a.png","70","prac","","","","","","","","","","","","","","","","","","","",""
"null","28312","SARL_v6","SARL_v6blzcl0fk","5f39eb3c94f71318adf97910","fixation","","","img/fixation.png","null","","","prac","","","","","","","","","","","","","","","","","","","",""
"301","28615","SARL_v6","SARL_v6blzcl0fk","5f39eb3c94f71318adf97910","infreqPrac","","","img/blue_2bandit_a2.png","68","img/blue_2bandit_a2.png","68","prac","1","2","","","","","","","","","","","","","","","","","",""
"301","29126","SARL_v6","SARL_v6blzcl0fk","5f39eb3c94f71318adf97910","infreqPrac_resp","","","img/blue_2bandit_a.png","68","img/blue_2bandit_a.png","68","prac","","","","","","","","","","","","","","","","","","","",""
"null","29278","SARL_v6","SARL_v6blzcl0fk","5f39eb3c94f71318adf97910","fixation","","","img/fixation.png","null","","","prac","","","","","","","","","","","","","","","","","","","",""
"302.90000009536743","29582","SARL_v6","SARL_v6blzcl0fk","5f39eb3c94f71318adf97910","freqPrac","","","img/orange_2bandit_a2.png","70","img/orange_2bandit_a2.png","70","prac","1","2","","","","","","","","","","","","","","","","","",""
"302.90000009536743","30085","SARL_v6","SARL_v6blzcl0fk","5f39eb3c94f71318adf97910","freqPrac_resp","","","img/orange_2bandit_a.png","70","img/orange_2bandit_a.png","70","prac","","","","","","","","","","","","","","","","","","","",""
"null","30236","SARL_v6","SARL_v6blzcl0fk","5f39eb3c94f71318adf97910","fixation","","","img/fixation.png","null","","","prac","","","","","","","","","","","","","","","","","","","",""
"328.80000019073486","30566","SARL_v6","SARL_v6blzcl0fk","5f39eb3c94f71318adf97910","freqPrac","","","img/orange_2bandit_a2.png","68","img/orange_2bandit_a2.png","70","prac","0","3","","","","","","","","","","","","","","","","","",""
"328.80000019073486","31052","SARL_v6","SARL_v6blzcl0fk","5f39eb3c94f71318adf97910","freqPrac_resp","","","img/orange_2bandit_a.png","68","img/orange_2bandit_a.png","70","prac","","","","","","","","","","","","","","","","","","","",""
"null","32059","SARL_v6","SARL_v6blzcl0fk","5f39eb3c94f71318adf97910","feedback","","","img/wrongKey.png","null","","na","prac","","","","","","","","","","","","","","","","","","","",""
"null","32211","SARL_v6","SARL_v6blzcl0fk","5f39eb3c94f71318adf97910","fixation","","","img/fixation.png","null","","","prac","","","","","","","","","","","","","","","","","","","",""
"6730.5","38942","SARL_v6","SARL_v6blzcl0fk","5f39eb3c94f71318adf97910","","","","","","","","prac","","","","","","","","","","","","","","","","","","","",""
"550.4000000953674","39494","SARL_v6","SARL_v6blzcl0fk","5f39eb3c94f71318adf97910","rlPractice","","","img/black_2bandit_a2.png","74","img/black_2bandit_a2.png","","prac","","","0","","","","","","","","","","","","","","","","",""
"null","40249","SARL_v6","SARL_v6blzcl0fk","5f39eb3c94f71318adf97910","feedback","","","<div class=""verylowPoints_sq""> -14 </div>","null","","na","prac","","","1","10","-14","10","","","","","","","","","","","","","",""
"null","40405","SARL_v6","SARL_v6blzcl0fk","5f39eb3c94f71318adf97910","fixation","","","img/fixation.png","null","","","prac","","","","","","","","","","","","","","","","","","","",""
"367.90000009536743","40774","SARL_v6","SARL_v6blzcl0fk","5f39eb3c94f71318adf97910","rlPractice","","","img/black_2bandit_a2.png","75","img/black_2bandit_a2.png","","prac","","","1","","","","","","","","","","","","","","","","",""
"null","41541","SARL_v6","SARL_v6blzcl0fk","5f39eb3c94f71318adf97910","feedback","","","<div class=""veryhighPoints""> 5 </div>","null","","na","prac","","","2","5","-5","5","","","","","","","","","","","","","",""
"null","41699","SARL_v6","SARL_v6blzcl0fk","5f39eb3c94f71318adf97910","fixation","","","img/fixation.png","null","","","prac","","","","","","","","","","","","","","","","","","","",""
"321.90000009536743","42022","SARL_v6","SARL_v6blzcl0fk","5f39eb3c94f71318adf97910","rlPractice","","","img/black_2bandit_a2.png","75","img/black_2bandit_a2.png","","prac","","","2","","","","","","","","","","","","","","","","",""
"null","42789","SARL_v6","SARL_v6blzcl0fk","5f39eb3c94f71318adf97910","feedback","","","<div class=""veryhighPoints""> 30 </div>","null","","na","prac","","","3","30","2","30","","","","","","","","","","","","","",""
"null","42947","SARL_v6","SARL_v6blzcl0fk","5f39eb3c94f71318adf97910","fixation","","","img/fixation.png","null","","","prac","","","","","","","","","","","","","","","","","","","",""
"297.30000019073486","43246","SARL_v6","SARL_v6blzcl0fk","5f39eb3c94f71318adf97910","rlPractice","","","img/black_2bandit_a2.png","75","img/black_2bandit_a2.png","","prac","","","3","","","","","","","","","","","","","","","","",""
"null","44012","SARL_v6","SARL_v6blzcl0fk","5f39eb3c94f71318adf97910","feedback","","","<div class=""verylowPoints""> -2 </div>","null","","na","prac","","","4","-2","20","-2","","","","","","","","","","","","","",""
"null","44167","SARL_v6","SARL_v6blzcl0fk","5f39eb3c94f71318adf97910","fixation","","","img/fixation.png","null","","","prac","","","","","","","","","","","","","","","","","","","",""
"10749.799999713898","54918","SARL_v6","SARL_v6blzcl0fk","5f39eb3c94f71318adf97910","","","","","","","","prac","","","","","","","","","","","","","","","","","","","",""
"727","55646","SARL_v6","SARL_v6blzcl0fk","5f39eb3c94f71318adf97910","mixAttFreqPrac","","","img/orange_2bandit_a2.png","70","img/orange_2bandit_a2.png","70","prac","","","1","","","","","","","","","","","","","","","","",""
"727","55721","SARL_v6","SARL_v6blzcl0fk","5f39eb3c94f71318adf97910","freqPrac_resp","","","img/orange_2bandit_a.png","70","img/orange_2bandit_a.png","70","prac","","","1","","","","","","","","","","","","","","","","",""
"null","55882","SARL_v6","SARL_v6blzcl0fk","5f39eb3c94f71318adf97910","fixation","","","img/fixation.png","null","","","prac","","","","","","","","","","","","","","","","","","","",""
"419.09999990463257","56302","SARL_v6","SARL_v6blzcl0fk","5f39eb3c94f71318adf97910","mixAttInfreqPrac","","","img/blue_2bandit_a2.png","68","img/blue_2bandit_a2.png","68","prac","","","2","","","","","","","","","","","","","","","","",""
"419.09999990463257","56698","SARL_v6","SARL_v6blzcl0fk","5f39eb3c94f71318adf97910","infreqPrac_resp","","","img/blue_2bandit_a.png","68","img/orange_2bandit_a.png","68","prac","","","2","","","","","","","","","","","","","","","","",""
"null","56856","SARL_v6","SARL_v6blzcl0fk","5f39eb3c94f71318adf97910","fixation","","","img/fixation.png","null","","","prac","","","","","","","","","","","","","","","","","","","",""
"316.6000003814697","57174","SARL_v6","SARL_v6blzcl0fk","5f39eb3c94f71318adf97910","mixAttInfreqPrac","","","img/blue_2bandit_a2.png","68","img/blue_2bandit_a2.png","68","prac","","","3","","","","","","","","","","","","","","","","",""
"316.6000003814697","57673","SARL_v6","SARL_v6blzcl0fk","5f39eb3c94f71318adf97910","infreqPrac_resp","","","img/blue_2bandit_a.png","68","img/orange_2bandit_a.png","68","prac","","","3","","","","","","","","","","","","","","","","",""
"null","57824","SARL_v6","SARL_v6blzcl0fk","5f39eb3c94f71318adf97910","fixation","","","img/fixation.png","null","","","prac","","","","","","","","","","","","","","","","","","","",""
"309.19999980926514","58135","SARL_v6","SARL_v6blzcl0fk","5f39eb3c94f71318adf97910","mixAttInfreqPrac","","","img/blue_2bandit_a2.png","68","img/blue_2bandit_a2.png","68","prac","","","4","","","","","","","","","","","","","","","","",""
"309.19999980926514","58641","SARL_v6","SARL_v6blzcl0fk","5f39eb3c94f71318adf97910","infreqPrac_resp","","","img/blue_2bandit_a.png","68","img/orange_2bandit_a.png","68","prac","","","4","","","","","","","","","","","","","","","","",""
"null","58792","SARL_v6","SARL_v6blzcl0fk","5f39eb3c94f71318adf97910","fixation","","","img/fixation.png","null","","","prac","","","","","","","","","","","","","","","","","","","",""
"356.90000009536743","59150","SARL_v6","SARL_v6blzcl0fk","5f39eb3c94f71318adf97910","mixAttFreqPrac","","","img/orange_2bandit_a2.png","70","img/orange_2bandit_a2.png","70","prac","","","5","","","","","","","","","","","","","","","","",""
"356.90000009536743","59607","SARL_v6","SARL_v6blzcl0fk","5f39eb3c94f71318adf97910","freqPrac_resp","","","img/orange_2bandit_a.png","70","img/orange_2bandit_a.png","70","prac","","","5","","","","","","","","","","","","","","","","",""
"null","59763","SARL_v6","SARL_v6blzcl0fk","5f39eb3c94f71318adf97910","fixation","","","img/fixation.png","null","","","prac","","","","","","","","","","","","","","","","","","","",""
"506.5","60271","SARL_v6","SARL_v6blzcl0fk","5f39eb3c94f71318adf97910","mixRLPractice","","","img/black_2bandit_a2.png","75","img/black_2bandit_a2.png","","prac","","","5","","","","","","","","","","","","","","","","",""
"null","61032","SARL_v6","SARL_v6blzcl0fk","5f39eb3c94f71318adf97910","feedback","","","<div class=""verylowPoints""> -14 </div>","null","","na","prac","","","6","-14","10","-14","","","","","","","","","","","","","",""
"null","61190","SARL_v6","SARL_v6blzcl0fk","5f39eb3c94f71318adf97910","fixation","","","img/fixation.png","null","","","prac","","","","","","","","","","","","","","","","","","","",""
"663.6999998092651","61855","SARL_v6","SARL_v6blzcl0fk","5f39eb3c94f71318adf97910","mixAttFreqPrac","","","img/orange_2bandit_a2.png","70","img/orange_2bandit_a2.png","70","prac","","","7","","","","","","","","","","","","","","","","",""
"663.6999998092651","62001","SARL_v6","SARL_v6blzcl0fk","5f39eb3c94f71318adf97910","freqPrac_resp","","","img/orange_2bandit_a.png","70","img/orange_2bandit_a.png","70","prac","","","7","","","","","","","","","","","","","","","","",""
"null","62153","SARL_v6","SARL_v6blzcl0fk","5f39eb3c94f71318adf97910","fixation","","","img/fixation.png","null","","","prac","","","","","","","","","","","","","","","","","","","",""
"524.5999999046326","62679","SARL_v6","SARL_v6blzcl0fk","5f39eb3c94f71318adf97910","mixAttInfreqPrac","","","img/blue_2bandit_a2.png","68","img/blue_2bandit_a2.png","68","prac","","","8","","","","","","","","","","","","","","","","",""
"524.5999999046326","62960","SARL_v6","SARL_v6blzcl0fk","5f39eb3c94f71318adf97910","infreqPrac_resp","","","img/blue_2bandit_a.png","68","img/orange_2bandit_a.png","68","prac","","","8","","","","","","","","","","","","","","","","",""
"null","63112","SARL_v6","SARL_v6blzcl0fk","5f39eb3c94f71318adf97910","fixation","","","img/fixation.png","null","","","prac","","","","","","","","","","","","","","","","","","","",""
"445.90000009536743","63559","SARL_v6","SARL_v6blzcl0fk","5f39eb3c94f71318adf97910","mixAttFreqPrac","","","img/orange_2bandit_a2.png","70","img/orange_2bandit_a2.png","70","prac","","","9","","","","","","","","","","","","","","","","",""
"445.90000009536743","63925","SARL_v6","SARL_v6blzcl0fk","5f39eb3c94f71318adf97910","freqPrac_resp","","","img/orange_2bandit_a.png","70","img/orange_2bandit_a.png","70","prac","","","9","","","","","","","","","","","","","","","","",""
"null","64082","SARL_v6","SARL_v6blzcl0fk","5f39eb3c94f71318adf97910","fixation","","","img/fixation.png","null","","","prac","","","","","","","","","","","","","","","","","","","",""
"291.80000019073486","64375","SARL_v6","SARL_v6blzcl0fk","5f39eb3c94f71318adf97910","mixAttFreqPrac","","","img/orange_2bandit_a2.png","70","img/orange_2bandit_a2.png","70","prac","","","10","","","","","","","","","","","","","","","","",""
"291.80000019073486","64899","SARL_v6","SARL_v6blzcl0fk","5f39eb3c94f71318adf97910","freqPrac_resp","","","img/orange_2bandit_a.png","70","img/orange_2bandit_a.png","70","prac","","","10","","","","","","","","","","","","","","","","",""
"null","65053","SARL_v6","SARL_v6blzcl0fk","5f39eb3c94f71318adf97910","fixation","","","img/fixation.png","null","","","prac","","","","","","","","","","","","","","","","","","","",""
"360.30000019073486","65415","SARL_v6","SARL_v6blzcl0fk","5f39eb3c94f71318adf97910","mixAttInfreqPrac","","","img/blue_2bandit_a2.png","68","img/blue_2bandit_a2.png","68","prac","","","11","","","","","","","","","","","","","","","","",""
"360.30000019073486","65867","SARL_v6","SARL_v6blzcl0fk","5f39eb3c94f71318adf97910","infreqPrac_resp","","","img/blue_2bandit_a.png","68","img/orange_2bandit_a.png","68","prac","","","11","","","","","","","","","","","","","","","","",""
"null","66023","SARL_v6","SARL_v6blzcl0fk","5f39eb3c94f71318adf97910","fixation","","","img/fixation.png","null","","","prac","","","","","","","","","","","","","","","","","","","",""
"486.90000009536743","66511","SARL_v6","SARL_v6blzcl0fk","5f39eb3c94f71318adf97910","mixRLPractice","","","img/black_2bandit_a2.png","74","img/black_2bandit_a2.png","","prac","","","11","","","","","","","","","","","","","","","","",""
"null","67278","SARL_v6","SARL_v6blzcl0fk","5f39eb3c94f71318adf97910","feedback","","","<div class=""verylowPoints_sq""> -5 </div>","null","","na","prac","","","12","5","-5","5","","","","","","","","","","","","","",""
"null","67437","SARL_v6","SARL_v6blzcl0fk","5f39eb3c94f71318adf97910","fixation","","","img/fixation.png","null","","","prac","","","","","","","","","","","","","","","","","","","",""
"2617","70055","SARL_v6","SARL_v6blzcl0fk","5f39eb3c94f71318adf97910","","","","","","","","prac","","","","","","","","","","","","","","","","","","","",""
"422.2000002861023","70478","SARL_v6","SARL_v6blzcl0fk","5f39eb3c94f71318adf97910","freq","","","img/orange_2bandit_a2.png","70","","70","test","1","","1","","","","square","circle","1","1","1","1","","","","","","","",""
"null","70866","SARL_v6","SARL_v6blzcl0fk","5f39eb3c94f71318adf97910","freq_resp","","","img/orange_2bandit_a.png","70","img/orange_2bandit_a.png","70","test","","","","","","","","","","","1","","","","","","","","",""
"null","71023","SARL_v6","SARL_v6blzcl0fk","5f39eb3c94f71318adf97910","fixation","","","img/fixation.png","null","","","test","","","","","","","","","","","","","","","","","","","",""
"278","71303","SARL_v6","SARL_v6blzcl0fk","5f39eb3c94f71318adf97910","freq","","","img/orange_2bandit_a2.png","70","","70","test","1","","2","","","","square","circle","2","2","1","1","","","","","","","",""
"null","71836","SARL_v6","SARL_v6blzcl0fk","5f39eb3c94f71318adf97910","freq_resp","","","img/orange_2bandit_a.png","70","img/orange_2bandit_a.png","70","test","","","","","","","","","","","1","","","","","","","","",""
"null","71987","SARL_v6","SARL_v6blzcl0fk","5f39eb3c94f71318adf97910","fixation","","","img/fixation.png","null","","","test","","","","","","","","","","","","","","","","","","","",""
"258.19999980926514","72247","SARL_v6","SARL_v6blzcl0fk","5f39eb3c94f71318adf97910","freq","","","img/orange_2bandit_a2.png","70","","70","test","1","","3","","","","square","circle","3","3","1","1","","","","","","","",""
"null","72801","SARL_v6","SARL_v6blzcl0fk","5f39eb3c94f71318adf97910","freq_resp","","","img/orange_2bandit_a.png","70","img/orange_2bandit_a.png","70","test","","","","","","","","","","","1","","","","","","","","",""
"null","72953","SARL_v6","SARL_v6blzcl0fk","5f39eb3c94f71318adf97910","fixation","","","img/fixation.png","null","","","test","","","","","","","","","","","","","","","","","","","",""
"299.90000009536743","73254","SARL_v6","SARL_v6blzcl0fk","5f39eb3c94f71318adf97910","freq","","","img/orange_2bandit_a2.png","70","","70","test","1","","4","","","","square","circle","4","4","1","1","","","","","","","",""
"null","73769","SARL_v6","SARL_v6blzcl0fk","5f39eb3c94f71318adf97910","freq_resp","","","img/orange_2bandit_a.png","70","img/orange_2bandit_a.png","70","test","","","","","","","","","","","1","","","","","","","","",""
"null","73929","SARL_v6","SARL_v6blzcl0fk","5f39eb3c94f71318adf97910","fixation","","","img/fixation.png","null","","","test","","","","","","","","","","","","","","","","","","","",""
"244.80000019073486","74175","SARL_v6","SARL_v6blzcl0fk","5f39eb3c94f71318adf97910","freq","","","img/orange_2bandit_a2.png","70","","70","test","1","","5","","","","square","circle","5","5","1","1","","","","","","","",""
"null","74744","SARL_v6","SARL_v6blzcl0fk","5f39eb3c94f71318adf97910","freq_resp","","","img/orange_2bandit_a.png","70","img/orange_2bandit_a.png","70","test","","","","","","","","","","","1","","","","","","","","",""
"null","74896","SARL_v6","SARL_v6blzcl0fk","5f39eb3c94f71318adf97910","fixation","","","img/fixation.png","null","","","test","","","","","","","","","","","","","","","","","","","",""
"253.40000009536743","75151","SARL_v6","SARL_v6blzcl0fk","5f39eb3c94f71318adf97910","freq","","","img/orange_2bandit_a2.png","70","","70","test","1","","6","","","","square","circle","6","6","1","1","","","","","","","",""
"null","75712","SARL_v6","SARL_v6blzcl0fk","5f39eb3c94f71318adf97910","freq_resp","","","img/orange_2bandit_a.png","70","img/orange_2bandit_a.png","70","test","","","","","","","","","","","1","","","","","","","","",""
"null","75864","SARL_v6","SARL_v6blzcl0fk","5f39eb3c94f71318adf97910","fixation","","","img/fixation.png","null","","","test","","","","","","","","","","","","","","","","","","","",""
"245.10000038146973","76111","SARL_v6","SARL_v6blzcl0fk","5f39eb3c94f71318adf97910","freq","","","img/orange_2bandit_a2.png","70","","70","test","1","","7","","","","square","circle","7","7","1","1","","","","","","","",""
"null","76667","SARL_v6","SARL_v6blzcl0fk","5f39eb3c94f71318adf97910","freq_resp","","","img/orange_2bandit_a.png","70","img/orange_2bandit_a.png","70","test","","","","","","","","","","","1","","","","","","","","",""
"null","76818","SARL_v6","SARL_v6blzcl0fk","5f39eb3c94f71318adf97910","fixation","","","img/fixation.png","null","","","test","","","","","","","","","","","","","","","","","","","",""
"427.09999990463257","77247","SARL_v6","SARL_v6blzcl0fk","5f39eb3c94f71318adf97910","infreq","","","img/blue_2bandit_a2.png","70","","68","test","0","","8","","","","square","circle","8","8","1","0.875","","","","","","","",""
"null","77632","SARL_v6","SARL_v6blzcl0fk","5f39eb3c94f71318adf97910","infreq_resp","","","img/blue_2bandit_a.png","70","img/blue_2bandit_a.png","68","test","","","","","","","","","","","1","","","","","","","","",""
"null","77789","SARL_v6","SARL_v6blzcl0fk","5f39eb3c94f71318adf97910","fixation","","","img/fixation.png","null","","","test","","","","","","","","","","","","","","","","","","","",""
"367.90000009536743","78159","SARL_v6","SARL_v6blzcl0fk","5f39eb3c94f71318adf97910","freq","","","img/orange_2bandit_a2.png","70","","70","test","1","","9","","","","square","circle","9","9","1","0.8888888888888888","","","","","","","",""
"null","78595","SARL_v6","SARL_v6blzcl0fk","5f39eb3c94f71318adf97910","freq_resp","","","img/orange_2bandit_a.png","70","img/orange_2bandit_a.png","70","test","","","","","","","","","","","1","","","","","","","","",""
"null","78751","SARL_v6","SARL_v6blzcl0fk","5f39eb3c94f71318adf97910","fixation","","","img/fixation.png","null","","","test","","","","","","","","","","","","","","","","","","","",""
"262.40000009536743","79015","SARL_v6","SARL_v6blzcl0fk","5f39eb3c94f71318adf97910","freq","","","img/orange_2bandit_a2.png","70","","70","test","1","","10","","","","square","circle","10","10","1","0.9","","","","","","","",""
"null","79565","SARL_v6","SARL_v6blzcl0fk","5f39eb3c94f71318adf97910","freq_resp","","","img/orange_2bandit_a.png","70","img/orange_2bandit_a.png","70","test","","","","","","","","","","","1","","","","","","","","",""
"null","79722","SARL_v6","SARL_v6blzcl0fk","5f39eb3c94f71318adf97910","fixation","","","img/fixation.png","null","","","test","","","","","","","","","","","","","","","","","","","",""
"244","79967","SARL_v6","SARL_v6blzcl0fk","5f39eb3c94f71318adf97910","freq","","","img/orange_2bandit_a2.png","70","","70","test","1","","11","","","","square","circle","11","11","1","0.9090909090909091","","","","","","","",""
"null","80538","SARL_v6","SARL_v6blzcl0fk","5f39eb3c94f71318adf97910","freq_resp","","","img/orange_2bandit_a.png","70","img/orange_2bandit_a.png","70","test","","","","","","","","","","","1","","","","","","","","",""
"null","80690","SARL_v6","SARL_v6blzcl0fk","5f39eb3c94f71318adf97910","fixation","","","img/fixation.png","null","","","test","","","","","","","","","","","","","","","","","","","",""
"259.80000019073486","80951","SARL_v6","SARL_v6blzcl0fk","5f39eb3c94f71318adf97910","freq","","","img/orange_2bandit_a2.png","70","","70","test","1","","12","","","","square","circle","12","12","1","0.9166666666666666","","","","","","","",""
"null","81493","SARL_v6","SARL_v6blzcl0fk","5f39eb3c94f71318adf97910","freq_resp","","","img/orange_2bandit_a.png","70","img/orange_2bandit_a.png","70","test","","","","","","","","","","","1","","","","","","","","",""
"null","81644","SARL_v6","SARL_v6blzcl0fk","5f39eb3c94f71318adf97910","fixation","","","img/fixation.png","null","","","test","","","","","","","","","","","","","","","","","","","",""
"240.89999961853027","81887","SARL_v6","SARL_v6blzcl0fk","5f39eb3c94f71318adf97910","freq","","","img/orange_2bandit_a2.png","70","","70","test","1","","13","","","","square","circle","13","13","1","0.9230769230769231","","","","","","","",""
"null","82461","SARL_v6","SARL_v6blzcl0fk","5f39eb3c94f71318adf97910","freq_resp","","","img/orange_2bandit_a.png","70","img/orange_2bandit_a.png","70","test","","","","","","","","","","","1","","","","","","","","",""
"null","82612","SARL_v6","SARL_v6blzcl0fk","5f39eb3c94f71318adf97910","fixation","","","img/fixation.png","null","","","test","","","","","","","","","","","","","","","","","","","",""
"265.40000009536743","82879","SARL_v6","SARL_v6blzcl0fk","5f39eb3c94f71318adf97910","freq","","","img/orange_2bandit_a2.png","70","","70","test","1","","14","","","","square","circle","14","14","1","0.9285714285714286","","","","","","","",""
"null","83417","SARL_v6","SARL_v6blzcl0fk","5f39eb3c94f71318adf97910","freq_resp","","","img/orange_2bandit_a.png","70","img/orange_2bandit_a.png","70","test","","","","","","","","","","","1","","","","","","","","",""
"null","83573","SARL_v6","SARL_v6blzcl0fk","5f39eb3c94f71318adf97910","fixation","","","img/fixation.png","null","","","test","","","","","","","","","","","","","","","","","","","",""
"376","83950","SARL_v6","SARL_v6blzcl0fk","5f39eb3c94f71318adf97910","infreq","","","img/blue_2bandit_a2.png","68","","68","test","1","","15","","","","square","circle","15","15","1","0.9333333333333333","","","","","","","",""
"null","84388","SARL_v6","SARL_v6blzcl0fk","5f39eb3c94f71318adf97910","infreq_resp","","","img/blue_2bandit_a.png","68","img/blue_2bandit_a.png","68","test","","","","","","","","","","","1","","","","","","","","",""
"null","84543","SARL_v6","SARL_v6blzcl0fk","5f39eb3c94f71318adf97910","fixation","","","img/fixation.png","null","","","test","","","","","","","","","","","","","","","","","","","",""
"550.0999999046326","85095","SARL_v6","SARL_v6blzcl0fk","5f39eb3c94f71318adf97910","freq","","","img/orange_2bandit_a2.png","70","","70","test","1","","16","","","","square","circle","16","16","1","0.9375","","","","","","","",""
"null","85360","SARL_v6","SARL_v6blzcl0fk","5f39eb3c94f71318adf97910","freq_resp","","","img/orange_2bandit_a.png","70","img/orange_2bandit_a.png","70","test","","","","","","","","","","","1","","","","","","","","",""
"null","85512","SARL_v6","SARL_v6blzcl0fk","5f39eb3c94f71318adf97910","fixation","","","img/fixation.png","null","","","test","","","","","","","","","","","","","","","","","","","",""
"301.40000009536743","85814","SARL_v6","SARL_v6blzcl0fk","5f39eb3c94f71318adf97910","freq","","","img/orange_2bandit_a2.png","70","","70","test","1","","17","","","","square","circle","17","17","1","0.9411764705882353","","","","","","","",""
"null","86325","SARL_v6","SARL_v6blzcl0fk","5f39eb3c94f71318adf97910","freq_resp","","","img/orange_2bandit_a.png","70","img/orange_2bandit_a.png","70","test","","","","","","","","","","","1","","","","","","","","",""
"null","86477","SARL_v6","SARL_v6blzcl0fk","5f39eb3c94f71318adf97910","fixation","","","img/fixation.png","null","","","test","","","","","","","","","","","","","","","","","","","",""
"279.80000019073486","86759","SARL_v6","SARL_v6blzcl0fk","5f39eb3c94f71318adf97910","freq","","","img/orange_2bandit_a2.png","70","","70","test","1","","18","","","","square","circle","18","18","1","0.9444444444444444","","","","","","","",""
"null","87295","SARL_v6","SARL_v6blzcl0fk","5f39eb3c94f71318adf97910","freq_resp","","","img/orange_2bandit_a.png","70","img/orange_2bandit_a.png","70","test","","","","","","","","","","","1","","","","","","","","",""
"null","87446","SARL_v6","SARL_v6blzcl0fk","5f39eb3c94f71318adf97910","fixation","","","img/fixation.png","null","","","test","","","","","","","","","","","","","","","","","","","",""
"263.09999990463257","87711","SARL_v6","SARL_v6blzcl0fk","5f39eb3c94f71318adf97910","freq","","","img/orange_2bandit_a2.png","70","","70","test","1","","19","","","","square","circle","19","19","1","0.9473684210526315","","","","","","","",""
"null","88251","SARL_v6","SARL_v6blzcl0fk","5f39eb3c94f71318adf97910","freq_resp","","","img/orange_2bandit_a.png","70","img/orange_2bandit_a.png","70","test","","","","","","","","","","","1","","","","","","","","",""
"null","88403","SARL_v6","SARL_v6blzcl0fk","5f39eb3c94f71318adf97910","fixation","","","img/fixation.png","null","","","test","","","","","","","","","","","","","","","","","","","",""
"242.09999990463257","88646","SARL_v6","SARL_v6blzcl0fk","5f39eb3c94f71318adf97910","freq","","","img/orange_2bandit_a2.png","70","","70","test","1","","20","","","","square","circle","20","20","1","0.95","","","","","","","",""
"null","89219","SARL_v6","SARL_v6blzcl0fk","5f39eb3c94f71318adf97910","freq_resp","","","img/orange_2bandit_a.png","70","img/orange_2bandit_a.png","70","test","","","","","","","","","","","1","","","","","","","","",""
"null","89370","SARL_v6","SARL_v6blzcl0fk","5f39eb3c94f71318adf97910","fixation","","","img/fixation.png","null","","","test","","","","","","","","","","","","","","","","","","","",""
"267.40000009536743","89639","SARL_v6","SARL_v6blzcl0fk","5f39eb3c94f71318adf97910","freq","","","img/orange_2bandit_a2.png","70","","70","test","1","","21","","","","square","circle","21","21","1","0.9523809523809523","","","","","","","",""
"null","90172","SARL_v6","SARL_v6blzcl0fk","5f39eb3c94f71318adf97910","freq_resp","","","img/orange_2bandit_a.png","70","img/orange_2bandit_a.png","70","test","","","","","","","","","","","1","","","","","","","","",""
"null","90324","SARL_v6","SARL_v6blzcl0fk","5f39eb3c94f71318adf97910","fixation","","","img/fixation.png","null","","","test","","","","","","","","","","","","","","","","","","","",""
"296.69999980926514","90622","SARL_v6","SARL_v6blzcl0fk","5f39eb3c94f71318adf97910","freq","","","img/orange_2bandit_a2.png","70","","70","test","1","","22","","","","square","circle","22","22","1","0.9545454545454546","","","","","","","",""
"null","91141","SARL_v6","SARL_v6blzcl0fk","5f39eb3c94f71318adf97910","freq_resp","","","img/orange_2bandit_a.png","70","img/orange_2bandit_a.png","70","test","","","","","","","","","","","1","","","","","","","","",""
"null","91297","SARL_v6","SARL_v6blzcl0fk","5f39eb3c94f71318adf97910","fixation","","","img/fixation.png","null","","","test","","","","","","","","","","","","","","","","","","","",""
"476.2000002861023","91775","SARL_v6","SARL_v6blzcl0fk","5f39eb3c94f71318adf97910","rl","","","img/black_2bandit_a2.png","75","","0","test","","","23","","","-3","square","circle","","0","1","","75","-3","-3","-3","-3","circle","1","0"
"null","92530","SARL_v6","SARL_v6blzcl0fk","5f39eb3c94f71318adf97910","feedback","","","<div class=""verylowPoints""> -3 </div>","null","","na","test","","","NaN","","","","","","","","1","","75","","","","","","1",""
"314.90000009536743","92846","SARL_v6","SARL_v6blzcl0fk","5f39eb3c94f71318adf97910","freq","","","img/orange_2bandit_a2.png","70","","70","test","1","","24","","","","square","circle","23","1","2","0.9565217391304348","","","","","","","",""
"null","93344","SARL_v6","SARL_v6blzcl0fk","5f39eb3c94f71318adf97910","freq_resp","","","img/orange_2bandit_a.png","70","img/orange_2bandit_a.png","70","test","","","","","","","","","","","2","","","","","","","","",""
"null","93500","SARL_v6","SARL_v6blzcl0fk","5f39eb3c94f71318adf97910","fixation","","","img/fixation.png","null","","","test","","","","","","","","","","","","","","","","","","","",""
"377.19999980926514","93878","SARL_v6","SARL_v6blzcl0fk","5f39eb3c94f71318adf97910","freq","","","img/orange_2bandit_a2.png","70","","70","test","1","","25","","","","square","circle","24","2","2","0.9583333333333334","","","","","","","",""
"null","94317","SARL_v6","SARL_v6blzcl0fk","5f39eb3c94f71318adf97910","freq_resp","","","img/orange_2bandit_a.png","70","img/orange_2bandit_a.png","70","test","","","","","","","","","","","2","","","","","","","","",""
"null","94475","SARL_v6","SARL_v6blzcl0fk","5f39eb3c94f71318adf97910","fixation","","","img/fixation.png","null","","","test","","","","","","","","","","","","","","","","","","","",""
"266.80000019073486","94743","SARL_v6","SARL_v6blzcl0fk","5f39eb3c94f71318adf97910","freq","","","img/orange_2bandit_a2.png","70","","70","test","1","","26","","","","square","circle","25","3","2","0.96","","","","","","","",""
"null","95288","SARL_v6","SARL_v6blzcl0fk","5f39eb3c94f71318adf97910","freq_resp","","","img/orange_2bandit_a.png","70","img/orange_2bandit_a.png","70","test","","","","","","","","","","","2","","","","","","","","",""
"null","95440","SARL_v6","SARL_v6blzcl0fk","5f39eb3c94f71318adf97910","fixation","","","img/fixation.png","null","","","test","","","","","","","","","","","","","","","","","","","",""
"221.39999961853027","95663","SARL_v6","SARL_v6blzcl0fk","5f39eb3c94f71318adf97910","freq","","","img/orange_2bandit_a2.png","70","","70","test","1","","27","","","","square","circle","26","4","2","0.9615384615384616","","","","","","","",""
"null","96258","SARL_v6","SARL_v6blzcl0fk","5f39eb3c94f71318adf97910","freq_resp","","","img/orange_2bandit_a.png","70","img/orange_2bandit_a.png","70","test","","","","","","","","","","","2","","","","","","","","",""
"null","96410","SARL_v6","SARL_v6blzcl0fk","5f39eb3c94f71318adf97910","fixation","","","img/fixation.png","null","","","test","","","","","","","","","","","","","","","","","","","",""
"203.59999990463257","96615","SARL_v6","SARL_v6blzcl0fk","5f39eb3c94f71318adf97910","freq","","","img/orange_2bandit_a2.png","70","","70","test","1","","28","","","","square","circle","27","5","2","0.9629629629629629","","","","","","","",""
"null","97226","SARL_v6","SARL_v6blzcl0fk","5f39eb3c94f71318adf97910","freq_resp","","","img/orange_2bandit_a.png","70","img/orange_2bandit_a.png","70","test","","","","","","","","","","","2","","","","","","","","",""
"null","97378","SARL_v6","SARL_v6blzcl0fk","5f39eb3c94f71318adf97910","fixation","","","img/fixation.png","null","","","test","","","","","","","","","","","","","","","","","","","",""
"219.5","97599","SARL_v6","SARL_v6blzcl0fk","5f39eb3c94f71318adf97910","freq","","","img/orange_2bandit_a2.png","70","","70","test","1","","29","","","","square","circle","28","6","2","0.9642857142857143","","","","","","","",""
"null","98191","SARL_v6","SARL_v6blzcl0fk","5f39eb3c94f71318adf97910","freq_resp","","","img/orange_2bandit_a.png","70","img/orange_2bandit_a.png","70","test","","","","","","","","","","","2","","","","","","","","",""
"null","98347","SARL_v6","SARL_v6blzcl0fk","5f39eb3c94f71318adf97910","fixation","","","img/fixation.png","null","","","test","","","","","","","","","","","","","","","","","","","",""
"218.19999980926514","98567","SARL_v6","SARL_v6blzcl0fk","5f39eb3c94f71318adf97910","freq","","","img/orange_2bandit_a2.png","70","","70","test","1","","30","","","","square","circle","29","7","2","0.9655172413793104","","","","","","","",""
"null","99161","SARL_v6","SARL_v6blzcl0fk","5f39eb3c94f71318adf97910","freq_resp","","","img/orange_2bandit_a.png","70","img/orange_2bandit_a.png","70","test","","","","","","","","","","","2","","","","","","","","",""
"null","99315","SARL_v6","SARL_v6blzcl0fk","5f39eb3c94f71318adf97910","fixation","","","img/fixation.png","null","","","test","","","","","","","","","","","","","","","","","","","",""
"186","99503","SARL_v6","SARL_v6blzcl0fk","5f39eb3c94f71318adf97910","freq","","","img/orange_2bandit_a2.png","70","","70","test","1","","31","","","","square","circle","30","8","2","0.9666666666666667","","","","","","","",""
"null","100124","SARL_v6","SARL_v6blzcl0fk","5f39eb3c94f71318adf97910","freq_resp","","","img/orange_2bandit_a.png","70","img/orange_2bandit_a.png","70","test","","","","","","","","","","","2","","","","","","","","",""
"null","100281","SARL_v6","SARL_v6blzcl0fk","5f39eb3c94f71318adf97910","fixation","","","img/fixation.png","null","","","test","","","","","","","","","","","","","","","","","","","",""
"188.40000009536743","100471","SARL_v6","SARL_v6blzcl0fk","5f39eb3c94f71318adf97910","freq","","","img/orange_2bandit_a2.png","70","","70","test","1","","32","","","","square","circle","31","9","2","0.967741935483871","","","","","","","",""
"null","101099","SARL_v6","SARL_v6blzcl0fk","5f39eb3c94f71318adf97910","freq_resp","","","img/orange_2bandit_a.png","70","img/orange_2bandit_a.png","70","test","","","","","","","","","","","2","","","","","","","","",""
"null","101256","SARL_v6","SARL_v6blzcl0fk","5f39eb3c94f71318adf97910","fixation","","","img/fixation.png","null","","","test","","","","","","","","","","","","","","","","","","","",""
"205.59999990463257","101463","SARL_v6","SARL_v6blzcl0fk","5f39eb3c94f71318adf97910","freq","","","img/orange_2bandit_a2.png","70","","70","test","1","","33","","","","square","circle","32","10","2","0.96875","","","","","","","",""
"null","102070","SARL_v6","SARL_v6blzcl0fk","5f39eb3c94f71318adf97910","freq_resp","","","img/orange_2bandit_a.png","70","img/orange_2bandit_a.png","70","test","","","","","","","","","","","2","","","","","","","","",""
"null","102227","SARL_v6","SARL_v6blzcl0fk","5f39eb3c94f71318adf97910","fixation","","","img/fixation.png","null","","","test","","","","","","","","","","","","","","","","","","","",""
"210.80000019073486","102439","SARL_v6","SARL_v6blzcl0fk","5f39eb3c94f71318adf97910","freq","","","img/orange_2bandit_a2.png","70","","70","test","1","","34","","","","square","circle","33","11","2","0.9696969696969697","","","","","","","",""
"null","103035","SARL_v6","SARL_v6blzcl0fk","5f39eb3c94f71318adf97910","freq_resp","","","img/orange_2bandit_a.png","70","img/orange_2bandit_a.png","70","test","","","","","","","","","","","2","","","","","","","","",""
"null","103187","SARL_v6","SARL_v6blzcl0fk","5f39eb3c94f71318adf97910","fixation","","","img/fixation.png","null","","","test","","","","","","","","","","","","","","","","","","","",""
"378.80000019073486","103567","SARL_v6","SARL_v6blzcl0fk","5f39eb3c94f71318adf97910","infreq","","","img/blue_2bandit_a2.png","68","","68","test","1","","35","","","","square","circle","34","12","2","0.9705882352941176","","","","","","","",""
"null","103996","SARL_v6","SARL_v6blzcl0fk","5f39eb3c94f71318adf97910","infreq_resp","","","img/blue_2bandit_a.png","68","img/blue_2bandit_a.png","68","test","","","","","","","","","","","2","","","","","","","","",""
"null","104152","SARL_v6","SARL_v6blzcl0fk","5f39eb3c94f71318adf97910","fixation","","","img/fixation.png","null","","","test","","","","","","","","","","","","","","","","","","","",""
"373.90000009536743","104527","SARL_v6","SARL_v6blzcl0fk","5f39eb3c94f71318adf97910","freq","","","img/orange_2bandit_a2.png","70","","70","test","1","","36","","","","square","circle","35","13","2","0.9714285714285714","","","","","","","",""
"null","104970","SARL_v6","SARL_v6blzcl0fk","5f39eb3c94f71318adf97910","freq_resp","","","img/orange_2bandit_a.png","70","img/orange_2bandit_a.png","70","test","","","","","","","","","","","2","","","","","","","","",""
"null","105129","SARL_v6","SARL_v6blzcl0fk","5f39eb3c94f71318adf97910","fixation","","","img/fixation.png","null","","","test","","","","","","","","","","","","","","","","","","","",""
"237","105367","SARL_v6","SARL_v6blzcl0fk","5f39eb3c94f71318adf97910","freq","","","img/orange_2bandit_a2.png","70","","70","test","1","","37","","","","square","circle","36","14","2","0.9722222222222222","","","","","","","",""
"null","105943","SARL_v6","SARL_v6blzcl0fk","5f39eb3c94f71318adf97910","freq_resp","","","img/orange_2bandit_a.png","70","img/orange_2bandit_a.png","70","test","","","","","","","","","","","2","","","","","","","","",""
"null","106099","SARL_v6","SARL_v6blzcl0fk","5f39eb3c94f71318adf97910","fixation","","","img/fixation.png","null","","","test","","","","","","","","","","","","","","","","","","","",""
"162.2999997138977","106263","SARL_v6","SARL_v6blzcl0fk","5f39eb3c94f71318adf97910","freq","","","img/orange_2bandit_a2.png","70","","70","test","1","","38","","","","square","circle","37","15","2","0.972972972972973","","","","","","","",""
"null","106915","SARL_v6","SARL_v6blzcl0fk","5f39eb3c94f71318adf97910","freq_resp","","","img/orange_2bandit_a.png","70","img/orange_2bandit_a.png","70","test","","","","","","","","","","","2","","","","","","","","",""
"null","107067","SARL_v6","SARL_v6blzcl0fk","5f39eb3c94f71318adf97910","fixation","","","img/fixation.png","null","","","test","","","","","","","","","","","","","","","","","","","",""
"193.90000009536743","107262","SARL_v6","SARL_v6blzcl0fk","5f39eb3c94f71318adf97910","freq","","","img/orange_2bandit_a2.png","70","","70","test","1","","39","","","","square","circle","38","16","2","0.9736842105263158","","","","","","","",""
"null","107885","SARL_v6","SARL_v6blzcl0fk","5f39eb3c94f71318adf97910","freq_resp","","","img/orange_2bandit_a.png","70","img/orange_2bandit_a.png","70","test","","","","","","","","","","","2","","","","","","","","",""
"null","108037","SARL_v6","SARL_v6blzcl0fk","5f39eb3c94f71318adf97910","fixation","","","img/fixation.png","null","","","test","","","","","","","","","","","","","","","","","","","",""
"168.19999980926514","108207","SARL_v6","SARL_v6blzcl0fk","5f39eb3c94f71318adf97910","infreq","","","img/blue_2bandit_a2.png","70","","68","test","0","","40","","","","square","circle","39","17","2","0.9487179487179487","","","","","","","",""
"null","108844","SARL_v6","SARL_v6blzcl0fk","5f39eb3c94f71318adf97910","infreq_resp","","","img/blue_2bandit_a.png","70","img/blue_2bandit_a.png","68","test","","","","","","","","","","","2","","","","","","","","",""
"null","108996","SARL_v6","SARL_v6blzcl0fk","5f39eb3c94f71318adf97910","fixation","","","img/fixation.png","null","","","test","","","","","","","","","","","","","","","","","","","",""
"186","109183","SARL_v6","SARL_v6blzcl0fk","5f39eb3c94f71318adf97910","freq","","","img/orange_2bandit_a2.png","70","","70","test","1","","41","","","","square","circle","40","18","2","0.95","","","","","","","",""
"null","109802","SARL_v6","SARL_v6blzcl0fk","5f39eb3c94f71318adf97910","freq_resp","","","img/orange_2bandit_a.png","70","img/orange_2bandit_a.png","70","test","","","","","","","","","","","2","","","","","","","","",""
"null","109954","SARL_v6","SARL_v6blzcl0fk","5f39eb3c94f71318adf97910","fixation","","","img/fixation.png","null","","","test","","","","","","","","","","","","","","","","","","","",""
"212","110167","SARL_v6","SARL_v6blzcl0fk","5f39eb3c94f71318adf97910","freq","","","img/orange_2bandit_a2.png","70","","70","test","1","","42","","","","square","circle","41","19","2","0.9512195121951219","","","","","","","",""
"null","110772","SARL_v6","SARL_v6blzcl0fk","5f39eb3c94f71318adf97910","freq_resp","","","img/orange_2bandit_a.png","70","img/orange_2bandit_a.png","70","test","","","","","","","","","","","2","","","","","","","","",""
"null","110929","SARL_v6","SARL_v6blzcl0fk","5f39eb3c94f71318adf97910","fixation","","","img/fixation.png","null","","","test","","","","","","","","","","","","","","","","","","","",""
"204.09999990463257","111134","SARL_v6","SARL_v6blzcl0fk","5f39eb3c94f71318adf97910","freq","","","img/orange_2bandit_a2.png","70","","70","test","1","","43","","","","square","circle","42","20","2","0.9523809523809523","","","","","","","",""
"null","111737","SARL_v6","SARL_v6blzcl0fk","5f39eb3c94f71318adf97910","freq_resp","","","img/orange_2bandit_a.png","70","img/orange_2bandit_a.png","70","test","","","","","","","","","","","2","","","","","","","","",""
"null","111889","SARL_v6","SARL_v6blzcl0fk","5f39eb3c94f71318adf97910","fixation","","","img/fixation.png","null","","","test","","","","","","","","","","","","","","","","","","","",""
"708.5999999046326","112599","SARL_v6","SARL_v6blzcl0fk","5f39eb3c94f71318adf97910","rl","","","img/black_2bandit_a2.png","74","","0","test","","","44","","","-5","square","circle","","0","2","","74","-8","-5","-5","-8","square","2","0"
"null","113356","SARL_v6","SARL_v6blzcl0fk","5f39eb3c94f71318adf97910","feedback","","","<div class=""verylowPoints_sq""> -5 </div>","null","","na","test","","","NaN","","","","","","","","2","","74","","","","","","2",""
"697.4000000953674","114055","SARL_v6","SARL_v6blzcl0fk","5f39eb3c94f71318adf97910","freq","","","img/orange_2bandit_a2.png","70","","70","test","1","","45","","","","square","circle","43","1","3","0.9534883720930233","","","","","","","",""
"null","114169","SARL_v6","SARL_v6blzcl0fk","5f39eb3c94f71318adf97910","freq_resp","","","img/orange_2bandit_a.png","70","img/orange_2bandit_a.png","70","test","","","","","","","","","","","3","","","","","","","","",""
"null","114324","SARL_v6","SARL_v6blzcl0fk","5f39eb3c94f71318adf97910","fixation","","","img/fixation.png","null","","","test","","","","","","","","","","","","","","","","","","","",""
"417.80000019073486","114743","SARL_v6","SARL_v6blzcl0fk","5f39eb3c94f71318adf97910","freq","","","img/orange_2bandit_a2.png","70","","70","test","1","","46","","","","square","circle","44","2","3","0.9545454545454546","","","","","","","",""
"null","115138","SARL_v6","SARL_v6blzcl0fk","5f39eb3c94f71318adf97910","freq_resp","","","img/orange_2bandit_a.png","70","img/orange_2bandit_a.png","70","test","","","","","","","","","","","3","","","","","","","","",""
"null","115294","SARL_v6","SARL_v6blzcl0fk","5f39eb3c94f71318adf97910","fixation","","","img/fixation.png","null","","","test","","","","","","","","","","","","","","","","","","","",""
"263.5","115559","SARL_v6","SARL_v6blzcl0fk","5f39eb3c94f71318adf97910","freq","","","img/orange_2bandit_a2.png","70","","70","test","1","","47","","","","square","circle","45","3","3","0.9555555555555556","","","","","","","",""
"null","116107","SARL_v6","SARL_v6blzcl0fk","5f39eb3c94f71318adf97910","freq_resp","","","img/orange_2bandit_a.png","70","img/orange_2bandit_a.png","70","test","","","","","","","","","","","3","","","","","","","","",""
"null","116264","SARL_v6","SARL_v6blzcl0fk","5f39eb3c94f71318adf97910","fixation","","","img/fixation.png","null","","","test","","","","","","","","","","","","","","","","","","","",""
"245.90000009536743","116511","SARL_v6","SARL_v6blzcl0fk","5f39eb3c94f71318adf97910","freq","","","img/orange_2bandit_a2.png","70","","70","test","1","","48","","","","square","circle","46","4","3","0.9565217391304348","","","","","","","",""
"null","117078","SARL_v6","SARL_v6blzcl0fk","5f39eb3c94f71318adf97910","freq_resp","","","img/orange_2bandit_a.png","70","img/orange_2bandit_a.png","70","test","","","","","","","","","","","3","","","","","","","","",""
"null","117230","SARL_v6","SARL_v6blzcl0fk","5f39eb3c94f71318adf97910","fixation","","","img/fixation.png","null","","","test","","","","","","","","","","","","","","","","","","","",""
"263.09999990463257","117495","SARL_v6","SARL_v6blzcl0fk","5f39eb3c94f71318adf97910","freq","","","img/orange_2bandit_a2.png","70","","70","test","1","","49","","","","square","circle","47","5","3","0.9574468085106383","","","","","","","",""
"null","118039","SARL_v6","SARL_v6blzcl0fk","5f39eb3c94f71318adf97910","freq_resp","","","img/orange_2bandit_a.png","70","img/orange_2bandit_a.png","70","test","","","","","","","","","","","3","","","","","","","","",""
"null","118191","SARL_v6","SARL_v6blzcl0fk","5f39eb3c94f71318adf97910","fixation","","","img/fixation.png","null","","","test","","","","","","","","","","","","","","","","","","","",""
"246.69999980926514","118439","SARL_v6","SARL_v6blzcl0fk","5f39eb3c94f71318adf97910","freq","","","img/orange_2bandit_a2.png","70","","70","test","1","","50","","","","square","circle","48","6","3","0.9583333333333334","","","","","","","",""
"null","118996","SARL_v6","SARL_v6blzcl0fk","5f39eb3c94f71318adf97910","freq_resp","","","img/orange_2bandit_a.png","70","img/orange_2bandit_a.png","70","test","","","","","","","","","","","3","","","","","","","","",""
"null","119151","SARL_v6","SARL_v6blzcl0fk","5f39eb3c94f71318adf97910","fixation","","","img/fixation.png","null","","","test","","","","","","","","","","","","","","","","","","","",""
"237.69999980926514","119391","SARL_v6","SARL_v6blzcl0fk","5f39eb3c94f71318adf97910","freq","","","img/orange_2bandit_a2.png","70","","70","test","1","","51","","","","square","circle","49","7","3","0.9591836734693877","","","","","","","",""
"null","119962","SARL_v6","SARL_v6blzcl0fk","5f39eb3c94f71318adf97910","freq_resp","","","img/orange_2bandit_a.png","70","img/orange_2bandit_a.png","70","test","","","","","","","","","","","3","","","","","","","","",""
"null","120120","SARL_v6","SARL_v6blzcl0fk","5f39eb3c94f71318adf97910","fixation","","","img/fixation.png","null","","","test","","","","","","","","","","","","","","","","","","","",""
"205.19999980926514","120326","SARL_v6","SARL_v6blzcl0fk","5f39eb3c94f71318adf97910","freq","","","img/orange_2bandit_a2.png","70","","70","test","1","","52","","","","square","circle","50","8","3","0.96","","","","","","","",""
"null","120932","SARL_v6","SARL_v6blzcl0fk","5f39eb3c94f71318adf97910","freq_resp","","","img/orange_2bandit_a.png","70","img/orange_2bandit_a.png","70","test","","","","","","","","","","","3","","","","","","","","",""
"null","121084","SARL_v6","SARL_v6blzcl0fk","5f39eb3c94f71318adf97910","fixation","","","img/fixation.png","null","","","test","","","","","","","","","","","","","","","","","","","",""
"369.90000009536743","121455","SARL_v6","SARL_v6blzcl0fk","5f39eb3c94f71318adf97910","infreq","","","img/blue_2bandit_a2.png","68","","68","test","1","","53","","","","square","circle","51","9","3","0.9607843137254902","","","","","","","",""
"null","121890","SARL_v6","SARL_v6blzcl0fk","5f39eb3c94f71318adf97910","infreq_resp","","","img/blue_2bandit_a.png","68","img/blue_2bandit_a.png","68","test","","","","","","","","","","","3","","","","","","","","",""
"null","122049","SARL_v6","SARL_v6blzcl0fk","5f39eb3c94f71318adf97910","fixation","","","img/fixation.png","null","","","test","","","","","","","","","","","","","","","","","","","",""
"252.59999990463257","122302","SARL_v6","SARL_v6blzcl0fk","5f39eb3c94f71318adf97910","freq","","","img/orange_2bandit_a2.png","70","","70","test","1","","54","","","","square","circle","52","10","3","0.9615384615384616","","","","","","","",""
"null","122855","SARL_v6","SARL_v6blzcl0fk","5f39eb3c94f71318adf97910","freq_resp","","","img/orange_2bandit_a.png","70","img/orange_2bandit_a.png","70","test","","","","","","","","","","","3","","","","","","","","",""
"null","123008","SARL_v6","SARL_v6blzcl0fk","5f39eb3c94f71318adf97910","fixation","","","img/fixation.png","null","","","test","","","","","","","","","","","","","","","","","","","",""
"221.40000009536743","123231","SARL_v6","SARL_v6blzcl0fk","5f39eb3c94f71318adf97910","freq","","","img/orange_2bandit_a2.png","70","","70","test","1","","55","","","","square","circle","53","11","3","0.9622641509433962","","","","","","","",""
"null","123813","SARL_v6","SARL_v6blzcl0fk","5f39eb3c94f71318adf97910","freq_resp","","","img/orange_2bandit_a.png","70","img/orange_2bandit_a.png","70","test","","","","","","","","","","","3","","","","","","","","",""
"null","123965","SARL_v6","SARL_v6blzcl0fk","5f39eb3c94f71318adf97910","fixation","","","img/fixation.png","null","","","test","","","","","","","","","","","","","","","","","","","",""
"392.80000019073486","124359","SARL_v6","SARL_v6blzcl0fk","5f39eb3c94f71318adf97910","infreq","","","img/blue_2bandit_a2.png","68","","68","test","1","","56","","","","square","circle","54","12","3","0.9629629629629629","","","","","","","",""
"null","124780","SARL_v6","SARL_v6blzcl0fk","5f39eb3c94f71318adf97910","infreq_resp","","","img/blue_2bandit_a.png","68","img/blue_2bandit_a.png","68","test","","","","","","","","","","","3","","","","","","","","",""
"null","124938","SARL_v6","SARL_v6blzcl0fk","5f39eb3c94f71318adf97910","fixation","","","img/fixation.png","null","","","test","","","","","","","","","","","","","","","","","","","",""
"291.6000003814697","125231","SARL_v6","SARL_v6blzcl0fk","5f39eb3c94f71318adf97910","freq","","","img/orange_2bandit_a2.png","70","","70","test","1","","57","","","","square","circle","55","13","3","0.9636363636363636","","","","","","","",""
"null","125753","SARL_v6","SARL_v6blzcl0fk","5f39eb3c94f71318adf97910","freq_resp","","","img/orange_2bandit_a.png","70","img/orange_2bandit_a.png","70","test","","","","","","","","","","","3","","","","","","","","",""
"null","125910","SARL_v6","SARL_v6blzcl0fk","5f39eb3c94f71318adf97910","fixation","","","img/fixation.png","null","","","test","","","","","","","","","","","","","","","","","","","",""
"240.19999980926514","126151","SARL_v6","SARL_v6blzcl0fk","5f39eb3c94f71318adf97910","freq","","","img/orange_2bandit_a2.png","70","","70","test","1","","58","","","","square","circle","56","14","3","0.9642857142857143","","","","","","","",""
"null","126714","SARL_v6","SARL_v6blzcl0fk","5f39eb3c94f71318adf97910","freq_resp","","","img/orange_2bandit_a.png","70","img/orange_2bandit_a.png","70","test","","","","","","","","","","","3","","","","","","","","",""
"null","126866","SARL_v6","SARL_v6blzcl0fk","5f39eb3c94f71318adf97910","fixation","","","img/fixation.png","null","","","test","","","","","","","","","","","","","","","","","","","",""
"236","127103","SARL_v6","SARL_v6blzcl0fk","5f39eb3c94f71318adf97910","freq","","","img/orange_2bandit_a2.png","70","","70","test","1","","59","","","","square","circle","57","15","3","0.9649122807017544","","","","","","","",""
"null","127669","SARL_v6","SARL_v6blzcl0fk","5f39eb3c94f71318adf97910","freq_resp","","","img/orange_2bandit_a.png","70","img/orange_2bandit_a.png","70","test","","","","","","","","","","","3","","","","","","","","",""
"null","127828","SARL_v6","SARL_v6blzcl0fk","5f39eb3c94f71318adf97910","fixation","","","img/fixation.png","null","","","test","","","","","","","","","","","","","","","","","","","",""
"233.69999980926514","128063","SARL_v6","SARL_v6blzcl0fk","5f39eb3c94f71318adf97910","freq","","","img/orange_2bandit_a2.png","70","","70","test","1","","60","","","","square","circle","58","16","3","0.9655172413793104","","","","","","","",""
"null","128631","SARL_v6","SARL_v6blzcl0fk","5f39eb3c94f71318adf97910","freq_resp","","","img/orange_2bandit_a.png","70","img/orange_2bandit_a.png","70","test","","","","","","","","","","","3","","","","","","","","",""
"null","128788","SARL_v6","SARL_v6blzcl0fk","5f39eb3c94f71318adf97910","fixation","","","img/fixation.png","null","","","test","","","","","","","","","","","","","","","","","","","",""
"242","129031","SARL_v6","SARL_v6blzcl0fk","5f39eb3c94f71318adf97910","freq","","","img/orange_2bandit_a2.png","70","","70","test","1","","61","","","","square","circle","59","17","3","0.9661016949152542","","","","","","","",""
"null","129602","SARL_v6","SARL_v6blzcl0fk","5f39eb3c94f71318adf97910","freq_resp","","","img/orange_2bandit_a.png","70","img/orange_2bandit_a.png","70","test","","","","","","","","","","","3","","","","","","","","",""
"null","129754","SARL_v6","SARL_v6blzcl0fk","5f39eb3c94f71318adf97910","fixation","","","img/fixation.png","null","","","test","","","","","","","","","","","","","","","","","","","",""
"268.09999990463257","130023","SARL_v6","SARL_v6blzcl0fk","5f39eb3c94f71318adf97910","freq","","","img/orange_2bandit_a2.png","70","","70","test","1","","62","","","","square","circle","60","18","3","0.9666666666666667","","","","","","","",""
"null","130559","SARL_v6","SARL_v6blzcl0fk","5f39eb3c94f71318adf97910","freq_resp","","","img/orange_2bandit_a.png","70","img/orange_2bandit_a.png","70","test","","","","","","","","","","","3","","","","","","","","",""
"null","130711","SARL_v6","SARL_v6blzcl0fk","5f39eb3c94f71318adf97910","fixation","","","img/fixation.png","null","","","test","","","","","","","","","","","","","","","","","","","",""
"270.19999980926514","130982","SARL_v6","SARL_v6blzcl0fk","5f39eb3c94f71318adf97910","freq","","","img/orange_2bandit_a2.png","70","","70","test","1","","63","","","","square","circle","61","19","3","0.9672131147540983","","","","","","","",""
"null","131515","SARL_v6","SARL_v6blzcl0fk","5f39eb3c94f71318adf97910","freq_resp","","","img/orange_2bandit_a.png","70","img/orange_2bandit_a.png","70","test","","","","","","","","","","","3","","","","","","","","",""
"null","131668","SARL_v6","SARL_v6blzcl0fk","5f39eb3c94f71318adf97910","fixation","","","img/fixation.png","null","","","test","","","","","","","","","","","","","","","","","","","",""
"226","131895","SARL_v6","SARL_v6blzcl0fk","5f39eb3c94f71318adf97910","freq","","","img/orange_2bandit_a2.png","70","","70","test","1","","64","","","","square","circle","62","20","3","0.967741935483871","","","","","","","",""
"null","132482","SARL_v6","SARL_v6blzcl0fk","5f39eb3c94f71318adf97910","freq_resp","","","img/orange_2bandit_a.png","70","img/orange_2bandit_a.png","70","test","","","","","","","","","","","3","","","","","","","","",""
"null","132634","SARL_v6","SARL_v6blzcl0fk","5f39eb3c94f71318adf97910","fixation","","","img/fixation.png","null","","","test","","","","","","","","","","","","","","","","","","","",""
"251.2999997138977","132887","SARL_v6","SARL_v6blzcl0fk","5f39eb3c94f71318adf97910","freq","","","img/orange_2bandit_a2.png","70","","70","test","1","","65","","","","square","circle","63","21","3","0.9682539682539683","","","","","","","",""
"null","133444","SARL_v6","SARL_v6blzcl0fk","5f39eb3c94f71318adf97910","freq_resp","","","img/orange_2bandit_a.png","70","img/orange_2bandit_a.png","70","test","","","","","","","","","","","3","","","","","","","","",""
"null","133596","SARL_v6","SARL_v6blzcl0fk","5f39eb3c94f71318adf97910","fixation","","","img/fixation.png","null","","","test","","","","","","","","","","","","","","","","","","","",""
"241.69999980926514","133839","SARL_v6","SARL_v6blzcl0fk","5f39eb3c94f71318adf97910","freq","","","img/orange_2bandit_a2.png","70","","70","test","1","","66","","","","square","circle","64","22","3","0.96875","","","","","","","",""
"null","134401","SARL_v6","SARL_v6blzcl0fk","5f39eb3c94f71318adf97910","freq_resp","","","img/orange_2bandit_a.png","70","img/orange_2bandit_a.png","70","test","","","","","","","","","","","3","","","","","","","","",""
"null","134553","SARL_v6","SARL_v6blzcl0fk","5f39eb3c94f71318adf97910","fixation","","","img/fixation.png","null","","","test","","","","","","","","","","","","","","","","","","","",""
"228.09999990463257","134783","SARL_v6","SARL_v6blzcl0fk","5f39eb3c94f71318adf97910","freq","","","img/orange_2bandit_a2.png","70","","70","test","1","","67","","","","square","circle","65","23","3","0.9692307692307692","","","","","","","",""
"null","135362","SARL_v6","SARL_v6blzcl0fk","5f39eb3c94f71318adf97910","freq_resp","","","img/orange_2bandit_a.png","70","img/orange_2bandit_a.png","70","test","","","","","","","","","","","3","","","","","","","","",""
"null","135513","SARL_v6","SARL_v6blzcl0fk","5f39eb3c94f71318adf97910","fixation","","","img/fixation.png","null","","","test","","","","","","","","","","","","","","","","","","","",""
"452.09999990463257","135967","SARL_v6","SARL_v6blzcl0fk","5f39eb3c94f71318adf97910","rl","","","img/black_2bandit_a2.png","75","","0","test","","","68","","","-8","square","circle","","0","3","","75","-8","-4","-4","-8","circle","3","0"
"null","136731","SARL_v6","SARL_v6blzcl0fk","5f39eb3c94f71318adf97910","feedback","","","<div class=""verylowPoints""> -8 </div>","null","","na","test","","","NaN","","","","","","","","3","","75","","","","","","3",""
"346.59999990463257","137079","SARL_v6","SARL_v6blzcl0fk","5f39eb3c94f71318adf97910","freq","","","img/orange_2bandit_a2.png","70","","70","test","1","","69","","","","square","circle","66","1","4","0.9696969696969697","","","","","","","",""
"null","137549","SARL_v6","SARL_v6blzcl0fk","5f39eb3c94f71318adf97910","freq_resp","","","img/orange_2bandit_a.png","70","img/orange_2bandit_a.png","70","test","","","","","","","","","","","4","","","","","","","","",""
"null","137707","SARL_v6","SARL_v6blzcl0fk","5f39eb3c94f71318adf97910","fixation","","","img/fixation.png","null","","","test","","","","","","","","","","","","","","","","","","","",""
"234.2000002861023","137943","SARL_v6","SARL_v6blzcl0fk","5f39eb3c94f71318adf97910","freq","","","img/orange_2bandit_a2.png","70","","70","test","1","","70","","","","square","circle","67","2","4","0.9701492537313433","","","","","","","",""
"null","138524","SARL_v6","SARL_v6blzcl0fk","5f39eb3c94f71318adf97910","freq_resp","","","img/orange_2bandit_a.png","70","img/orange_2bandit_a.png","70","test","","","","","","","","","","","4","","","","","","","","",""
"null","138676","SARL_v6","SARL_v6blzcl0fk","5f39eb3c94f71318adf97910","fixation","","","img/fixation.png","null","","","test","","","","","","","","","","","","","","","","","","","",""
"202.09999990463257","138879","SARL_v6","SARL_v6blzcl0fk","5f39eb3c94f71318adf97910","freq","","","img/orange_2bandit_a2.png","70","","70","test","1","","71","","","","square","circle","68","3","4","0.9705882352941176","","","","","","","",""
"null","139491","SARL_v6","SARL_v6blzcl0fk","5f39eb3c94f71318adf97910","freq_resp","","","img/orange_2bandit_a.png","70","img/orange_2bandit_a.png","70","test","","","","","","","","","","","4","","","","","","","","",""
"null","139643","SARL_v6","SARL_v6blzcl0fk","5f39eb3c94f71318adf97910","fixation","","","img/fixation.png","null","","","test","","","","","","","","","","","","","","","","","","","",""
"170.59999990463257","139815","SARL_v6","SARL_v6blzcl0fk","5f39eb3c94f71318adf97910","infreq","","","img/blue_2bandit_a2.png","70","","68","test","0","","72","","","","square","circle","69","4","4","0.9565217391304348","","","","","","","",""
"null","140449","SARL_v6","SARL_v6blzcl0fk","5f39eb3c94f71318adf97910","infreq_resp","","","img/blue_2bandit_a.png","70","img/blue_2bandit_a.png","68","test","","","","","","","","","","","4","","","","","","","","",""
"null","140606","SARL_v6","SARL_v6blzcl0fk","5f39eb3c94f71318adf97910","fixation","","","img/fixation.png","null","","","test","","","","","","","","","","","","","","","","","","","",""
"239.80000019073486","140847","SARL_v6","SARL_v6blzcl0fk","5f39eb3c94f71318adf97910","freq","","","img/orange_2bandit_a2.png","70","","70","test","1","","73","","","","square","circle","70","5","4","0.9571428571428572","","","","","","","",""
"null","141422","SARL_v6","SARL_v6blzcl0fk","5f39eb3c94f71318adf97910","freq_resp","","","img/orange_2bandit_a.png","70","img/orange_2bandit_a.png","70","test","","","","","","","","","","","4","","","","","","","","",""
"null","141574","SARL_v6","SARL_v6blzcl0fk","5f39eb3c94f71318adf97910","fixation","","","img/fixation.png","null","","","test","","","","","","","","","","","","","","","","","","","",""
"199.90000009536743","141775","SARL_v6","SARL_v6blzcl0fk","5f39eb3c94f71318adf97910","freq","","","img/orange_2bandit_a2.png","70","","70","test","1","","74","","","","square","circle","71","6","4","0.9577464788732394","","","","","","","",""
"null","142387","SARL_v6","SARL_v6blzcl0fk","5f39eb3c94f71318adf97910","freq_resp","","","img/orange_2bandit_a.png","70","img/orange_2bandit_a.png","70","test","","","","","","","","","","","4","","","","","","","","",""
"null","142539","SARL_v6","SARL_v6blzcl0fk","5f39eb3c94f71318adf97910","fixation","","","img/fixation.png","null","","","test","","","","","","","","","","","","","","","","","","","",""
"250.40000009536743","142791","SARL_v6","SARL_v6blzcl0fk","5f39eb3c94f71318adf97910","freq","","","img/orange_2bandit_a2.png","70","","70","test","1","","75","","","","square","circle","72","7","4","0.9583333333333334","","","","","","","",""
"null","143352","SARL_v6","SARL_v6blzcl0fk","5f39eb3c94f71318adf97910","freq_resp","","","img/orange_2bandit_a.png","70","img/orange_2bandit_a.png","70","test","","","","","","","","","","","4","","","","","","","","",""
"null","143508","SARL_v6","SARL_v6blzcl0fk","5f39eb3c94f71318adf97910","fixation","","","img/fixation.png","null","","","test","","","","","","","","","","","","","","","","","","","",""
"226.09999990463257","143735","SARL_v6","SARL_v6blzcl0fk","5f39eb3c94f71318adf97910","freq","","","img/orange_2bandit_a2.png","70","","70","test","1","","76","","","","square","circle","73","8","4","0.958904109589041","","","","","","","",""
"null","144322","SARL_v6","SARL_v6blzcl0fk","5f39eb3c94f71318adf97910","freq_resp","","","img/orange_2bandit_a.png","70","img/orange_2bandit_a.png","70","test","","","","","","","","","","","4","","","","","","","","",""
"null","144480","SARL_v6","SARL_v6blzcl0fk","5f39eb3c94f71318adf97910","fixation","","","img/fixation.png","null","","","test","","","","","","","","","","","","","","","","","","","",""
"237.40000009536743","144719","SARL_v6","SARL_v6blzcl0fk","5f39eb3c94f71318adf97910","freq","","","img/orange_2bandit_a2.png","70","","70","test","1","","77","","","","square","circle","74","9","4","0.9594594594594594","","","","","","","",""
"null","145292","SARL_v6","SARL_v6blzcl0fk","5f39eb3c94f71318adf97910","freq_resp","","","img/orange_2bandit_a.png","70","img/orange_2bandit_a.png","70","test","","","","","","","","","","","4","","","","","","","","",""
"null","145450","SARL_v6","SARL_v6blzcl0fk","5f39eb3c94f71318adf97910","fixation","","","img/fixation.png","null","","","test","","","","","","","","","","","","","","","","","","","",""
"203.09999990463257","145655","SARL_v6","SARL_v6blzcl0fk","5f39eb3c94f71318adf97910","freq","","","img/orange_2bandit_a2.png","70","","70","test","1","","78","","","","square","circle","75","10","4","0.96","","","","","","","",""
"null","146265","SARL_v6","SARL_v6blzcl0fk","5f39eb3c94f71318adf97910","freq_resp","","","img/orange_2bandit_a.png","70","img/orange_2bandit_a.png","70","test","","","","","","","","","","","4","","","","","","","","",""
"null","146420","SARL_v6","SARL_v6blzcl0fk","5f39eb3c94f71318adf97910","fixation","","","img/fixation.png","null","","","test","","","","","","","","","","","","","","","","","","","",""
"209.59999990463257","146631","SARL_v6","SARL_v6blzcl0fk","5f39eb3c94f71318adf97910","freq","","","img/orange_2bandit_a2.png","70","","70","test","1","","79","","","","square","circle","76","11","4","0.9605263157894737","","","","","","","",""
"null","147224","SARL_v6","SARL_v6blzcl0fk","5f39eb3c94f71318adf97910","freq_resp","","","img/orange_2bandit_a.png","70","img/orange_2bandit_a.png","70","test","","","","","","","","","","","4","","","","","","","","",""
"null","147379","SARL_v6","SARL_v6blzcl0fk","5f39eb3c94f71318adf97910","fixation","","","img/fixation.png","null","","","test","","","","","","","","","","","","","","","","","","","",""
"209.90000009536743","147591","SARL_v6","SARL_v6blzcl0fk","5f39eb3c94f71318adf97910","freq","","","img/orange_2bandit_a2.png","70","","70","test","1","","80","","","","square","circle","77","12","4","0.961038961038961","","","","","","","",""
"null","148194","SARL_v6","SARL_v6blzcl0fk","5f39eb3c94f71318adf97910","freq_resp","","","img/orange_2bandit_a.png","70","img/orange_2bandit_a.png","70","test","","","","","","","","","","","4","","","","","","","","",""
"null","148347","SARL_v6","SARL_v6blzcl0fk","5f39eb3c94f71318adf97910","fixation","","","img/fixation.png","null","","","test","","","","","","","","","","","","","","","","","","","",""
"170","148519","SARL_v6","SARL_v6blzcl0fk","5f39eb3c94f71318adf97910","freq","","","img/orange_2bandit_a2.png","70","","70","test","1","","81","","","","square","circle","78","13","4","0.9615384615384616","","","","","","","",""
"null","149164","SARL_v6","SARL_v6blzcl0fk","5f39eb3c94f71318adf97910","freq_resp","","","img/orange_2bandit_a.png","70","img/orange_2bandit_a.png","70","test","","","","","","","","","","","4","","","","","","","","",""
"null","149315","SARL_v6","SARL_v6blzcl0fk","5f39eb3c94f71318adf97910","fixation","","","img/fixation.png","null","","","test","","","","","","","","","","","","","","","","","","","",""
"250.40000009536743","149567","SARL_v6","SARL_v6blzcl0fk","5f39eb3c94f71318adf97910","freq","","","img/orange_2bandit_a2.png","70","","70","test","1","","82","","","","square","circle","79","14","4","0.9620253164556962","","","","","","","",""
"null","150118","SARL_v6","SARL_v6blzcl0fk","5f39eb3c94f71318adf97910","freq_resp","","","img/orange_2bandit_a.png","70","img/orange_2bandit_a.png","70","test","","","","","","","","","","","4","","","","","","","","",""
"null","150270","SARL_v6","SARL_v6blzcl0fk","5f39eb3c94f71318adf97910","fixation","","","img/fixation.png","null","","","test","","","","","","","","","","","","","","","","","","","",""
"167","150438","SARL_v6","SARL_v6blzcl0fk","5f39eb3c94f71318adf97910","freq","","","img/orange_2bandit_a2.png","70","","70","test","1","","83","","","","square","circle","80","15","4","0.9625","","","","","","","",""
"null","151079","SARL_v6","SARL_v6blzcl0fk","5f39eb3c94f71318adf97910","freq_resp","","","img/orange_2bandit_a.png","70","img/orange_2bandit_a.png","70","test","","","","","","","","","","","4","","","","","","","","",""
"null","151231","SARL_v6","SARL_v6blzcl0fk","5f39eb3c94f71318adf97910","fixation","","","img/fixation.png","null","","","test","","","","","","","","","","","","","","","","","","","",""
"263.09999990463257","151495","SARL_v6","SARL_v6blzcl0fk","5f39eb3c94f71318adf97910","freq","","","img/orange_2bandit_a2.png","70","","70","test","1","","84","","","","square","circle","81","16","4","0.9629629629629629","","","","","","","",""
"null","152037","SARL_v6","SARL_v6blzcl0fk","5f39eb3c94f71318adf97910","freq_resp","","","img/orange_2bandit_a.png","70","img/orange_2bandit_a.png","70","test","","","","","","","","","","","4","","","","","","","","",""
"null","152188","SARL_v6","SARL_v6blzcl0fk","5f39eb3c94f71318adf97910","fixation","","","img/fixation.png","null","","","test","","","","","","","","","","","","","","","","","","","",""
"225.09999990463257","152415","SARL_v6","SARL_v6blzcl0fk","5f39eb3c94f71318adf97910","infreq","","","img/blue_2bandit_a2.png","70","","68","test","0","","85","","","","square","circle","82","17","4","0.9512195121951219","","","","","","","",""
"null","152993","SARL_v6","SARL_v6blzcl0fk","5f39eb3c94f71318adf97910","infreq_resp","","","img/blue_2bandit_a.png","70","img/blue_2bandit_a.png","68","test","","","","","","","","","","","4","","","","","","","","",""
"null","153151","SARL_v6","SARL_v6blzcl0fk","5f39eb3c94f71318adf97910","fixation","","","img/fixation.png","null","","","test","","","","","","","","","","","","","","","","","","","",""
"246.5","153399","SARL_v6","SARL_v6blzcl0fk","5f39eb3c94f71318adf97910","freq","","","img/orange_2bandit_a2.png","70","","70","test","1","","86","","","","square","circle","83","18","4","0.9518072289156626","","","","","","","",""
"null","153966","SARL_v6","SARL_v6blzcl0fk","5f39eb3c94f71318adf97910","freq_resp","","","img/orange_2bandit_a.png","70","img/orange_2bandit_a.png","70","test","","","","","","","","","","","4","","","","","","","","",""
"null","154119","SARL_v6","SARL_v6blzcl0fk","5f39eb3c94f71318adf97910","fixation","","","img/fixation.png","null","","","test","","","","","","","","","","","","","","","","","","","",""
"214.90000009536743","154335","SARL_v6","SARL_v6blzcl0fk","5f39eb3c94f71318adf97910","freq","","","img/orange_2bandit_a2.png","70","","70","test","1","","87","","","","square","circle","84","19","4","0.9523809523809523","","","","","","","",""
"null","154934","SARL_v6","SARL_v6blzcl0fk","5f39eb3c94f71318adf97910","freq_resp","","","img/orange_2bandit_a.png","70","img/orange_2bandit_a.png","70","test","","","","","","","","","","","4","","","","","","","","",""
"null","155093","SARL_v6","SARL_v6blzcl0fk","5f39eb3c94f71318adf97910","fixation","","","img/fixation.png","null","","","test","","","","","","","","","","","","","","","","","","","",""
"240.59999990463257","155335","SARL_v6","SARL_v6blzcl0fk","5f39eb3c94f71318adf97910","freq","","","img/orange_2bandit_a2.png","70","","70","test","1","","88","","","","square","circle","85","20","4","0.9529411764705882","","","","","","","",""
"null","155901","SARL_v6","SARL_v6blzcl0fk","5f39eb3c94f71318adf97910","freq_resp","","","img/orange_2bandit_a.png","70","img/orange_2bandit_a.png","70","test","","","","","","","","","","","4","","","","","","","","",""
"null","156053","SARL_v6","SARL_v6blzcl0fk","5f39eb3c94f71318adf97910","fixation","","","img/fixation.png","null","","","test","","","","","","","","","","","","","","","","","","","",""
"232.30000019073486","156287","SARL_v6","SARL_v6blzcl0fk","5f39eb3c94f71318adf97910","freq","","","img/orange_2bandit_a2.png","70","","70","test","1","","89","","","","square","circle","86","21","4","0.9534883720930233","","","","","","","",""
"null","156868","SARL_v6","SARL_v6blzcl0fk","5f39eb3c94f71318adf97910","freq_resp","","","img/orange_2bandit_a.png","70","img/orange_2bandit_a.png","70","test","","","","","","","","","","","4","","","","","","","","",""
"null","157025","SARL_v6","SARL_v6blzcl0fk","5f39eb3c94f71318adf97910","fixation","","","img/fixation.png","null","","","test","","","","","","","","","","","","","","","","","","","",""
"236.7000002861023","157263","SARL_v6","SARL_v6blzcl0fk","5f39eb3c94f71318adf97910","freq","","","img/orange_2bandit_a2.png","70","","70","test","1","","90","","","","square","circle","87","22","4","0.9540229885057471","","","","","","","",""
"null","157831","SARL_v6","SARL_v6blzcl0fk","5f39eb3c94f71318adf97910","freq_resp","","","img/orange_2bandit_a.png","70","img/orange_2bandit_a.png","70","test","","","","","","","","","","","4","","","","","","","","",""
"null","157983","SARL_v6","SARL_v6blzcl0fk","5f39eb3c94f71318adf97910","fixation","","","img/fixation.png","null","","","test","","","","","","","","","","","","","","","","","","","",""
"686.1999998092651","158671","SARL_v6","SARL_v6blzcl0fk","5f39eb3c94f71318adf97910","rl","","","img/black_2bandit_a2.png","74","","0","test","","","91","","","0","square","circle","","0","4","","74","-12","0","0","-12","square","4","0"
"null","159435","SARL_v6","SARL_v6blzcl0fk","5f39eb3c94f71318adf97910","feedback","","","<div class=""verylowPoints_sq""> 0 </div>","null","","na","test","","","NaN","","","","","","","","4","","74","","","","","","4",""
"267","159703","SARL_v6","SARL_v6blzcl0fk","5f39eb3c94f71318adf97910","freq","","","img/orange_2bandit_a2.png","70","","70","test","1","","92","","","","square","circle","88","1","5","0.9545454545454546","","","","","","","",""
"null","160250","SARL_v6","SARL_v6blzcl0fk","5f39eb3c94f71318adf97910","freq_resp","","","img/orange_2bandit_a.png","70","img/orange_2bandit_a.png","70","test","","","","","","","","","","","5","","","","","","","","",""
"null","160402","SARL_v6","SARL_v6blzcl0fk","5f39eb3c94f71318adf97910","fixation","","","img/fixation.png","null","","","test","","","","","","","","","","","","","","","","","","","",""
"283.7999997138977","160687","SARL_v6","SARL_v6blzcl0fk","5f39eb3c94f71318adf97910","freq","","","img/orange_2bandit_a2.png","70","","70","test","1","","93","","","","square","circle","89","2","5","0.9550561797752809","","","","","","","",""
"null","161209","SARL_v6","SARL_v6blzcl0fk","5f39eb3c94f71318adf97910","freq_resp","","","img/orange_2bandit_a.png","70","img/orange_2bandit_a.png","70","test","","","","","","","","","","","5","","","","","","","","",""
"null","161361","SARL_v6","SARL_v6blzcl0fk","5f39eb3c94f71318adf97910","fixation","","","img/fixation.png","null","","","test","","","","","","","","","","","","","","","","","","","",""
"260.59999990463257","161622","SARL_v6","SARL_v6blzcl0fk","5f39eb3c94f71318adf97910","freq","","","img/orange_2bandit_a2.png","70","","70","test","1","","94","","","","square","circle","90","3","5","0.9555555555555556","","","","","","","",""
"null","162164","SARL_v6","SARL_v6blzcl0fk","5f39eb3c94f71318adf97910","freq_resp","","","img/orange_2bandit_a.png","70","img/orange_2bandit_a.png","70","test","","","","","","","","","","","5","","","","","","","","",""
"null","162323","SARL_v6","SARL_v6blzcl0fk","5f39eb3c94f71318adf97910","fixation","","","img/fixation.png","null","","","test","","","","","","","","","","","","","","","","","","","",""
"275","162599","SARL_v6","SARL_v6blzcl0fk","5f39eb3c94f71318adf97910","freq","","","img/orange_2bandit_a2.png","70","","70","test","1","","95","","","","square","circle","91","4","5","0.9560439560439561","","","","","","","",""
"null","163139","SARL_v6","SARL_v6blzcl0fk","5f39eb3c94f71318adf97910","freq_resp","","","img/orange_2bandit_a.png","70","img/orange_2bandit_a.png","70","test","","","","","","","","","","","5","","","","","","","","",""
"null","163290","SARL_v6","SARL_v6blzcl0fk","5f39eb3c94f71318adf97910","fixation","","","img/fixation.png","null","","","test","","","","","","","","","","","","","","","","","","","",""
"251.19999980926514","163543","SARL_v6","SARL_v6blzcl0fk","5f39eb3c94f71318adf97910","freq","","","img/orange_2bandit_a2.png","70","","70","test","1","","96","","","","square","circle","92","5","5","0.9565217391304348","","","","","","","",""
"null","164102","SARL_v6","SARL_v6blzcl0fk","5f39eb3c94f71318adf97910","freq_resp","","","img/orange_2bandit_a.png","70","img/orange_2bandit_a.png","70","test","","","","","","","","","","","5","","","","","","","","",""
"null","164254","SARL_v6","SARL_v6blzcl0fk","5f39eb3c94f71318adf97910","fixation","","","img/fixation.png","null","","","test","","","","","","","","","","","","","","","","","","","",""
"295.59999990463257","164551","SARL_v6","SARL_v6blzcl0fk","5f39eb3c94f71318adf97910","freq","","","img/orange_2bandit_a2.png","70","","70","test","1","","97","","","","square","circle","93","6","5","0.956989247311828","","","","","","","",""
"null","165062","SARL_v6","SARL_v6blzcl0fk","5f39eb3c94f71318adf97910","freq_resp","","","img/orange_2bandit_a.png","70","img/orange_2bandit_a.png","70","test","","","","","","","","","","","5","","","","","","","","",""
"null","165213","SARL_v6","SARL_v6blzcl0fk","5f39eb3c94f71318adf97910","fixation","","","img/fixation.png","null","","","test","","","","","","","","","","","","","","","","","","","",""
"287.90000009536743","165502","SARL_v6","SARL_v6blzcl0fk","5f39eb3c94f71318adf97910","freq","","","img/orange_2bandit_a2.png","70","","70","test","1","","98","","","","square","circle","94","7","5","0.9574468085106383","","","","","","","",""
"null","166017","SARL_v6","SARL_v6blzcl0fk","5f39eb3c94f71318adf97910","freq_resp","","","img/orange_2bandit_a.png","70","img/orange_2bandit_a.png","70","test","","","","","","","","","","","5","","","","","","","","",""
"null","166169","SARL_v6","SARL_v6blzcl0fk","5f39eb3c94f71318adf97910","fixation","","","img/fixation.png","null","","","test","","","","","","","","","","","","","","","","","","","",""
"252.59999990463257","166423","SARL_v6","SARL_v6blzcl0fk","5f39eb3c94f71318adf97910","freq","","","img/orange_2bandit_a2.png","70","","70","test","1","","99","","","","square","circle","95","8","5","0.9578947368421052","","","","","","","",""
"null","166977","SARL_v6","SARL_v6blzcl0fk","5f39eb3c94f71318adf97910","freq_resp","","","img/orange_2bandit_a.png","70","img/orange_2bandit_a.png","70","test","","","","","","","","","","","5","","","","","","","","",""
"null","167129","SARL_v6","SARL_v6blzcl0fk","5f39eb3c94f71318adf97910","fixation","","","img/fixation.png","null","","","test","","","","","","","","","","","","","","","","","","","",""
"260.5","167391","SARL_v6","SARL_v6blzcl0fk","5f39eb3c94f71318adf97910","freq","","","img/orange_2bandit_a2.png","70","","70","test","1","","100","","","","square","circle","96","9","5","0.9583333333333334","","","","","","","",""
"null","167945","SARL_v6","SARL_v6blzcl0fk","5f39eb3c94f71318adf97910","freq_resp","","","img/orange_2bandit_a.png","70","img/orange_2bandit_a.png","70","test","","","","","","","","","","","5","","","","","","","","",""
"null","168097","SARL_v6","SARL_v6blzcl0fk","5f39eb3c94f71318adf97910","fixation","","","img/fixation.png","null","","","test","","","","","","","","","","","","","","","","","","","",""
"244.40000009536743","168343","SARL_v6","SARL_v6blzcl0fk","5f39eb3c94f71318adf97910","freq","","","img/orange_2bandit_a2.png","70","","70","test","1","","101","","","","square","circle","97","10","5","0.9587628865979382","","","","","","","",""
"null","168907","SARL_v6","SARL_v6blzcl0fk","5f39eb3c94f71318adf97910","freq_resp","","","img/orange_2bandit_a.png","70","img/orange_2bandit_a.png","70","test","","","","","","","","","","","5","","","","","","","","",""
"null","169059","SARL_v6","SARL_v6blzcl0fk","5f39eb3c94f71318adf97910","fixation","","","img/fixation.png","null","","","test","","","","","","","","","","","","","","","","","","","",""
"227","169287","SARL_v6","SARL_v6blzcl0fk","5f39eb3c94f71318adf97910","freq","","","img/orange_2bandit_a2.png","70","","70","test","1","","102","","","","square","circle","98","11","5","0.9591836734693877","","","","","","","",""
"null","169864","SARL_v6","SARL_v6blzcl0fk","5f39eb3c94f71318adf97910","freq_resp","","","img/orange_2bandit_a.png","70","img/orange_2bandit_a.png","70","test","","","","","","","","","","","5","","","","","","","","",""
"null","170022","SARL_v6","SARL_v6blzcl0fk","5f39eb3c94f71318adf97910","fixation","","","img/fixation.png","null","","","test","","","","","","","","","","","","","","","","","","","",""
"279.80000019073486","170303","SARL_v6","SARL_v6blzcl0fk","5f39eb3c94f71318adf97910","freq","","","img/orange_2bandit_a2.png","70","","70","test","1","","103","","","","square","circle","99","12","5","0.9595959595959596","","","","","","","",""
"null","170839","SARL_v6","SARL_v6blzcl0fk","5f39eb3c94f71318adf97910","freq_resp","","","img/orange_2bandit_a.png","70","img/orange_2bandit_a.png","70","test","","","","","","","","","","","5","","","","","","","","",""
"null","170991","SARL_v6","SARL_v6blzcl0fk","5f39eb3c94f71318adf97910","fixation","","","img/fixation.png","null","","","test","","","","","","","","","","","","","","","","","","","",""
"230.7999997138977","171223","SARL_v6","SARL_v6blzcl0fk","5f39eb3c94f71318adf97910","freq","","","img/orange_2bandit_a2.png","70","","70","test","1","","104","","","","square","circle","100","13","5","0.96","","","","","","","",""
"null","171798","SARL_v6","SARL_v6blzcl0fk","5f39eb3c94f71318adf97910","freq_resp","","","img/orange_2bandit_a.png","70","img/orange_2bandit_a.png","70","test","","","","","","","","","","","5","","","","","","","","",""
"null","171957","SARL_v6","SARL_v6blzcl0fk","5f39eb3c94f71318adf97910","fixation","","","img/fixation.png","null","","","test","","","","","","","","","","","","","","","","","","","",""
"240.80000019073486","172199","SARL_v6","SARL_v6blzcl0fk","5f39eb3c94f71318adf97910","freq","","","img/orange_2bandit_a2.png","70","","70","test","1","","105","","","","square","circle","101","14","5","0.9603960396039604","","","","","","","",""
"null","172775","SARL_v6","SARL_v6blzcl0fk","5f39eb3c94f71318adf97910","freq_resp","","","img/orange_2bandit_a.png","70","img/orange_2bandit_a.png","70","test","","","","","","","","","","","5","","","","","","","","",""
"null","172926","SARL_v6","SARL_v6blzcl0fk","5f39eb3c94f71318adf97910","fixation","","","img/fixation.png","null","","","test","","","","","","","","","","","","","","","","","","","",""
"223.09999990463257","173151","SARL_v6","SARL_v6blzcl0fk","5f39eb3c94f71318adf97910","freq","","","img/orange_2bandit_a2.png","70","","70","test","1","","106","","","","square","circle","102","15","5","0.9607843137254902","","","","","","","",""
"null","173734","SARL_v6","SARL_v6blzcl0fk","5f39eb3c94f71318adf97910","freq_resp","","","img/orange_2bandit_a.png","70","img/orange_2bandit_a.png","70","test","","","","","","","","","","","5","","","","","","","","",""
"null","173886","SARL_v6","SARL_v6blzcl0fk","5f39eb3c94f71318adf97910","fixation","","","img/fixation.png","null","","","test","","","","","","","","","","","","","","","","","","","",""
"199.40000009536743","174087","SARL_v6","SARL_v6blzcl0fk","5f39eb3c94f71318adf97910","freq","","","img/orange_2bandit_a2.png","70","","70","test","1","","107","","","","square","circle","103","16","5","0.9611650485436893","","","","","","","",""
"null","174693","SARL_v6","SARL_v6blzcl0fk","5f39eb3c94f71318adf97910","freq_resp","","","img/orange_2bandit_a.png","70","img/orange_2bandit_a.png","70","test","","","","","","","","","","","5","","","","","","","","",""
"null","174845","SARL_v6","SARL_v6blzcl0fk","5f39eb3c94f71318adf97910","fixation","","","img/fixation.png","null","","","test","","","","","","","","","","","","","","","","","","","",""
"384","175231","SARL_v6","SARL_v6blzcl0fk","5f39eb3c94f71318adf97910","infreq","","","img/blue_2bandit_a2.png","68","","68","test","1","","108","","","","square","circle","104","17","5","0.9615384615384616","","","","","","","",""
"null","175649","SARL_v6","SARL_v6blzcl0fk","5f39eb3c94f71318adf97910","infreq_resp","","","img/blue_2bandit_a.png","68","img/blue_2bandit_a.png","68","test","","","","","","","","","","","5","","","","","","","","",""
"null","175805","SARL_v6","SARL_v6blzcl0fk","5f39eb3c94f71318adf97910","fixation","","","img/fixation.png","null","","","test","","","","","","","","","","","","","","","","","","","",""
"528.1999998092651","176335","SARL_v6","SARL_v6blzcl0fk","5f39eb3c94f71318adf97910","infreq","","","img/blue_2bandit_a2.png","68","","68","test","1","","109","","","","square","circle","105","18","5","0.9619047619047619","","","","","","","",""
"null","176622","SARL_v6","SARL_v6blzcl0fk","5f39eb3c94f71318adf97910","infreq_resp","","","img/blue_2bandit_a.png","68","img/blue_2bandit_a.png","68","test","","","","","","","","","","","5","","","","","","","","",""
"null","176781","SARL_v6","SARL_v6blzcl0fk","5f39eb3c94f71318adf97910","fixation","","","img/fixation.png","null","","","test","","","","","","","","","","","","","","","","","","","",""
"416.2999997138977","177199","SARL_v6","SARL_v6blzcl0fk","5f39eb3c94f71318adf97910","freq","","","img/orange_2bandit_a2.png","70","","70","test","1","","110","","","","square","circle","106","19","5","0.9622641509433962","","","","","","","",""
"null","177590","SARL_v6","SARL_v6blzcl0fk","5f39eb3c94f71318adf97910","freq_resp","","","img/orange_2bandit_a.png","70","img/orange_2bandit_a.png","70","test","","","","","","","","","","","5","","","","","","","","",""
"null","177748","SARL_v6","SARL_v6blzcl0fk","5f39eb3c94f71318adf97910","fixation","","","img/fixation.png","null","","","test","","","","","","","","","","","","","","","","","","","",""
"585.4000000953674","178334","SARL_v6","SARL_v6blzcl0fk","5f39eb3c94f71318adf97910","infreq","","","img/blue_2bandit_a2.png","70","","68","test","0","","111","","","","square","circle","107","20","5","0.9532710280373832","","","","","","","",""
"null","178551","SARL_v6","SARL_v6blzcl0fk","5f39eb3c94f71318adf97910","infreq_resp","","","img/blue_2bandit_a.png","70","img/blue_2bandit_a.png","68","test","","","","","","","","","","","5","","","","","","","","",""
"null","178706","SARL_v6","SARL_v6blzcl0fk","5f39eb3c94f71318adf97910","fixation","","","img/fixation.png","null","","","test","","","","","","","","","","","","","","","","","","","",""
"null","179509","SARL_v6","SARL_v6blzcl0fk","5f39eb3c94f71318adf97910","freq","","","img/orange_2bandit_a2.png","null","","70","test","0","","112","","","","square","circle","108","21","5","0.9444444444444444","","","","","","","",""
"null","179666","SARL_v6","SARL_v6blzcl0fk","5f39eb3c94f71318adf97910","fixation","","","img/fixation.png","null","","","test","","","","","","","","","","","","","","","","","","","",""
"450.7999997138977","180118","SARL_v6","SARL_v6blzcl0fk","5f39eb3c94f71318adf97910","freq","","","img/orange_2bandit_a2.png","70","","70","test","1","","113","","","","square","circle","109","22","5","0.944954128440367","","","","","","","",""
"null","180480","SARL_v6","SARL_v6blzcl0fk","5f39eb3c94f71318adf97910","freq_resp","","","img/orange_2bandit_a.png","70","img/orange_2bandit_a.png","70","test","","","","","","","","","","","5","","","","","","","","",""
"null","180636","SARL_v6","SARL_v6blzcl0fk","5f39eb3c94f71318adf97910","fixation","","","img/fixation.png","null","","","test","","","","","","","","","","","","","","","","","","","",""
"360.3999996185303","180998","SARL_v6","SARL_v6blzcl0fk","5f39eb3c94f71318adf97910","freq","","","img/orange_2bandit_a2.png","70","","70","test","1","","114","","","","square","circle","110","23","5","0.9454545454545454","","","","","","","",""
"null","181452","SARL_v6","SARL_v6blzcl0fk","5f39eb3c94f71318adf97910","freq_resp","","","img/orange_2bandit_a.png","70","img/orange_2bandit_a.png","70","test","","","","","","","","","","","5","","","","","","","","",""
"null","181610","SARL_v6","SARL_v6blzcl0fk","5f39eb3c94f71318adf97910","fixation","","","img/fixation.png","null","","","test","","","","","","","","","","","","","","","","","","","",""
"266.59999990463257","181878","SARL_v6","SARL_v6blzcl0fk","5f39eb3c94f71318adf97910","freq","","","img/orange_2bandit_a2.png","70","","70","test","1","","115","","","","square","circle","111","24","5","0.9459459459459459","","","","","","","",""
"null","182426","SARL_v6","SARL_v6blzcl0fk","5f39eb3c94f71318adf97910","freq_resp","","","img/orange_2bandit_a.png","70","img/orange_2bandit_a.png","70","test","","","","","","","","","","","5","","","","","","","","",""
"null","182578","SARL_v6","SARL_v6blzcl0fk","5f39eb3c94f71318adf97910","fixation","","","img/fixation.png","null","","","test","","","","","","","","","","","","","","","","","","","",""
"202.80000019073486","182782","SARL_v6","SARL_v6blzcl0fk","5f39eb3c94f71318adf97910","freq","","","img/orange_2bandit_a2.png","70","","70","test","1","","116","","","","square","circle","112","25","5","0.9464285714285714","","","","","","","",""
"null","183386","SARL_v6","SARL_v6blzcl0fk","5f39eb3c94f71318adf97910","freq_resp","","","img/orange_2bandit_a.png","70","img/orange_2bandit_a.png","70","test","","","","","","","","","","","5","","","","","","","","",""
"null","183538","SARL_v6","SARL_v6blzcl0fk","5f39eb3c94f71318adf97910","fixation","","","img/fixation.png","null","","","test","","","","","","","","","","","","","","","","","","","",""
"354.90000009536743","183894","SARL_v6","SARL_v6blzcl0fk","5f39eb3c94f71318adf97910","rl","","","img/black_2bandit_a2.png","74","","0","test","","","117","","","4","square","circle","","0","5","","74","-7","4","4","-7","square","5","0"
"null","184660","SARL_v6","SARL_v6blzcl0fk","5f39eb3c94f71318adf97910","feedback","","","<div class=""veryhighPoints_sq""> 4 </div>","null","","na","test","","","NaN","","","","","","","","5","","74","","","","","","5",""
"null","185465","SARL_v6","SARL_v6blzcl0fk","5f39eb3c94f71318adf97910","freq","","","img/orange_2bandit_a2.png","null","","70","test","0","","118","","","","square","circle","113","1","6","0.9380530973451328","","","","","","","",""
"null","185619","SARL_v6","SARL_v6blzcl0fk","5f39eb3c94f71318adf97910","fixation","","","img/fixation.png","null","","","test","","","","","","","","","","","","","","","","","","","",""
"385.59999990463257","186006","SARL_v6","SARL_v6blzcl0fk","5f39eb3c94f71318adf97910","freq","","","img/orange_2bandit_a2.png","70","","70","test","1","","119","","","","square","circle","114","2","6","0.9385964912280702","","","","","","","",""
"null","186435","SARL_v6","SARL_v6blzcl0fk","5f39eb3c94f71318adf97910","freq_resp","","","img/orange_2bandit_a.png","70","img/orange_2bandit_a.png","70","test","","","","","","","","","","","6","","","","","","","","",""
"null","186593","SARL_v6","SARL_v6blzcl0fk","5f39eb3c94f71318adf97910","fixation","","","img/fixation.png","null","","","test","","","","","","","","","","","","","","","","","","","",""
"null","187395","SARL_v6","SARL_v6blzcl0fk","5f39eb3c94f71318adf97910","freq","","","img/orange_2bandit_a2.png","null","","70","test","0","","120","","","","square","circle","115","3","6","0.9304347826086956","","","","","","","",""
"null","187552","SARL_v6","SARL_v6blzcl0fk","5f39eb3c94f71318adf97910","fixation","","","img/fixation.png","null","","","test","","","","","","","","","","","","","","","","","","","",""
"509.09999990463257","188062","SARL_v6","SARL_v6blzcl0fk","5f39eb3c94f71318adf97910","freq","","","img/orange_2bandit_a2.png","70","","70","test","1","","121","","","","square","circle","116","4","6","0.9310344827586207","","","","","","","",""
"null","188369","SARL_v6","SARL_v6blzcl0fk","5f39eb3c94f71318adf97910","freq_resp","","","img/orange_2bandit_a.png","70","img/orange_2bandit_a.png","70","test","","","","","","","","","","","6","","","","","","","","",""
"null","188520","SARL_v6","SARL_v6blzcl0fk","5f39eb3c94f71318adf97910","fixation","","","img/fixation.png","null","","","test","","","","","","","","","","","","","","","","","","","",""
"372.69999980926514","188894","SARL_v6","SARL_v6blzcl0fk","5f39eb3c94f71318adf97910","freq","","","img/orange_2bandit_a2.png","70","","70","test","1","","122","","","","square","circle","117","5","6","0.9316239316239316","","","","","","","",""
"null","189326","SARL_v6","SARL_v6blzcl0fk","5f39eb3c94f71318adf97910","freq_resp","","","img/orange_2bandit_a.png","70","img/orange_2bandit_a.png","70","test","","","","","","","","","","","6","","","","","","","","",""
"null","189484","SARL_v6","SARL_v6blzcl0fk","5f39eb3c94f71318adf97910","fixation","","","img/fixation.png","null","","","test","","","","","","","","","","","","","","","","","","","",""
"296.09999990463257","189782","SARL_v6","SARL_v6blzcl0fk","5f39eb3c94f71318adf97910","freq","","","img/orange_2bandit_a2.png","70","","70","test","1","","123","","","","square","circle","118","6","6","0.9322033898305084","","","","","","","",""
"null","190289","SARL_v6","SARL_v6blzcl0fk","5f39eb3c94f71318adf97910","freq_resp","","","img/orange_2bandit_a.png","70","img/orange_2bandit_a.png","70","test","","","","","","","","","","","6","","","","","","","","",""
"null","190441","SARL_v6","SARL_v6blzcl0fk","5f39eb3c94f71318adf97910","fixation","","","img/fixation.png","null","","","test","","","","","","","","","","","","","","","","","","","",""
"267.90000009536743","190710","SARL_v6","SARL_v6blzcl0fk","5f39eb3c94f71318adf97910","freq","","","img/orange_2bandit_a2.png","70","","70","test","1","","124","","","","square","circle","119","7","6","0.9327731092436975","","","","","","","",""
"null","191246","SARL_v6","SARL_v6blzcl0fk","5f39eb3c94f71318adf97910","freq_resp","","","img/orange_2bandit_a.png","70","img/orange_2bandit_a.png","70","test","","","","","","","","","","","6","","","","","","","","",""
"null","191398","SARL_v6","SARL_v6blzcl0fk","5f39eb3c94f71318adf97910","fixation","","","img/fixation.png","null","","","test","","","","","","","","","","","","","","","","","","","",""
"247.19999980926514","191646","SARL_v6","SARL_v6blzcl0fk","5f39eb3c94f71318adf97910","freq","","","img/orange_2bandit_a2.png","70","","70","test","1","","125","","","","square","circle","120","8","6","0.9333333333333333","","","","","","","",""
"null","192201","SARL_v6","SARL_v6blzcl0fk","5f39eb3c94f71318adf97910","freq_resp","","","img/orange_2bandit_a.png","70","img/orange_2bandit_a.png","70","test","","","","","","","","","","","6","","","","","","","","",""
"null","192359","SARL_v6","SARL_v6blzcl0fk","5f39eb3c94f71318adf97910","fixation","","","img/fixation.png","null","","","test","","","","","","","","","","","","","","","","","","","",""
"206.09999990463257","192566","SARL_v6","SARL_v6blzcl0fk","5f39eb3c94f71318adf97910","freq","","","img/orange_2bandit_a2.png","70","","70","test","1","","126","","","","square","circle","121","9","6","0.9338842975206612","","","","","","","",""
"null","193170","SARL_v6","SARL_v6blzcl0fk","5f39eb3c94f71318adf97910","freq_resp","","","img/orange_2bandit_a.png","70","img/orange_2bandit_a.png","70","test","","","","","","","","","","","6","","","","","","","","",""
"null","193321","SARL_v6","SARL_v6blzcl0fk","5f39eb3c94f71318adf97910","fixation","","","img/fixation.png","null","","","test","","","","","","","","","","","","","","","","","","","",""
"259.59999990463257","193582","SARL_v6","SARL_v6blzcl0fk","5f39eb3c94f71318adf97910","freq","","","img/orange_2bandit_a2.png","70","","70","test","1","","127","","","","square","circle","122","10","6","0.9344262295081968","","","","","","","",""
"null","194127","SARL_v6","SARL_v6blzcl0fk","5f39eb3c94f71318adf97910","freq_resp","","","img/orange_2bandit_a.png","70","img/orange_2bandit_a.png","70","test","","","","","","","","","","","6","","","","","","","","",""
"null","194279","SARL_v6","SARL_v6blzcl0fk","5f39eb3c94f71318adf97910","fixation","","","img/fixation.png","null","","","test","","","","","","","","","","","","","","","","","","","",""
"438.19999980926514","194718","SARL_v6","SARL_v6blzcl0fk","5f39eb3c94f71318adf97910","freq","","","img/orange_2bandit_a2.png","70","","70","test","1","","128","","","","square","circle","123","11","6","0.9349593495934959","","","","","","","",""
"null","195090","SARL_v6","SARL_v6blzcl0fk","5f39eb3c94f71318adf97910","freq_resp","","","img/orange_2bandit_a.png","70","img/orange_2bandit_a.png","70","test","","","","","","","","","","","6","","","","","","","","",""
"null","195246","SARL_v6","SARL_v6blzcl0fk","5f39eb3c94f71318adf97910","fixation","","","img/fixation.png","null","","","test","","","","","","","","","","","","","","","","","","","",""
"247","195494","SARL_v6","SARL_v6blzcl0fk","5f39eb3c94f71318adf97910","freq","","","img/orange_2bandit_a2.png","70","","70","test","1","","129","","","","square","circle","124","12","6","0.9354838709677419","","","","","","","",""
