"rt","time_elapsed","expId","subject","prolificID","trialType","rlType","attType","stimulus","key_press","stim","corrresp","phase","corr","pracCounter","trialNum","rewardOne","rewardTwo","reward","bandOne","bandTwo","attentionNum","attentionRunNum","blockNum","performance","bandChosen","circleVal","squareVal","bandOneVal","bandTwoVal","shapeChosen","rlNum","badFlag"
"5768.299999952316","5772","SARL_v6","SARL_v6j8g3glax","5d8d12f6d88e3a00142c9751","","","","","","","","","","","","","","","","","","","","","","","","","","","",""
"","8061","SARL_v6","SARL_v6j8g3glax","5d8d12f6d88e3a00142c9751","fullscreen","fullscreen","fullscreen","","","","","","","","","","","","","","","","","","","","","","","","",""
"63573.299999952316","71636","SARL_v6","SARL_v6j8g3glax","5d8d12f6d88e3a00142c9751","","","","","","","","","","","","","","","","","","","","","","","","","","","",""
"null","72440","SARL_v6","SARL_v6j8g3glax","5d8d12f6d88e3a00142c9751","freqPrac","","","img/orange_2bandit_a2.png","null","img/orange_2bandit_a2.png","70","prac","0","1","","","","","","","","","","","","","","","","","",""
"null","73447","SARL_v6","SARL_v6j8g3glax","5d8d12f6d88e3a00142c9751","feedback","","","img/tooSlow.png","null","","na","prac","","","","","","","","","","","","","","","","","","","",""
"null","73606","SARL_v6","SARL_v6j8g3glax","5d8d12f6d88e3a00142c9751","fixation","","","img/fixation.png","null","","","prac","","","","","","","","","","","","","","","","","","","",""
"407.7000000476837","74015","SARL_v6","SARL_v6j8g3glax","5d8d12f6d88e3a00142c9751","infreqPrac","","","img/blue_2bandit_a2.png","68","img/blue_2bandit_a2.png","68","prac","1","1","","","","","","","","","","","","","","","","","",""
"407.7000000476837","74410","SARL_v6","SARL_v6j8g3glax","5d8d12f6d88e3a00142c9751","infreqPrac_resp","","","img/blue_2bandit_a.png","68","img/blue_2bandit_a.png","68","prac","","","","","","","","","","","","","","","","","","","",""
"null","74567","SARL_v6","SARL_v6j8g3glax","5d8d12f6d88e3a00142c9751","fixation","","","img/fixation.png","null","","","prac","","","","","","","","","","","","","","","","","","","",""
"454.19999980926514","75023","SARL_v6","SARL_v6j8g3glax","5d8d12f6d88e3a00142c9751","freqPrac","","","img/orange_2bandit_a2.png","70","img/orange_2bandit_a2.png","70","prac","1","1","","","","","","","","","","","","","","","","","",""
"454.19999980926514","75373","SARL_v6","SARL_v6j8g3glax","5d8d12f6d88e3a00142c9751","freqPrac_resp","","","img/orange_2bandit_a.png","70","img/orange_2bandit_a.png","70","prac","","","","","","","","","","","","","","","","","","","",""
"null","75532","SARL_v6","SARL_v6j8g3glax","5d8d12f6d88e3a00142c9751","fixation","","","img/fixation.png","null","","","prac","","","","","","","","","","","","","","","","","","","",""
"497.10000014305115","76031","SARL_v6","SARL_v6j8g3glax","5d8d12f6d88e3a00142c9751","infreqPrac","","","img/blue_2bandit_a2.png","68","img/blue_2bandit_a2.png","68","prac","1","1","","","","","","","","","","","","","","","","","",""
"497.10000014305115","76336","SARL_v6","SARL_v6j8g3glax","5d8d12f6d88e3a00142c9751","infreqPrac_resp","","","img/blue_2bandit_a.png","68","img/blue_2bandit_a.png","68","prac","","","","","","","","","","","","","","","","","","","",""
"null","76494","SARL_v6","SARL_v6j8g3glax","5d8d12f6d88e3a00142c9751","fixation","","","img/fixation.png","null","","","prac","","","","","","","","","","","","","","","","","","","",""
"366.7999999523163","76863","SARL_v6","SARL_v6j8g3glax","5d8d12f6d88e3a00142c9751","infreqPrac","","","img/blue_2bandit_a2.png","68","img/blue_2bandit_a2.png","68","prac","1","1","","","","","","","","","","","","","","","","","",""
"366.7999999523163","77298","SARL_v6","SARL_v6j8g3glax","5d8d12f6d88e3a00142c9751","infreqPrac_resp","","","img/blue_2bandit_a.png","68","img/blue_2bandit_a.png","68","prac","","","","","","","","","","","","","","","","","","","",""
"null","77454","SARL_v6","SARL_v6j8g3glax","5d8d12f6d88e3a00142c9751","fixation","","","img/fixation.png","null","","","prac","","","","","","","","","","","","","","","","","","","",""
"334.69999980926514","77791","SARL_v6","SARL_v6j8g3glax","5d8d12f6d88e3a00142c9751","infreqPrac","","","img/blue_2bandit_a2.png","68","img/blue_2bandit_a2.png","68","prac","1","1","","","","","","","","","","","","","","","","","",""
"334.69999980926514","78273","SARL_v6","SARL_v6j8g3glax","5d8d12f6d88e3a00142c9751","infreqPrac_resp","","","img/blue_2bandit_a.png","68","img/blue_2bandit_a.png","68","prac","","","","","","","","","","","","","","","","","","","",""
"null","78425","SARL_v6","SARL_v6j8g3glax","5d8d12f6d88e3a00142c9751","fixation","","","img/fixation.png","null","","","prac","","","","","","","","","","","","","","","","","","","",""
"332.5","78759","SARL_v6","SARL_v6j8g3glax","5d8d12f6d88e3a00142c9751","freqPrac","","","img/orange_2bandit_a2.png","70","img/orange_2bandit_a2.png","70","prac","1","1","","","","","","","","","","","","","","","","","",""
"332.5","79234","SARL_v6","SARL_v6j8g3glax","5d8d12f6d88e3a00142c9751","freqPrac_resp","","","img/orange_2bandit_a.png","70","img/orange_2bandit_a.png","70","prac","","","","","","","","","","","","","","","","","","","",""
"null","79390","SARL_v6","SARL_v6j8g3glax","5d8d12f6d88e3a00142c9751","fixation","","","img/fixation.png","null","","","prac","","","","","","","","","","","","","","","","","","","",""
"342.7999999523163","79734","SARL_v6","SARL_v6j8g3glax","5d8d12f6d88e3a00142c9751","infreqPrac","","","img/blue_2bandit_a2.png","68","img/blue_2bandit_a2.png","68","prac","1","1","","","","","","","","","","","","","","","","","",""
"342.7999999523163","80196","SARL_v6","SARL_v6j8g3glax","5d8d12f6d88e3a00142c9751","infreqPrac_resp","","","img/blue_2bandit_a.png","68","img/blue_2bandit_a.png","68","prac","","","","","","","","","","","","","","","","","","","",""
"null","80355","SARL_v6","SARL_v6j8g3glax","5d8d12f6d88e3a00142c9751","fixation","","","img/fixation.png","null","","","prac","","","","","","","","","","","","","","","","","","","",""
"385.90000009536743","80743","SARL_v6","SARL_v6j8g3glax","5d8d12f6d88e3a00142c9751","freqPrac","","","img/orange_2bandit_a2.png","70","img/orange_2bandit_a2.png","70","prac","1","1","","","","","","","","","","","","","","","","","",""
"385.90000009536743","81164","SARL_v6","SARL_v6j8g3glax","5d8d12f6d88e3a00142c9751","freqPrac_resp","","","img/orange_2bandit_a.png","70","img/orange_2bandit_a.png","70","prac","","","","","","","","","","","","","","","","","","","",""
"null","81321","SARL_v6","SARL_v6j8g3glax","5d8d12f6d88e3a00142c9751","fixation","","","img/fixation.png","null","","","prac","","","","","","","","","","","","","","","","","","","",""
"332.59999990463257","81655","SARL_v6","SARL_v6j8g3glax","5d8d12f6d88e3a00142c9751","freqPrac","","","img/orange_2bandit_a2.png","70","img/orange_2bandit_a2.png","70","prac","1","1","","","","","","","","","","","","","","","","","",""
"332.59999990463257","82136","SARL_v6","SARL_v6j8g3glax","5d8d12f6d88e3a00142c9751","freqPrac_resp","","","img/orange_2bandit_a.png","70","img/orange_2bandit_a.png","70","prac","","","","","","","","","","","","","","","","","","","",""
"null","82292","SARL_v6","SARL_v6j8g3glax","5d8d12f6d88e3a00142c9751","fixation","","","img/fixation.png","null","","","prac","","","","","","","","","","","","","","","","","","","",""
"35982.299999952316","118275","SARL_v6","SARL_v6j8g3glax","5d8d12f6d88e3a00142c9751","","","","","","","","prac","","","","","","","","","","","","","","","","","","","",""
"618.1000001430511","118895","SARL_v6","SARL_v6j8g3glax","5d8d12f6d88e3a00142c9751","rlPractice","","","img/black_2bandit_a2.png","74","img/black_2bandit_a2.png","","prac","","","0","","","","","","","","","","","","","","","","",""
"null","119662","SARL_v6","SARL_v6j8g3glax","5d8d12f6d88e3a00142c9751","feedback","","","<div class=""verylowPoints_sq""> -14 </div>","null","","na","prac","","","1","10","-14","10","","","","","","","","","","","","","",""
"null","119818","SARL_v6","SARL_v6j8g3glax","5d8d12f6d88e3a00142c9751","fixation","","","img/fixation.png","null","","","prac","","","","","","","","","","","","","","","","","","","",""
"587.2000000476837","120406","SARL_v6","SARL_v6j8g3glax","5d8d12f6d88e3a00142c9751","rlPractice","","","img/black_2bandit_a2.png","75","img/black_2bandit_a2.png","","prac","","","1","","","","","","","","","","","","","","","","",""
"null","121160","SARL_v6","SARL_v6j8g3glax","5d8d12f6d88e3a00142c9751","feedback","","","<div class=""veryhighPoints""> 5 </div>","null","","na","prac","","","2","5","-5","5","","","","","","","","","","","","","",""
"null","121318","SARL_v6","SARL_v6j8g3glax","5d8d12f6d88e3a00142c9751","fixation","","","img/fixation.png","null","","","prac","","","","","","","","","","","","","","","","","","","",""
"359","121679","SARL_v6","SARL_v6j8g3glax","5d8d12f6d88e3a00142c9751","rlPractice","","","img/black_2bandit_a2.png","75","img/black_2bandit_a2.png","","prac","","","2","","","","","","","","","","","","","","","","",""
"null","122440","SARL_v6","SARL_v6j8g3glax","5d8d12f6d88e3a00142c9751","feedback","","","<div class=""veryhighPoints""> 30 </div>","null","","na","prac","","","3","30","2","30","","","","","","","","","","","","","",""
"null","122597","SARL_v6","SARL_v6j8g3glax","5d8d12f6d88e3a00142c9751","fixation","","","img/fixation.png","null","","","prac","","","","","","","","","","","","","","","","","","","",""
"368.80000019073486","122967","SARL_v6","SARL_v6j8g3glax","5d8d12f6d88e3a00142c9751","rlPractice","","","img/black_2bandit_a2.png","75","img/black_2bandit_a2.png","","prac","","","3","","","","","","","","","","","","","","","","",""
"null","123732","SARL_v6","SARL_v6j8g3glax","5d8d12f6d88e3a00142c9751","feedback","","","<div class=""verylowPoints""> -2 </div>","null","","na","prac","","","4","-2","20","-2","","","","","","","","","","","","","",""
"null","123890","SARL_v6","SARL_v6j8g3glax","5d8d12f6d88e3a00142c9751","fixation","","","img/fixation.png","null","","","prac","","","","","","","","","","","","","","","","","","","",""
"13164.299999952316","137055","SARL_v6","SARL_v6j8g3glax","5d8d12f6d88e3a00142c9751","","","","","","","","prac","","","","","","","","","","","","","","","","","","","",""
"597.1000001430511","137654","SARL_v6","SARL_v6j8g3glax","5d8d12f6d88e3a00142c9751","mixAttFreqPrac","","","img/orange_2bandit_a2.png","70","img/orange_2bandit_a2.png","70","prac","","","1","","","","","","","","","","","","","","","","",""
"597.1000001430511","137863","SARL_v6","SARL_v6j8g3glax","5d8d12f6d88e3a00142c9751","freqPrac_resp","","","img/orange_2bandit_a.png","70","img/orange_2bandit_a.png","70","prac","","","1","","","","","","","","","","","","","","","","",""
"null","138020","SARL_v6","SARL_v6j8g3glax","5d8d12f6d88e3a00142c9751","fixation","","","img/fixation.png","null","","","prac","","","","","","","","","","","","","","","","","","","",""
"345.39999985694885","138367","SARL_v6","SARL_v6j8g3glax","5d8d12f6d88e3a00142c9751","mixAttInfreqPrac","","","img/blue_2bandit_a2.png","68","img/blue_2bandit_a2.png","68","prac","","","2","","","","","","","","","","","","","","","","",""
"345.39999985694885","138824","SARL_v6","SARL_v6j8g3glax","5d8d12f6d88e3a00142c9751","infreqPrac_resp","","","img/blue_2bandit_a.png","68","img/orange_2bandit_a.png","68","prac","","","2","","","","","","","","","","","","","","","","",""
"null","138984","SARL_v6","SARL_v6j8g3glax","5d8d12f6d88e3a00142c9751","fixation","","","img/fixation.png","null","","","prac","","","","","","","","","","","","","","","","","","","",""
"484.5","139470","SARL_v6","SARL_v6j8g3glax","5d8d12f6d88e3a00142c9751","mixAttInfreqPrac","","","img/blue_2bandit_a2.png","68","img/blue_2bandit_a2.png","68","prac","","","3","","","","","","","","","","","","","","","","",""
"484.5","139802","SARL_v6","SARL_v6j8g3glax","5d8d12f6d88e3a00142c9751","infreqPrac_resp","","","img/blue_2bandit_a.png","68","img/orange_2bandit_a.png","68","prac","","","3","","","","","","","","","","","","","","","","",""
"null","139954","SARL_v6","SARL_v6j8g3glax","5d8d12f6d88e3a00142c9751","fixation","","","img/fixation.png","null","","","prac","","","","","","","","","","","","","","","","","","","",""
"322.7000000476837","140278","SARL_v6","SARL_v6j8g3glax","5d8d12f6d88e3a00142c9751","mixAttInfreqPrac","","","img/blue_2bandit_a2.png","68","img/blue_2bandit_a2.png","68","prac","","","4","","","","","","","","","","","","","","","","",""
"322.7000000476837","140772","SARL_v6","SARL_v6j8g3glax","5d8d12f6d88e3a00142c9751","infreqPrac_resp","","","img/blue_2bandit_a.png","68","img/orange_2bandit_a.png","68","prac","","","4","","","","","","","","","","","","","","","","",""
"null","140929","SARL_v6","SARL_v6j8g3glax","5d8d12f6d88e3a00142c9751","fixation","","","img/fixation.png","null","","","prac","","","","","","","","","","","","","","","","","","","",""
"516.2999999523163","141446","SARL_v6","SARL_v6j8g3glax","5d8d12f6d88e3a00142c9751","mixAttFreqPrac","","","img/orange_2bandit_a2.png","70","img/orange_2bandit_a2.png","70","prac","","","5","","","","","","","","","","","","","","","","",""
"516.2999999523163","141744","SARL_v6","SARL_v6j8g3glax","5d8d12f6d88e3a00142c9751","freqPrac_resp","","","img/orange_2bandit_a.png","70","img/orange_2bandit_a.png","70","prac","","","5","","","","","","","","","","","","","","","","",""
"null","141896","SARL_v6","SARL_v6j8g3glax","5d8d12f6d88e3a00142c9751","fixation","","","img/fixation.png","null","","","prac","","","","","","","","","","","","","","","","","","","",""
"548.2999999523163","142446","SARL_v6","SARL_v6j8g3glax","5d8d12f6d88e3a00142c9751","mixRLPractice","","","img/black_2bandit_a2.png","74","img/black_2bandit_a2.png","","prac","","","5","","","","","","","","","","","","","","","","",""
"null","143211","SARL_v6","SARL_v6j8g3glax","5d8d12f6d88e3a00142c9751","feedback","","","<div class=""veryhighPoints_sq""> 10 </div>","null","","na","prac","","","6","-14","10","-14","","","","","","","","","","","","","",""
"null","143368","SARL_v6","SARL_v6j8g3glax","5d8d12f6d88e3a00142c9751","fixation","","","img/fixation.png","null","","","prac","","","","","","","","","","","","","","","","","","","",""
"645","144014","SARL_v6","SARL_v6j8g3glax","5d8d12f6d88e3a00142c9751","mixAttFreqPrac","","","img/orange_2bandit_a2.png","70","img/orange_2bandit_a2.png","70","prac","","","7","","","","","","","","","","","","","","","","",""
"645","144185","SARL_v6","SARL_v6j8g3glax","5d8d12f6d88e3a00142c9751","freqPrac_resp","","","img/orange_2bandit_a.png","70","img/orange_2bandit_a.png","70","prac","","","7","","","","","","","","","","","","","","","","",""
"null","144343","SARL_v6","SARL_v6j8g3glax","5d8d12f6d88e3a00142c9751","fixation","","","img/fixation.png","null","","","prac","","","","","","","","","","","","","","","","","","","",""
"438.5","144783","SARL_v6","SARL_v6j8g3glax","5d8d12f6d88e3a00142c9751","mixAttInfreqPrac","","","img/blue_2bandit_a2.png","68","img/blue_2bandit_a2.png","68","prac","","","8","","","","","","","","","","","","","","","","",""
"438.5","145148","SARL_v6","SARL_v6j8g3glax","5d8d12f6d88e3a00142c9751","infreqPrac_resp","","","img/blue_2bandit_a.png","68","img/orange_2bandit_a.png","68","prac","","","8","","","","","","","","","","","","","","","","",""
"null","145307","SARL_v6","SARL_v6j8g3glax","5d8d12f6d88e3a00142c9751","fixation","","","img/fixation.png","null","","","prac","","","","","","","","","","","","","","","","","","","",""
"458.7999999523163","145767","SARL_v6","SARL_v6j8g3glax","5d8d12f6d88e3a00142c9751","mixAttFreqPrac","","","img/orange_2bandit_a2.png","70","img/orange_2bandit_a2.png","70","prac","","","9","","","","","","","","","","","","","","","","",""
"458.7999999523163","146119","SARL_v6","SARL_v6j8g3glax","5d8d12f6d88e3a00142c9751","freqPrac_resp","","","img/orange_2bandit_a.png","70","img/orange_2bandit_a.png","70","prac","","","9","","","","","","","","","","","","","","","","",""
"null","146275","SARL_v6","SARL_v6j8g3glax","5d8d12f6d88e3a00142c9751","fixation","","","img/fixation.png","null","","","prac","","","","","","","","","","","","","","","","","","","",""
"338.5","146615","SARL_v6","SARL_v6j8g3glax","5d8d12f6d88e3a00142c9751","mixAttFreqPrac","","","img/orange_2bandit_a2.png","70","img/orange_2bandit_a2.png","70","prac","","","10","","","","","","","","","","","","","","","","",""
"338.5","147080","SARL_v6","SARL_v6j8g3glax","5d8d12f6d88e3a00142c9751","freqPrac_resp","","","img/orange_2bandit_a.png","70","img/orange_2bandit_a.png","70","prac","","","10","","","","","","","","","","","","","","","","",""
"null","147237","SARL_v6","SARL_v6j8g3glax","5d8d12f6d88e3a00142c9751","fixation","","","img/fixation.png","null","","","prac","","","","","","","","","","","","","","","","","","","",""
"399.7000000476837","147638","SARL_v6","SARL_v6j8g3glax","5d8d12f6d88e3a00142c9751","mixAttInfreqPrac","","","img/blue_2bandit_a2.png","68","img/blue_2bandit_a2.png","68","prac","","","11","","","","","","","","","","","","","","","","",""
"399.7000000476837","148046","SARL_v6","SARL_v6j8g3glax","5d8d12f6d88e3a00142c9751","infreqPrac_resp","","","img/blue_2bandit_a.png","68","img/orange_2bandit_a.png","68","prac","","","11","","","","","","","","","","","","","","","","",""
"null","148204","SARL_v6","SARL_v6j8g3glax","5d8d12f6d88e3a00142c9751","fixation","","","img/fixation.png","null","","","prac","","","","","","","","","","","","","","","","","","","",""
"394","148599","SARL_v6","SARL_v6j8g3glax","5d8d12f6d88e3a00142c9751","mixRLPractice","","","img/black_2bandit_a2.png","75","img/black_2bandit_a2.png","","prac","","","11","","","","","","","","","","","","","","","","",""
"null","149352","SARL_v6","SARL_v6j8g3glax","5d8d12f6d88e3a00142c9751","feedback","","","<div class=""veryhighPoints""> 5 </div>","null","","na","prac","","","12","5","-5","5","","","","","","","","","","","","","",""
"null","149510","SARL_v6","SARL_v6j8g3glax","5d8d12f6d88e3a00142c9751","fixation","","","img/fixation.png","null","","","prac","","","","","","","","","","","","","","","","","","","",""
"7511.599999904633","157022","SARL_v6","SARL_v6j8g3glax","5d8d12f6d88e3a00142c9751","","","","","","","","prac","","","","","","","","","","","","","","","","","","","",""
"390.90000009536743","157415","SARL_v6","SARL_v6j8g3glax","5d8d12f6d88e3a00142c9751","freq","","","img/orange_2bandit_a2.png","70","","70","test","1","","1","","","","square","circle","1","1","1","1","","","","","","","",""
"null","157839","SARL_v6","SARL_v6j8g3glax","5d8d12f6d88e3a00142c9751","freq_resp","","","img/orange_2bandit_a.png","70","img/orange_2bandit_a.png","70","test","","","","","","","","","","","1","","","","","","","","",""
"null","157997","SARL_v6","SARL_v6j8g3glax","5d8d12f6d88e3a00142c9751","fixation","","","img/fixation.png","null","","","test","","","","","","","","","","","","","","","","","","","",""
"320.7000000476837","158319","SARL_v6","SARL_v6j8g3glax","5d8d12f6d88e3a00142c9751","freq","","","img/orange_2bandit_a2.png","70","","70","test","1","","2","","","","square","circle","2","2","1","1","","","","","","","",""
"null","158811","SARL_v6","SARL_v6j8g3glax","5d8d12f6d88e3a00142c9751","freq_resp","","","img/orange_2bandit_a.png","70","img/orange_2bandit_a.png","70","test","","","","","","","","","","","1","","","","","","","","",""
"null","158969","SARL_v6","SARL_v6j8g3glax","5d8d12f6d88e3a00142c9751","fixation","","","img/fixation.png","null","","","test","","","","","","","","","","","","","","","","","","","",""
"420.90000009536743","159391","SARL_v6","SARL_v6j8g3glax","5d8d12f6d88e3a00142c9751","infreq","","","img/blue_2bandit_a2.png","68","","68","test","1","","3","","","","square","circle","3","3","1","1","","","","","","","",""
"null","159777","SARL_v6","SARL_v6j8g3glax","5d8d12f6d88e3a00142c9751","infreq_resp","","","img/blue_2bandit_a.png","68","img/blue_2bandit_a.png","68","test","","","","","","","","","","","1","","","","","","","","",""
"null","159935","SARL_v6","SARL_v6j8g3glax","5d8d12f6d88e3a00142c9751","fixation","","","img/fixation.png","null","","","test","","","","","","","","","","","","","","","","","","","",""
"382.2999999523163","160319","SARL_v6","SARL_v6j8g3glax","5d8d12f6d88e3a00142c9751","freq","","","img/orange_2bandit_a2.png","70","","70","test","1","","4","","","","square","circle","4","4","1","1","","","","","","","",""
"null","160742","SARL_v6","SARL_v6j8g3glax","5d8d12f6d88e3a00142c9751","freq_resp","","","img/orange_2bandit_a.png","70","img/orange_2bandit_a.png","70","test","","","","","","","","","","","1","","","","","","","","",""
"null","160899","SARL_v6","SARL_v6j8g3glax","5d8d12f6d88e3a00142c9751","fixation","","","img/fixation.png","null","","","test","","","","","","","","","","","","","","","","","","","",""
"361.60000014305115","161262","SARL_v6","SARL_v6j8g3glax","5d8d12f6d88e3a00142c9751","freq","","","img/orange_2bandit_a2.png","70","","70","test","1","","5","","","","square","circle","5","5","1","1","","","","","","","",""
"null","161704","SARL_v6","SARL_v6j8g3glax","5d8d12f6d88e3a00142c9751","freq_resp","","","img/orange_2bandit_a.png","70","img/orange_2bandit_a.png","70","test","","","","","","","","","","","1","","","","","","","","",""
"null","161860","SARL_v6","SARL_v6j8g3glax","5d8d12f6d88e3a00142c9751","fixation","","","img/fixation.png","null","","","test","","","","","","","","","","","","","","","","","","","",""
"312.5","162174","SARL_v6","SARL_v6j8g3glax","5d8d12f6d88e3a00142c9751","freq","","","img/orange_2bandit_a2.png","70","","70","test","1","","6","","","","square","circle","6","6","1","1","","","","","","","",""
"null","162675","SARL_v6","SARL_v6j8g3glax","5d8d12f6d88e3a00142c9751","freq_resp","","","img/orange_2bandit_a.png","70","img/orange_2bandit_a.png","70","test","","","","","","","","","","","1","","","","","","","","",""
"null","162828","SARL_v6","SARL_v6j8g3glax","5d8d12f6d88e3a00142c9751","fixation","","","img/fixation.png","null","","","test","","","","","","","","","","","","","","","","","","","",""
"288.59999990463257","163118","SARL_v6","SARL_v6j8g3glax","5d8d12f6d88e3a00142c9751","freq","","","img/orange_2bandit_a2.png","70","","70","test","1","","7","","","","square","circle","7","7","1","1","","","","","","","",""
"null","163635","SARL_v6","SARL_v6j8g3glax","5d8d12f6d88e3a00142c9751","freq_resp","","","img/orange_2bandit_a.png","70","img/orange_2bandit_a.png","70","test","","","","","","","","","","","1","","","","","","","","",""
"null","163787","SARL_v6","SARL_v6j8g3glax","5d8d12f6d88e3a00142c9751","fixation","","","img/fixation.png","null","","","test","","","","","","","","","","","","","","","","","","","",""
"313.09999990463257","164102","SARL_v6","SARL_v6j8g3glax","5d8d12f6d88e3a00142c9751","freq","","","img/orange_2bandit_a2.png","70","","70","test","1","","8","","","","square","circle","8","8","1","1","","","","","","","",""
"null","164594","SARL_v6","SARL_v6j8g3glax","5d8d12f6d88e3a00142c9751","freq_resp","","","img/orange_2bandit_a.png","70","img/orange_2bandit_a.png","70","test","","","","","","","","","","","1","","","","","","","","",""
"null","164745","SARL_v6","SARL_v6j8g3glax","5d8d12f6d88e3a00142c9751","fixation","","","img/fixation.png","null","","","test","","","","","","","","","","","","","","","","","","","",""
"299.59999990463257","165046","SARL_v6","SARL_v6j8g3glax","5d8d12f6d88e3a00142c9751","freq","","","img/orange_2bandit_a2.png","70","","70","test","1","","9","","","","square","circle","9","9","1","1","","","","","","","",""
"null","165551","SARL_v6","SARL_v6j8g3glax","5d8d12f6d88e3a00142c9751","freq_resp","","","img/orange_2bandit_a.png","70","img/orange_2bandit_a.png","70","test","","","","","","","","","","","1","","","","","","","","",""
"null","165702","SARL_v6","SARL_v6j8g3glax","5d8d12f6d88e3a00142c9751","fixation","","","img/fixation.png","null","","","test","","","","","","","","","","","","","","","","","","","",""
"342.90000009536743","166047","SARL_v6","SARL_v6j8g3glax","5d8d12f6d88e3a00142c9751","infreq","","","img/blue_2bandit_a2.png","68","","68","test","1","","10","","","","square","circle","10","10","1","1","","","","","","","",""
"null","166513","SARL_v6","SARL_v6j8g3glax","5d8d12f6d88e3a00142c9751","infreq_resp","","","img/blue_2bandit_a.png","68","img/blue_2bandit_a.png","68","test","","","","","","","","","","","1","","","","","","","","",""
"null","166671","SARL_v6","SARL_v6j8g3glax","5d8d12f6d88e3a00142c9751","fixation","","","img/fixation.png","null","","","test","","","","","","","","","","","","","","","","","","","",""
"302.09999990463257","166974","SARL_v6","SARL_v6j8g3glax","5d8d12f6d88e3a00142c9751","freq","","","img/orange_2bandit_a2.png","68","","70","test","0","","11","","","","square","circle","11","11","1","0.9090909090909091","","","","","","","",""
"null","167489","SARL_v6","SARL_v6j8g3glax","5d8d12f6d88e3a00142c9751","freq_resp","","","img/orange_2bandit_a.png","68","img/orange_2bandit_a.png","70","test","","","","","","","","","","","1","","","","","","","","",""
"null","167647","SARL_v6","SARL_v6j8g3glax","5d8d12f6d88e3a00142c9751","fixation","","","img/fixation.png","null","","","test","","","","","","","","","","","","","","","","","","","",""
"381.7000000476837","168031","SARL_v6","SARL_v6j8g3glax","5d8d12f6d88e3a00142c9751","freq","","","img/orange_2bandit_a2.png","70","","70","test","1","","12","","","","square","circle","12","12","1","0.9166666666666666","","","","","","","",""
"null","168461","SARL_v6","SARL_v6j8g3glax","5d8d12f6d88e3a00142c9751","freq_resp","","","img/orange_2bandit_a.png","70","img/orange_2bandit_a.png","70","test","","","","","","","","","","","1","","","","","","","","",""
"null","168619","SARL_v6","SARL_v6j8g3glax","5d8d12f6d88e3a00142c9751","fixation","","","img/fixation.png","null","","","test","","","","","","","","","","","","","","","","","","","",""
"369.2999999523163","168990","SARL_v6","SARL_v6j8g3glax","5d8d12f6d88e3a00142c9751","freq","","","img/orange_2bandit_a2.png","70","","70","test","1","","13","","","","square","circle","13","13","1","0.9230769230769231","","","","","","","",""
"null","169425","SARL_v6","SARL_v6j8g3glax","5d8d12f6d88e3a00142c9751","freq_resp","","","img/orange_2bandit_a.png","70","img/orange_2bandit_a.png","70","test","","","","","","","","","","","1","","","","","","","","",""
"null","169584","SARL_v6","SARL_v6j8g3glax","5d8d12f6d88e3a00142c9751","fixation","","","img/fixation.png","null","","","test","","","","","","","","","","","","","","","","","","","",""
"340.90000009536743","169927","SARL_v6","SARL_v6j8g3glax","5d8d12f6d88e3a00142c9751","infreq","","","img/blue_2bandit_a2.png","68","","68","test","1","","14","","","","square","circle","14","14","1","0.9285714285714286","","","","","","","",""
"null","170400","SARL_v6","SARL_v6j8g3glax","5d8d12f6d88e3a00142c9751","infreq_resp","","","img/blue_2bandit_a.png","68","img/blue_2bandit_a.png","68","test","","","","","","","","","","","1","","","","","","","","",""
"null","170551","SARL_v6","SARL_v6j8g3glax","5d8d12f6d88e3a00142c9751","fixation","","","img/fixation.png","null","","","test","","","","","","","","","","","","","","","","","","","",""
"333.7999999523163","170887","SARL_v6","SARL_v6j8g3glax","5d8d12f6d88e3a00142c9751","freq","","","img/orange_2bandit_a2.png","70","","70","test","1","","15","","","","square","circle","15","15","1","0.9333333333333333","","","","","","","",""
"null","171361","SARL_v6","SARL_v6j8g3glax","5d8d12f6d88e3a00142c9751","freq_resp","","","img/orange_2bandit_a.png","70","img/orange_2bandit_a.png","70","test","","","","","","","","","","","1","","","","","","","","",""
"null","171518","SARL_v6","SARL_v6j8g3glax","5d8d12f6d88e3a00142c9751","fixation","","","img/fixation.png","null","","","test","","","","","","","","","","","","","","","","","","","",""
"487.2999999523163","172007","SARL_v6","SARL_v6j8g3glax","5d8d12f6d88e3a00142c9751","freq","","","img/orange_2bandit_a2.png","68","","70","test","0","","16","","","","square","circle","16","16","1","0.875","","","","","","","",""
"null","172324","SARL_v6","SARL_v6j8g3glax","5d8d12f6d88e3a00142c9751","freq_resp","","","img/orange_2bandit_a.png","68","img/orange_2bandit_a.png","70","test","","","","","","","","","","","1","","","","","","","","",""
"null","172476","SARL_v6","SARL_v6j8g3glax","5d8d12f6d88e3a00142c9751","fixation","","","img/fixation.png","null","","","test","","","","","","","","","","","","","","","","","","","",""
"368.7000000476837","172846","SARL_v6","SARL_v6j8g3glax","5d8d12f6d88e3a00142c9751","freq","","","img/orange_2bandit_a2.png","70","","70","test","1","","17","","","","square","circle","17","17","1","0.8823529411764706","","","","","","","",""
"null","173284","SARL_v6","SARL_v6j8g3glax","5d8d12f6d88e3a00142c9751","freq_resp","","","img/orange_2bandit_a.png","70","img/orange_2bandit_a.png","70","test","","","","","","","","","","","1","","","","","","","","",""
"null","173444","SARL_v6","SARL_v6j8g3glax","5d8d12f6d88e3a00142c9751","fixation","","","img/fixation.png","null","","","test","","","","","","","","","","","","","","","","","","","",""
"337.40000009536743","173783","SARL_v6","SARL_v6j8g3glax","5d8d12f6d88e3a00142c9751","freq","","","img/orange_2bandit_a2.png","70","","70","test","1","","18","","","","square","circle","18","18","1","0.8888888888888888","","","","","","","",""
"null","174262","SARL_v6","SARL_v6j8g3glax","5d8d12f6d88e3a00142c9751","freq_resp","","","img/orange_2bandit_a.png","70","img/orange_2bandit_a.png","70","test","","","","","","","","","","","1","","","","","","","","",""
"null","174415","SARL_v6","SARL_v6j8g3glax","5d8d12f6d88e3a00142c9751","fixation","","","img/fixation.png","null","","","test","","","","","","","","","","","","","","","","","","","",""
"317.7999999523163","174734","SARL_v6","SARL_v6j8g3glax","5d8d12f6d88e3a00142c9751","freq","","","img/orange_2bandit_a2.png","70","","70","test","1","","19","","","","square","circle","19","19","1","0.8947368421052632","","","","","","","",""
"null","175222","SARL_v6","SARL_v6j8g3glax","5d8d12f6d88e3a00142c9751","freq_resp","","","img/orange_2bandit_a.png","70","img/orange_2bandit_a.png","70","test","","","","","","","","","","","1","","","","","","","","",""
"null","175375","SARL_v6","SARL_v6j8g3glax","5d8d12f6d88e3a00142c9751","fixation","","","img/fixation.png","null","","","test","","","","","","","","","","","","","","","","","","","",""
"294.5","175671","SARL_v6","SARL_v6j8g3glax","5d8d12f6d88e3a00142c9751","freq","","","img/orange_2bandit_a2.png","70","","70","test","1","","20","","","","square","circle","20","20","1","0.9","","","","","","","",""
"null","176179","SARL_v6","SARL_v6j8g3glax","5d8d12f6d88e3a00142c9751","freq_resp","","","img/orange_2bandit_a.png","70","img/orange_2bandit_a.png","70","test","","","","","","","","","","","1","","","","","","","","",""
"null","176331","SARL_v6","SARL_v6j8g3glax","5d8d12f6d88e3a00142c9751","fixation","","","img/fixation.png","null","","","test","","","","","","","","","","","","","","","","","","","",""
"329.90000009536743","176663","SARL_v6","SARL_v6j8g3glax","5d8d12f6d88e3a00142c9751","freq","","","img/orange_2bandit_a2.png","70","","70","test","1","","21","","","","square","circle","21","21","1","0.9047619047619048","","","","","","","",""
"null","177139","SARL_v6","SARL_v6j8g3glax","5d8d12f6d88e3a00142c9751","freq_resp","","","img/orange_2bandit_a.png","70","img/orange_2bandit_a.png","70","test","","","","","","","","","","","1","","","","","","","","",""
"null","177296","SARL_v6","SARL_v6j8g3glax","5d8d12f6d88e3a00142c9751","fixation","","","img/fixation.png","null","","","test","","","","","","","","","","","","","","","","","","","",""
"317.2999999523163","177615","SARL_v6","SARL_v6j8g3glax","5d8d12f6d88e3a00142c9751","freq","","","img/orange_2bandit_a2.png","70","","70","test","1","","22","","","","square","circle","22","22","1","0.9090909090909091","","","","","","","",""
"null","178102","SARL_v6","SARL_v6j8g3glax","5d8d12f6d88e3a00142c9751","freq_resp","","","img/orange_2bandit_a.png","70","img/orange_2bandit_a.png","70","test","","","","","","","","","","","1","","","","","","","","",""
"null","178260","SARL_v6","SARL_v6j8g3glax","5d8d12f6d88e3a00142c9751","fixation","","","img/fixation.png","null","","","test","","","","","","","","","","","","","","","","","","","",""
"337.30000019073486","178599","SARL_v6","SARL_v6j8g3glax","5d8d12f6d88e3a00142c9751","freq","","","img/orange_2bandit_a2.png","70","","70","test","1","","23","","","","square","circle","23","23","1","0.9130434782608695","","","","","","","",""
"null","179072","SARL_v6","SARL_v6j8g3glax","5d8d12f6d88e3a00142c9751","freq_resp","","","img/orange_2bandit_a.png","70","img/orange_2bandit_a.png","70","test","","","","","","","","","","","1","","","","","","","","",""
"null","179229","SARL_v6","SARL_v6j8g3glax","5d8d12f6d88e3a00142c9751","fixation","","","img/fixation.png","null","","","test","","","","","","","","","","","","","","","","","","","",""
"463.89999985694885","179695","SARL_v6","SARL_v6j8g3glax","5d8d12f6d88e3a00142c9751","rl","","","img/black_2bandit_a2.png","75","","0","test","","","24","","","-3","square","circle","","0","1","","75","-3","-3","-3","-3","circle","1","0"
"null","180450","SARL_v6","SARL_v6j8g3glax","5d8d12f6d88e3a00142c9751","feedback","","","<div class=""verylowPoints""> -3 </div>","null","","na","test","","","NaN","","","","","","","","1","","75","","","","","","1",""
"537.7999999523163","180990","SARL_v6","SARL_v6j8g3glax","5d8d12f6d88e3a00142c9751","freq","","","img/orange_2bandit_a2.png","70","","70","test","1","","25","","","","square","circle","24","1","2","0.9166666666666666","","","","","","","",""
"null","181266","SARL_v6","SARL_v6j8g3glax","5d8d12f6d88e3a00142c9751","freq_resp","","","img/orange_2bandit_a.png","70","img/orange_2bandit_a.png","70","test","","","","","","","","","","","2","","","","","","","","",""
"null","181424","SARL_v6","SARL_v6j8g3glax","5d8d12f6d88e3a00142c9751","fixation","","","img/fixation.png","null","","","test","","","","","","","","","","","","","","","","","","","",""
"540.7999999523163","181966","SARL_v6","SARL_v6j8g3glax","5d8d12f6d88e3a00142c9751","freq","","","img/orange_2bandit_a2.png","70","","70","test","1","","26","","","","square","circle","25","2","2","0.92","","","","","","","",""
"null","182227","SARL_v6","SARL_v6j8g3glax","5d8d12f6d88e3a00142c9751","freq_resp","","","img/orange_2bandit_a.png","70","img/orange_2bandit_a.png","70","test","","","","","","","","","","","2","","","","","","","","",""
"null","182386","SARL_v6","SARL_v6j8g3glax","5d8d12f6d88e3a00142c9751","fixation","","","img/fixation.png","null","","","test","","","","","","","","","","","","","","","","","","","",""
"394","182782","SARL_v6","SARL_v6j8g3glax","5d8d12f6d88e3a00142c9751","infreq","","","img/blue_2bandit_a2.png","68","","68","test","1","","27","","","","square","circle","26","3","2","0.9230769230769231","","","","","","","",""
"null","183205","SARL_v6","SARL_v6j8g3glax","5d8d12f6d88e3a00142c9751","infreq_resp","","","img/blue_2bandit_a.png","68","img/blue_2bandit_a.png","68","test","","","","","","","","","","","2","","","","","","","","",""
"null","183361","SARL_v6","SARL_v6j8g3glax","5d8d12f6d88e3a00142c9751","fixation","","","img/fixation.png","null","","","test","","","","","","","","","","","","","","","","","","","",""
"355.7000000476837","183719","SARL_v6","SARL_v6j8g3glax","5d8d12f6d88e3a00142c9751","freq","","","img/orange_2bandit_a2.png","70","","70","test","1","","28","","","","square","circle","27","4","2","0.9259259259259259","","","","","","","",""
"null","184176","SARL_v6","SARL_v6j8g3glax","5d8d12f6d88e3a00142c9751","freq_resp","","","img/orange_2bandit_a.png","70","img/orange_2bandit_a.png","70","test","","","","","","","","","","","2","","","","","","","","",""
"null","184334","SARL_v6","SARL_v6j8g3glax","5d8d12f6d88e3a00142c9751","fixation","","","img/fixation.png","null","","","test","","","","","","","","","","","","","","","","","","","",""
"319.2999999523163","184655","SARL_v6","SARL_v6j8g3glax","5d8d12f6d88e3a00142c9751","freq","","","img/orange_2bandit_a2.png","70","","70","test","1","","29","","","","square","circle","28","5","2","0.9285714285714286","","","","","","","",""
"null","185137","SARL_v6","SARL_v6j8g3glax","5d8d12f6d88e3a00142c9751","freq_resp","","","img/orange_2bandit_a.png","70","img/orange_2bandit_a.png","70","test","","","","","","","","","","","2","","","","","","","","",""
"null","185294","SARL_v6","SARL_v6j8g3glax","5d8d12f6d88e3a00142c9751","fixation","","","img/fixation.png","null","","","test","","","","","","","","","","","","","","","","","","","",""
"358.7999999523163","185654","SARL_v6","SARL_v6j8g3glax","5d8d12f6d88e3a00142c9751","freq","","","img/orange_2bandit_a2.png","70","","70","test","1","","30","","","","square","circle","29","6","2","0.9310344827586207","","","","","","","",""
"null","186099","SARL_v6","SARL_v6j8g3glax","5d8d12f6d88e3a00142c9751","freq_resp","","","img/orange_2bandit_a.png","70","img/orange_2bandit_a.png","70","test","","","","","","","","","","","2","","","","","","","","",""
"null","186255","SARL_v6","SARL_v6j8g3glax","5d8d12f6d88e3a00142c9751","fixation","","","img/fixation.png","null","","","test","","","","","","","","","","","","","","","","","","","",""
"317.90000009536743","186575","SARL_v6","SARL_v6j8g3glax","5d8d12f6d88e3a00142c9751","freq","","","img/orange_2bandit_a2.png","70","","70","test","1","","31","","","","square","circle","30","7","2","0.9333333333333333","","","","","","","",""
"null","187058","SARL_v6","SARL_v6j8g3glax","5d8d12f6d88e3a00142c9751","freq_resp","","","img/orange_2bandit_a.png","70","img/orange_2bandit_a.png","70","test","","","","","","","","","","","2","","","","","","","","",""
"null","187217","SARL_v6","SARL_v6j8g3glax","5d8d12f6d88e3a00142c9751","fixation","","","img/fixation.png","null","","","test","","","","","","","","","","","","","","","","","","","",""
"300.7000000476837","187519","SARL_v6","SARL_v6j8g3glax","5d8d12f6d88e3a00142c9751","freq","","","img/orange_2bandit_a2.png","70","","70","test","1","","32","","","","square","circle","31","8","2","0.9354838709677419","","","","","","","",""
"null","188036","SARL_v6","SARL_v6j8g3glax","5d8d12f6d88e3a00142c9751","freq_resp","","","img/orange_2bandit_a.png","70","img/orange_2bandit_a.png","70","test","","","","","","","","","","","2","","","","","","","","",""
"null","188189","SARL_v6","SARL_v6j8g3glax","5d8d12f6d88e3a00142c9751","fixation","","","img/fixation.png","null","","","test","","","","","","","","","","","","","","","","","","","",""
"263.7999999523163","188455","SARL_v6","SARL_v6j8g3glax","5d8d12f6d88e3a00142c9751","freq","","","img/orange_2bandit_a2.png","70","","70","test","1","","33","","","","square","circle","32","9","2","0.9375","","","","","","","",""
"null","188994","SARL_v6","SARL_v6j8g3glax","5d8d12f6d88e3a00142c9751","freq_resp","","","img/orange_2bandit_a.png","70","img/orange_2bandit_a.png","70","test","","","","","","","","","","","2","","","","","","","","",""
"null","189146","SARL_v6","SARL_v6j8g3glax","5d8d12f6d88e3a00142c9751","fixation","","","img/fixation.png","null","","","test","","","","","","","","","","","","","","","","","","","",""
"274.7000000476837","189422","SARL_v6","SARL_v6j8g3glax","5d8d12f6d88e3a00142c9751","freq","","","img/orange_2bandit_a2.png","70","","70","test","1","","34","","","","square","circle","33","10","2","0.9393939393939394","","","","","","","",""
"null","189956","SARL_v6","SARL_v6j8g3glax","5d8d12f6d88e3a00142c9751","freq_resp","","","img/orange_2bandit_a.png","70","img/orange_2bandit_a.png","70","test","","","","","","","","","","","2","","","","","","","","",""
"null","190108","SARL_v6","SARL_v6j8g3glax","5d8d12f6d88e3a00142c9751","fixation","","","img/fixation.png","null","","","test","","","","","","","","","","","","","","","","","","","",""
"264.40000009536743","190374","SARL_v6","SARL_v6j8g3glax","5d8d12f6d88e3a00142c9751","freq","","","img/orange_2bandit_a2.png","70","","70","test","1","","35","","","","square","circle","34","11","2","0.9411764705882353","","","","","","","",""
"null","190925","SARL_v6","SARL_v6j8g3glax","5d8d12f6d88e3a00142c9751","freq_resp","","","img/orange_2bandit_a.png","70","img/orange_2bandit_a.png","70","test","","","","","","","","","","","2","","","","","","","","",""
"null","191077","SARL_v6","SARL_v6j8g3glax","5d8d12f6d88e3a00142c9751","fixation","","","img/fixation.png","null","","","test","","","","","","","","","","","","","","","","","","","",""
"263.90000009536743","191343","SARL_v6","SARL_v6j8g3glax","5d8d12f6d88e3a00142c9751","freq","","","img/orange_2bandit_a2.png","70","","70","test","1","","36","","","","square","circle","35","12","2","0.9428571428571428","","","","","","","",""
"null","191885","SARL_v6","SARL_v6j8g3glax","5d8d12f6d88e3a00142c9751","freq_resp","","","img/orange_2bandit_a.png","70","img/orange_2bandit_a.png","70","test","","","","","","","","","","","2","","","","","","","","",""
"null","192043","SARL_v6","SARL_v6j8g3glax","5d8d12f6d88e3a00142c9751","fixation","","","img/fixation.png","null","","","test","","","","","","","","","","","","","","","","","","","",""
"281.7000000476837","192327","SARL_v6","SARL_v6j8g3glax","5d8d12f6d88e3a00142c9751","freq","","","img/orange_2bandit_a2.png","70","","70","test","1","","37","","","","square","circle","36","13","2","0.9444444444444444","","","","","","","",""
"null","192863","SARL_v6","SARL_v6j8g3glax","5d8d12f6d88e3a00142c9751","freq_resp","","","img/orange_2bandit_a.png","70","img/orange_2bandit_a.png","70","test","","","","","","","","","","","2","","","","","","","","",""
"null","193015","SARL_v6","SARL_v6j8g3glax","5d8d12f6d88e3a00142c9751","fixation","","","img/fixation.png","null","","","test","","","","","","","","","","","","","","","","","","","",""
"285.5","193302","SARL_v6","SARL_v6j8g3glax","5d8d12f6d88e3a00142c9751","freq","","","img/orange_2bandit_a2.png","70","","70","test","1","","38","","","","square","circle","37","14","2","0.9459459459459459","","","","","","","",""
"null","193823","SARL_v6","SARL_v6j8g3glax","5d8d12f6d88e3a00142c9751","freq_resp","","","img/orange_2bandit_a.png","70","img/orange_2bandit_a.png","70","test","","","","","","","","","","","2","","","","","","","","",""
"null","193981","SARL_v6","SARL_v6j8g3glax","5d8d12f6d88e3a00142c9751","fixation","","","img/fixation.png","null","","","test","","","","","","","","","","","","","","","","","","","",""
"271.2999999523163","194254","SARL_v6","SARL_v6j8g3glax","5d8d12f6d88e3a00142c9751","freq","","","img/orange_2bandit_a2.png","70","","70","test","1","","39","","","","square","circle","38","15","2","0.9473684210526315","","","","","","","",""
"null","194787","SARL_v6","SARL_v6j8g3glax","5d8d12f6d88e3a00142c9751","freq_resp","","","img/orange_2bandit_a.png","70","img/orange_2bandit_a.png","70","test","","","","","","","","","","","2","","","","","","","","",""
"null","194940","SARL_v6","SARL_v6j8g3glax","5d8d12f6d88e3a00142c9751","fixation","","","img/fixation.png","null","","","test","","","","","","","","","","","","","","","","","","","",""
"288.59999990463257","195230","SARL_v6","SARL_v6j8g3glax","5d8d12f6d88e3a00142c9751","freq","","","img/orange_2bandit_a2.png","70","","70","test","1","","40","","","","square","circle","39","16","2","0.9487179487179487","","","","","","","",""
"null","195751","SARL_v6","SARL_v6j8g3glax","5d8d12f6d88e3a00142c9751","freq_resp","","","img/orange_2bandit_a.png","70","img/orange_2bandit_a.png","70","test","","","","","","","","","","","2","","","","","","","","",""
"null","195903","SARL_v6","SARL_v6j8g3glax","5d8d12f6d88e3a00142c9751","fixation","","","img/fixation.png","null","","","test","","","","","","","","","","","","","","","","","","","",""
"278.2000000476837","196183","SARL_v6","SARL_v6j8g3glax","5d8d12f6d88e3a00142c9751","freq","","","img/orange_2bandit_a2.png","70","","70","test","1","","41","","","","square","circle","40","17","2","0.95","","","","","","","",""
"null","196708","SARL_v6","SARL_v6j8g3glax","5d8d12f6d88e3a00142c9751","freq_resp","","","img/orange_2bandit_a.png","70","img/orange_2bandit_a.png","70","test","","","","","","","","","","","2","","","","","","","","",""
"null","196860","SARL_v6","SARL_v6j8g3glax","5d8d12f6d88e3a00142c9751","fixation","","","img/fixation.png","null","","","test","","","","","","","","","","","","","","","","","","","",""
"296.89999985694885","197158","SARL_v6","SARL_v6j8g3glax","5d8d12f6d88e3a00142c9751","freq","","","img/orange_2bandit_a2.png","70","","70","test","1","","42","","","","square","circle","41","18","2","0.9512195121951219","","","","","","","",""
"null","197671","SARL_v6","SARL_v6j8g3glax","5d8d12f6d88e3a00142c9751","freq_resp","","","img/orange_2bandit_a.png","70","img/orange_2bandit_a.png","70","test","","","","","","","","","","","2","","","","","","","","",""
"null","197828","SARL_v6","SARL_v6j8g3glax","5d8d12f6d88e3a00142c9751","fixation","","","img/fixation.png","null","","","test","","","","","","","","","","","","","","","","","","","",""
"336.7999999523163","198167","SARL_v6","SARL_v6j8g3glax","5d8d12f6d88e3a00142c9751","infreq","","","img/blue_2bandit_a2.png","68","","68","test","1","","43","","","","square","circle","42","19","2","0.9523809523809523","","","","","","","",""
"null","198646","SARL_v6","SARL_v6j8g3glax","5d8d12f6d88e3a00142c9751","infreq_resp","","","img/blue_2bandit_a.png","68","img/blue_2bandit_a.png","68","test","","","","","","","","","","","2","","","","","","","","",""
"null","198798","SARL_v6","SARL_v6j8g3glax","5d8d12f6d88e3a00142c9751","fixation","","","img/fixation.png","null","","","test","","","","","","","","","","","","","","","","","","","",""
"310.30000019073486","199110","SARL_v6","SARL_v6j8g3glax","5d8d12f6d88e3a00142c9751","freq","","","img/orange_2bandit_a2.png","70","","70","test","1","","44","","","","square","circle","43","20","2","0.9534883720930233","","","","","","","",""
"null","199603","SARL_v6","SARL_v6j8g3glax","5d8d12f6d88e3a00142c9751","freq_resp","","","img/orange_2bandit_a.png","70","img/orange_2bandit_a.png","70","test","","","","","","","","","","","2","","","","","","","","",""
"null","199756","SARL_v6","SARL_v6j8g3glax","5d8d12f6d88e3a00142c9751","fixation","","","img/fixation.png","null","","","test","","","","","","","","","","","","","","","","","","","",""
"473.59999990463257","200231","SARL_v6","SARL_v6j8g3glax","5d8d12f6d88e3a00142c9751","rl","","","img/black_2bandit_a2.png","75","","0","test","","","45","","","-8","square","circle","","0","2","","75","-8","-5","-5","-8","circle","2","0"
"null","200983","SARL_v6","SARL_v6j8g3glax","5d8d12f6d88e3a00142c9751","feedback","","","<div class=""verylowPoints""> -8 </div>","null","","na","test","","","NaN","","","","","","","","2","","75","","","","","","2",""
"485.7000000476837","201470","SARL_v6","SARL_v6j8g3glax","5d8d12f6d88e3a00142c9751","freq","","","img/orange_2bandit_a2.png","70","","70","test","1","","46","","","","square","circle","44","1","3","0.9545454545454546","","","","","","","",""
"null","201795","SARL_v6","SARL_v6j8g3glax","5d8d12f6d88e3a00142c9751","freq_resp","","","img/orange_2bandit_a.png","70","img/orange_2bandit_a.png","70","test","","","","","","","","","","","3","","","","","","","","",""
"null","201946","SARL_v6","SARL_v6j8g3glax","5d8d12f6d88e3a00142c9751","fixation","","","img/fixation.png","null","","","test","","","","","","","","","","","","","","","","","","","",""
"346.80000019073486","202295","SARL_v6","SARL_v6j8g3glax","5d8d12f6d88e3a00142c9751","freq","","","img/orange_2bandit_a2.png","70","","70","test","1","","47","","","","square","circle","45","2","3","0.9555555555555556","","","","","","","",""
"null","202753","SARL_v6","SARL_v6j8g3glax","5d8d12f6d88e3a00142c9751","freq_resp","","","img/orange_2bandit_a.png","70","img/orange_2bandit_a.png","70","test","","","","","","","","","","","3","","","","","","","","",""
"null","202910","SARL_v6","SARL_v6j8g3glax","5d8d12f6d88e3a00142c9751","fixation","","","img/fixation.png","null","","","test","","","","","","","","","","","","","","","","","","","",""
"335.69999980926514","203247","SARL_v6","SARL_v6j8g3glax","5d8d12f6d88e3a00142c9751","freq","","","img/orange_2bandit_a2.png","70","","70","test","1","","48","","","","square","circle","46","3","3","0.9565217391304348","","","","","","","",""
"null","203725","SARL_v6","SARL_v6j8g3glax","5d8d12f6d88e3a00142c9751","freq_resp","","","img/orange_2bandit_a.png","70","img/orange_2bandit_a.png","70","test","","","","","","","","","","","3","","","","","","","","",""
"null","203882","SARL_v6","SARL_v6j8g3glax","5d8d12f6d88e3a00142c9751","fixation","","","img/fixation.png","null","","","test","","","","","","","","","","","","","","","","","","","",""
"339.2999999523163","204223","SARL_v6","SARL_v6j8g3glax","5d8d12f6d88e3a00142c9751","infreq","","","img/blue_2bandit_a2.png","68","","68","test","1","","49","","","","square","circle","47","4","3","0.9574468085106383","","","","","","","",""
"null","204685","SARL_v6","SARL_v6j8g3glax","5d8d12f6d88e3a00142c9751","infreq_resp","","","img/blue_2bandit_a.png","68","img/blue_2bandit_a.png","68","test","","","","","","","","","","","3","","","","","","","","",""
"null","204843","SARL_v6","SARL_v6j8g3glax","5d8d12f6d88e3a00142c9751","fixation","","","img/fixation.png","null","","","test","","","","","","","","","","","","","","","","","","","",""
"377.40000009536743","205222","SARL_v6","SARL_v6j8g3glax","5d8d12f6d88e3a00142c9751","freq","","","img/orange_2bandit_a2.png","70","","70","test","1","","50","","","","square","circle","48","5","3","0.9583333333333334","","","","","","","",""
"null","205650","SARL_v6","SARL_v6j8g3glax","5d8d12f6d88e3a00142c9751","freq_resp","","","img/orange_2bandit_a.png","70","img/orange_2bandit_a.png","70","test","","","","","","","","","","","3","","","","","","","","",""
"null","205806","SARL_v6","SARL_v6j8g3glax","5d8d12f6d88e3a00142c9751","fixation","","","img/fixation.png","null","","","test","","","","","","","","","","","","","","","","","","","",""
"351.40000009536743","206159","SARL_v6","SARL_v6j8g3glax","5d8d12f6d88e3a00142c9751","freq","","","img/orange_2bandit_a2.png","70","","70","test","1","","51","","","","square","circle","49","6","3","0.9591836734693877","","","","","","","",""
"null","206621","SARL_v6","SARL_v6j8g3glax","5d8d12f6d88e3a00142c9751","freq_resp","","","img/orange_2bandit_a.png","70","img/orange_2bandit_a.png","70","test","","","","","","","","","","","3","","","","","","","","",""
"null","206778","SARL_v6","SARL_v6j8g3glax","5d8d12f6d88e3a00142c9751","fixation","","","img/fixation.png","null","","","test","","","","","","","","","","","","","","","","","","","",""
"314.2000000476837","207094","SARL_v6","SARL_v6j8g3glax","5d8d12f6d88e3a00142c9751","freq","","","img/orange_2bandit_a2.png","70","","70","test","1","","52","","","","square","circle","50","7","3","0.96","","","","","","","",""
"null","207585","SARL_v6","SARL_v6j8g3glax","5d8d12f6d88e3a00142c9751","freq_resp","","","img/orange_2bandit_a.png","70","img/orange_2bandit_a.png","70","test","","","","","","","","","","","3","","","","","","","","",""
"null","207743","SARL_v6","SARL_v6j8g3glax","5d8d12f6d88e3a00142c9751","fixation","","","img/fixation.png","null","","","test","","","","","","","","","","","","","","","","","","","",""
"285.7000000476837","208030","SARL_v6","SARL_v6j8g3glax","5d8d12f6d88e3a00142c9751","freq","","","img/orange_2bandit_a2.png","70","","70","test","1","","53","","","","square","circle","51","8","3","0.9607843137254902","","","","","","","",""
"null","208549","SARL_v6","SARL_v6j8g3glax","5d8d12f6d88e3a00142c9751","freq_resp","","","img/orange_2bandit_a.png","70","img/orange_2bandit_a.png","70","test","","","","","","","","","","","3","","","","","","","","",""
"null","208708","SARL_v6","SARL_v6j8g3glax","5d8d12f6d88e3a00142c9751","fixation","","","img/fixation.png","null","","","test","","","","","","","","","","","","","","","","","","","",""
"304.90000009536743","209014","SARL_v6","SARL_v6j8g3glax","5d8d12f6d88e3a00142c9751","freq","","","img/orange_2bandit_a2.png","70","","70","test","1","","54","","","","square","circle","52","9","3","0.9615384615384616","","","","","","","",""
"null","209525","SARL_v6","SARL_v6j8g3glax","5d8d12f6d88e3a00142c9751","freq_resp","","","img/orange_2bandit_a.png","70","img/orange_2bandit_a.png","70","test","","","","","","","","","","","3","","","","","","","","",""
"null","209678","SARL_v6","SARL_v6j8g3glax","5d8d12f6d88e3a00142c9751","fixation","","","img/fixation.png","null","","","test","","","","","","","","","","","","","","","","","","","",""
"311.2999999523163","209991","SARL_v6","SARL_v6j8g3glax","5d8d12f6d88e3a00142c9751","freq","","","img/orange_2bandit_a2.png","70","","70","test","1","","55","","","","square","circle","53","10","3","0.9622641509433962","","","","","","","",""
"null","210490","SARL_v6","SARL_v6j8g3glax","5d8d12f6d88e3a00142c9751","freq_resp","","","img/orange_2bandit_a.png","70","img/orange_2bandit_a.png","70","test","","","","","","","","","","","3","","","","","","","","",""
"null","210643","SARL_v6","SARL_v6j8g3glax","5d8d12f6d88e3a00142c9751","fixation","","","img/fixation.png","null","","","test","","","","","","","","","","","","","","","","","","","",""
"426.7000000476837","211071","SARL_v6","SARL_v6j8g3glax","5d8d12f6d88e3a00142c9751","freq","","","img/orange_2bandit_a2.png","70","","70","test","1","","56","","","","square","circle","54","11","3","0.9629629629629629","","","","","","","",""
"null","211457","SARL_v6","SARL_v6j8g3glax","5d8d12f6d88e3a00142c9751","freq_resp","","","img/orange_2bandit_a.png","70","img/orange_2bandit_a.png","70","test","","","","","","","","","","","3","","","","","","","","",""
"null","211615","SARL_v6","SARL_v6j8g3glax","5d8d12f6d88e3a00142c9751","fixation","","","img/fixation.png","null","","","test","","","","","","","","","","","","","","","","","","","",""
"389.7999999523163","212007","SARL_v6","SARL_v6j8g3glax","5d8d12f6d88e3a00142c9751","freq","","","img/orange_2bandit_a2.png","70","","70","test","1","","57","","","","square","circle","55","12","3","0.9636363636363636","","","","","","","",""
"null","212420","SARL_v6","SARL_v6j8g3glax","5d8d12f6d88e3a00142c9751","freq_resp","","","img/orange_2bandit_a.png","70","img/orange_2bandit_a.png","70","test","","","","","","","","","","","3","","","","","","","","",""
"null","212579","SARL_v6","SARL_v6j8g3glax","5d8d12f6d88e3a00142c9751","fixation","","","img/fixation.png","null","","","test","","","","","","","","","","","","","","","","","","","",""
"458.5","213039","SARL_v6","SARL_v6j8g3glax","5d8d12f6d88e3a00142c9751","freq","","","img/orange_2bandit_a2.png","70","","70","test","1","","58","","","","square","circle","56","13","3","0.9642857142857143","","","","","","","",""
"null","213397","SARL_v6","SARL_v6j8g3glax","5d8d12f6d88e3a00142c9751","freq_resp","","","img/orange_2bandit_a.png","70","img/orange_2bandit_a.png","70","test","","","","","","","","","","","3","","","","","","","","",""
"null","213555","SARL_v6","SARL_v6j8g3glax","5d8d12f6d88e3a00142c9751","fixation","","","img/fixation.png","null","","","test","","","","","","","","","","","","","","","","","","","",""
"426.09999990463257","213983","SARL_v6","SARL_v6j8g3glax","5d8d12f6d88e3a00142c9751","freq","","","img/orange_2bandit_a2.png","70","","70","test","1","","59","","","","square","circle","57","14","3","0.9649122807017544","","","","","","","",""
"null","214370","SARL_v6","SARL_v6j8g3glax","5d8d12f6d88e3a00142c9751","freq_resp","","","img/orange_2bandit_a.png","70","img/orange_2bandit_a.png","70","test","","","","","","","","","","","3","","","","","","","","",""
"null","214527","SARL_v6","SARL_v6j8g3glax","5d8d12f6d88e3a00142c9751","fixation","","","img/fixation.png","null","","","test","","","","","","","","","","","","","","","","","","","",""
"453.7999999523163","214983","SARL_v6","SARL_v6j8g3glax","5d8d12f6d88e3a00142c9751","freq","","","img/orange_2bandit_a2.png","70","","70","test","1","","60","","","","square","circle","58","15","3","0.9655172413793104","","","","","","","",""
"null","215343","SARL_v6","SARL_v6j8g3glax","5d8d12f6d88e3a00142c9751","freq_resp","","","img/orange_2bandit_a.png","70","img/orange_2bandit_a.png","70","test","","","","","","","","","","","3","","","","","","","","",""
"null","215500","SARL_v6","SARL_v6j8g3glax","5d8d12f6d88e3a00142c9751","fixation","","","img/fixation.png","null","","","test","","","","","","","","","","","","","","","","","","","",""
"440.89999985694885","215942","SARL_v6","SARL_v6j8g3glax","5d8d12f6d88e3a00142c9751","freq","","","img/orange_2bandit_a2.png","70","","70","test","1","","61","","","","square","circle","59","16","3","0.9661016949152542","","","","","","","",""
"null","216304","SARL_v6","SARL_v6j8g3glax","5d8d12f6d88e3a00142c9751","freq_resp","","","img/orange_2bandit_a.png","70","img/orange_2bandit_a.png","70","test","","","","","","","","","","","3","","","","","","","","",""
"null","216460","SARL_v6","SARL_v6j8g3glax","5d8d12f6d88e3a00142c9751","fixation","","","img/fixation.png","null","","","test","","","","","","","","","","","","","","","","","","","",""
"441","216902","SARL_v6","SARL_v6j8g3glax","5d8d12f6d88e3a00142c9751","freq","","","img/orange_2bandit_a2.png","70","","70","test","1","","62","","","","square","circle","60","17","3","0.9666666666666667","","","","","","","",""
"null","217269","SARL_v6","SARL_v6j8g3glax","5d8d12f6d88e3a00142c9751","freq_resp","","","img/orange_2bandit_a.png","70","img/orange_2bandit_a.png","70","test","","","","","","","","","","","3","","","","","","","","",""
"null","217426","SARL_v6","SARL_v6j8g3glax","5d8d12f6d88e3a00142c9751","fixation","","","img/fixation.png","null","","","test","","","","","","","","","","","","","","","","","","","",""
"442.80000019073486","217871","SARL_v6","SARL_v6j8g3glax","5d8d12f6d88e3a00142c9751","freq","","","img/orange_2bandit_a2.png","70","","70","test","1","","63","","","","square","circle","61","18","3","0.9672131147540983","","","","","","","",""
"null","218235","SARL_v6","SARL_v6j8g3glax","5d8d12f6d88e3a00142c9751","freq_resp","","","img/orange_2bandit_a.png","70","img/orange_2bandit_a.png","70","test","","","","","","","","","","","3","","","","","","","","",""
"null","218392","SARL_v6","SARL_v6j8g3glax","5d8d12f6d88e3a00142c9751","fixation","","","img/fixation.png","null","","","test","","","","","","","","","","","","","","","","","","","",""
"436.39999985694885","218830","SARL_v6","SARL_v6j8g3glax","5d8d12f6d88e3a00142c9751","freq","","","img/orange_2bandit_a2.png","70","","70","test","1","","64","","","","square","circle","62","19","3","0.967741935483871","","","","","","","",""
"null","219200","SARL_v6","SARL_v6j8g3glax","5d8d12f6d88e3a00142c9751","freq_resp","","","img/orange_2bandit_a.png","70","img/orange_2bandit_a.png","70","test","","","","","","","","","","","3","","","","","","","","",""
"null","219356","SARL_v6","SARL_v6j8g3glax","5d8d12f6d88e3a00142c9751","fixation","","","img/fixation.png","null","","","test","","","","","","","","","","","","","","","","","","","",""
"408.90000009536743","219767","SARL_v6","SARL_v6j8g3glax","5d8d12f6d88e3a00142c9751","freq","","","img/orange_2bandit_a2.png","70","","70","test","1","","65","","","","square","circle","63","20","3","0.9682539682539683","","","","","","","",""
"null","220161","SARL_v6","SARL_v6j8g3glax","5d8d12f6d88e3a00142c9751","freq_resp","","","img/orange_2bandit_a.png","70","img/orange_2bandit_a.png","70","test","","","","","","","","","","","3","","","","","","","","",""
"null","220320","SARL_v6","SARL_v6j8g3glax","5d8d12f6d88e3a00142c9751","fixation","","","img/fixation.png","null","","","test","","","","","","","","","","","","","","","","","","","",""
"405.09999990463257","220727","SARL_v6","SARL_v6j8g3glax","5d8d12f6d88e3a00142c9751","freq","","","img/orange_2bandit_a2.png","70","","70","test","1","","66","","","","square","circle","64","21","3","0.96875","","","","","","","",""
"null","221139","SARL_v6","SARL_v6j8g3glax","5d8d12f6d88e3a00142c9751","freq_resp","","","img/orange_2bandit_a.png","70","img/orange_2bandit_a.png","70","test","","","","","","","","","","","3","","","","","","","","",""
"null","221296","SARL_v6","SARL_v6j8g3glax","5d8d12f6d88e3a00142c9751","fixation","","","img/fixation.png","null","","","test","","","","","","","","","","","","","","","","","","","",""
"413.2999999523163","221710","SARL_v6","SARL_v6j8g3glax","5d8d12f6d88e3a00142c9751","freq","","","img/orange_2bandit_a2.png","70","","70","test","1","","67","","","","square","circle","65","22","3","0.9692307692307692","","","","","","","",""
"null","222112","SARL_v6","SARL_v6j8g3glax","5d8d12f6d88e3a00142c9751","freq_resp","","","img/orange_2bandit_a.png","70","img/orange_2bandit_a.png","70","test","","","","","","","","","","","3","","","","","","","","",""
"null","222269","SARL_v6","SARL_v6j8g3glax","5d8d12f6d88e3a00142c9751","fixation","","","img/fixation.png","null","","","test","","","","","","","","","","","","","","","","","","","",""
"439.7000000476837","222710","SARL_v6","SARL_v6j8g3glax","5d8d12f6d88e3a00142c9751","freq","","","img/orange_2bandit_a2.png","70","","70","test","1","","68","","","","square","circle","66","23","3","0.9696969696969697","","","","","","","",""
"null","223087","SARL_v6","SARL_v6j8g3glax","5d8d12f6d88e3a00142c9751","freq_resp","","","img/orange_2bandit_a.png","70","img/orange_2bandit_a.png","70","test","","","","","","","","","","","3","","","","","","","","",""
"null","223244","SARL_v6","SARL_v6j8g3glax","5d8d12f6d88e3a00142c9751","fixation","","","img/fixation.png","null","","","test","","","","","","","","","","","","","","","","","","","",""
"376.60000014305115","223622","SARL_v6","SARL_v6j8g3glax","5d8d12f6d88e3a00142c9751","infreq","","","img/blue_2bandit_a2.png","68","","68","test","1","","69","","","","square","circle","67","24","3","0.9701492537313433","","","","","","","",""
"null","224063","SARL_v6","SARL_v6j8g3glax","5d8d12f6d88e3a00142c9751","infreq_resp","","","img/blue_2bandit_a.png","68","img/blue_2bandit_a.png","68","test","","","","","","","","","","","3","","","","","","","","",""
"null","224220","SARL_v6","SARL_v6j8g3glax","5d8d12f6d88e3a00142c9751","fixation","","","img/fixation.png","null","","","test","","","","","","","","","","","","","","","","","","","",""
"337","224558","SARL_v6","SARL_v6j8g3glax","5d8d12f6d88e3a00142c9751","freq","","","img/orange_2bandit_a2.png","70","","70","test","1","","70","","","","square","circle","68","25","3","0.9705882352941176","","","","","","","",""
"null","225024","SARL_v6","SARL_v6j8g3glax","5d8d12f6d88e3a00142c9751","freq_resp","","","img/orange_2bandit_a.png","70","img/orange_2bandit_a.png","70","test","","","","","","","","","","","3","","","","","","","","",""
"null","225181","SARL_v6","SARL_v6j8g3glax","5d8d12f6d88e3a00142c9751","fixation","","","img/fixation.png","null","","","test","","","","","","","","","","","","","","","","","","","",""
"351.69999980926514","225534","SARL_v6","SARL_v6j8g3glax","5d8d12f6d88e3a00142c9751","freq","","","img/orange_2bandit_a2.png","70","","70","test","1","","71","","","","square","circle","69","26","3","0.9710144927536232","","","","","","","",""
"null","225995","SARL_v6","SARL_v6j8g3glax","5d8d12f6d88e3a00142c9751","freq_resp","","","img/orange_2bandit_a.png","70","img/orange_2bandit_a.png","70","test","","","","","","","","","","","3","","","","","","","","",""
"null","226151","SARL_v6","SARL_v6j8g3glax","5d8d12f6d88e3a00142c9751","fixation","","","img/fixation.png","null","","","test","","","","","","","","","","","","","","","","","","","",""
"485.59999990463257","226638","SARL_v6","SARL_v6j8g3glax","5d8d12f6d88e3a00142c9751","rl","","","img/black_2bandit_a2.png","75","","0","test","","","72","","","-8","square","circle","","0","3","","75","-8","-4","-4","-8","circle","3","0"
"null","227392","SARL_v6","SARL_v6j8g3glax","5d8d12f6d88e3a00142c9751","feedback","","","<div class=""verylowPoints""> -8 </div>","null","","na","test","","","NaN","","","","","","","","3","","75","","","","","","3",""
"500.60000014305115","227894","SARL_v6","SARL_v6j8g3glax","5d8d12f6d88e3a00142c9751","freq","","","img/orange_2bandit_a2.png","70","","70","test","1","","73","","","","square","circle","70","1","4","0.9714285714285714","","","","","","","",""
"null","228208","SARL_v6","SARL_v6j8g3glax","5d8d12f6d88e3a00142c9751","freq_resp","","","img/orange_2bandit_a.png","70","img/orange_2bandit_a.png","70","test","","","","","","","","","","","4","","","","","","","","",""
"null","228361","SARL_v6","SARL_v6j8g3glax","5d8d12f6d88e3a00142c9751","fixation","","","img/fixation.png","null","","","test","","","","","","","","","","","","","","","","","","","",""
"596.0999999046326","228958","SARL_v6","SARL_v6j8g3glax","5d8d12f6d88e3a00142c9751","infreq","","","img/blue_2bandit_a2.png","70","","68","test","0","","74","","","","square","circle","71","2","4","0.9577464788732394","","","","","","","",""
"null","229171","SARL_v6","SARL_v6j8g3glax","5d8d12f6d88e3a00142c9751","infreq_resp","","","img/blue_2bandit_a.png","70","img/blue_2bandit_a.png","68","test","","","","","","","","","","","4","","","","","","","","",""
"null","229330","SARL_v6","SARL_v6j8g3glax","5d8d12f6d88e3a00142c9751","fixation","","","img/fixation.png","null","","","test","","","","","","","","","","","","","","","","","","","",""
"561.7999999523163","229894","SARL_v6","SARL_v6j8g3glax","5d8d12f6d88e3a00142c9751","freq","","","img/orange_2bandit_a2.png","70","","70","test","1","","75","","","","square","circle","72","3","4","0.9583333333333334","","","","","","","",""
"null","230148","SARL_v6","SARL_v6j8g3glax","5d8d12f6d88e3a00142c9751","freq_resp","","","img/orange_2bandit_a.png","70","img/orange_2bandit_a.png","70","test","","","","","","","","","","","4","","","","","","","","",""
"null","230305","SARL_v6","SARL_v6j8g3glax","5d8d12f6d88e3a00142c9751","fixation","","","img/fixation.png","null","","","test","","","","","","","","","","","","","","","","","","","",""
"435.7999999523163","230742","SARL_v6","SARL_v6j8g3glax","5d8d12f6d88e3a00142c9751","freq","","","img/orange_2bandit_a2.png","70","","70","test","1","","76","","","","square","circle","73","4","4","0.958904109589041","","","","","","","",""
"null","231121","SARL_v6","SARL_v6j8g3glax","5d8d12f6d88e3a00142c9751","freq_resp","","","img/orange_2bandit_a.png","70","img/orange_2bandit_a.png","70","test","","","","","","","","","","","4","","","","","","","","",""
"null","231279","SARL_v6","SARL_v6j8g3glax","5d8d12f6d88e3a00142c9751","fixation","","","img/fixation.png","null","","","test","","","","","","","","","","","","","","","","","","","",""
"381.90000009536743","231662","SARL_v6","SARL_v6j8g3glax","5d8d12f6d88e3a00142c9751","freq","","","img/orange_2bandit_a2.png","70","","70","test","1","","77","","","","square","circle","74","5","4","0.9594594594594594","","","","","","","",""
"null","232098","SARL_v6","SARL_v6j8g3glax","5d8d12f6d88e3a00142c9751","freq_resp","","","img/orange_2bandit_a.png","70","img/orange_2bandit_a.png","70","test","","","","","","","","","","","4","","","","","","","","",""
"null","232254","SARL_v6","SARL_v6j8g3glax","5d8d12f6d88e3a00142c9751","fixation","","","img/fixation.png","null","","","test","","","","","","","","","","","","","","","","","","","",""
"326.80000019073486","232582","SARL_v6","SARL_v6j8g3glax","5d8d12f6d88e3a00142c9751","freq","","","img/orange_2bandit_a2.png","70","","70","test","1","","78","","","","square","circle","75","6","4","0.96","","","","","","","",""
"null","233072","SARL_v6","SARL_v6j8g3glax","5d8d12f6d88e3a00142c9751","freq_resp","","","img/orange_2bandit_a.png","70","img/orange_2bandit_a.png","70","test","","","","","","","","","","","4","","","","","","","","",""
"null","233229","SARL_v6","SARL_v6j8g3glax","5d8d12f6d88e3a00142c9751","fixation","","","img/fixation.png","null","","","test","","","","","","","","","","","","","","","","","","","",""
"271.7000000476837","233503","SARL_v6","SARL_v6j8g3glax","5d8d12f6d88e3a00142c9751","freq","","","img/orange_2bandit_a2.png","70","","70","test","1","","79","","","","square","circle","76","7","4","0.9605263157894737","","","","","","","",""
"null","234039","SARL_v6","SARL_v6j8g3glax","5d8d12f6d88e3a00142c9751","freq_resp","","","img/orange_2bandit_a.png","70","img/orange_2bandit_a.png","70","test","","","","","","","","","","","4","","","","","","","","",""
"null","234195","SARL_v6","SARL_v6j8g3glax","5d8d12f6d88e3a00142c9751","fixation","","","img/fixation.png","null","","","test","","","","","","","","","","","","","","","","","","","",""
"240.70000004768372","234438","SARL_v6","SARL_v6j8g3glax","5d8d12f6d88e3a00142c9751","freq","","","img/orange_2bandit_a2.png","70","","70","test","1","","80","","","","square","circle","77","8","4","0.961038961038961","","","","","","","",""
"null","235000","SARL_v6","SARL_v6j8g3glax","5d8d12f6d88e3a00142c9751","freq_resp","","","img/orange_2bandit_a.png","70","img/orange_2bandit_a.png","70","test","","","","","","","","","","","4","","","","","","","","",""
"null","235153","SARL_v6","SARL_v6j8g3glax","5d8d12f6d88e3a00142c9751","fixation","","","img/fixation.png","null","","","test","","","","","","","","","","","","","","","","","","","",""
"251.20000004768372","235406","SARL_v6","SARL_v6j8g3glax","5d8d12f6d88e3a00142c9751","freq","","","img/orange_2bandit_a2.png","70","","70","test","1","","81","","","","square","circle","78","9","4","0.9615384615384616","","","","","","","",""
"null","235957","SARL_v6","SARL_v6j8g3glax","5d8d12f6d88e3a00142c9751","freq_resp","","","img/orange_2bandit_a.png","70","img/orange_2bandit_a.png","70","test","","","","","","","","","","","4","","","","","","","","",""
"null","236110","SARL_v6","SARL_v6j8g3glax","5d8d12f6d88e3a00142c9751","fixation","","","img/fixation.png","null","","","test","","","","","","","","","","","","","","","","","","","",""
"375","236486","SARL_v6","SARL_v6j8g3glax","5d8d12f6d88e3a00142c9751","freq","","","img/orange_2bandit_a2.png","70","","70","test","1","","82","","","","square","circle","79","10","4","0.9620253164556962","","","","","","","",""
"null","236928","SARL_v6","SARL_v6j8g3glax","5d8d12f6d88e3a00142c9751","freq_resp","","","img/orange_2bandit_a.png","70","img/orange_2bandit_a.png","70","test","","","","","","","","","","","4","","","","","","","","",""
"null","237087","SARL_v6","SARL_v6j8g3glax","5d8d12f6d88e3a00142c9751","fixation","","","img/fixation.png","null","","","test","","","","","","","","","","","","","","","","","","","",""
"325.90000009536743","237414","SARL_v6","SARL_v6j8g3glax","5d8d12f6d88e3a00142c9751","freq","","","img/orange_2bandit_a2.png","70","","70","test","1","","83","","","","square","circle","80","11","4","0.9625","","","","","","","",""
"null","237894","SARL_v6","SARL_v6j8g3glax","5d8d12f6d88e3a00142c9751","freq_resp","","","img/orange_2bandit_a.png","70","img/orange_2bandit_a.png","70","test","","","","","","","","","","","4","","","","","","","","",""
"null","238055","SARL_v6","SARL_v6j8g3glax","5d8d12f6d88e3a00142c9751","fixation","","","img/fixation.png","null","","","test","","","","","","","","","","","","","","","","","","","",""
"278","238334","SARL_v6","SARL_v6j8g3glax","5d8d12f6d88e3a00142c9751","freq","","","img/orange_2bandit_a2.png","70","","70","test","1","","84","","","","square","circle","81","12","4","0.9629629629629629","","","","","","","",""
"null","238867","SARL_v6","SARL_v6j8g3glax","5d8d12f6d88e3a00142c9751","freq_resp","","","img/orange_2bandit_a.png","70","img/orange_2bandit_a.png","70","test","","","","","","","","","","","4","","","","","","","","",""
"null","239019","SARL_v6","SARL_v6j8g3glax","5d8d12f6d88e3a00142c9751","fixation","","","img/fixation.png","null","","","test","","","","","","","","","","","","","","","","","","","",""
"289.7999999523163","239310","SARL_v6","SARL_v6j8g3glax","5d8d12f6d88e3a00142c9751","freq","","","img/orange_2bandit_a2.png","70","","70","test","1","","85","","","","square","circle","82","13","4","0.9634146341463414","","","","","","","",""
"null","239826","SARL_v6","SARL_v6j8g3glax","5d8d12f6d88e3a00142c9751","freq_resp","","","img/orange_2bandit_a.png","70","img/orange_2bandit_a.png","70","test","","","","","","","","","","","4","","","","","","","","",""
"null","239984","SARL_v6","SARL_v6j8g3glax","5d8d12f6d88e3a00142c9751","fixation","","","img/fixation.png","null","","","test","","","","","","","","","","","","","","","","","","","",""
"436.59999990463257","240422","SARL_v6","SARL_v6j8g3glax","5d8d12f6d88e3a00142c9751","infreq","","","img/blue_2bandit_a2.png","68","","68","test","1","","86","","","","square","circle","83","14","4","0.963855421686747","","","","","","","",""
"null","240794","SARL_v6","SARL_v6j8g3glax","5d8d12f6d88e3a00142c9751","infreq_resp","","","img/blue_2bandit_a.png","68","img/blue_2bandit_a.png","68","test","","","","","","","","","","","4","","","","","","","","",""
"null","240948","SARL_v6","SARL_v6j8g3glax","5d8d12f6d88e3a00142c9751","fixation","","","img/fixation.png","null","","","test","","","","","","","","","","","","","","","","","","","",""
"361","241310","SARL_v6","SARL_v6j8g3glax","5d8d12f6d88e3a00142c9751","freq","","","img/orange_2bandit_a2.png","70","","70","test","1","","87","","","","square","circle","84","15","4","0.9642857142857143","","","","","","","",""
"null","241755","SARL_v6","SARL_v6j8g3glax","5d8d12f6d88e3a00142c9751","freq_resp","","","img/orange_2bandit_a.png","70","img/orange_2bandit_a.png","70","test","","","","","","","","","","","4","","","","","","","","",""
"null","241912","SARL_v6","SARL_v6j8g3glax","5d8d12f6d88e3a00142c9751","fixation","","","img/fixation.png","null","","","test","","","","","","","","","","","","","","","","","","","",""
"316.7999999523163","242230","SARL_v6","SARL_v6j8g3glax","5d8d12f6d88e3a00142c9751","freq","","","img/orange_2bandit_a2.png","70","","70","test","1","","88","","","","square","circle","85","16","4","0.9647058823529412","","","","","","","",""
"null","242731","SARL_v6","SARL_v6j8g3glax","5d8d12f6d88e3a00142c9751","freq_resp","","","img/orange_2bandit_a.png","70","img/orange_2bandit_a.png","70","test","","","","","","","","","","","4","","","","","","","","",""
"null","242886","SARL_v6","SARL_v6j8g3glax","5d8d12f6d88e3a00142c9751","fixation","","","img/fixation.png","null","","","test","","","","","","","","","","","","","","","","","","","",""
"302.2999999523163","243190","SARL_v6","SARL_v6j8g3glax","5d8d12f6d88e3a00142c9751","freq","","","img/orange_2bandit_a2.png","70","","70","test","1","","89","","","","square","circle","86","17","4","0.9651162790697675","","","","","","","",""
"null","243689","SARL_v6","SARL_v6j8g3glax","5d8d12f6d88e3a00142c9751","freq_resp","","","img/orange_2bandit_a.png","70","img/orange_2bandit_a.png","70","test","","","","","","","","","","","4","","","","","","","","",""
"null","243841","SARL_v6","SARL_v6j8g3glax","5d8d12f6d88e3a00142c9751","fixation","","","img/fixation.png","null","","","test","","","","","","","","","","","","","","","","","","","",""
"395.7999999523163","244239","SARL_v6","SARL_v6j8g3glax","5d8d12f6d88e3a00142c9751","freq","","","img/orange_2bandit_a2.png","70","","70","test","1","","90","","","","square","circle","87","18","4","0.9655172413793104","","","","","","","",""
"null","244651","SARL_v6","SARL_v6j8g3glax","5d8d12f6d88e3a00142c9751","freq_resp","","","img/orange_2bandit_a.png","70","img/orange_2bandit_a.png","70","test","","","","","","","","","","","4","","","","","","","","",""
"null","244810","SARL_v6","SARL_v6j8g3glax","5d8d12f6d88e3a00142c9751","fixation","","","img/fixation.png","null","","","test","","","","","","","","","","","","","","","","","","","",""
"394.10000014305115","245206","SARL_v6","SARL_v6j8g3glax","5d8d12f6d88e3a00142c9751","freq","","","img/orange_2bandit_a2.png","70","","70","test","1","","91","","","","square","circle","88","19","4","0.9659090909090909","","","","","","","",""
"null","245614","SARL_v6","SARL_v6j8g3glax","5d8d12f6d88e3a00142c9751","freq_resp","","","img/orange_2bandit_a.png","70","img/orange_2bandit_a.png","70","test","","","","","","","","","","","4","","","","","","","","",""
"null","245771","SARL_v6","SARL_v6j8g3glax","5d8d12f6d88e3a00142c9751","fixation","","","img/fixation.png","null","","","test","","","","","","","","","","","","","","","","","","","",""
"417.7999999523163","246190","SARL_v6","SARL_v6j8g3glax","5d8d12f6d88e3a00142c9751","freq","","","img/orange_2bandit_a2.png","70","","70","test","1","","92","","","","square","circle","89","20","4","0.9662921348314607","","","","","","","",""
"null","246591","SARL_v6","SARL_v6j8g3glax","5d8d12f6d88e3a00142c9751","freq_resp","","","img/orange_2bandit_a.png","70","img/orange_2bandit_a.png","70","test","","","","","","","","","","","4","","","","","","","","",""
"null","246748","SARL_v6","SARL_v6j8g3glax","5d8d12f6d88e3a00142c9751","fixation","","","img/fixation.png","null","","","test","","","","","","","","","","","","","","","","","","","",""
"1215.7000000476837","247966","SARL_v6","SARL_v6j8g3glax","5d8d12f6d88e3a00142c9751","rl","","","img/black_2bandit_a2.png","74","","0","test","","","93","","","0","square","circle","","0","4","","74","-12","0","0","-12","square","4","0"
"null","248721","SARL_v6","SARL_v6j8g3glax","5d8d12f6d88e3a00142c9751","feedback","","","<div class=""verylowPoints_sq""> 0 </div>","null","","na","test","","","NaN","","","","","","","","4","","74","","","","","","4",""
"394.7000000476837","249118","SARL_v6","SARL_v6j8g3glax","5d8d12f6d88e3a00142c9751","freq","","","img/orange_2bandit_a2.png","70","","70","test","1","","94","","","","square","circle","90","1","5","0.9666666666666667","","","","","","","",""
"null","249526","SARL_v6","SARL_v6j8g3glax","5d8d12f6d88e3a00142c9751","freq_resp","","","img/orange_2bandit_a.png","70","img/orange_2bandit_a.png","70","test","","","","","","","","","","","5","","","","","","","","",""
"null","249685","SARL_v6","SARL_v6j8g3glax","5d8d12f6d88e3a00142c9751","fixation","","","img/fixation.png","null","","","test","","","","","","","","","","","","","","","","","","","",""
"431.7000000476837","250118","SARL_v6","SARL_v6j8g3glax","5d8d12f6d88e3a00142c9751","freq","","","img/orange_2bandit_a2.png","70","","70","test","1","","95","","","","square","circle","91","2","5","0.967032967032967","","","","","","","",""
"null","250488","SARL_v6","SARL_v6j8g3glax","5d8d12f6d88e3a00142c9751","freq_resp","","","img/orange_2bandit_a.png","70","img/orange_2bandit_a.png","70","test","","","","","","","","","","","5","","","","","","","","",""
"null","250646","SARL_v6","SARL_v6j8g3glax","5d8d12f6d88e3a00142c9751","fixation","","","img/fixation.png","null","","","test","","","","","","","","","","","","","","","","","","","",""
"367.39999985694885","251014","SARL_v6","SARL_v6j8g3glax","5d8d12f6d88e3a00142c9751","freq","","","img/orange_2bandit_a2.png","70","","70","test","1","","96","","","","square","circle","92","3","5","0.967391304347826","","","","","","","",""
"null","251462","SARL_v6","SARL_v6j8g3glax","5d8d12f6d88e3a00142c9751","freq_resp","","","img/orange_2bandit_a.png","70","img/orange_2bandit_a.png","70","test","","","","","","","","","","","5","","","","","","","","",""
"null","251620","SARL_v6","SARL_v6j8g3glax","5d8d12f6d88e3a00142c9751","fixation","","","img/fixation.png","null","","","test","","","","","","","","","","","","","","","","","","","",""
"256.59999990463257","251878","SARL_v6","SARL_v6j8g3glax","5d8d12f6d88e3a00142c9751","freq","","","img/orange_2bandit_a2.png","70","","70","test","1","","97","","","","square","circle","93","4","5","0.967741935483871","","","","","","","",""
"null","252424","SARL_v6","SARL_v6j8g3glax","5d8d12f6d88e3a00142c9751","freq_resp","","","img/orange_2bandit_a.png","70","img/orange_2bandit_a.png","70","test","","","","","","","","","","","5","","","","","","","","",""
"null","252576","SARL_v6","SARL_v6j8g3glax","5d8d12f6d88e3a00142c9751","fixation","","","img/fixation.png","null","","","test","","","","","","","","","","","","","","","","","","","",""
"316.2999999523163","252894","SARL_v6","SARL_v6j8g3glax","5d8d12f6d88e3a00142c9751","freq","","","img/orange_2bandit_a2.png","70","","70","test","1","","98","","","","square","circle","94","5","5","0.9680851063829787","","","","","","","",""
"null","253381","SARL_v6","SARL_v6j8g3glax","5d8d12f6d88e3a00142c9751","freq_resp","","","img/orange_2bandit_a.png","70","img/orange_2bandit_a.png","70","test","","","","","","","","","","","5","","","","","","","","",""
"null","253541","SARL_v6","SARL_v6j8g3glax","5d8d12f6d88e3a00142c9751","fixation","","","img/fixation.png","null","","","test","","","","","","","","","","","","","","","","","","","",""
"null","254347","SARL_v6","SARL_v6j8g3glax","5d8d12f6d88e3a00142c9751","infreq","","","img/blue_2bandit_a2.png","null","","68","test","0","","99","","","","square","circle","95","6","5","0.9578947368421052","","","","","","","",""
"null","254503","SARL_v6","SARL_v6j8g3glax","5d8d12f6d88e3a00142c9751","fixation","","","img/fixation.png","null","","","test","","","","","","","","","","","","","","","","","","","",""
"750.3999998569489","255254","SARL_v6","SARL_v6j8g3glax","5d8d12f6d88e3a00142c9751","freq","","","img/orange_2bandit_a2.png","70","","70","test","1","","100","","","","square","circle","96","7","5","0.9583333333333334","","","","","","","",""
"null","255309","SARL_v6","SARL_v6j8g3glax","5d8d12f6d88e3a00142c9751","freq_resp","","","img/orange_2bandit_a.png","70","img/orange_2bandit_a.png","70","test","","","","","","","","","","","5","","","","","","","","",""
"null","255467","SARL_v6","SARL_v6j8g3glax","5d8d12f6d88e3a00142c9751","fixation","","","img/fixation.png","null","","","test","","","","","","","","","","","","","","","","","","","",""
"617.1000001430511","256086","SARL_v6","SARL_v6j8g3glax","5d8d12f6d88e3a00142c9751","freq","","","img/orange_2bandit_a2.png","70","","70","test","1","","101","","","","square","circle","97","8","5","0.9587628865979382","","","","","","","",""
"null","256270","SARL_v6","SARL_v6j8g3glax","5d8d12f6d88e3a00142c9751","freq_resp","","","img/orange_2bandit_a.png","70","img/orange_2bandit_a.png","70","test","","","","","","","","","","","5","","","","","","","","",""
"null","256426","SARL_v6","SARL_v6j8g3glax","5d8d12f6d88e3a00142c9751","fixation","","","img/fixation.png","null","","","test","","","","","","","","","","","","","","","","","","","",""
"491.19999980926514","256919","SARL_v6","SARL_v6j8g3glax","5d8d12f6d88e3a00142c9751","freq","","","img/orange_2bandit_a2.png","70","","70","test","1","","102","","","","square","circle","98","9","5","0.9591836734693877","","","","","","","",""
"null","257234","SARL_v6","SARL_v6j8g3glax","5d8d12f6d88e3a00142c9751","freq_resp","","","img/orange_2bandit_a.png","70","img/orange_2bandit_a.png","70","test","","","","","","","","","","","5","","","","","","","","",""
"null","257386","SARL_v6","SARL_v6j8g3glax","5d8d12f6d88e3a00142c9751","fixation","","","img/fixation.png","null","","","test","","","","","","","","","","","","","","","","","","","",""
"451.09999990463257","257838","SARL_v6","SARL_v6j8g3glax","5d8d12f6d88e3a00142c9751","infreq","","","img/blue_2bandit_a2.png","68","","68","test","1","","103","","","","square","circle","99","10","5","0.9595959595959596","","","","","","","",""
"null","258197","SARL_v6","SARL_v6j8g3glax","5d8d12f6d88e3a00142c9751","infreq_resp","","","img/blue_2bandit_a.png","68","img/blue_2bandit_a.png","68","test","","","","","","","","","","","5","","","","","","","","",""
"null","258355","SARL_v6","SARL_v6j8g3glax","5d8d12f6d88e3a00142c9751","fixation","","","img/fixation.png","null","","","test","","","","","","","","","","","","","","","","","","","",""
"385.39999985694885","258742","SARL_v6","SARL_v6j8g3glax","5d8d12f6d88e3a00142c9751","freq","","","img/orange_2bandit_a2.png","70","","70","test","1","","104","","","","square","circle","100","11","5","0.96","","","","","","","",""
"null","259160","SARL_v6","SARL_v6j8g3glax","5d8d12f6d88e3a00142c9751","freq_resp","","","img/orange_2bandit_a.png","70","img/orange_2bandit_a.png","70","test","","","","","","","","","","","5","","","","","","","","",""
"null","259319","SARL_v6","SARL_v6j8g3glax","5d8d12f6d88e3a00142c9751","fixation","","","img/fixation.png","null","","","test","","","","","","","","","","","","","","","","","","","",""
"422.2000000476837","259743","SARL_v6","SARL_v6j8g3glax","5d8d12f6d88e3a00142c9751","freq","","","img/orange_2bandit_a2.png","70","","70","test","1","","105","","","","square","circle","101","12","5","0.9603960396039604","","","","","","","",""
"null","260135","SARL_v6","SARL_v6j8g3glax","5d8d12f6d88e3a00142c9751","freq_resp","","","img/orange_2bandit_a.png","70","img/orange_2bandit_a.png","70","test","","","","","","","","","","","5","","","","","","","","",""
"null","260290","SARL_v6","SARL_v6j8g3glax","5d8d12f6d88e3a00142c9751","fixation","","","img/fixation.png","null","","","test","","","","","","","","","","","","","","","","","","","",""
"394.5","260686","SARL_v6","SARL_v6j8g3glax","5d8d12f6d88e3a00142c9751","freq","","","img/orange_2bandit_a2.png","70","","70","test","1","","106","","","","square","circle","102","13","5","0.9607843137254902","","","","","","","",""
"null","261093","SARL_v6","SARL_v6j8g3glax","5d8d12f6d88e3a00142c9751","freq_resp","","","img/orange_2bandit_a.png","70","img/orange_2bandit_a.png","70","test","","","","","","","","","","","5","","","","","","","","",""
"null","261248","SARL_v6","SARL_v6j8g3glax","5d8d12f6d88e3a00142c9751","fixation","","","img/fixation.png","null","","","test","","","","","","","","","","","","","","","","","","","",""
"357.09999990463257","261606","SARL_v6","SARL_v6j8g3glax","5d8d12f6d88e3a00142c9751","freq","","","img/orange_2bandit_a2.png","70","","70","test","1","","107","","","","square","circle","103","14","5","0.9611650485436893","","","","","","","",""
"null","262060","SARL_v6","SARL_v6j8g3glax","5d8d12f6d88e3a00142c9751","freq_resp","","","img/orange_2bandit_a.png","70","img/orange_2bandit_a.png","70","test","","","","","","","","","","","5","","","","","","","","",""
"null","262217","SARL_v6","SARL_v6j8g3glax","5d8d12f6d88e3a00142c9751","fixation","","","img/fixation.png","null","","","test","","","","","","","","","","","","","","","","","","","",""
"347.60000014305115","262566","SARL_v6","SARL_v6j8g3glax","5d8d12f6d88e3a00142c9751","freq","","","img/orange_2bandit_a2.png","70","","70","test","1","","108","","","","square","circle","104","15","5","0.9615384615384616","","","","","","","",""
"null","263024","SARL_v6","SARL_v6j8g3glax","5d8d12f6d88e3a00142c9751","freq_resp","","","img/orange_2bandit_a.png","70","img/orange_2bandit_a.png","70","test","","","","","","","","","","","5","","","","","","","","",""
"null","263182","SARL_v6","SARL_v6j8g3glax","5d8d12f6d88e3a00142c9751","fixation","","","img/fixation.png","null","","","test","","","","","","","","","","","","","","","","","","","",""
"342.80000019073486","263526","SARL_v6","SARL_v6j8g3glax","5d8d12f6d88e3a00142c9751","freq","","","img/orange_2bandit_a2.png","70","","70","test","1","","109","","","","square","circle","105","16","5","0.9619047619047619","","","","","","","",""
"null","263987","SARL_v6","SARL_v6j8g3glax","5d8d12f6d88e3a00142c9751","freq_resp","","","img/orange_2bandit_a.png","70","img/orange_2bandit_a.png","70","test","","","","","","","","","","","5","","","","","","","","",""
"null","264147","SARL_v6","SARL_v6j8g3glax","5d8d12f6d88e3a00142c9751","fixation","","","img/fixation.png","null","","","test","","","","","","","","","","","","","","","","","","","",""
"369.7999999523163","264518","SARL_v6","SARL_v6j8g3glax","5d8d12f6d88e3a00142c9751","freq","","","img/orange_2bandit_a2.png","70","","70","test","1","","110","","","","square","circle","106","17","5","0.9622641509433962","","","","","","","",""
"null","264954","SARL_v6","SARL_v6j8g3glax","5d8d12f6d88e3a00142c9751","freq_resp","","","img/orange_2bandit_a.png","70","img/orange_2bandit_a.png","70","test","","","","","","","","","","","5","","","","","","","","",""
"null","265112","SARL_v6","SARL_v6j8g3glax","5d8d12f6d88e3a00142c9751","fixation","","","img/fixation.png","null","","","test","","","","","","","","","","","","","","","","","","","",""
"517","265630","SARL_v6","SARL_v6j8g3glax","5d8d12f6d88e3a00142c9751","infreq","","","img/blue_2bandit_a2.png","68","","68","test","1","","111","","","","square","circle","107","18","5","0.9626168224299065","","","","","","","",""
"null","265921","SARL_v6","SARL_v6j8g3glax","5d8d12f6d88e3a00142c9751","infreq_resp","","","img/blue_2bandit_a.png","68","img/blue_2bandit_a.png","68","test","","","","","","","","","","","5","","","","","","","","",""
"null","266080","SARL_v6","SARL_v6j8g3glax","5d8d12f6d88e3a00142c9751","fixation","","","img/fixation.png","null","","","test","","","","","","","","","","","","","","","","","","","",""
"421","266502","SARL_v6","SARL_v6j8g3glax","5d8d12f6d88e3a00142c9751","freq","","","img/orange_2bandit_a2.png","70","","70","test","1","","112","","","","square","circle","108","19","5","0.9629629629629629","","","","","","","",""
"null","266884","SARL_v6","SARL_v6j8g3glax","5d8d12f6d88e3a00142c9751","freq_resp","","","img/orange_2bandit_a.png","70","img/orange_2bandit_a.png","70","test","","","","","","","","","","","5","","","","","","","","",""
"null","267041","SARL_v6","SARL_v6j8g3glax","5d8d12f6d88e3a00142c9751","fixation","","","img/fixation.png","null","","","test","","","","","","","","","","","","","","","","","","","",""
"347.10000014305115","267390","SARL_v6","SARL_v6j8g3glax","5d8d12f6d88e3a00142c9751","freq","","","img/orange_2bandit_a2.png","70","","70","test","1","","113","","","","square","circle","109","20","5","0.963302752293578","","","","","","","",""
"null","267849","SARL_v6","SARL_v6j8g3glax","5d8d12f6d88e3a00142c9751","freq_resp","","","img/orange_2bandit_a.png","70","img/orange_2bandit_a.png","70","test","","","","","","","","","","","5","","","","","","","","",""
"null","268004","SARL_v6","SARL_v6j8g3glax","5d8d12f6d88e3a00142c9751","fixation","","","img/fixation.png","null","","","test","","","","","","","","","","","","","","","","","","","",""
"327.7999999523163","268334","SARL_v6","SARL_v6j8g3glax","5d8d12f6d88e3a00142c9751","freq","","","img/orange_2bandit_a2.png","70","","70","test","1","","114","","","","square","circle","110","21","5","0.9636363636363636","","","","","","","",""
"null","268809","SARL_v6","SARL_v6j8g3glax","5d8d12f6d88e3a00142c9751","freq_resp","","","img/orange_2bandit_a.png","70","img/orange_2bandit_a.png","70","test","","","","","","","","","","","5","","","","","","","","",""
"null","268967","SARL_v6","SARL_v6j8g3glax","5d8d12f6d88e3a00142c9751","fixation","","","img/fixation.png","null","","","test","","","","","","","","","","","","","","","","","","","",""
"262.19999980926514","269230","SARL_v6","SARL_v6j8g3glax","5d8d12f6d88e3a00142c9751","freq","","","img/orange_2bandit_a2.png","70","","70","test","1","","115","","","","square","circle","111","22","5","0.963963963963964","","","","","","","",""
"null","269783","SARL_v6","SARL_v6j8g3glax","5d8d12f6d88e3a00142c9751","freq_resp","","","img/orange_2bandit_a.png","70","img/orange_2bandit_a.png","70","test","","","","","","","","","","","5","","","","","","","","",""
"null","269939","SARL_v6","SARL_v6j8g3glax","5d8d12f6d88e3a00142c9751","fixation","","","img/fixation.png","null","","","test","","","","","","","","","","","","","","","","","","","",""
"185.79999995231628","270126","SARL_v6","SARL_v6j8g3glax","5d8d12f6d88e3a00142c9751","freq","","","img/orange_2bandit_a2.png","70","","70","test","1","","116","","","","square","circle","112","23","5","0.9642857142857143","","","","","","","",""
"null","270757","SARL_v6","SARL_v6j8g3glax","5d8d12f6d88e3a00142c9751","freq_resp","","","img/orange_2bandit_a.png","70","img/orange_2bandit_a.png","70","test","","","","","","","","","","","5","","","","","","","","",""
"null","270909","SARL_v6","SARL_v6j8g3glax","5d8d12f6d88e3a00142c9751","fixation","","","img/fixation.png","null","","","test","","","","","","","","","","","","","","","","","","","",""
"1000","271910","SARL_v6","SARL_v6j8g3glax","5d8d12f6d88e3a00142c9751","rl","","","img/black_2bandit_a2.png","74","","0","test","","","117","","","4","square","circle","","0","5","","74","-7","4","4","-7","square","5","0"
"null","272672","SARL_v6","SARL_v6j8g3glax","5d8d12f6d88e3a00142c9751","feedback","","","<div class=""veryhighPoints_sq""> 4 </div>","null","","na","test","","","NaN","","","","","","","","5","","74","","","","","","5",""
"581.3999998569489","273254","SARL_v6","SARL_v6j8g3glax","5d8d12f6d88e3a00142c9751","freq","","","img/orange_2bandit_a2.png","70","","70","test","1","","118","","","","square","circle","113","1","6","0.9646017699115044","","","","","","","",""
"null","273476","SARL_v6","SARL_v6j8g3glax","5d8d12f6d88e3a00142c9751","freq_resp","","","img/orange_2bandit_a.png","70","img/orange_2bandit_a.png","70","test","","","","","","","","","","","6","","","","","","","","",""
"null","273631","SARL_v6","SARL_v6j8g3glax","5d8d12f6d88e3a00142c9751","fixation","","","img/fixation.png","null","","","test","","","","","","","","","","","","","","","","","","","",""
"445.59999990463257","274078","SARL_v6","SARL_v6j8g3glax","5d8d12f6d88e3a00142c9751","freq","","","img/orange_2bandit_a2.png","70","","70","test","1","","119","","","","square","circle","114","2","6","0.9649122807017544","","","","","","","",""
"null","274439","SARL_v6","SARL_v6j8g3glax","5d8d12f6d88e3a00142c9751","freq_resp","","","img/orange_2bandit_a.png","70","img/orange_2bandit_a.png","70","test","","","","","","","","","","","6","","","","","","","","",""
"null","274595","SARL_v6","SARL_v6j8g3glax","5d8d12f6d88e3a00142c9751","fixation","","","img/fixation.png","null","","","test","","","","","","","","","","","","","","","","","","","",""
"393.5","274990","SARL_v6","SARL_v6j8g3glax","5d8d12f6d88e3a00142c9751","freq","","","img/orange_2bandit_a2.png","70","","70","test","1","","120","","","","square","circle","115","3","6","0.9652173913043478","","","","","","","",""
"null","275405","SARL_v6","SARL_v6j8g3glax","5d8d12f6d88e3a00142c9751","freq_resp","","","img/orange_2bandit_a.png","70","img/orange_2bandit_a.png","70","test","","","","","","","","","","","6","","","","","","","","",""
"null","275561","SARL_v6","SARL_v6j8g3glax","5d8d12f6d88e3a00142c9751","fixation","","","img/fixation.png","null","","","test","","","","","","","","","","","","","","","","","","","",""
"348.19999980926514","275910","SARL_v6","SARL_v6j8g3glax","5d8d12f6d88e3a00142c9751","freq","","","img/orange_2bandit_a2.png","70","","70","test","1","","121","","","","square","circle","116","4","6","0.9655172413793104","","","","","","","",""
"null","276366","SARL_v6","SARL_v6j8g3glax","5d8d12f6d88e3a00142c9751","freq_resp","","","img/orange_2bandit_a.png","70","img/orange_2bandit_a.png","70","test","","","","","","","","","","","6","","","","","","","","",""
"null","276523","SARL_v6","SARL_v6j8g3glax","5d8d12f6d88e3a00142c9751","fixation","","","img/fixation.png","null","","","test","","","","","","","","","","","","","","","","","","","",""
"609.2000000476837","277134","SARL_v6","SARL_v6j8g3glax","5d8d12f6d88e3a00142c9751","infreq","","","img/blue_2bandit_a2.png","68","","68","test","1","","122","","","","square","circle","117","5","6","0.9658119658119658","","","","","","","",""
"null","277337","SARL_v6","SARL_v6j8g3glax","5d8d12f6d88e3a00142c9751","infreq_resp","","","img/blue_2bandit_a.png","68","img/blue_2bandit_a.png","68","test","","","","","","","","","","","6","","","","","","","","",""
"null","277494","SARL_v6","SARL_v6j8g3glax","5d8d12f6d88e3a00142c9751","fixation","","","img/fixation.png","null","","","test","","","","","","","","","","","","","","","","","","","",""
"478.30000019073486","277974","SARL_v6","SARL_v6j8g3glax","5d8d12f6d88e3a00142c9751","infreq","","","img/blue_2bandit_a2.png","68","","68","test","1","","123","","","","square","circle","118","6","6","0.9661016949152542","","","","","","","",""
"null","278303","SARL_v6","SARL_v6j8g3glax","5d8d12f6d88e3a00142c9751","infreq_resp","","","img/blue_2bandit_a.png","68","img/blue_2bandit_a.png","68","test","","","","","","","","","","","6","","","","","","","","",""
"null","278456","SARL_v6","SARL_v6j8g3glax","5d8d12f6d88e3a00142c9751","fixation","","","img/fixation.png","null","","","test","","","","","","","","","","","","","","","","","","","",""
"413.2999999523163","278870","SARL_v6","SARL_v6j8g3glax","5d8d12f6d88e3a00142c9751","freq","","","img/orange_2bandit_a2.png","70","","70","test","1","","124","","","","square","circle","119","7","6","0.9663865546218487","","","","","","","",""
"null","279267","SARL_v6","SARL_v6j8g3glax","5d8d12f6d88e3a00142c9751","freq_resp","","","img/orange_2bandit_a.png","70","img/orange_2bandit_a.png","70","test","","","","","","","","","","","6","","","","","","","","",""
"null","279422","SARL_v6","SARL_v6j8g3glax","5d8d12f6d88e3a00142c9751","fixation","","","img/fixation.png","null","","","test","","","","","","","","","","","","","","","","","","","",""
"350.89999985694885","279774","SARL_v6","SARL_v6j8g3glax","5d8d12f6d88e3a00142c9751","freq","","","img/orange_2bandit_a2.png","70","","70","test","1","","125","","","","square","circle","120","8","6","0.9666666666666667","","","","","","","",""
"null","280226","SARL_v6","SARL_v6j8g3glax","5d8d12f6d88e3a00142c9751","freq_resp","","","img/orange_2bandit_a.png","70","img/orange_2bandit_a.png","70","test","","","","","","","","","","","6","","","","","","","","",""
"null","280383","SARL_v6","SARL_v6j8g3glax","5d8d12f6d88e3a00142c9751","fixation","","","img/fixation.png","null","","","test","","","","","","","","","","","","","","","","","","","",""
"261.09999990463257","280646","SARL_v6","SARL_v6j8g3glax","5d8d12f6d88e3a00142c9751","freq","","","img/orange_2bandit_a2.png","70","","70","test","1","","126","","","","square","circle","121","9","6","0.9669421487603306","","","","","","","",""
"null","281199","SARL_v6","SARL_v6j8g3glax","5d8d12f6d88e3a00142c9751","freq_resp","","","img/orange_2bandit_a.png","70","img/orange_2bandit_a.png","70","test","","","","","","","","","","","6","","","","","","","","",""
"null","281351","SARL_v6","SARL_v6j8g3glax","5d8d12f6d88e3a00142c9751","fixation","","","img/fixation.png","null","","","test","","","","","","","","","","","","","","","","","","","",""
"277.60000014305115","281630","SARL_v6","SARL_v6j8g3glax","5d8d12f6d88e3a00142c9751","freq","","","img/orange_2bandit_a2.png","70","","70","test","1","","127","","","","square","circle","122","10","6","0.9672131147540983","","","","","","","",""
"null","282156","SARL_v6","SARL_v6j8g3glax","5d8d12f6d88e3a00142c9751","freq_resp","","","img/orange_2bandit_a.png","70","img/orange_2bandit_a.png","70","test","","","","","","","","","","","6","","","","","","","","",""
"null","282309","SARL_v6","SARL_v6j8g3glax","5d8d12f6d88e3a00142c9751","fixation","","","img/fixation.png","null","","","test","","","","","","","","","","","","","","","","","","","",""
"288.40000009536743","282599","SARL_v6","SARL_v6j8g3glax","5d8d12f6d88e3a00142c9751","freq","","","img/orange_2bandit_a2.png","70","","70","test","1","","128","","","","square","circle","123","11","6","0.967479674796748","","","","","","","",""
"null","283112","SARL_v6","SARL_v6j8g3glax","5d8d12f6d88e3a00142c9751","freq_resp","","","img/orange_2bandit_a.png","70","img/orange_2bandit_a.png","70","test","","","","","","","","","","","6","","","","","","","","",""
"null","283271","SARL_v6","SARL_v6j8g3glax","5d8d12f6d88e3a00142c9751","fixation","","","img/fixation.png","null","","","test","","","","","","","","","","","","","","","","","","","",""
