"rt","time_elapsed","expId","subject","prolificID","trialType","rlType","attType","stimulus","key_press","stim","corrresp","phase","corr","pracCounter","trialNum","rewardOne","rewardTwo","reward","bandOne","bandTwo","attentionNum","attentionRunNum","blockNum","performance","bandChosen","circleVal","squareVal","bandOneVal","bandTwoVal","shapeChosen","rlNum","badFlag"
"2898.2000000476837","2903","SARL_v6","SARL_v6423bn18q","5d53bffa147a7d00015aae5a","","","","","","","","","","","","","","","","","","","","","","","","","","","",""
"","4910","SARL_v6","SARL_v6423bn18q","5d53bffa147a7d00015aae5a","fullscreen","fullscreen","fullscreen","","","","","","","","","","","","","","","","","","","","","","","","",""
"47277.200000047684","52189","SARL_v6","SARL_v6423bn18q","5d53bffa147a7d00015aae5a","","","","","","","","","","","","","","","","","","","","","","","","","","","",""
"773.6999998092651","52966","SARL_v6","SARL_v6423bn18q","5d53bffa147a7d00015aae5a","freqPrac","","","img/blue_2bandit_b2.png","70","img/blue_2bandit_b2.png","70","prac","1","0","","","","","","","","","","","","","","","","","",""
"773.6999998092651","52995","SARL_v6","SARL_v6423bn18q","5d53bffa147a7d00015aae5a","freqPrac_resp","","","img/blue_2bandit_b.png","70","img/blue_2bandit_b.png","70","prac","","","","","","","","","","","","","","","","","","","",""
"null","53159","SARL_v6","SARL_v6423bn18q","5d53bffa147a7d00015aae5a","fixation","","","img/fixation.png","null","","","prac","","","","","","","","","","","","","","","","","","","",""
"683","53844","SARL_v6","SARL_v6423bn18q","5d53bffa147a7d00015aae5a","infreqPrac","","","img/orange_2bandit_b2.png","68","img/orange_2bandit_b2.png","68","prac","1","0","","","","","","","","","","","","","","","","","",""
"683","53978","SARL_v6","SARL_v6423bn18q","5d53bffa147a7d00015aae5a","infreqPrac_resp","","","img/orange_2bandit_b.png","68","img/orange_2bandit_b.png","68","prac","","","","","","","","","","","","","","","","","","","",""
"null","54143","SARL_v6","SARL_v6423bn18q","5d53bffa147a7d00015aae5a","fixation","","","img/fixation.png","null","","","prac","","","","","","","","","","","","","","","","","","","",""
"467.7999999523163","54612","SARL_v6","SARL_v6423bn18q","5d53bffa147a7d00015aae5a","freqPrac","","","img/blue_2bandit_b2.png","70","img/blue_2bandit_b2.png","70","prac","1","0","","","","","","","","","","","","","","","","","",""
"467.7999999523163","54948","SARL_v6","SARL_v6423bn18q","5d53bffa147a7d00015aae5a","freqPrac_resp","","","img/blue_2bandit_b.png","70","img/blue_2bandit_b.png","70","prac","","","","","","","","","","","","","","","","","","","",""
"null","55109","SARL_v6","SARL_v6423bn18q","5d53bffa147a7d00015aae5a","fixation","","","img/fixation.png","null","","","prac","","","","","","","","","","","","","","","","","","","",""
"493","55605","SARL_v6","SARL_v6423bn18q","5d53bffa147a7d00015aae5a","infreqPrac","","","img/orange_2bandit_b2.png","68","img/orange_2bandit_b2.png","68","prac","1","0","","","","","","","","","","","","","","","","","",""
"493","55917","SARL_v6","SARL_v6423bn18q","5d53bffa147a7d00015aae5a","infreqPrac_resp","","","img/orange_2bandit_b.png","68","img/orange_2bandit_b.png","68","prac","","","","","","","","","","","","","","","","","","","",""
"null","56080","SARL_v6","SARL_v6423bn18q","5d53bffa147a7d00015aae5a","fixation","","","img/fixation.png","null","","","prac","","","","","","","","","","","","","","","","","","","",""
"395.90000009536743","56478","SARL_v6","SARL_v6423bn18q","5d53bffa147a7d00015aae5a","infreqPrac","","","img/orange_2bandit_b2.png","68","img/orange_2bandit_b2.png","68","prac","1","0","","","","","","","","","","","","","","","","","",""
"395.90000009536743","56894","SARL_v6","SARL_v6423bn18q","5d53bffa147a7d00015aae5a","infreqPrac_resp","","","img/orange_2bandit_b.png","68","img/orange_2bandit_b.png","68","prac","","","","","","","","","","","","","","","","","","","",""
"null","57061","SARL_v6","SARL_v6423bn18q","5d53bffa147a7d00015aae5a","fixation","","","img/fixation.png","null","","","prac","","","","","","","","","","","","","","","","","","","",""
"383.10000014305115","57446","SARL_v6","SARL_v6423bn18q","5d53bffa147a7d00015aae5a","infreqPrac","","","img/orange_2bandit_b2.png","68","img/orange_2bandit_b2.png","68","prac","1","0","","","","","","","","","","","","","","","","","",""
"383.10000014305115","57877","SARL_v6","SARL_v6423bn18q","5d53bffa147a7d00015aae5a","infreqPrac_resp","","","img/orange_2bandit_b.png","68","img/orange_2bandit_b.png","68","prac","","","","","","","","","","","","","","","","","","","",""
"null","58029","SARL_v6","SARL_v6423bn18q","5d53bffa147a7d00015aae5a","fixation","","","img/fixation.png","null","","","prac","","","","","","","","","","","","","","","","","","","",""
"359","58390","SARL_v6","SARL_v6423bn18q","5d53bffa147a7d00015aae5a","freqPrac","","","img/blue_2bandit_b2.png","70","img/blue_2bandit_b2.png","70","prac","1","0","","","","","","","","","","","","","","","","","",""
"359","58843","SARL_v6","SARL_v6423bn18q","5d53bffa147a7d00015aae5a","freqPrac_resp","","","img/blue_2bandit_b.png","70","img/blue_2bandit_b.png","70","prac","","","","","","","","","","","","","","","","","","","",""
"null","58996","SARL_v6","SARL_v6423bn18q","5d53bffa147a7d00015aae5a","fixation","","","img/fixation.png","null","","","prac","","","","","","","","","","","","","","","","","","","",""
"576.5","59574","SARL_v6","SARL_v6423bn18q","5d53bffa147a7d00015aae5a","infreqPrac","","","img/orange_2bandit_b2.png","68","img/orange_2bandit_b2.png","68","prac","1","0","","","","","","","","","","","","","","","","","",""
"576.5","59807","SARL_v6","SARL_v6423bn18q","5d53bffa147a7d00015aae5a","infreqPrac_resp","","","img/orange_2bandit_b.png","68","img/orange_2bandit_b.png","68","prac","","","","","","","","","","","","","","","","","","","",""
"null","59962","SARL_v6","SARL_v6423bn18q","5d53bffa147a7d00015aae5a","fixation","","","img/fixation.png","null","","","prac","","","","","","","","","","","","","","","","","","","",""
"465.7000000476837","60430","SARL_v6","SARL_v6423bn18q","5d53bffa147a7d00015aae5a","freqPrac","","","img/blue_2bandit_b2.png","70","img/blue_2bandit_b2.png","70","prac","1","0","","","","","","","","","","","","","","","","","",""
"465.7000000476837","60766","SARL_v6","SARL_v6423bn18q","5d53bffa147a7d00015aae5a","freqPrac_resp","","","img/blue_2bandit_b.png","70","img/blue_2bandit_b.png","70","prac","","","","","","","","","","","","","","","","","","","",""
"null","60928","SARL_v6","SARL_v6423bn18q","5d53bffa147a7d00015aae5a","fixation","","","img/fixation.png","null","","","prac","","","","","","","","","","","","","","","","","","","",""
"300.40000009536743","61230","SARL_v6","SARL_v6423bn18q","5d53bffa147a7d00015aae5a","freqPrac","","","img/blue_2bandit_b2.png","70","img/blue_2bandit_b2.png","70","prac","1","0","","","","","","","","","","","","","","","","","",""
"300.40000009536743","61738","SARL_v6","SARL_v6423bn18q","5d53bffa147a7d00015aae5a","freqPrac_resp","","","img/blue_2bandit_b.png","70","img/blue_2bandit_b.png","70","prac","","","","","","","","","","","","","","","","","","","",""
"null","61896","SARL_v6","SARL_v6423bn18q","5d53bffa147a7d00015aae5a","fixation","","","img/fixation.png","null","","","prac","","","","","","","","","","","","","","","","","","","",""
"21228.700000047684","83126","SARL_v6","SARL_v6423bn18q","5d53bffa147a7d00015aae5a","","","","","","","","prac","","","","","","","","","","","","","","","","","","","",""
"982.1000001430511","84110","SARL_v6","SARL_v6423bn18q","5d53bffa147a7d00015aae5a","rlPractice","","","img/black_2bandit_b2.png","74","img/black_2bandit_b2.png","","prac","","","0","","","","","","","","","","","","","","","","",""
"null","84872","SARL_v6","SARL_v6423bn18q","5d53bffa147a7d00015aae5a","feedback","","","<div class=""veryhighPoints""> 10 </div>","null","","na","prac","","","1","10","-14","10","","","","","","","","","","","","","",""
"null","85029","SARL_v6","SARL_v6423bn18q","5d53bffa147a7d00015aae5a","fixation","","","img/fixation.png","null","","","prac","","","","","","","","","","","","","","","","","","","",""
"407.10000014305115","85438","SARL_v6","SARL_v6423bn18q","5d53bffa147a7d00015aae5a","rlPractice","","","img/black_2bandit_b2.png","74","img/black_2bandit_b2.png","","prac","","","1","","","","","","","","","","","","","","","","",""
"null","86205","SARL_v6","SARL_v6423bn18q","5d53bffa147a7d00015aae5a","feedback","","","<div class=""veryhighPoints""> 5 </div>","null","","na","prac","","","2","5","-5","5","","","","","","","","","","","","","",""
"null","86362","SARL_v6","SARL_v6423bn18q","5d53bffa147a7d00015aae5a","fixation","","","img/fixation.png","null","","","prac","","","","","","","","","","","","","","","","","","","",""
"505.7000000476837","86870","SARL_v6","SARL_v6423bn18q","5d53bffa147a7d00015aae5a","rlPractice","","","img/black_2bandit_b2.png","74","img/black_2bandit_b2.png","","prac","","","2","","","","","","","","","","","","","","","","",""
"null","87624","SARL_v6","SARL_v6423bn18q","5d53bffa147a7d00015aae5a","feedback","","","<div class=""veryhighPoints""> 30 </div>","null","","na","prac","","","3","30","2","30","","","","","","","","","","","","","",""
"null","87779","SARL_v6","SARL_v6423bn18q","5d53bffa147a7d00015aae5a","fixation","","","img/fixation.png","null","","","prac","","","","","","","","","","","","","","","","","","","",""
"345","88126","SARL_v6","SARL_v6423bn18q","5d53bffa147a7d00015aae5a","rlPractice","","","img/black_2bandit_b2.png","74","img/black_2bandit_b2.png","","prac","","","3","","","","","","","","","","","","","","","","",""
"null","88888","SARL_v6","SARL_v6423bn18q","5d53bffa147a7d00015aae5a","feedback","","","<div class=""verylowPoints""> -2 </div>","null","","na","prac","","","4","-2","20","-2","","","","","","","","","","","","","",""
"null","89046","SARL_v6","SARL_v6423bn18q","5d53bffa147a7d00015aae5a","fixation","","","img/fixation.png","null","","","prac","","","","","","","","","","","","","","","","","","","",""
"7534.800000190735","96582","SARL_v6","SARL_v6423bn18q","5d53bffa147a7d00015aae5a","","","","","","","","prac","","","","","","","","","","","","","","","","","","","",""
"null","97389","SARL_v6","SARL_v6423bn18q","5d53bffa147a7d00015aae5a","mixAttFreqPrac","","","img/blue_2bandit_b2.png","null","img/blue_2bandit_b2.png","70","prac","","","1","","","","","","","","","","","","","","","","",""
"null","97545","SARL_v6","SARL_v6423bn18q","5d53bffa147a7d00015aae5a","fixation","","","img/fixation.png","null","","","prac","","","","","","","","","","","","","","","","","","","",""
"650.7000000476837","98198","SARL_v6","SARL_v6423bn18q","5d53bffa147a7d00015aae5a","mixAttInfreqPrac","","","img/orange_2bandit_b2.png","68","img/orange_2bandit_b2.png","68","prac","","","2","","","","","","","","","","","","","","","","",""
"650.7000000476837","98361","SARL_v6","SARL_v6423bn18q","5d53bffa147a7d00015aae5a","infreqPrac_resp","","","img/orange_2bandit_b.png","68","img/blue_2bandit_b.png","68","prac","","","2","","","","","","","","","","","","","","","","",""
"null","98528","SARL_v6","SARL_v6423bn18q","5d53bffa147a7d00015aae5a","fixation","","","img/fixation.png","null","","","prac","","","","","","","","","","","","","","","","","","","",""
"708.5","99238","SARL_v6","SARL_v6423bn18q","5d53bffa147a7d00015aae5a","mixAttInfreqPrac","","","img/orange_2bandit_b2.png","68","img/orange_2bandit_b2.png","68","prac","","","3","","","","","","","","","","","","","","","","",""
"708.5","99333","SARL_v6","SARL_v6423bn18q","5d53bffa147a7d00015aae5a","infreqPrac_resp","","","img/orange_2bandit_b.png","68","img/blue_2bandit_b.png","68","prac","","","3","","","","","","","","","","","","","","","","",""
"null","99493","SARL_v6","SARL_v6423bn18q","5d53bffa147a7d00015aae5a","fixation","","","img/fixation.png","null","","","prac","","","","","","","","","","","","","","","","","","","",""
"null","100302","SARL_v6","SARL_v6423bn18q","5d53bffa147a7d00015aae5a","mixAttInfreqPrac","","","img/orange_2bandit_b2.png","null","img/orange_2bandit_b2.png","68","prac","","","4","","","","","","","","","","","","","","","","",""
"46.200000047683716","100463","SARL_v6","SARL_v6423bn18q","5d53bffa147a7d00015aae5a","fixation","","","img/fixation.png","68","","","prac","","","","","","","","","","","","","","","","","","","",""
"508.89999985694885","100974","SARL_v6","SARL_v6423bn18q","5d53bffa147a7d00015aae5a","mixAttFreqPrac","","","img/blue_2bandit_b2.png","70","img/blue_2bandit_b2.png","70","prac","","","5","","","","","","","","","","","","","","","","",""
"508.89999985694885","101270","SARL_v6","SARL_v6423bn18q","5d53bffa147a7d00015aae5a","freqPrac_resp","","","img/blue_2bandit_b.png","70","img/blue_2bandit_b.png","70","prac","","","5","","","","","","","","","","","","","","","","",""
"null","101430","SARL_v6","SARL_v6423bn18q","5d53bffa147a7d00015aae5a","fixation","","","img/fixation.png","null","","","prac","","","","","","","","","","","","","","","","","","","",""
"902.0999999046326","102334","SARL_v6","SARL_v6423bn18q","5d53bffa147a7d00015aae5a","mixRLPractice","","","img/black_2bandit_b2.png","75","img/black_2bandit_b2.png","","prac","","","5","","","","","","","","","","","","","","","","",""
"null","103089","SARL_v6","SARL_v6423bn18q","5d53bffa147a7d00015aae5a","feedback","","","<div class=""veryhighPoints_sq""> 10 </div>","null","","na","prac","","","6","-14","10","-14","","","","","","","","","","","","","",""
"null","103246","SARL_v6","SARL_v6423bn18q","5d53bffa147a7d00015aae5a","fixation","","","img/fixation.png","null","","","prac","","","","","","","","","","","","","","","","","","","",""
"654.2999999523163","103902","SARL_v6","SARL_v6423bn18q","5d53bffa147a7d00015aae5a","mixAttFreqPrac","","","img/blue_2bandit_b2.png","70","img/blue_2bandit_b2.png","70","prac","","","7","","","","","","","","","","","","","","","","",""
"654.2999999523163","104063","SARL_v6","SARL_v6423bn18q","5d53bffa147a7d00015aae5a","freqPrac_resp","","","img/blue_2bandit_b.png","70","img/blue_2bandit_b.png","70","prac","","","7","","","","","","","","","","","","","","","","",""
"null","104228","SARL_v6","SARL_v6423bn18q","5d53bffa147a7d00015aae5a","fixation","","","img/fixation.png","null","","","prac","","","","","","","","","","","","","","","","","","","",""
"528.2999999523163","104758","SARL_v6","SARL_v6423bn18q","5d53bffa147a7d00015aae5a","mixAttInfreqPrac","","","img/orange_2bandit_b2.png","68","img/orange_2bandit_b2.png","68","prac","","","8","","","","","","","","","","","","","","","","",""
"528.2999999523163","105037","SARL_v6","SARL_v6423bn18q","5d53bffa147a7d00015aae5a","infreqPrac_resp","","","img/orange_2bandit_b.png","68","img/blue_2bandit_b.png","68","prac","","","8","","","","","","","","","","","","","","","","",""
"null","105196","SARL_v6","SARL_v6423bn18q","5d53bffa147a7d00015aae5a","fixation","","","img/fixation.png","null","","","prac","","","","","","","","","","","","","","","","","","","",""
"376.2999999523163","105574","SARL_v6","SARL_v6423bn18q","5d53bffa147a7d00015aae5a","mixAttFreqPrac","","","img/blue_2bandit_b2.png","70","img/blue_2bandit_b2.png","70","prac","","","9","","","","","","","","","","","","","","","","",""
"376.2999999523163","106010","SARL_v6","SARL_v6423bn18q","5d53bffa147a7d00015aae5a","freqPrac_resp","","","img/blue_2bandit_b.png","70","img/blue_2bandit_b.png","70","prac","","","9","","","","","","","","","","","","","","","","",""
"null","106162","SARL_v6","SARL_v6423bn18q","5d53bffa147a7d00015aae5a","fixation","","","img/fixation.png","null","","","prac","","","","","","","","","","","","","","","","","","","",""
"361.7999999523163","106526","SARL_v6","SARL_v6423bn18q","5d53bffa147a7d00015aae5a","mixAttFreqPrac","","","img/blue_2bandit_b2.png","70","img/blue_2bandit_b2.png","70","prac","","","10","","","","","","","","","","","","","","","","",""
"361.7999999523163","106976","SARL_v6","SARL_v6423bn18q","5d53bffa147a7d00015aae5a","freqPrac_resp","","","img/blue_2bandit_b.png","70","img/blue_2bandit_b.png","70","prac","","","10","","","","","","","","","","","","","","","","",""
"null","107129","SARL_v6","SARL_v6423bn18q","5d53bffa147a7d00015aae5a","fixation","","","img/fixation.png","null","","","prac","","","","","","","","","","","","","","","","","","","",""
"307","107438","SARL_v6","SARL_v6423bn18q","5d53bffa147a7d00015aae5a","mixAttInfreqPrac","","","img/orange_2bandit_b2.png","68","img/orange_2bandit_b2.png","68","prac","","","11","","","","","","","","","","","","","","","","",""
"307","107939","SARL_v6","SARL_v6423bn18q","5d53bffa147a7d00015aae5a","infreqPrac_resp","","","img/orange_2bandit_b.png","68","img/blue_2bandit_b.png","68","prac","","","11","","","","","","","","","","","","","","","","",""
"null","108096","SARL_v6","SARL_v6423bn18q","5d53bffa147a7d00015aae5a","fixation","","","img/fixation.png","null","","","prac","","","","","","","","","","","","","","","","","","","",""
"348.40000009536743","108446","SARL_v6","SARL_v6423bn18q","5d53bffa147a7d00015aae5a","mixRLPractice","","","img/black_2bandit_b2.png","74","img/black_2bandit_b2.png","","prac","","","11","","","","","","","","","","","","","","","","",""
"null","109205","SARL_v6","SARL_v6423bn18q","5d53bffa147a7d00015aae5a","feedback","","","<div class=""veryhighPoints""> 5 </div>","null","","na","prac","","","12","5","-5","5","","","","","","","","","","","","","",""
"null","109362","SARL_v6","SARL_v6423bn18q","5d53bffa147a7d00015aae5a","fixation","","","img/fixation.png","null","","","prac","","","","","","","","","","","","","","","","","","","",""
"2938.2999999523163","112302","SARL_v6","SARL_v6423bn18q","5d53bffa147a7d00015aae5a","","","","","","","","prac","","","","","","","","","","","","","","","","","","","",""
"813.9000000953674","113118","SARL_v6","SARL_v6423bn18q","5d53bffa147a7d00015aae5a","freq","","","img/blue_2bandit_b2.png","70","","70","test","1","","1","","","","circle","square","1","1","1","1","","","","","","","",""
"null","113279","SARL_v6","SARL_v6423bn18q","5d53bffa147a7d00015aae5a","fixation","","","img/fixation.png","null","","","test","","","","","","","","","","","","","","","","","","","",""
"436.69999980926514","113718","SARL_v6","SARL_v6423bn18q","5d53bffa147a7d00015aae5a","freq","","","img/blue_2bandit_b2.png","70","","70","test","1","","2","","","","circle","square","2","2","1","1","","","","","","","",""
"null","114098","SARL_v6","SARL_v6423bn18q","5d53bffa147a7d00015aae5a","freq_resp","","","img/blue_2bandit_b.png","70","img/blue_2bandit_b.png","70","test","","","","","","","","","","","1","","","","","","","","",""
"null","114261","SARL_v6","SARL_v6423bn18q","5d53bffa147a7d00015aae5a","fixation","","","img/fixation.png","null","","","test","","","","","","","","","","","","","","","","","","","",""
"375.10000014305115","114638","SARL_v6","SARL_v6423bn18q","5d53bffa147a7d00015aae5a","freq","","","img/blue_2bandit_b2.png","70","","70","test","1","","3","","","","circle","square","3","3","1","1","","","","","","","",""
"null","115077","SARL_v6","SARL_v6423bn18q","5d53bffa147a7d00015aae5a","freq_resp","","","img/blue_2bandit_b.png","70","img/blue_2bandit_b.png","70","test","","","","","","","","","","","1","","","","","","","","",""
"null","115229","SARL_v6","SARL_v6423bn18q","5d53bffa147a7d00015aae5a","fixation","","","img/fixation.png","null","","","test","","","","","","","","","","","","","","","","","","","",""
"399","115630","SARL_v6","SARL_v6423bn18q","5d53bffa147a7d00015aae5a","freq","","","img/blue_2bandit_b2.png","70","","70","test","1","","4","","","","circle","square","4","4","1","1","","","","","","","",""
"null","116039","SARL_v6","SARL_v6423bn18q","5d53bffa147a7d00015aae5a","freq_resp","","","img/blue_2bandit_b.png","70","img/blue_2bandit_b.png","70","test","","","","","","","","","","","1","","","","","","","","",""
"null","116197","SARL_v6","SARL_v6423bn18q","5d53bffa147a7d00015aae5a","fixation","","","img/fixation.png","null","","","test","","","","","","","","","","","","","","","","","","","",""
"440.2999999523163","116639","SARL_v6","SARL_v6423bn18q","5d53bffa147a7d00015aae5a","freq","","","img/blue_2bandit_b2.png","70","","70","test","1","","5","","","","circle","square","5","5","1","1","","","","","","","",""
"null","117001","SARL_v6","SARL_v6423bn18q","5d53bffa147a7d00015aae5a","freq_resp","","","img/blue_2bandit_b.png","70","img/blue_2bandit_b.png","70","test","","","","","","","","","","","1","","","","","","","","",""
"null","117162","SARL_v6","SARL_v6423bn18q","5d53bffa147a7d00015aae5a","fixation","","","img/fixation.png","null","","","test","","","","","","","","","","","","","","","","","","","",""
"403","117567","SARL_v6","SARL_v6423bn18q","5d53bffa147a7d00015aae5a","freq","","","img/blue_2bandit_b2.png","70","","70","test","1","","6","","","","circle","square","6","6","1","1","","","","","","","",""
"null","117979","SARL_v6","SARL_v6423bn18q","5d53bffa147a7d00015aae5a","freq_resp","","","img/blue_2bandit_b.png","70","img/blue_2bandit_b.png","70","test","","","","","","","","","","","1","","","","","","","","",""
"null","118145","SARL_v6","SARL_v6423bn18q","5d53bffa147a7d00015aae5a","fixation","","","img/fixation.png","null","","","test","","","","","","","","","","","","","","","","","","","",""
"299.7000000476837","118447","SARL_v6","SARL_v6423bn18q","5d53bffa147a7d00015aae5a","freq","","","img/blue_2bandit_b2.png","70","","70","test","1","","7","","","","circle","square","7","7","1","1","","","","","","","",""
"null","118956","SARL_v6","SARL_v6423bn18q","5d53bffa147a7d00015aae5a","freq_resp","","","img/blue_2bandit_b.png","70","img/blue_2bandit_b.png","70","test","","","","","","","","","","","1","","","","","","","","",""
"null","119114","SARL_v6","SARL_v6423bn18q","5d53bffa147a7d00015aae5a","fixation","","","img/fixation.png","null","","","test","","","","","","","","","","","","","","","","","","","",""
"267.60000014305115","119383","SARL_v6","SARL_v6423bn18q","5d53bffa147a7d00015aae5a","freq","","","img/blue_2bandit_b2.png","68","","70","test","0","","8","","","","circle","square","8","8","1","0.875","","","","","","","",""
"null","119920","SARL_v6","SARL_v6423bn18q","5d53bffa147a7d00015aae5a","freq_resp","","","img/blue_2bandit_b.png","68","img/blue_2bandit_b.png","70","test","","","","","","","","","","","1","","","","","","","","",""
"null","120080","SARL_v6","SARL_v6423bn18q","5d53bffa147a7d00015aae5a","fixation","","","img/fixation.png","null","","","test","","","","","","","","","","","","","","","","","","","",""
"253","120335","SARL_v6","SARL_v6423bn18q","5d53bffa147a7d00015aae5a","freq","","","img/blue_2bandit_b2.png","70","","70","test","1","","9","","","","circle","square","9","9","1","0.8888888888888888","","","","","","","",""
"null","120887","SARL_v6","SARL_v6423bn18q","5d53bffa147a7d00015aae5a","freq_resp","","","img/blue_2bandit_b.png","70","img/blue_2bandit_b.png","70","test","","","","","","","","","","","1","","","","","","","","",""
"null","121047","SARL_v6","SARL_v6423bn18q","5d53bffa147a7d00015aae5a","fixation","","","img/fixation.png","null","","","test","","","","","","","","","","","","","","","","","","","",""
"182.5","121231","SARL_v6","SARL_v6423bn18q","5d53bffa147a7d00015aae5a","infreq","","","img/orange_2bandit_b2.png","70","","68","test","0","","10","","","","circle","square","10","10","1","0.8","","","","","","","",""
"null","121864","SARL_v6","SARL_v6423bn18q","5d53bffa147a7d00015aae5a","infreq_resp","","","img/orange_2bandit_b.png","70","img/orange_2bandit_b.png","68","test","","","","","","","","","","","1","","","","","","","","",""
"null","122029","SARL_v6","SARL_v6423bn18q","5d53bffa147a7d00015aae5a","fixation","","","img/fixation.png","null","","","test","","","","","","","","","","","","","","","","","","","",""
"544.4000000953674","122575","SARL_v6","SARL_v6423bn18q","5d53bffa147a7d00015aae5a","freq","","","img/blue_2bandit_b2.png","70","","70","test","1","","11","","","","circle","square","11","11","1","0.8181818181818182","","","","","","","",""
"null","122840","SARL_v6","SARL_v6423bn18q","5d53bffa147a7d00015aae5a","freq_resp","","","img/blue_2bandit_b.png","70","img/blue_2bandit_b.png","70","test","","","","","","","","","","","1","","","","","","","","",""
"null","122997","SARL_v6","SARL_v6423bn18q","5d53bffa147a7d00015aae5a","fixation","","","img/fixation.png","null","","","test","","","","","","","","","","","","","","","","","","","",""
"440.19999980926514","123439","SARL_v6","SARL_v6423bn18q","5d53bffa147a7d00015aae5a","freq","","","img/blue_2bandit_b2.png","70","","70","test","1","","12","","","","circle","square","12","12","1","0.8333333333333334","","","","","","","",""
"null","123816","SARL_v6","SARL_v6423bn18q","5d53bffa147a7d00015aae5a","freq_resp","","","img/blue_2bandit_b.png","70","img/blue_2bandit_b.png","70","test","","","","","","","","","","","1","","","","","","","","",""
"null","123979","SARL_v6","SARL_v6423bn18q","5d53bffa147a7d00015aae5a","fixation","","","img/fixation.png","null","","","test","","","","","","","","","","","","","","","","","","","",""
"322.40000009536743","124303","SARL_v6","SARL_v6423bn18q","5d53bffa147a7d00015aae5a","freq","","","img/blue_2bandit_b2.png","70","","70","test","1","","13","","","","circle","square","13","13","1","0.8461538461538461","","","","","","","",""
"null","124793","SARL_v6","SARL_v6423bn18q","5d53bffa147a7d00015aae5a","freq_resp","","","img/blue_2bandit_b.png","70","img/blue_2bandit_b.png","70","test","","","","","","","","","","","1","","","","","","","","",""
"null","124947","SARL_v6","SARL_v6423bn18q","5d53bffa147a7d00015aae5a","fixation","","","img/fixation.png","null","","","test","","","","","","","","","","","","","","","","","","","",""
"498.2999999523163","125447","SARL_v6","SARL_v6423bn18q","5d53bffa147a7d00015aae5a","infreq","","","img/orange_2bandit_b2.png","68","","68","test","1","","14","","","","circle","square","14","14","1","0.8571428571428571","","","","","","","",""
"null","125753","SARL_v6","SARL_v6423bn18q","5d53bffa147a7d00015aae5a","infreq_resp","","","img/orange_2bandit_b.png","68","img/orange_2bandit_b.png","68","test","","","","","","","","","","","1","","","","","","","","",""
"null","125915","SARL_v6","SARL_v6423bn18q","5d53bffa147a7d00015aae5a","fixation","","","img/fixation.png","null","","","test","","","","","","","","","","","","","","","","","","","",""
"442.5","126359","SARL_v6","SARL_v6423bn18q","5d53bffa147a7d00015aae5a","freq","","","img/blue_2bandit_b2.png","70","","70","test","1","","15","","","","circle","square","15","15","1","0.8666666666666667","","","","","","","",""
"null","126733","SARL_v6","SARL_v6423bn18q","5d53bffa147a7d00015aae5a","freq_resp","","","img/blue_2bandit_b.png","70","img/blue_2bandit_b.png","70","test","","","","","","","","","","","1","","","","","","","","",""
"null","126895","SARL_v6","SARL_v6423bn18q","5d53bffa147a7d00015aae5a","fixation","","","img/fixation.png","null","","","test","","","","","","","","","","","","","","","","","","","",""
"325.7000000476837","127223","SARL_v6","SARL_v6423bn18q","5d53bffa147a7d00015aae5a","freq","","","img/blue_2bandit_b2.png","70","","70","test","1","","16","","","","circle","square","16","16","1","0.875","","","","","","","",""
"null","127708","SARL_v6","SARL_v6423bn18q","5d53bffa147a7d00015aae5a","freq_resp","","","img/blue_2bandit_b.png","70","img/blue_2bandit_b.png","70","test","","","","","","","","","","","1","","","","","","","","",""
"null","127864","SARL_v6","SARL_v6423bn18q","5d53bffa147a7d00015aae5a","fixation","","","img/fixation.png","null","","","test","","","","","","","","","","","","","","","","","","","",""
"429.60000014305115","128295","SARL_v6","SARL_v6423bn18q","5d53bffa147a7d00015aae5a","freq","","","img/blue_2bandit_b2.png","70","","70","test","1","","17","","","","circle","square","17","17","1","0.8823529411764706","","","","","","","",""
"null","128681","SARL_v6","SARL_v6423bn18q","5d53bffa147a7d00015aae5a","freq_resp","","","img/blue_2bandit_b.png","70","img/blue_2bandit_b.png","70","test","","","","","","","","","","","1","","","","","","","","",""
"null","128845","SARL_v6","SARL_v6423bn18q","5d53bffa147a7d00015aae5a","fixation","","","img/fixation.png","null","","","test","","","","","","","","","","","","","","","","","","","",""
"391.69999980926514","129239","SARL_v6","SARL_v6423bn18q","5d53bffa147a7d00015aae5a","freq","","","img/blue_2bandit_b2.png","70","","70","test","1","","18","","","","circle","square","18","18","1","0.8888888888888888","","","","","","","",""
"null","129662","SARL_v6","SARL_v6423bn18q","5d53bffa147a7d00015aae5a","freq_resp","","","img/blue_2bandit_b.png","70","img/blue_2bandit_b.png","70","test","","","","","","","","","","","1","","","","","","","","",""
"null","129829","SARL_v6","SARL_v6423bn18q","5d53bffa147a7d00015aae5a","fixation","","","img/fixation.png","null","","","test","","","","","","","","","","","","","","","","","","","",""
"408.19999980926514","130239","SARL_v6","SARL_v6423bn18q","5d53bffa147a7d00015aae5a","freq","","","img/blue_2bandit_b2.png","70","","70","test","1","","19","","","","circle","square","19","19","1","0.8947368421052632","","","","","","","",""
"null","130641","SARL_v6","SARL_v6423bn18q","5d53bffa147a7d00015aae5a","freq_resp","","","img/blue_2bandit_b.png","70","img/blue_2bandit_b.png","70","test","","","","","","","","","","","1","","","","","","","","",""
"null","130797","SARL_v6","SARL_v6423bn18q","5d53bffa147a7d00015aae5a","fixation","","","img/fixation.png","null","","","test","","","","","","","","","","","","","","","","","","","",""
"328.40000009536743","131127","SARL_v6","SARL_v6423bn18q","5d53bffa147a7d00015aae5a","freq","","","img/blue_2bandit_b2.png","70","","70","test","1","","20","","","","circle","square","20","20","1","0.9","","","","","","","",""
"null","131609","SARL_v6","SARL_v6423bn18q","5d53bffa147a7d00015aae5a","freq_resp","","","img/blue_2bandit_b.png","70","img/blue_2bandit_b.png","70","test","","","","","","","","","","","1","","","","","","","","",""
"null","131764","SARL_v6","SARL_v6423bn18q","5d53bffa147a7d00015aae5a","fixation","","","img/fixation.png","null","","","test","","","","","","","","","","","","","","","","","","","",""
"393.59999990463257","132159","SARL_v6","SARL_v6423bn18q","5d53bffa147a7d00015aae5a","freq","","","img/blue_2bandit_b2.png","70","","70","test","1","","21","","","","circle","square","21","21","1","0.9047619047619048","","","","","","","",""
"null","132580","SARL_v6","SARL_v6423bn18q","5d53bffa147a7d00015aae5a","freq_resp","","","img/blue_2bandit_b.png","70","img/blue_2bandit_b.png","70","test","","","","","","","","","","","1","","","","","","","","",""
"null","132745","SARL_v6","SARL_v6423bn18q","5d53bffa147a7d00015aae5a","fixation","","","img/fixation.png","null","","","test","","","","","","","","","","","","","","","","","","","",""
"483.7999999523163","133231","SARL_v6","SARL_v6423bn18q","5d53bffa147a7d00015aae5a","freq","","","img/blue_2bandit_b2.png","70","","70","test","1","","22","","","","circle","square","22","22","1","0.9090909090909091","","","","","","","",""
"null","133552","SARL_v6","SARL_v6423bn18q","5d53bffa147a7d00015aae5a","freq_resp","","","img/blue_2bandit_b.png","70","img/blue_2bandit_b.png","70","test","","","","","","","","","","","1","","","","","","","","",""
"null","133714","SARL_v6","SARL_v6423bn18q","5d53bffa147a7d00015aae5a","fixation","","","img/fixation.png","null","","","test","","","","","","","","","","","","","","","","","","","",""
"651.5","134367","SARL_v6","SARL_v6423bn18q","5d53bffa147a7d00015aae5a","rl","","","img/black_2bandit_b2.png","75","","0","test","","","23","","","-3","circle","square","","0","1","","75","-3","-3","-3","-3","square","1","0"
"null","135122","SARL_v6","SARL_v6423bn18q","5d53bffa147a7d00015aae5a","feedback","","","<div class=""verylowPoints_sq""> -3 </div>","null","","na","test","","","NaN","","","","","","","","1","","75","","","","","","1",""
"null","135936","SARL_v6","SARL_v6423bn18q","5d53bffa147a7d00015aae5a","freq","","","img/blue_2bandit_b2.png","null","","70","test","0","","24","","","","circle","square","23","1","2","0.8695652173913043","","","","","","","",""
"null","136098","SARL_v6","SARL_v6423bn18q","5d53bffa147a7d00015aae5a","fixation","","","img/fixation.png","null","","","test","","","","","","","","","","","","","","","","","","","",""
"115.19999980926514","136215","SARL_v6","SARL_v6423bn18q","5d53bffa147a7d00015aae5a","freq","","","img/blue_2bandit_b2.png","70","","70","test","1","","25","","","","circle","square","24","2","2","0.875","","","","","","","",""
"null","136910","SARL_v6","SARL_v6423bn18q","5d53bffa147a7d00015aae5a","freq_resp","","","img/blue_2bandit_b.png","70","img/blue_2bandit_b.png","70","test","","","","","","","","","","","2","","","","","","","","",""
"null","137064","SARL_v6","SARL_v6423bn18q","5d53bffa147a7d00015aae5a","fixation","","","img/fixation.png","null","","","test","","","","","","","","","","","","","","","","","","","",""
"717.6000001430511","137783","SARL_v6","SARL_v6423bn18q","5d53bffa147a7d00015aae5a","infreq","","","img/orange_2bandit_b2.png","68","","68","test","1","","26","","","","circle","square","25","3","2","0.88","","","","","","","",""
"null","137867","SARL_v6","SARL_v6423bn18q","5d53bffa147a7d00015aae5a","infreq_resp","","","img/orange_2bandit_b.png","68","img/orange_2bandit_b.png","68","test","","","","","","","","","","","2","","","","","","","","",""
"null","138029","SARL_v6","SARL_v6423bn18q","5d53bffa147a7d00015aae5a","fixation","","","img/fixation.png","null","","","test","","","","","","","","","","","","","","","","","","","",""
"416.2999999523163","138447","SARL_v6","SARL_v6423bn18q","5d53bffa147a7d00015aae5a","freq","","","img/blue_2bandit_b2.png","70","","70","test","1","","27","","","","circle","square","26","4","2","0.8846153846153846","","","","","","","",""
"null","138846","SARL_v6","SARL_v6423bn18q","5d53bffa147a7d00015aae5a","freq_resp","","","img/blue_2bandit_b.png","70","img/blue_2bandit_b.png","70","test","","","","","","","","","","","2","","","","","","","","",""
"null","139012","SARL_v6","SARL_v6423bn18q","5d53bffa147a7d00015aae5a","fixation","","","img/fixation.png","null","","","test","","","","","","","","","","","","","","","","","","","",""
"441.10000014305115","139455","SARL_v6","SARL_v6423bn18q","5d53bffa147a7d00015aae5a","freq","","","img/blue_2bandit_b2.png","70","","70","test","1","","28","","","","circle","square","27","5","2","0.8888888888888888","","","","","","","",""
"null","139818","SARL_v6","SARL_v6423bn18q","5d53bffa147a7d00015aae5a","freq_resp","","","img/blue_2bandit_b.png","70","img/blue_2bandit_b.png","70","test","","","","","","","","","","","2","","","","","","","","",""
"null","139979","SARL_v6","SARL_v6423bn18q","5d53bffa147a7d00015aae5a","fixation","","","img/fixation.png","null","","","test","","","","","","","","","","","","","","","","","","","",""
"418.19999980926514","140399","SARL_v6","SARL_v6423bn18q","5d53bffa147a7d00015aae5a","freq","","","img/blue_2bandit_b2.png","70","","70","test","1","","29","","","","circle","square","28","6","2","0.8928571428571429","","","","","","","",""
"null","140796","SARL_v6","SARL_v6423bn18q","5d53bffa147a7d00015aae5a","freq_resp","","","img/blue_2bandit_b.png","70","img/blue_2bandit_b.png","70","test","","","","","","","","","","","2","","","","","","","","",""
"null","140962","SARL_v6","SARL_v6423bn18q","5d53bffa147a7d00015aae5a","fixation","","","img/fixation.png","null","","","test","","","","","","","","","","","","","","","","","","","",""
"299","141263","SARL_v6","SARL_v6423bn18q","5d53bffa147a7d00015aae5a","freq","","","img/blue_2bandit_b2.png","70","","70","test","1","","30","","","","circle","square","29","7","2","0.896551724137931","","","","","","","",""
"null","141772","SARL_v6","SARL_v6423bn18q","5d53bffa147a7d00015aae5a","freq_resp","","","img/blue_2bandit_b.png","70","img/blue_2bandit_b.png","70","test","","","","","","","","","","","2","","","","","","","","",""
"null","141930","SARL_v6","SARL_v6423bn18q","5d53bffa147a7d00015aae5a","fixation","","","img/fixation.png","null","","","test","","","","","","","","","","","","","","","","","","","",""
"379","142311","SARL_v6","SARL_v6423bn18q","5d53bffa147a7d00015aae5a","infreq","","","img/orange_2bandit_b2.png","68","","68","test","1","","31","","","","circle","square","30","8","2","0.9","","","","","","","",""
"null","142745","SARL_v6","SARL_v6423bn18q","5d53bffa147a7d00015aae5a","infreq_resp","","","img/orange_2bandit_b.png","68","img/orange_2bandit_b.png","68","test","","","","","","","","","","","2","","","","","","","","",""
"null","142897","SARL_v6","SARL_v6423bn18q","5d53bffa147a7d00015aae5a","fixation","","","img/fixation.png","null","","","test","","","","","","","","","","","","","","","","","","","",""
"419.90000009536743","143319","SARL_v6","SARL_v6423bn18q","5d53bffa147a7d00015aae5a","freq","","","img/blue_2bandit_b2.png","70","","70","test","1","","32","","","","circle","square","31","9","2","0.9032258064516129","","","","","","","",""
"null","143715","SARL_v6","SARL_v6423bn18q","5d53bffa147a7d00015aae5a","freq_resp","","","img/blue_2bandit_b.png","70","img/blue_2bandit_b.png","70","test","","","","","","","","","","","2","","","","","","","","",""
"null","143879","SARL_v6","SARL_v6423bn18q","5d53bffa147a7d00015aae5a","fixation","","","img/fixation.png","null","","","test","","","","","","","","","","","","","","","","","","","",""
"333.7999999523163","144215","SARL_v6","SARL_v6423bn18q","5d53bffa147a7d00015aae5a","freq","","","img/blue_2bandit_b2.png","70","","70","test","1","","33","","","","circle","square","32","10","2","0.90625","","","","","","","",""
"null","144691","SARL_v6","SARL_v6423bn18q","5d53bffa147a7d00015aae5a","freq_resp","","","img/blue_2bandit_b.png","70","img/blue_2bandit_b.png","70","test","","","","","","","","","","","2","","","","","","","","",""
"null","144847","SARL_v6","SARL_v6423bn18q","5d53bffa147a7d00015aae5a","fixation","","","img/fixation.png","null","","","test","","","","","","","","","","","","","","","","","","","",""
"310.2999999523163","145159","SARL_v6","SARL_v6423bn18q","5d53bffa147a7d00015aae5a","freq","","","img/blue_2bandit_b2.png","70","","70","test","1","","34","","","","circle","square","33","11","2","0.9090909090909091","","","","","","","",""
"null","145657","SARL_v6","SARL_v6423bn18q","5d53bffa147a7d00015aae5a","freq_resp","","","img/blue_2bandit_b.png","70","img/blue_2bandit_b.png","70","test","","","","","","","","","","","2","","","","","","","","",""
"null","145813","SARL_v6","SARL_v6423bn18q","5d53bffa147a7d00015aae5a","fixation","","","img/fixation.png","null","","","test","","","","","","","","","","","","","","","","","","","",""
"335.7000000476837","146151","SARL_v6","SARL_v6423bn18q","5d53bffa147a7d00015aae5a","freq","","","img/blue_2bandit_b2.png","70","","70","test","1","","35","","","","circle","square","34","12","2","0.9117647058823529","","","","","","","",""
"null","146622","SARL_v6","SARL_v6423bn18q","5d53bffa147a7d00015aae5a","freq_resp","","","img/blue_2bandit_b.png","70","img/blue_2bandit_b.png","70","test","","","","","","","","","","","2","","","","","","","","",""
"null","146781","SARL_v6","SARL_v6423bn18q","5d53bffa147a7d00015aae5a","fixation","","","img/fixation.png","null","","","test","","","","","","","","","","","","","","","","","","","",""
"431.7999999523163","147215","SARL_v6","SARL_v6423bn18q","5d53bffa147a7d00015aae5a","freq","","","img/blue_2bandit_b2.png","70","","70","test","1","","36","","","","circle","square","35","13","2","0.9142857142857143","","","","","","","",""
"null","147598","SARL_v6","SARL_v6423bn18q","5d53bffa147a7d00015aae5a","freq_resp","","","img/blue_2bandit_b.png","70","img/blue_2bandit_b.png","70","test","","","","","","","","","","","2","","","","","","","","",""
"null","147762","SARL_v6","SARL_v6423bn18q","5d53bffa147a7d00015aae5a","fixation","","","img/fixation.png","null","","","test","","","","","","","","","","","","","","","","","","","",""
"355","148119","SARL_v6","SARL_v6423bn18q","5d53bffa147a7d00015aae5a","freq","","","img/blue_2bandit_b2.png","70","","70","test","1","","37","","","","circle","square","36","14","2","0.9166666666666666","","","","","","","",""
"null","148577","SARL_v6","SARL_v6423bn18q","5d53bffa147a7d00015aae5a","freq_resp","","","img/blue_2bandit_b.png","70","img/blue_2bandit_b.png","70","test","","","","","","","","","","","2","","","","","","","","",""
"null","148730","SARL_v6","SARL_v6423bn18q","5d53bffa147a7d00015aae5a","fixation","","","img/fixation.png","null","","","test","","","","","","","","","","","","","","","","","","","",""
"482.89999985694885","149215","SARL_v6","SARL_v6423bn18q","5d53bffa147a7d00015aae5a","freq","","","img/blue_2bandit_b2.png","70","","70","test","1","","38","","","","circle","square","37","15","2","0.918918918918919","","","","","","","",""
"null","149535","SARL_v6","SARL_v6423bn18q","5d53bffa147a7d00015aae5a","freq_resp","","","img/blue_2bandit_b.png","70","img/blue_2bandit_b.png","70","test","","","","","","","","","","","2","","","","","","","","",""
"null","149697","SARL_v6","SARL_v6423bn18q","5d53bffa147a7d00015aae5a","fixation","","","img/fixation.png","null","","","test","","","","","","","","","","","","","","","","","","","",""
"492.2000000476837","150191","SARL_v6","SARL_v6423bn18q","5d53bffa147a7d00015aae5a","freq","","","img/blue_2bandit_b2.png","70","","70","test","1","","39","","","","circle","square","38","16","2","0.9210526315789473","","","","","","","",""
"null","150503","SARL_v6","SARL_v6423bn18q","5d53bffa147a7d00015aae5a","freq_resp","","","img/blue_2bandit_b.png","70","img/blue_2bandit_b.png","70","test","","","","","","","","","","","2","","","","","","","","",""
"null","150665","SARL_v6","SARL_v6423bn18q","5d53bffa147a7d00015aae5a","fixation","","","img/fixation.png","null","","","test","","","","","","","","","","","","","","","","","","","",""
"380.59999990463257","151047","SARL_v6","SARL_v6423bn18q","5d53bffa147a7d00015aae5a","freq","","","img/blue_2bandit_b2.png","70","","70","test","1","","40","","","","circle","square","39","17","2","0.9230769230769231","","","","","","","",""
"null","151478","SARL_v6","SARL_v6423bn18q","5d53bffa147a7d00015aae5a","freq_resp","","","img/blue_2bandit_b.png","70","img/blue_2bandit_b.png","70","test","","","","","","","","","","","2","","","","","","","","",""
"null","151630","SARL_v6","SARL_v6423bn18q","5d53bffa147a7d00015aae5a","fixation","","","img/fixation.png","null","","","test","","","","","","","","","","","","","","","","","","","",""
"342.7999999523163","151975","SARL_v6","SARL_v6423bn18q","5d53bffa147a7d00015aae5a","freq","","","img/blue_2bandit_b2.png","70","","70","test","1","","41","","","","circle","square","40","18","2","0.925","","","","","","","",""
"null","152443","SARL_v6","SARL_v6423bn18q","5d53bffa147a7d00015aae5a","freq_resp","","","img/blue_2bandit_b.png","70","img/blue_2bandit_b.png","70","test","","","","","","","","","","","2","","","","","","","","",""
"null","152597","SARL_v6","SARL_v6423bn18q","5d53bffa147a7d00015aae5a","fixation","","","img/fixation.png","null","","","test","","","","","","","","","","","","","","","","","","","",""
"440","153039","SARL_v6","SARL_v6423bn18q","5d53bffa147a7d00015aae5a","freq","","","img/blue_2bandit_b2.png","70","","70","test","1","","42","","","","circle","square","41","19","2","0.926829268292683","","","","","","","",""
"null","153416","SARL_v6","SARL_v6423bn18q","5d53bffa147a7d00015aae5a","freq_resp","","","img/blue_2bandit_b.png","70","img/blue_2bandit_b.png","70","test","","","","","","","","","","","2","","","","","","","","",""
"null","153579","SARL_v6","SARL_v6423bn18q","5d53bffa147a7d00015aae5a","fixation","","","img/fixation.png","null","","","test","","","","","","","","","","","","","","","","","","","",""
"362.2999999523163","153943","SARL_v6","SARL_v6423bn18q","5d53bffa147a7d00015aae5a","freq","","","img/blue_2bandit_b2.png","70","","70","test","1","","43","","","","circle","square","42","20","2","0.9285714285714286","","","","","","","",""
"null","154394","SARL_v6","SARL_v6423bn18q","5d53bffa147a7d00015aae5a","freq_resp","","","img/blue_2bandit_b.png","70","img/blue_2bandit_b.png","70","test","","","","","","","","","","","2","","","","","","","","",""
"null","154547","SARL_v6","SARL_v6423bn18q","5d53bffa147a7d00015aae5a","fixation","","","img/fixation.png","null","","","test","","","","","","","","","","","","","","","","","","","",""
"426.19999980926514","154975","SARL_v6","SARL_v6423bn18q","5d53bffa147a7d00015aae5a","freq","","","img/blue_2bandit_b2.png","70","","70","test","1","","44","","","","circle","square","43","21","2","0.9302325581395349","","","","","","","",""
"null","155364","SARL_v6","SARL_v6423bn18q","5d53bffa147a7d00015aae5a","freq_resp","","","img/blue_2bandit_b.png","70","img/blue_2bandit_b.png","70","test","","","","","","","","","","","2","","","","","","","","",""
"null","155529","SARL_v6","SARL_v6423bn18q","5d53bffa147a7d00015aae5a","fixation","","","img/fixation.png","null","","","test","","","","","","","","","","","","","","","","","","","",""
"604.1999998092651","156135","SARL_v6","SARL_v6423bn18q","5d53bffa147a7d00015aae5a","rl","","","img/black_2bandit_b2.png","75","","0","test","","","45","","","-5","circle","square","","0","2","","75","-8","-5","-8","-5","square","2","0"
"null","156891","SARL_v6","SARL_v6423bn18q","5d53bffa147a7d00015aae5a","feedback","","","<div class=""verylowPoints_sq""> -5 </div>","null","","na","test","","","NaN","","","","","","","","2","","75","","","","","","2",""
"null","157701","SARL_v6","SARL_v6423bn18q","5d53bffa147a7d00015aae5a","freq","","","img/blue_2bandit_b2.png","null","","70","test","0","","46","","","","circle","square","44","1","3","0.9090909090909091","","","","","","","",""
"null","157862","SARL_v6","SARL_v6423bn18q","5d53bffa147a7d00015aae5a","fixation","","","img/fixation.png","null","","","test","","","","","","","","","","","","","","","","","","","",""
"479.10000014305115","158343","SARL_v6","SARL_v6423bn18q","5d53bffa147a7d00015aae5a","freq","","","img/blue_2bandit_b2.png","70","","70","test","1","","47","","","","circle","square","45","2","3","0.9111111111111111","","","","","","","",""
"null","158669","SARL_v6","SARL_v6423bn18q","5d53bffa147a7d00015aae5a","freq_resp","","","img/blue_2bandit_b.png","70","img/blue_2bandit_b.png","70","test","","","","","","","","","","","3","","","","","","","","",""
"null","158830","SARL_v6","SARL_v6423bn18q","5d53bffa147a7d00015aae5a","fixation","","","img/fixation.png","null","","","test","","","","","","","","","","","","","","","","","","","",""
"286.89999985694885","159119","SARL_v6","SARL_v6423bn18q","5d53bffa147a7d00015aae5a","freq","","","img/blue_2bandit_b2.png","70","","70","test","1","","48","","","","circle","square","46","3","3","0.9130434782608695","","","","","","","",""
"null","159639","SARL_v6","SARL_v6423bn18q","5d53bffa147a7d00015aae5a","freq_resp","","","img/blue_2bandit_b.png","70","img/blue_2bandit_b.png","70","test","","","","","","","","","","","3","","","","","","","","",""
"null","159797","SARL_v6","SARL_v6423bn18q","5d53bffa147a7d00015aae5a","fixation","","","img/fixation.png","null","","","test","","","","","","","","","","","","","","","","","","","",""
"128.09999990463257","159927","SARL_v6","SARL_v6423bn18q","5d53bffa147a7d00015aae5a","freq","","","img/blue_2bandit_b2.png","70","","70","test","1","","49","","","","circle","square","47","4","3","0.9148936170212766","","","","","","","",""
"null","160612","SARL_v6","SARL_v6423bn18q","5d53bffa147a7d00015aae5a","freq_resp","","","img/blue_2bandit_b.png","70","img/blue_2bandit_b.png","70","test","","","","","","","","","","","3","","","","","","","","",""
"null","160765","SARL_v6","SARL_v6423bn18q","5d53bffa147a7d00015aae5a","fixation","","","img/fixation.png","null","","","test","","","","","","","","","","","","","","","","","","","",""
"111.69999980926514","160879","SARL_v6","SARL_v6423bn18q","5d53bffa147a7d00015aae5a","freq","","","img/blue_2bandit_b2.png","70","","70","test","1","","50","","","","circle","square","48","5","3","0.9166666666666666","","","","","","","",""
"null","161577","SARL_v6","SARL_v6423bn18q","5d53bffa147a7d00015aae5a","freq_resp","","","img/blue_2bandit_b.png","70","img/blue_2bandit_b.png","70","test","","","","","","","","","","","3","","","","","","","","",""
"null","161730","SARL_v6","SARL_v6423bn18q","5d53bffa147a7d00015aae5a","fixation","","","img/fixation.png","null","","","test","","","","","","","","","","","","","","","","","","","",""
"146.89999985694885","161879","SARL_v6","SARL_v6423bn18q","5d53bffa147a7d00015aae5a","freq","","","img/blue_2bandit_b2.png","70","","70","test","1","","51","","","","circle","square","49","6","3","0.9183673469387755","","","","","","","",""
"null","162545","SARL_v6","SARL_v6423bn18q","5d53bffa147a7d00015aae5a","freq_resp","","","img/blue_2bandit_b.png","70","img/blue_2bandit_b.png","70","test","","","","","","","","","","","3","","","","","","","","",""
"null","162712","SARL_v6","SARL_v6423bn18q","5d53bffa147a7d00015aae5a","fixation","","","img/fixation.png","null","","","test","","","","","","","","","","","","","","","","","","","",""
"116.69999980926514","162831","SARL_v6","SARL_v6423bn18q","5d53bffa147a7d00015aae5a","freq","","","img/blue_2bandit_b2.png","70","","70","test","1","","52","","","","circle","square","50","7","3","0.92","","","","","","","",""
"null","163526","SARL_v6","SARL_v6423bn18q","5d53bffa147a7d00015aae5a","freq_resp","","","img/blue_2bandit_b.png","70","img/blue_2bandit_b.png","70","test","","","","","","","","","","","3","","","","","","","","",""
"null","163680","SARL_v6","SARL_v6423bn18q","5d53bffa147a7d00015aae5a","fixation","","","img/fixation.png","null","","","test","","","","","","","","","","","","","","","","","","","",""
"116.89999985694885","163799","SARL_v6","SARL_v6423bn18q","5d53bffa147a7d00015aae5a","freq","","","img/blue_2bandit_b2.png","70","","70","test","1","","53","","","","circle","square","51","8","3","0.9215686274509803","","","","","","","",""
"null","164493","SARL_v6","SARL_v6423bn18q","5d53bffa147a7d00015aae5a","freq_resp","","","img/blue_2bandit_b.png","70","img/blue_2bandit_b.png","70","test","","","","","","","","","","","3","","","","","","","","",""
"null","164647","SARL_v6","SARL_v6423bn18q","5d53bffa147a7d00015aae5a","fixation","","","img/fixation.png","null","","","test","","","","","","","","","","","","","","","","","","","",""
"102.19999980926514","164751","SARL_v6","SARL_v6423bn18q","5d53bffa147a7d00015aae5a","freq","","","img/blue_2bandit_b2.png","70","","70","test","1","","54","","","","circle","square","52","9","3","0.9230769230769231","","","","","","","",""
"null","165459","SARL_v6","SARL_v6423bn18q","5d53bffa147a7d00015aae5a","freq_resp","","","img/blue_2bandit_b.png","70","img/blue_2bandit_b.png","70","test","","","","","","","","","","","3","","","","","","","","",""
"null","165614","SARL_v6","SARL_v6423bn18q","5d53bffa147a7d00015aae5a","fixation","","","img/fixation.png","null","","","test","","","","","","","","","","","","","","","","","","","",""
"287.59999990463257","165903","SARL_v6","SARL_v6423bn18q","5d53bffa147a7d00015aae5a","freq","","","img/blue_2bandit_b2.png","70","","70","test","1","","55","","","","circle","square","53","10","3","0.9245283018867925","","","","","","","",""
"null","166424","SARL_v6","SARL_v6423bn18q","5d53bffa147a7d00015aae5a","freq_resp","","","img/blue_2bandit_b.png","70","img/blue_2bandit_b.png","70","test","","","","","","","","","","","3","","","","","","","","",""
"null","166580","SARL_v6","SARL_v6423bn18q","5d53bffa147a7d00015aae5a","fixation","","","img/fixation.png","null","","","test","","","","","","","","","","","","","","","","","","","",""
"168.89999985694885","166751","SARL_v6","SARL_v6423bn18q","5d53bffa147a7d00015aae5a","freq","","","img/blue_2bandit_b2.png","70","","70","test","1","","56","","","","circle","square","54","11","3","0.9259259259259259","","","","","","","",""
"null","167396","SARL_v6","SARL_v6423bn18q","5d53bffa147a7d00015aae5a","freq_resp","","","img/blue_2bandit_b.png","70","img/blue_2bandit_b.png","70","test","","","","","","","","","","","3","","","","","","","","",""
"null","167562","SARL_v6","SARL_v6423bn18q","5d53bffa147a7d00015aae5a","fixation","","","img/fixation.png","null","","","test","","","","","","","","","","","","","","","","","","","",""
"267","167831","SARL_v6","SARL_v6423bn18q","5d53bffa147a7d00015aae5a","freq","","","img/blue_2bandit_b2.png","70","","70","test","1","","57","","","","circle","square","55","12","3","0.9272727272727272","","","","","","","",""
"null","168370","SARL_v6","SARL_v6423bn18q","5d53bffa147a7d00015aae5a","freq_resp","","","img/blue_2bandit_b.png","70","img/blue_2bandit_b.png","70","test","","","","","","","","","","","3","","","","","","","","",""
"null","168530","SARL_v6","SARL_v6423bn18q","5d53bffa147a7d00015aae5a","fixation","","","img/fixation.png","null","","","test","","","","","","","","","","","","","","","","","","","",""
"259","168791","SARL_v6","SARL_v6423bn18q","5d53bffa147a7d00015aae5a","freq","","","img/blue_2bandit_b2.png","70","","70","test","1","","58","","","","circle","square","56","13","3","0.9285714285714286","","","","","","","",""
"null","169337","SARL_v6","SARL_v6423bn18q","5d53bffa147a7d00015aae5a","freq_resp","","","img/blue_2bandit_b.png","70","img/blue_2bandit_b.png","70","test","","","","","","","","","","","3","","","","","","","","",""
"null","169497","SARL_v6","SARL_v6423bn18q","5d53bffa147a7d00015aae5a","fixation","","","img/fixation.png","null","","","test","","","","","","","","","","","","","","","","","","","",""
"124.29999995231628","169623","SARL_v6","SARL_v6423bn18q","5d53bffa147a7d00015aae5a","infreq","","","img/orange_2bandit_b2.png","70","","68","test","0","","59","","","","circle","square","57","14","3","0.9122807017543859","","","","","","","",""
"null","170311","SARL_v6","SARL_v6423bn18q","5d53bffa147a7d00015aae5a","infreq_resp","","","img/orange_2bandit_b.png","70","img/orange_2bandit_b.png","68","test","","","","","","","","","","","3","","","","","","","","",""
"null","170479","SARL_v6","SARL_v6423bn18q","5d53bffa147a7d00015aae5a","fixation","","","img/fixation.png","null","","","test","","","","","","","","","","","","","","","","","","","",""
"397.69999980926514","170879","SARL_v6","SARL_v6423bn18q","5d53bffa147a7d00015aae5a","freq","","","img/blue_2bandit_b2.png","70","","70","test","1","","60","","","","circle","square","58","15","3","0.9137931034482759","","","","","","","",""
"null","171296","SARL_v6","SARL_v6423bn18q","5d53bffa147a7d00015aae5a","freq_resp","","","img/blue_2bandit_b.png","70","img/blue_2bandit_b.png","70","test","","","","","","","","","","","3","","","","","","","","",""
"null","171462","SARL_v6","SARL_v6423bn18q","5d53bffa147a7d00015aae5a","fixation","","","img/fixation.png","null","","","test","","","","","","","","","","","","","","","","","","","",""
"286.89999985694885","171751","SARL_v6","SARL_v6423bn18q","5d53bffa147a7d00015aae5a","freq","","","img/blue_2bandit_b2.png","70","","70","test","1","","61","","","","circle","square","59","16","3","0.9152542372881356","","","","","","","",""
"null","172280","SARL_v6","SARL_v6423bn18q","5d53bffa147a7d00015aae5a","freq_resp","","","img/blue_2bandit_b.png","70","img/blue_2bandit_b.png","70","test","","","","","","","","","","","3","","","","","","","","",""
"null","172445","SARL_v6","SARL_v6423bn18q","5d53bffa147a7d00015aae5a","fixation","","","img/fixation.png","null","","","test","","","","","","","","","","","","","","","","","","","",""
"199.59999990463257","172647","SARL_v6","SARL_v6423bn18q","5d53bffa147a7d00015aae5a","freq","","","img/blue_2bandit_b2.png","70","","70","test","1","","62","","","","circle","square","60","17","3","0.9166666666666666","","","","","","","",""
"null","173250","SARL_v6","SARL_v6423bn18q","5d53bffa147a7d00015aae5a","freq_resp","","","img/blue_2bandit_b.png","70","img/blue_2bandit_b.png","70","test","","","","","","","","","","","3","","","","","","","","",""
"null","173412","SARL_v6","SARL_v6423bn18q","5d53bffa147a7d00015aae5a","fixation","","","img/fixation.png","null","","","test","","","","","","","","","","","","","","","","","","","",""
"328.89999985694885","173743","SARL_v6","SARL_v6423bn18q","5d53bffa147a7d00015aae5a","freq","","","img/blue_2bandit_b2.png","70","","70","test","1","","63","","","","circle","square","61","18","3","0.9180327868852459","","","","","","","",""
"null","174225","SARL_v6","SARL_v6423bn18q","5d53bffa147a7d00015aae5a","freq_resp","","","img/blue_2bandit_b.png","70","img/blue_2bandit_b.png","70","test","","","","","","","","","","","3","","","","","","","","",""
"null","174380","SARL_v6","SARL_v6423bn18q","5d53bffa147a7d00015aae5a","fixation","","","img/fixation.png","null","","","test","","","","","","","","","","","","","","","","","","","",""
"272.89999985694885","174655","SARL_v6","SARL_v6423bn18q","5d53bffa147a7d00015aae5a","freq","","","img/blue_2bandit_b2.png","70","","70","test","1","","64","","","","circle","square","62","19","3","0.9193548387096774","","","","","","","",""
"null","175189","SARL_v6","SARL_v6423bn18q","5d53bffa147a7d00015aae5a","freq_resp","","","img/blue_2bandit_b.png","70","img/blue_2bandit_b.png","70","test","","","","","","","","","","","3","","","","","","","","",""
"null","175347","SARL_v6","SARL_v6423bn18q","5d53bffa147a7d00015aae5a","fixation","","","img/fixation.png","null","","","test","","","","","","","","","","","","","","","","","","","",""
"258.19999980926514","175607","SARL_v6","SARL_v6423bn18q","5d53bffa147a7d00015aae5a","freq","","","img/blue_2bandit_b2.png","70","","70","test","1","","65","","","","circle","square","63","20","3","0.9206349206349206","","","","","","","",""
"null","176154","SARL_v6","SARL_v6423bn18q","5d53bffa147a7d00015aae5a","freq_resp","","","img/blue_2bandit_b.png","70","img/blue_2bandit_b.png","70","test","","","","","","","","","","","3","","","","","","","","",""
"null","176314","SARL_v6","SARL_v6423bn18q","5d53bffa147a7d00015aae5a","fixation","","","img/fixation.png","null","","","test","","","","","","","","","","","","","","","","","","","",""
"267.5","176584","SARL_v6","SARL_v6423bn18q","5d53bffa147a7d00015aae5a","infreq","","","img/orange_2bandit_b2.png","70","","68","test","0","","66","","","","circle","square","64","21","3","0.90625","","","","","","","",""
"null","177121","SARL_v6","SARL_v6423bn18q","5d53bffa147a7d00015aae5a","infreq_resp","","","img/orange_2bandit_b.png","70","img/orange_2bandit_b.png","68","test","","","","","","","","","","","3","","","","","","","","",""
"null","177281","SARL_v6","SARL_v6423bn18q","5d53bffa147a7d00015aae5a","fixation","","","img/fixation.png","null","","","test","","","","","","","","","","","","","","","","","","","",""
"300.89999985694885","177584","SARL_v6","SARL_v6423bn18q","5d53bffa147a7d00015aae5a","freq","","","img/blue_2bandit_b2.png","70","","70","test","1","","67","","","","circle","square","65","22","3","0.9076923076923077","","","","","","","",""
"null","178090","SARL_v6","SARL_v6423bn18q","5d53bffa147a7d00015aae5a","freq_resp","","","img/blue_2bandit_b.png","70","img/blue_2bandit_b.png","70","test","","","","","","","","","","","3","","","","","","","","",""
"null","178248","SARL_v6","SARL_v6423bn18q","5d53bffa147a7d00015aae5a","fixation","","","img/fixation.png","null","","","test","","","","","","","","","","","","","","","","","","","",""
"622.2999999523163","178872","SARL_v6","SARL_v6423bn18q","5d53bffa147a7d00015aae5a","rl","","","img/black_2bandit_b2.png","74","","0","test","","","68","","","-8","circle","square","","0","3","","74","-8","-4","-8","-4","circle","3","0"
"null","179625","SARL_v6","SARL_v6423bn18q","5d53bffa147a7d00015aae5a","feedback","","","<div class=""verylowPoints""> -8 </div>","null","","na","test","","","NaN","","","","","","","","3","","74","","","","","","3",""
"557.4000000953674","180184","SARL_v6","SARL_v6423bn18q","5d53bffa147a7d00015aae5a","freq","","","img/blue_2bandit_b2.png","70","","70","test","1","","69","","","","circle","square","66","1","4","0.9090909090909091","","","","","","","",""
"null","180440","SARL_v6","SARL_v6423bn18q","5d53bffa147a7d00015aae5a","freq_resp","","","img/blue_2bandit_b.png","70","img/blue_2bandit_b.png","70","test","","","","","","","","","","","4","","","","","","","","",""
"null","180598","SARL_v6","SARL_v6423bn18q","5d53bffa147a7d00015aae5a","fixation","","","img/fixation.png","null","","","test","","","","","","","","","","","","","","","","","","","",""
"287.89999985694885","180888","SARL_v6","SARL_v6423bn18q","5d53bffa147a7d00015aae5a","freq","","","img/blue_2bandit_b2.png","70","","70","test","1","","70","","","","circle","square","67","2","4","0.9104477611940298","","","","","","","",""
"null","181408","SARL_v6","SARL_v6423bn18q","5d53bffa147a7d00015aae5a","freq_resp","","","img/blue_2bandit_b.png","70","img/blue_2bandit_b.png","70","test","","","","","","","","","","","4","","","","","","","","",""
"null","181564","SARL_v6","SARL_v6423bn18q","5d53bffa147a7d00015aae5a","fixation","","","img/fixation.png","null","","","test","","","","","","","","","","","","","","","","","","","",""
"161.5","181728","SARL_v6","SARL_v6423bn18q","5d53bffa147a7d00015aae5a","freq","","","img/blue_2bandit_b2.png","70","","70","test","1","","71","","","","circle","square","68","3","4","0.9117647058823529","","","","","","","",""
"null","182381","SARL_v6","SARL_v6423bn18q","5d53bffa147a7d00015aae5a","freq_resp","","","img/blue_2bandit_b.png","70","img/blue_2bandit_b.png","70","test","","","","","","","","","","","4","","","","","","","","",""
"null","182546","SARL_v6","SARL_v6423bn18q","5d53bffa147a7d00015aae5a","fixation","","","img/fixation.png","null","","","test","","","","","","","","","","","","","","","","","","","",""
"267.59999990463257","182816","SARL_v6","SARL_v6423bn18q","5d53bffa147a7d00015aae5a","freq","","","img/blue_2bandit_b2.png","70","","70","test","1","","72","","","","circle","square","69","4","4","0.9130434782608695","","","","","","","",""
"null","183355","SARL_v6","SARL_v6423bn18q","5d53bffa147a7d00015aae5a","freq_resp","","","img/blue_2bandit_b.png","70","img/blue_2bandit_b.png","70","test","","","","","","","","","","","4","","","","","","","","",""
"null","183515","SARL_v6","SARL_v6423bn18q","5d53bffa147a7d00015aae5a","fixation","","","img/fixation.png","null","","","test","","","","","","","","","","","","","","","","","","","",""
"298.69999980926514","183816","SARL_v6","SARL_v6423bn18q","5d53bffa147a7d00015aae5a","freq","","","img/blue_2bandit_b2.png","70","","70","test","1","","73","","","","circle","square","70","5","4","0.9142857142857143","","","","","","","",""
"null","184323","SARL_v6","SARL_v6423bn18q","5d53bffa147a7d00015aae5a","freq_resp","","","img/blue_2bandit_b.png","70","img/blue_2bandit_b.png","70","test","","","","","","","","","","","4","","","","","","","","",""
"null","184481","SARL_v6","SARL_v6423bn18q","5d53bffa147a7d00015aae5a","fixation","","","img/fixation.png","null","","","test","","","","","","","","","","","","","","","","","","","",""
"308.89999985694885","184792","SARL_v6","SARL_v6423bn18q","5d53bffa147a7d00015aae5a","freq","","","img/blue_2bandit_b2.png","70","","70","test","1","","74","","","","circle","square","71","6","4","0.9154929577464789","","","","","","","",""
"null","185291","SARL_v6","SARL_v6423bn18q","5d53bffa147a7d00015aae5a","freq_resp","","","img/blue_2bandit_b.png","70","img/blue_2bandit_b.png","70","test","","","","","","","","","","","4","","","","","","","","",""
"null","185448","SARL_v6","SARL_v6423bn18q","5d53bffa147a7d00015aae5a","fixation","","","img/fixation.png","null","","","test","","","","","","","","","","","","","","","","","","","",""
"214","185664","SARL_v6","SARL_v6423bn18q","5d53bffa147a7d00015aae5a","freq","","","img/blue_2bandit_b2.png","70","","70","test","1","","75","","","","circle","square","72","7","4","0.9166666666666666","","","","","","","",""
"null","186252","SARL_v6","SARL_v6423bn18q","5d53bffa147a7d00015aae5a","freq_resp","","","img/blue_2bandit_b.png","70","img/blue_2bandit_b.png","70","test","","","","","","","","","","","4","","","","","","","","",""
"null","186413","SARL_v6","SARL_v6423bn18q","5d53bffa147a7d00015aae5a","fixation","","","img/fixation.png","null","","","test","","","","","","","","","","","","","","","","","","","",""
"392.89999985694885","186808","SARL_v6","SARL_v6423bn18q","5d53bffa147a7d00015aae5a","freq","","","img/blue_2bandit_b2.png","70","","70","test","1","","76","","","","circle","square","73","8","4","0.9178082191780822","","","","","","","",""
"null","187230","SARL_v6","SARL_v6423bn18q","5d53bffa147a7d00015aae5a","freq_resp","","","img/blue_2bandit_b.png","70","img/blue_2bandit_b.png","70","test","","","","","","","","","","","4","","","","","","","","",""
"null","187396","SARL_v6","SARL_v6423bn18q","5d53bffa147a7d00015aae5a","fixation","","","img/fixation.png","null","","","test","","","","","","","","","","","","","","","","","","","",""
"361.59999990463257","187760","SARL_v6","SARL_v6423bn18q","5d53bffa147a7d00015aae5a","freq","","","img/blue_2bandit_b2.png","70","","70","test","1","","77","","","","circle","square","74","9","4","0.918918918918919","","","","","","","",""
"null","188211","SARL_v6","SARL_v6423bn18q","5d53bffa147a7d00015aae5a","freq_resp","","","img/blue_2bandit_b.png","70","img/blue_2bandit_b.png","70","test","","","","","","","","","","","4","","","","","","","","",""
"null","188364","SARL_v6","SARL_v6423bn18q","5d53bffa147a7d00015aae5a","fixation","","","img/fixation.png","null","","","test","","","","","","","","","","","","","","","","","","","",""
"377.59999990463257","188744","SARL_v6","SARL_v6423bn18q","5d53bffa147a7d00015aae5a","freq","","","img/blue_2bandit_b2.png","70","","70","test","1","","78","","","","circle","square","75","10","4","0.92","","","","","","","",""
"null","189179","SARL_v6","SARL_v6423bn18q","5d53bffa147a7d00015aae5a","freq_resp","","","img/blue_2bandit_b.png","70","img/blue_2bandit_b.png","70","test","","","","","","","","","","","4","","","","","","","","",""
"null","189331","SARL_v6","SARL_v6423bn18q","5d53bffa147a7d00015aae5a","fixation","","","img/fixation.png","null","","","test","","","","","","","","","","","","","","","","","","","",""
"363","189696","SARL_v6","SARL_v6423bn18q","5d53bffa147a7d00015aae5a","freq","","","img/blue_2bandit_b2.png","70","","70","test","1","","79","","","","circle","square","76","11","4","0.9210526315789473","","","","","","","",""
"null","190145","SARL_v6","SARL_v6423bn18q","5d53bffa147a7d00015aae5a","freq_resp","","","img/blue_2bandit_b.png","70","img/blue_2bandit_b.png","70","test","","","","","","","","","","","4","","","","","","","","",""
"null","190298","SARL_v6","SARL_v6423bn18q","5d53bffa147a7d00015aae5a","fixation","","","img/fixation.png","null","","","test","","","","","","","","","","","","","","","","","","","",""
"348.19999980926514","190648","SARL_v6","SARL_v6423bn18q","5d53bffa147a7d00015aae5a","freq","","","img/blue_2bandit_b2.png","70","","70","test","1","","80","","","","circle","square","77","12","4","0.922077922077922","","","","","","","",""
"null","191110","SARL_v6","SARL_v6423bn18q","5d53bffa147a7d00015aae5a","freq_resp","","","img/blue_2bandit_b.png","70","img/blue_2bandit_b.png","70","test","","","","","","","","","","","4","","","","","","","","",""
"null","191264","SARL_v6","SARL_v6423bn18q","5d53bffa147a7d00015aae5a","fixation","","","img/fixation.png","null","","","test","","","","","","","","","","","","","","","","","","","",""
"405.5","191672","SARL_v6","SARL_v6423bn18q","5d53bffa147a7d00015aae5a","freq","","","img/blue_2bandit_b2.png","70","","70","test","1","","81","","","","circle","square","78","13","4","0.9230769230769231","","","","","","","",""
"null","192081","SARL_v6","SARL_v6423bn18q","5d53bffa147a7d00015aae5a","freq_resp","","","img/blue_2bandit_b.png","70","img/blue_2bandit_b.png","70","test","","","","","","","","","","","4","","","","","","","","",""
"null","192246","SARL_v6","SARL_v6423bn18q","5d53bffa147a7d00015aae5a","fixation","","","img/fixation.png","null","","","test","","","","","","","","","","","","","","","","","","","",""
"391.5","192640","SARL_v6","SARL_v6423bn18q","5d53bffa147a7d00015aae5a","freq","","","img/blue_2bandit_b2.png","70","","70","test","1","","82","","","","circle","square","79","14","4","0.9240506329113924","","","","","","","",""
"null","193063","SARL_v6","SARL_v6423bn18q","5d53bffa147a7d00015aae5a","freq_resp","","","img/blue_2bandit_b.png","70","img/blue_2bandit_b.png","70","test","","","","","","","","","","","4","","","","","","","","",""
"null","193230","SARL_v6","SARL_v6423bn18q","5d53bffa147a7d00015aae5a","fixation","","","img/fixation.png","null","","","test","","","","","","","","","","","","","","","","","","","",""
"376.2999999523163","193608","SARL_v6","SARL_v6423bn18q","5d53bffa147a7d00015aae5a","freq","","","img/blue_2bandit_b2.png","70","","70","test","1","","83","","","","circle","square","80","15","4","0.925","","","","","","","",""
"null","194046","SARL_v6","SARL_v6423bn18q","5d53bffa147a7d00015aae5a","freq_resp","","","img/blue_2bandit_b.png","70","img/blue_2bandit_b.png","70","test","","","","","","","","","","","4","","","","","","","","",""
"null","194198","SARL_v6","SARL_v6423bn18q","5d53bffa147a7d00015aae5a","fixation","","","img/fixation.png","null","","","test","","","","","","","","","","","","","","","","","","","",""
"400.09999990463257","194600","SARL_v6","SARL_v6423bn18q","5d53bffa147a7d00015aae5a","freq","","","img/blue_2bandit_b2.png","70","","70","test","1","","84","","","","circle","square","81","16","4","0.9259259259259259","","","","","","","",""
"null","195013","SARL_v6","SARL_v6423bn18q","5d53bffa147a7d00015aae5a","freq_resp","","","img/blue_2bandit_b.png","70","img/blue_2bandit_b.png","70","test","","","","","","","","","","","4","","","","","","","","",""
"null","195180","SARL_v6","SARL_v6423bn18q","5d53bffa147a7d00015aae5a","fixation","","","img/fixation.png","null","","","test","","","","","","","","","","","","","","","","","","","",""
"490.19999980926514","195672","SARL_v6","SARL_v6423bn18q","5d53bffa147a7d00015aae5a","freq","","","img/blue_2bandit_b2.png","70","","70","test","1","","85","","","","circle","square","82","17","4","0.926829268292683","","","","","","","",""
"null","195987","SARL_v6","SARL_v6423bn18q","5d53bffa147a7d00015aae5a","freq_resp","","","img/blue_2bandit_b.png","70","img/blue_2bandit_b.png","70","test","","","","","","","","","","","4","","","","","","","","",""
"null","196139","SARL_v6","SARL_v6423bn18q","5d53bffa147a7d00015aae5a","fixation","","","img/fixation.png","null","","","test","","","","","","","","","","","","","","","","","","","",""
"555","196696","SARL_v6","SARL_v6423bn18q","5d53bffa147a7d00015aae5a","freq","","","img/blue_2bandit_b2.png","70","","70","test","1","","86","","","","circle","square","83","18","4","0.927710843373494","","","","","","","",""
"null","196957","SARL_v6","SARL_v6423bn18q","5d53bffa147a7d00015aae5a","freq_resp","","","img/blue_2bandit_b.png","70","img/blue_2bandit_b.png","70","test","","","","","","","","","","","4","","","","","","","","",""
"null","197114","SARL_v6","SARL_v6423bn18q","5d53bffa147a7d00015aae5a","fixation","","","img/fixation.png","null","","","test","","","","","","","","","","","","","","","","","","","",""
"411.5","197528","SARL_v6","SARL_v6423bn18q","5d53bffa147a7d00015aae5a","freq","","","img/blue_2bandit_b2.png","70","","70","test","1","","87","","","","circle","square","84","19","4","0.9285714285714286","","","","","","","",""
"null","197931","SARL_v6","SARL_v6423bn18q","5d53bffa147a7d00015aae5a","freq_resp","","","img/blue_2bandit_b.png","70","img/blue_2bandit_b.png","70","test","","","","","","","","","","","4","","","","","","","","",""
"null","198096","SARL_v6","SARL_v6423bn18q","5d53bffa147a7d00015aae5a","fixation","","","img/fixation.png","null","","","test","","","","","","","","","","","","","","","","","","","",""
"413.59999990463257","198512","SARL_v6","SARL_v6423bn18q","5d53bffa147a7d00015aae5a","freq","","","img/blue_2bandit_b2.png","70","","70","test","1","","88","","","","circle","square","85","20","4","0.9294117647058824","","","","","","","",""
"null","198914","SARL_v6","SARL_v6423bn18q","5d53bffa147a7d00015aae5a","freq_resp","","","img/blue_2bandit_b.png","70","img/blue_2bandit_b.png","70","test","","","","","","","","","","","4","","","","","","","","",""
"null","199080","SARL_v6","SARL_v6423bn18q","5d53bffa147a7d00015aae5a","fixation","","","img/fixation.png","null","","","test","","","","","","","","","","","","","","","","","","","",""
"374.19999980926514","199456","SARL_v6","SARL_v6423bn18q","5d53bffa147a7d00015aae5a","infreq","","","img/orange_2bandit_b2.png","68","","68","test","1","","89","","","","circle","square","86","21","4","0.9302325581395349","","","","","","","",""
"null","199897","SARL_v6","SARL_v6423bn18q","5d53bffa147a7d00015aae5a","infreq_resp","","","img/orange_2bandit_b.png","68","img/orange_2bandit_b.png","68","test","","","","","","","","","","","4","","","","","","","","",""
"null","200063","SARL_v6","SARL_v6423bn18q","5d53bffa147a7d00015aae5a","fixation","","","img/fixation.png","null","","","test","","","","","","","","","","","","","","","","","","","",""
"398.89999985694885","200464","SARL_v6","SARL_v6423bn18q","5d53bffa147a7d00015aae5a","freq","","","img/blue_2bandit_b2.png","70","","70","test","1","","90","","","","circle","square","87","22","4","0.9310344827586207","","","","","","","",""
"null","200880","SARL_v6","SARL_v6423bn18q","5d53bffa147a7d00015aae5a","freq_resp","","","img/blue_2bandit_b.png","70","img/blue_2bandit_b.png","70","test","","","","","","","","","","","4","","","","","","","","",""
"null","201046","SARL_v6","SARL_v6423bn18q","5d53bffa147a7d00015aae5a","fixation","","","img/fixation.png","null","","","test","","","","","","","","","","","","","","","","","","","",""
"327.5","201376","SARL_v6","SARL_v6423bn18q","5d53bffa147a7d00015aae5a","infreq","","","img/orange_2bandit_b2.png","70","","68","test","0","","91","","","","circle","square","88","23","4","0.9204545454545454","","","","","","","",""
"null","201859","SARL_v6","SARL_v6423bn18q","5d53bffa147a7d00015aae5a","infreq_resp","","","img/orange_2bandit_b.png","70","img/orange_2bandit_b.png","68","test","","","","","","","","","","","4","","","","","","","","",""
"null","202014","SARL_v6","SARL_v6423bn18q","5d53bffa147a7d00015aae5a","fixation","","","img/fixation.png","null","","","test","","","","","","","","","","","","","","","","","","","",""
"503.59999990463257","202520","SARL_v6","SARL_v6423bn18q","5d53bffa147a7d00015aae5a","freq","","","img/blue_2bandit_b2.png","70","","70","test","1","","92","","","","circle","square","89","24","4","0.9213483146067416","","","","","","","",""
"null","202822","SARL_v6","SARL_v6423bn18q","5d53bffa147a7d00015aae5a","freq_resp","","","img/blue_2bandit_b.png","70","img/blue_2bandit_b.png","70","test","","","","","","","","","","","4","","","","","","","","",""
"null","202981","SARL_v6","SARL_v6423bn18q","5d53bffa147a7d00015aae5a","fixation","","","img/fixation.png","null","","","test","","","","","","","","","","","","","","","","","","","",""
"424.59999990463257","203408","SARL_v6","SARL_v6423bn18q","5d53bffa147a7d00015aae5a","freq","","","img/blue_2bandit_b2.png","70","","70","test","1","","93","","","","circle","square","90","25","4","0.9222222222222223","","","","","","","",""
"null","203799","SARL_v6","SARL_v6423bn18q","5d53bffa147a7d00015aae5a","freq_resp","","","img/blue_2bandit_b.png","70","img/blue_2bandit_b.png","70","test","","","","","","","","","","","4","","","","","","","","",""
"null","203963","SARL_v6","SARL_v6423bn18q","5d53bffa147a7d00015aae5a","fixation","","","img/fixation.png","null","","","test","","","","","","","","","","","","","","","","","","","",""
"658.7999999523163","204624","SARL_v6","SARL_v6423bn18q","5d53bffa147a7d00015aae5a","rl","","","img/black_2bandit_b2.png","75","","0","test","","","94","","","0","circle","square","","0","4","","75","-12","0","-12","0","square","4","0"
"null","205390","SARL_v6","SARL_v6423bn18q","5d53bffa147a7d00015aae5a","feedback","","","<div class=""verylowPoints_sq""> 0 </div>","null","","na","test","","","NaN","","","","","","","","4","","75","","","","","","4",""
"759.5","206152","SARL_v6","SARL_v6423bn18q","5d53bffa147a7d00015aae5a","freq","","","img/blue_2bandit_b2.png","70","","70","test","1","","95","","","","circle","square","91","1","5","0.9230769230769231","","","","","","","",""
"null","206205","SARL_v6","SARL_v6423bn18q","5d53bffa147a7d00015aae5a","freq_resp","","","img/blue_2bandit_b.png","70","img/blue_2bandit_b.png","70","test","","","","","","","","","","","5","","","","","","","","",""
"null","206364","SARL_v6","SARL_v6423bn18q","5d53bffa147a7d00015aae5a","fixation","","","img/fixation.png","null","","","test","","","","","","","","","","","","","","","","","","","",""
"505.59999990463257","206872","SARL_v6","SARL_v6423bn18q","5d53bffa147a7d00015aae5a","freq","","","img/blue_2bandit_b2.png","70","","70","test","1","","96","","","","circle","square","92","2","5","0.9239130434782609","","","","","","","",""
"null","207170","SARL_v6","SARL_v6423bn18q","5d53bffa147a7d00015aae5a","freq_resp","","","img/blue_2bandit_b.png","70","img/blue_2bandit_b.png","70","test","","","","","","","","","","","5","","","","","","","","",""
"null","207332","SARL_v6","SARL_v6423bn18q","5d53bffa147a7d00015aae5a","fixation","","","img/fixation.png","null","","","test","","","","","","","","","","","","","","","","","","","",""
"361.7000000476837","207696","SARL_v6","SARL_v6423bn18q","5d53bffa147a7d00015aae5a","freq","","","img/blue_2bandit_b2.png","70","","70","test","1","","97","","","","circle","square","93","3","5","0.9247311827956989","","","","","","","",""
"null","208145","SARL_v6","SARL_v6423bn18q","5d53bffa147a7d00015aae5a","freq_resp","","","img/blue_2bandit_b.png","70","img/blue_2bandit_b.png","70","test","","","","","","","","","","","5","","","","","","","","",""
"null","208298","SARL_v6","SARL_v6423bn18q","5d53bffa147a7d00015aae5a","fixation","","","img/fixation.png","null","","","test","","","","","","","","","","","","","","","","","","","",""
"420.2999999523163","208720","SARL_v6","SARL_v6423bn18q","5d53bffa147a7d00015aae5a","freq","","","img/blue_2bandit_b2.png","70","","70","test","1","","98","","","","circle","square","94","4","5","0.925531914893617","","","","","","","",""
"null","209116","SARL_v6","SARL_v6423bn18q","5d53bffa147a7d00015aae5a","freq_resp","","","img/blue_2bandit_b.png","70","img/blue_2bandit_b.png","70","test","","","","","","","","","","","5","","","","","","","","",""
"null","209280","SARL_v6","SARL_v6423bn18q","5d53bffa147a7d00015aae5a","fixation","","","img/fixation.png","null","","","test","","","","","","","","","","","","","","","","","","","",""
"390.19999980926514","209672","SARL_v6","SARL_v6423bn18q","5d53bffa147a7d00015aae5a","freq","","","img/blue_2bandit_b2.png","70","","70","test","1","","99","","","","circle","square","95","5","5","0.9263157894736842","","","","","","","",""
"null","210097","SARL_v6","SARL_v6423bn18q","5d53bffa147a7d00015aae5a","freq_resp","","","img/blue_2bandit_b.png","70","img/blue_2bandit_b.png","70","test","","","","","","","","","","","5","","","","","","","","",""
"null","210263","SARL_v6","SARL_v6423bn18q","5d53bffa147a7d00015aae5a","fixation","","","img/fixation.png","null","","","test","","","","","","","","","","","","","","","","","","","",""
"295","210560","SARL_v6","SARL_v6423bn18q","5d53bffa147a7d00015aae5a","freq","","","img/blue_2bandit_b2.png","70","","70","test","1","","100","","","","circle","square","96","6","5","0.9270833333333334","","","","","","","",""
"null","211074","SARL_v6","SARL_v6423bn18q","5d53bffa147a7d00015aae5a","freq_resp","","","img/blue_2bandit_b.png","70","img/blue_2bandit_b.png","70","test","","","","","","","","","","","5","","","","","","","","",""
"null","211231","SARL_v6","SARL_v6423bn18q","5d53bffa147a7d00015aae5a","fixation","","","img/fixation.png","null","","","test","","","","","","","","","","","","","","","","","","","",""
"254.89999985694885","211488","SARL_v6","SARL_v6423bn18q","5d53bffa147a7d00015aae5a","freq","","","img/blue_2bandit_b2.png","70","","70","test","1","","101","","","","circle","square","97","7","5","0.9278350515463918","","","","","","","",""
"null","212039","SARL_v6","SARL_v6423bn18q","5d53bffa147a7d00015aae5a","freq_resp","","","img/blue_2bandit_b.png","70","img/blue_2bandit_b.png","70","test","","","","","","","","","","","5","","","","","","","","",""
"null","212198","SARL_v6","SARL_v6423bn18q","5d53bffa147a7d00015aae5a","fixation","","","img/fixation.png","null","","","test","","","","","","","","","","","","","","","","","","","",""
"272.09999990463257","212472","SARL_v6","SARL_v6423bn18q","5d53bffa147a7d00015aae5a","freq","","","img/blue_2bandit_b2.png","70","","70","test","1","","102","","","","circle","square","98","8","5","0.9285714285714286","","","","","","","",""
"null","213006","SARL_v6","SARL_v6423bn18q","5d53bffa147a7d00015aae5a","freq_resp","","","img/blue_2bandit_b.png","70","img/blue_2bandit_b.png","70","test","","","","","","","","","","","5","","","","","","","","",""
"null","213166","SARL_v6","SARL_v6423bn18q","5d53bffa147a7d00015aae5a","fixation","","","img/fixation.png","null","","","test","","","","","","","","","","","","","","","","","","","",""
"272.39999985694885","213440","SARL_v6","SARL_v6423bn18q","5d53bffa147a7d00015aae5a","freq","","","img/blue_2bandit_b2.png","70","","70","test","1","","103","","","","circle","square","99","9","5","0.9292929292929293","","","","","","","",""
"null","213973","SARL_v6","SARL_v6423bn18q","5d53bffa147a7d00015aae5a","freq_resp","","","img/blue_2bandit_b.png","70","img/blue_2bandit_b.png","70","test","","","","","","","","","","","5","","","","","","","","",""
"null","214131","SARL_v6","SARL_v6423bn18q","5d53bffa147a7d00015aae5a","fixation","","","img/fixation.png","null","","","test","","","","","","","","","","","","","","","","","","","",""
"290.7999999523163","214424","SARL_v6","SARL_v6423bn18q","5d53bffa147a7d00015aae5a","freq","","","img/blue_2bandit_b2.png","70","","70","test","1","","104","","","","circle","square","100","10","5","0.93","","","","","","","",""
"null","214940","SARL_v6","SARL_v6423bn18q","5d53bffa147a7d00015aae5a","freq_resp","","","img/blue_2bandit_b.png","70","img/blue_2bandit_b.png","70","test","","","","","","","","","","","5","","","","","","","","",""
"null","215098","SARL_v6","SARL_v6423bn18q","5d53bffa147a7d00015aae5a","fixation","","","img/fixation.png","null","","","test","","","","","","","","","","","","","","","","","","","",""
"283.5","215384","SARL_v6","SARL_v6423bn18q","5d53bffa147a7d00015aae5a","freq","","","img/blue_2bandit_b2.png","70","","70","test","1","","105","","","","circle","square","101","11","5","0.9306930693069307","","","","","","","",""
"null","215906","SARL_v6","SARL_v6423bn18q","5d53bffa147a7d00015aae5a","freq_resp","","","img/blue_2bandit_b.png","70","img/blue_2bandit_b.png","70","test","","","","","","","","","","","5","","","","","","","","",""
"null","216066","SARL_v6","SARL_v6423bn18q","5d53bffa147a7d00015aae5a","fixation","","","img/fixation.png","null","","","test","","","","","","","","","","","","","","","","","","","",""
"260.39999985694885","216328","SARL_v6","SARL_v6423bn18q","5d53bffa147a7d00015aae5a","freq","","","img/blue_2bandit_b2.png","70","","70","test","1","","106","","","","circle","square","102","12","5","0.9313725490196079","","","","","","","",""
"null","216872","SARL_v6","SARL_v6423bn18q","5d53bffa147a7d00015aae5a","freq_resp","","","img/blue_2bandit_b.png","70","img/blue_2bandit_b.png","70","test","","","","","","","","","","","5","","","","","","","","",""
"null","217036","SARL_v6","SARL_v6423bn18q","5d53bffa147a7d00015aae5a","fixation","","","img/fixation.png","null","","","test","","","","","","","","","","","","","","","","","","","",""
"241.90000009536743","217280","SARL_v6","SARL_v6423bn18q","5d53bffa147a7d00015aae5a","freq","","","img/blue_2bandit_b2.png","70","","70","test","1","","107","","","","circle","square","103","13","5","0.9320388349514563","","","","","","","",""
"null","217853","SARL_v6","SARL_v6423bn18q","5d53bffa147a7d00015aae5a","freq_resp","","","img/blue_2bandit_b.png","70","img/blue_2bandit_b.png","70","test","","","","","","","","","","","5","","","","","","","","",""
"null","218014","SARL_v6","SARL_v6423bn18q","5d53bffa147a7d00015aae5a","fixation","","","img/fixation.png","null","","","test","","","","","","","","","","","","","","","","","","","",""
"239.40000009536743","218256","SARL_v6","SARL_v6423bn18q","5d53bffa147a7d00015aae5a","freq","","","img/blue_2bandit_b2.png","70","","70","test","1","","108","","","","circle","square","104","14","5","0.9326923076923077","","","","","","","",""
"null","218822","SARL_v6","SARL_v6423bn18q","5d53bffa147a7d00015aae5a","freq_resp","","","img/blue_2bandit_b.png","70","img/blue_2bandit_b.png","70","test","","","","","","","","","","","5","","","","","","","","",""
"null","218981","SARL_v6","SARL_v6423bn18q","5d53bffa147a7d00015aae5a","fixation","","","img/fixation.png","null","","","test","","","","","","","","","","","","","","","","","","","",""
"248.59999990463257","219232","SARL_v6","SARL_v6423bn18q","5d53bffa147a7d00015aae5a","freq","","","img/blue_2bandit_b2.png","70","","70","test","1","","109","","","","circle","square","105","15","5","0.9333333333333333","","","","","","","",""
"null","219787","SARL_v6","SARL_v6423bn18q","5d53bffa147a7d00015aae5a","freq_resp","","","img/blue_2bandit_b.png","70","img/blue_2bandit_b.png","70","test","","","","","","","","","","","5","","","","","","","","",""
"null","219949","SARL_v6","SARL_v6423bn18q","5d53bffa147a7d00015aae5a","fixation","","","img/fixation.png","null","","","test","","","","","","","","","","","","","","","","","","","",""
"305.09999990463257","220256","SARL_v6","SARL_v6423bn18q","5d53bffa147a7d00015aae5a","freq","","","img/blue_2bandit_b2.png","70","","70","test","1","","110","","","","circle","square","106","16","5","0.9339622641509434","","","","","","","",""
"null","220758","SARL_v6","SARL_v6423bn18q","5d53bffa147a7d00015aae5a","freq_resp","","","img/blue_2bandit_b.png","70","img/blue_2bandit_b.png","70","test","","","","","","","","","","","5","","","","","","","","",""
"null","220914","SARL_v6","SARL_v6423bn18q","5d53bffa147a7d00015aae5a","fixation","","","img/fixation.png","null","","","test","","","","","","","","","","","","","","","","","","","",""
"291.5","221208","SARL_v6","SARL_v6423bn18q","5d53bffa147a7d00015aae5a","freq","","","img/blue_2bandit_b2.png","70","","70","test","1","","111","","","","circle","square","107","17","5","0.9345794392523364","","","","","","","",""
"null","221724","SARL_v6","SARL_v6423bn18q","5d53bffa147a7d00015aae5a","freq_resp","","","img/blue_2bandit_b.png","70","img/blue_2bandit_b.png","70","test","","","","","","","","","","","5","","","","","","","","",""
"null","221881","SARL_v6","SARL_v6423bn18q","5d53bffa147a7d00015aae5a","fixation","","","img/fixation.png","null","","","test","","","","","","","","","","","","","","","","","","","",""
"340.69999980926514","222224","SARL_v6","SARL_v6423bn18q","5d53bffa147a7d00015aae5a","freq","","","img/blue_2bandit_b2.png","70","","70","test","1","","112","","","","circle","square","108","18","5","0.9351851851851852","","","","","","","",""
"null","222694","SARL_v6","SARL_v6423bn18q","5d53bffa147a7d00015aae5a","freq_resp","","","img/blue_2bandit_b.png","70","img/blue_2bandit_b.png","70","test","","","","","","","","","","","5","","","","","","","","",""
"null","222848","SARL_v6","SARL_v6423bn18q","5d53bffa147a7d00015aae5a","fixation","","","img/fixation.png","null","","","test","","","","","","","","","","","","","","","","","","","",""
"318.09999990463257","223168","SARL_v6","SARL_v6423bn18q","5d53bffa147a7d00015aae5a","freq","","","img/blue_2bandit_b2.png","70","","70","test","1","","113","","","","circle","square","109","19","5","0.9357798165137615","","","","","","","",""
"null","223658","SARL_v6","SARL_v6423bn18q","5d53bffa147a7d00015aae5a","freq_resp","","","img/blue_2bandit_b.png","70","img/blue_2bandit_b.png","70","test","","","","","","","","","","","5","","","","","","","","",""
"null","223814","SARL_v6","SARL_v6423bn18q","5d53bffa147a7d00015aae5a","fixation","","","img/fixation.png","null","","","test","","","","","","","","","","","","","","","","","","","",""
"319.59999990463257","224136","SARL_v6","SARL_v6423bn18q","5d53bffa147a7d00015aae5a","freq","","","img/blue_2bandit_b2.png","70","","70","test","1","","114","","","","circle","square","110","20","5","0.9363636363636364","","","","","","","",""
"null","224626","SARL_v6","SARL_v6423bn18q","5d53bffa147a7d00015aae5a","freq_resp","","","img/blue_2bandit_b.png","70","img/blue_2bandit_b.png","70","test","","","","","","","","","","","5","","","","","","","","",""
"null","224781","SARL_v6","SARL_v6423bn18q","5d53bffa147a7d00015aae5a","fixation","","","img/fixation.png","null","","","test","","","","","","","","","","","","","","","","","","","",""
"416.7999999523163","225200","SARL_v6","SARL_v6423bn18q","5d53bffa147a7d00015aae5a","infreq","","","img/orange_2bandit_b2.png","68","","68","test","1","","115","","","","circle","square","111","21","5","0.9369369369369369","","","","","","","",""
"null","225597","SARL_v6","SARL_v6423bn18q","5d53bffa147a7d00015aae5a","infreq_resp","","","img/orange_2bandit_b.png","68","img/orange_2bandit_b.png","68","test","","","","","","","","","","","5","","","","","","","","",""
"null","225763","SARL_v6","SARL_v6423bn18q","5d53bffa147a7d00015aae5a","fixation","","","img/fixation.png","null","","","test","","","","","","","","","","","","","","","","","","","",""
"354.7999999523163","226120","SARL_v6","SARL_v6423bn18q","5d53bffa147a7d00015aae5a","infreq","","","img/orange_2bandit_b2.png","68","","68","test","1","","116","","","","circle","square","112","22","5","0.9375","","","","","","","",""
"null","226578","SARL_v6","SARL_v6423bn18q","5d53bffa147a7d00015aae5a","infreq_resp","","","img/orange_2bandit_b.png","68","img/orange_2bandit_b.png","68","test","","","","","","","","","","","5","","","","","","","","",""
"null","226731","SARL_v6","SARL_v6423bn18q","5d53bffa147a7d00015aae5a","fixation","","","img/fixation.png","null","","","test","","","","","","","","","","","","","","","","","","","",""
"522.7000000476837","227256","SARL_v6","SARL_v6423bn18q","5d53bffa147a7d00015aae5a","freq","","","img/blue_2bandit_b2.png","70","","70","test","1","","117","","","","circle","square","113","23","5","0.9380530973451328","","","","","","","",""
"null","227540","SARL_v6","SARL_v6423bn18q","5d53bffa147a7d00015aae5a","freq_resp","","","img/blue_2bandit_b.png","70","img/blue_2bandit_b.png","70","test","","","","","","","","","","","5","","","","","","","","",""
"null","227698","SARL_v6","SARL_v6423bn18q","5d53bffa147a7d00015aae5a","fixation","","","img/fixation.png","null","","","test","","","","","","","","","","","","","","","","","","","",""
"292.19999980926514","227992","SARL_v6","SARL_v6423bn18q","5d53bffa147a7d00015aae5a","freq","","","img/blue_2bandit_b2.png","70","","70","test","1","","118","","","","circle","square","114","24","5","0.9385964912280702","","","","","","","",""
"null","228507","SARL_v6","SARL_v6423bn18q","5d53bffa147a7d00015aae5a","freq_resp","","","img/blue_2bandit_b.png","70","img/blue_2bandit_b.png","70","test","","","","","","","","","","","5","","","","","","","","",""
"null","228664","SARL_v6","SARL_v6423bn18q","5d53bffa147a7d00015aae5a","fixation","","","img/fixation.png","null","","","test","","","","","","","","","","","","","","","","","","","",""
"565.5","229232","SARL_v6","SARL_v6423bn18q","5d53bffa147a7d00015aae5a","rl","","","img/black_2bandit_b2.png","74","","0","test","","","119","","","-7","circle","square","","0","5","","74","-7","4","-7","4","circle","5","0"
"null","229990","SARL_v6","SARL_v6423bn18q","5d53bffa147a7d00015aae5a","feedback","","","<div class=""verylowPoints""> -7 </div>","null","","na","test","","","NaN","","","","","","","","5","","74","","","","","","5",""
"591.7999999523163","230584","SARL_v6","SARL_v6423bn18q","5d53bffa147a7d00015aae5a","freq","","","img/blue_2bandit_b2.png","70","","70","test","1","","120","","","","circle","square","115","1","6","0.9391304347826087","","","","","","","",""
"null","230809","SARL_v6","SARL_v6423bn18q","5d53bffa147a7d00015aae5a","freq_resp","","","img/blue_2bandit_b.png","70","img/blue_2bandit_b.png","70","test","","","","","","","","","","","6","","","","","","","","",""
"null","230964","SARL_v6","SARL_v6423bn18q","5d53bffa147a7d00015aae5a","fixation","","","img/fixation.png","null","","","test","","","","","","","","","","","","","","","","","","","",""
"545.5","231512","SARL_v6","SARL_v6423bn18q","5d53bffa147a7d00015aae5a","freq","","","img/blue_2bandit_b2.png","70","","70","test","1","","121","","","","circle","square","116","2","6","0.9396551724137931","","","","","","","",""
"null","231774","SARL_v6","SARL_v6423bn18q","5d53bffa147a7d00015aae5a","freq_resp","","","img/blue_2bandit_b.png","70","img/blue_2bandit_b.png","70","test","","","","","","","","","","","6","","","","","","","","",""
"null","231931","SARL_v6","SARL_v6423bn18q","5d53bffa147a7d00015aae5a","fixation","","","img/fixation.png","null","","","test","","","","","","","","","","","","","","","","","","","",""
"314.7999999523163","232248","SARL_v6","SARL_v6423bn18q","5d53bffa147a7d00015aae5a","freq","","","img/blue_2bandit_b2.png","70","","70","test","1","","122","","","","circle","square","117","3","6","0.9401709401709402","","","","","","","",""
"null","232741","SARL_v6","SARL_v6423bn18q","5d53bffa147a7d00015aae5a","freq_resp","","","img/blue_2bandit_b.png","70","img/blue_2bandit_b.png","70","test","","","","","","","","","","","6","","","","","","","","",""
"null","232898","SARL_v6","SARL_v6423bn18q","5d53bffa147a7d00015aae5a","fixation","","","img/fixation.png","null","","","test","","","","","","","","","","","","","","","","","","","",""
"132.19999980926514","233032","SARL_v6","SARL_v6423bn18q","5d53bffa147a7d00015aae5a","infreq","","","img/orange_2bandit_b2.png","70","","68","test","0","","123","","","","circle","square","118","4","6","0.9322033898305084","","","","","","","",""
"null","233712","SARL_v6","SARL_v6423bn18q","5d53bffa147a7d00015aae5a","infreq_resp","","","img/orange_2bandit_b.png","70","img/orange_2bandit_b.png","68","test","","","","","","","","","","","6","","","","","","","","",""
"null","233864","SARL_v6","SARL_v6423bn18q","5d53bffa147a7d00015aae5a","fixation","","","img/fixation.png","null","","","test","","","","","","","","","","","","","","","","","","","",""
"381.5","234248","SARL_v6","SARL_v6423bn18q","5d53bffa147a7d00015aae5a","freq","","","img/blue_2bandit_b2.png","70","","70","test","1","","124","","","","circle","square","119","5","6","0.9327731092436975","","","","","","","",""
"null","234679","SARL_v6","SARL_v6423bn18q","5d53bffa147a7d00015aae5a","freq_resp","","","img/blue_2bandit_b.png","70","img/blue_2bandit_b.png","70","test","","","","","","","","","","","6","","","","","","","","",""
"null","234831","SARL_v6","SARL_v6423bn18q","5d53bffa147a7d00015aae5a","fixation","","","img/fixation.png","null","","","test","","","","","","","","","","","","","","","","","","","",""
"310.89999985694885","235144","SARL_v6","SARL_v6423bn18q","5d53bffa147a7d00015aae5a","freq","","","img/blue_2bandit_b2.png","70","","70","test","1","","125","","","","circle","square","120","6","6","0.9333333333333333","","","","","","","",""
"null","235641","SARL_v6","SARL_v6423bn18q","5d53bffa147a7d00015aae5a","freq_resp","","","img/blue_2bandit_b.png","70","img/blue_2bandit_b.png","70","test","","","","","","","","","","","6","","","","","","","","",""
"null","235798","SARL_v6","SARL_v6423bn18q","5d53bffa147a7d00015aae5a","fixation","","","img/fixation.png","null","","","test","","","","","","","","","","","","","","","","","","","",""
"240.09999990463257","236040","SARL_v6","SARL_v6423bn18q","5d53bffa147a7d00015aae5a","freq","","","img/blue_2bandit_b2.png","70","","70","test","1","","126","","","","circle","square","121","7","6","0.9338842975206612","","","","","","","",""
"null","236605","SARL_v6","SARL_v6423bn18q","5d53bffa147a7d00015aae5a","freq_resp","","","img/blue_2bandit_b.png","70","img/blue_2bandit_b.png","70","test","","","","","","","","","","","6","","","","","","","","",""
"null","236766","SARL_v6","SARL_v6423bn18q","5d53bffa147a7d00015aae5a","fixation","","","img/fixation.png","null","","","test","","","","","","","","","","","","","","","","","","","",""
"312.2999999523163","237080","SARL_v6","SARL_v6423bn18q","5d53bffa147a7d00015aae5a","freq","","","img/blue_2bandit_b2.png","70","","70","test","1","","127","","","","circle","square","122","8","6","0.9344262295081968","","","","","","","",""
"null","237576","SARL_v6","SARL_v6423bn18q","5d53bffa147a7d00015aae5a","freq_resp","","","img/blue_2bandit_b.png","70","img/blue_2bandit_b.png","70","test","","","","","","","","","","","6","","","","","","","","",""
"null","237732","SARL_v6","SARL_v6423bn18q","5d53bffa147a7d00015aae5a","fixation","","","img/fixation.png","null","","","test","","","","","","","","","","","","","","","","","","","",""
"434.7999999523163","238168","SARL_v6","SARL_v6423bn18q","5d53bffa147a7d00015aae5a","infreq","","","img/orange_2bandit_b2.png","68","","68","test","1","","128","","","","circle","square","123","9","6","0.9349593495934959","","","","","","","",""
"null","238549","SARL_v6","SARL_v6423bn18q","5d53bffa147a7d00015aae5a","infreq_resp","","","img/orange_2bandit_b.png","68","img/orange_2bandit_b.png","68","test","","","","","","","","","","","6","","","","","","","","",""
"null","238714","SARL_v6","SARL_v6423bn18q","5d53bffa147a7d00015aae5a","fixation","","","img/fixation.png","null","","","test","","","","","","","","","","","","","","","","","","","",""
"396.89999985694885","239113","SARL_v6","SARL_v6423bn18q","5d53bffa147a7d00015aae5a","freq","","","img/blue_2bandit_b2.png","70","","70","test","1","","129","","","","circle","square","124","10","6","0.9354838709677419","","","","","","","",""
"null","239531","SARL_v6","SARL_v6423bn18q","5d53bffa147a7d00015aae5a","freq_resp","","","img/blue_2bandit_b.png","70","img/blue_2bandit_b.png","70","test","","","","","","","","","","","6","","","","","","","","",""
"null","239697","SARL_v6","SARL_v6423bn18q","5d53bffa147a7d00015aae5a","fixation","","","img/fixation.png","null","","","test","","","","","","","","","","","","","","","","","","","",""
"341.5","240040","SARL_v6","SARL_v6423bn18q","5d53bffa147a7d00015aae5a","freq","","","img/blue_2bandit_b2.png","70","","70","test","1","","130","","","","circle","square","125","11","6","0.936","","","","","","","",""
"null","240511","SARL_v6","SARL_v6423bn18q","5d53bffa147a7d00015aae5a","freq_resp","","","img/blue_2bandit_b.png","70","img/blue_2bandit_b.png","70","test","","","","","","","","","","","6","","","","","","","","",""
"null","240665","SARL_v6","SARL_v6423bn18q","5d53bffa147a7d00015aae5a","fixation","","","img/fixation.png","null","","","test","","","","","","","","","","","","","","","","","","","",""
"381.40000009536743","241048","SARL_v6","SARL_v6423bn18q","5d53bffa147a7d00015aae5a","freq","","","img/blue_2bandit_b2.png","70","","70","test","1","","131","","","","circle","square","126","12","6","0.9365079365079365","","","","","","","",""
"null","241479","SARL_v6","SARL_v6423bn18q","5d53bffa147a7d00015aae5a","freq_resp","","","img/blue_2bandit_b.png","70","img/blue_2bandit_b.png","70","test","","","","","","","","","","","6","","","","","","","","",""
