"rt","time_elapsed","expId","subject","prolificID","trialType","rlType","attType","stimulus","key_press","stim","corrresp","phase","corr","pracCounter","trialNum","rewardOne","rewardTwo","reward","bandOne","bandTwo","attentionNum","attentionRunNum","blockNum","performance","bandChosen","circleVal","squareVal","bandOneVal","bandTwoVal","shapeChosen","rlNum","badFlag"
"10124","10131","SARL_v6","SARL_v6fjsjehe5","5fd5381b5807b616d910c586","","","","","","","","","","","","","","","","","","","","","","","","","","","",""
"","13404","SARL_v6","SARL_v6fjsjehe5","5fd5381b5807b616d910c586","fullscreen","fullscreen","fullscreen","","","","","","","","","","","","","","","","","","","","","","","","",""
"105401.5","118810","SARL_v6","SARL_v6fjsjehe5","5fd5381b5807b616d910c586","","","","","","","","","","","","","","","","","","","","","","","","","","","",""
"null","119627","SARL_v6","SARL_v6fjsjehe5","5fd5381b5807b616d910c586","freqPrac","","","img/blue_2bandit_b2.png","null","img/blue_2bandit_b2.png","70","prac","0","1","","","","","","","","","","","","","","","","","",""
"null","120639","SARL_v6","SARL_v6fjsjehe5","5fd5381b5807b616d910c586","feedback","","","img/tooSlow.png","null","","na","prac","","","","","","","","","","","","","","","","","","","",""
"null","120798","SARL_v6","SARL_v6fjsjehe5","5fd5381b5807b616d910c586","fixation","","","img/fixation.png","null","","","prac","","","","","","","","","","","","","","","","","","","",""
"null","121610","SARL_v6","SARL_v6fjsjehe5","5fd5381b5807b616d910c586","infreqPrac","","","img/orange_2bandit_b2.png","null","img/orange_2bandit_b2.png","68","prac","0","2","","","","","","","","","","","","","","","","","",""
"null","122627","SARL_v6","SARL_v6fjsjehe5","5fd5381b5807b616d910c586","feedback","","","img/tooSlow.png","null","","na","prac","","","","","","","","","","","","","","","","","","","",""
"null","122786","SARL_v6","SARL_v6fjsjehe5","5fd5381b5807b616d910c586","fixation","","","img/fixation.png","null","","","prac","","","","","","","","","","","","","","","","","","","",""
"493.40000000037253","123283","SARL_v6","SARL_v6fjsjehe5","5fd5381b5807b616d910c586","freqPrac","","","img/blue_2bandit_b2.png","70","img/blue_2bandit_b2.png","70","prac","1","2","","","","","","","","","","","","","","","","","",""
"493.40000000037253","123602","SARL_v6","SARL_v6fjsjehe5","5fd5381b5807b616d910c586","freqPrac_resp","","","img/blue_2bandit_b.png","70","img/blue_2bandit_b.png","70","prac","","","","","","","","","","","","","","","","","","","",""
"null","123762","SARL_v6","SARL_v6fjsjehe5","5fd5381b5807b616d910c586","fixation","","","img/fixation.png","null","","","prac","","","","","","","","","","","","","","","","","","","",""
"669.5999999996275","124435","SARL_v6","SARL_v6fjsjehe5","5fd5381b5807b616d910c586","infreqPrac","","","img/orange_2bandit_b2.png","68","img/orange_2bandit_b2.png","68","prac","1","2","","","","","","","","","","","","","","","","","",""
"669.5999999996275","124579","SARL_v6","SARL_v6fjsjehe5","5fd5381b5807b616d910c586","infreqPrac_resp","","","img/orange_2bandit_b.png","68","img/orange_2bandit_b.png","68","prac","","","","","","","","","","","","","","","","","","","",""
"null","124734","SARL_v6","SARL_v6fjsjehe5","5fd5381b5807b616d910c586","fixation","","","img/fixation.png","null","","","prac","","","","","","","","","","","","","","","","","","","",""
"527.7000000001863","125265","SARL_v6","SARL_v6fjsjehe5","5fd5381b5807b616d910c586","infreqPrac","","","img/orange_2bandit_b2.png","68","img/orange_2bandit_b2.png","68","prac","1","2","","","","","","","","","","","","","","","","","",""
"527.7000000001863","125540","SARL_v6","SARL_v6fjsjehe5","5fd5381b5807b616d910c586","infreqPrac_resp","","","img/orange_2bandit_b.png","68","img/orange_2bandit_b.png","68","prac","","","","","","","","","","","","","","","","","","","",""
"null","125700","SARL_v6","SARL_v6fjsjehe5","5fd5381b5807b616d910c586","fixation","","","img/fixation.png","null","","","prac","","","","","","","","","","","","","","","","","","","",""
"468.5","126171","SARL_v6","SARL_v6fjsjehe5","5fd5381b5807b616d910c586","infreqPrac","","","img/orange_2bandit_b2.png","68","img/orange_2bandit_b2.png","68","prac","1","2","","","","","","","","","","","","","","","","","",""
"468.5","126508","SARL_v6","SARL_v6fjsjehe5","5fd5381b5807b616d910c586","infreqPrac_resp","","","img/orange_2bandit_b.png","68","img/orange_2bandit_b.png","68","prac","","","","","","","","","","","","","","","","","","","",""
"null","126669","SARL_v6","SARL_v6fjsjehe5","5fd5381b5807b616d910c586","fixation","","","img/fixation.png","null","","","prac","","","","","","","","","","","","","","","","","","","",""
"310.30000000074506","126982","SARL_v6","SARL_v6fjsjehe5","5fd5381b5807b616d910c586","freqPrac","","","img/blue_2bandit_b2.png","70","img/blue_2bandit_b2.png","70","prac","1","2","","","","","","","","","","","","","","","","","",""
"310.30000000074506","127479","SARL_v6","SARL_v6fjsjehe5","5fd5381b5807b616d910c586","freqPrac_resp","","","img/blue_2bandit_b.png","70","img/blue_2bandit_b.png","70","prac","","","","","","","","","","","","","","","","","","","",""
"null","127638","SARL_v6","SARL_v6fjsjehe5","5fd5381b5807b616d910c586","fixation","","","img/fixation.png","null","","","prac","","","","","","","","","","","","","","","","","","","",""
"506.70000000018626","128147","SARL_v6","SARL_v6fjsjehe5","5fd5381b5807b616d910c586","infreqPrac","","","img/orange_2bandit_b2.png","68","img/orange_2bandit_b2.png","68","prac","1","2","","","","","","","","","","","","","","","","","",""
"506.70000000018626","128444","SARL_v6","SARL_v6fjsjehe5","5fd5381b5807b616d910c586","infreqPrac_resp","","","img/orange_2bandit_b.png","68","img/orange_2bandit_b.png","68","prac","","","","","","","","","","","","","","","","","","","",""
"null","128607","SARL_v6","SARL_v6fjsjehe5","5fd5381b5807b616d910c586","fixation","","","img/fixation.png","null","","","prac","","","","","","","","","","","","","","","","","","","",""
"382.59999999962747","128992","SARL_v6","SARL_v6fjsjehe5","5fd5381b5807b616d910c586","freqPrac","","","img/blue_2bandit_b2.png","70","img/blue_2bandit_b2.png","70","prac","1","2","","","","","","","","","","","","","","","","","",""
"382.59999999962747","129419","SARL_v6","SARL_v6fjsjehe5","5fd5381b5807b616d910c586","freqPrac_resp","","","img/blue_2bandit_b.png","70","img/blue_2bandit_b.png","70","prac","","","","","","","","","","","","","","","","","","","",""
"null","129573","SARL_v6","SARL_v6fjsjehe5","5fd5381b5807b616d910c586","fixation","","","img/fixation.png","null","","","prac","","","","","","","","","","","","","","","","","","","",""
"507.59999999962747","130084","SARL_v6","SARL_v6fjsjehe5","5fd5381b5807b616d910c586","freqPrac","","","img/blue_2bandit_b2.png","70","img/blue_2bandit_b2.png","70","prac","1","2","","","","","","","","","","","","","","","","","",""
"507.59999999962747","130385","SARL_v6","SARL_v6fjsjehe5","5fd5381b5807b616d910c586","freqPrac_resp","","","img/blue_2bandit_b.png","70","img/blue_2bandit_b.png","70","prac","","","","","","","","","","","","","","","","","","","",""
"null","130542","SARL_v6","SARL_v6fjsjehe5","5fd5381b5807b616d910c586","fixation","","","img/fixation.png","null","","","prac","","","","","","","","","","","","","","","","","","","",""
"39705.200000000186","170250","SARL_v6","SARL_v6fjsjehe5","5fd5381b5807b616d910c586","","","","","","","","prac","","","","","","","","","","","","","","","","","","","",""
"654.1000000005588","170907","SARL_v6","SARL_v6fjsjehe5","5fd5381b5807b616d910c586","rlPractice","","","img/black_2bandit_b2.png","74","img/black_2bandit_b2.png","","prac","","","0","","","","","","","","","","","","","","","","",""
"null","171666","SARL_v6","SARL_v6fjsjehe5","5fd5381b5807b616d910c586","feedback","","","<div class=""veryhighPoints""> 10 </div>","null","","na","prac","","","1","10","-14","10","","","","","","","","","","","","","",""
"null","171827","SARL_v6","SARL_v6fjsjehe5","5fd5381b5807b616d910c586","fixation","","","img/fixation.png","null","","","prac","","","","","","","","","","","","","","","","","","","",""
"491","172322","SARL_v6","SARL_v6fjsjehe5","5fd5381b5807b616d910c586","rlPractice","","","img/black_2bandit_b2.png","75","img/black_2bandit_b2.png","","prac","","","1","","","","","","","","","","","","","","","","",""
"null","173082","SARL_v6","SARL_v6fjsjehe5","5fd5381b5807b616d910c586","feedback","","","<div class=""verylowPoints_sq""> -5 </div>","null","","na","prac","","","2","5","-5","5","","","","","","","","","","","","","",""
"null","173238","SARL_v6","SARL_v6fjsjehe5","5fd5381b5807b616d910c586","fixation","","","img/fixation.png","null","","","prac","","","","","","","","","","","","","","","","","","","",""
"386.79999999981374","173628","SARL_v6","SARL_v6fjsjehe5","5fd5381b5807b616d910c586","rlPractice","","","img/black_2bandit_b2.png","74","img/black_2bandit_b2.png","","prac","","","2","","","","","","","","","","","","","","","","",""
"null","174394","SARL_v6","SARL_v6fjsjehe5","5fd5381b5807b616d910c586","feedback","","","<div class=""veryhighPoints""> 30 </div>","null","","na","prac","","","3","30","2","30","","","","","","","","","","","","","",""
"null","174554","SARL_v6","SARL_v6fjsjehe5","5fd5381b5807b616d910c586","fixation","","","img/fixation.png","null","","","prac","","","","","","","","","","","","","","","","","","","",""
"296.70000000018626","174854","SARL_v6","SARL_v6fjsjehe5","5fd5381b5807b616d910c586","rlPractice","","","img/black_2bandit_b2.png","74","img/black_2bandit_b2.png","","prac","","","3","","","","","","","","","","","","","","","","",""
"null","175619","SARL_v6","SARL_v6fjsjehe5","5fd5381b5807b616d910c586","feedback","","","<div class=""verylowPoints""> -2 </div>","null","","na","prac","","","4","-2","20","-2","","","","","","","","","","","","","",""
"null","175776","SARL_v6","SARL_v6fjsjehe5","5fd5381b5807b616d910c586","fixation","","","img/fixation.png","null","","","prac","","","","","","","","","","","","","","","","","","","",""
"16950.599999999627","192729","SARL_v6","SARL_v6fjsjehe5","5fd5381b5807b616d910c586","","","","","","","","prac","","","","","","","","","","","","","","","","","","","",""
"676.4000000003725","193408","SARL_v6","SARL_v6fjsjehe5","5fd5381b5807b616d910c586","mixAttFreqPrac","","","img/blue_2bandit_b2.png","70","img/blue_2bandit_b2.png","70","prac","","","1","","","","","","","","","","","","","","","","",""
"676.4000000003725","193547","SARL_v6","SARL_v6fjsjehe5","5fd5381b5807b616d910c586","freqPrac_resp","","","img/blue_2bandit_b.png","70","img/blue_2bandit_b.png","70","prac","","","1","","","","","","","","","","","","","","","","",""
"null","193715","SARL_v6","SARL_v6fjsjehe5","5fd5381b5807b616d910c586","fixation","","","img/fixation.png","null","","","prac","","","","","","","","","","","","","","","","","","","",""
"560.4000000003725","194278","SARL_v6","SARL_v6fjsjehe5","5fd5381b5807b616d910c586","mixAttInfreqPrac","","","img/orange_2bandit_b2.png","68","img/orange_2bandit_b2.png","68","prac","","","2","","","","","","","","","","","","","","","","",""
"560.4000000003725","194523","SARL_v6","SARL_v6fjsjehe5","5fd5381b5807b616d910c586","infreqPrac_resp","","","img/orange_2bandit_b.png","68","img/blue_2bandit_b.png","68","prac","","","2","","","","","","","","","","","","","","","","",""
"null","194680","SARL_v6","SARL_v6fjsjehe5","5fd5381b5807b616d910c586","fixation","","","img/fixation.png","null","","","prac","","","","","","","","","","","","","","","","","","","",""
"610.5","195294","SARL_v6","SARL_v6fjsjehe5","5fd5381b5807b616d910c586","mixAttInfreqPrac","","","img/orange_2bandit_b2.png","70","img/orange_2bandit_b2.png","68","prac","","","3","","","","","","","","","","","","","","","","",""
"610.5","195499","SARL_v6","SARL_v6fjsjehe5","5fd5381b5807b616d910c586","infreqPrac_resp","","","img/orange_2bandit_b.png","70","img/blue_2bandit_b.png","68","prac","","","3","","","","","","","","","","","","","","","","",""
"null","195659","SARL_v6","SARL_v6fjsjehe5","5fd5381b5807b616d910c586","fixation","","","img/fixation.png","null","","","prac","","","","","","","","","","","","","","","","","","","",""
"608.5","196271","SARL_v6","SARL_v6fjsjehe5","5fd5381b5807b616d910c586","mixAttInfreqPrac","","","img/orange_2bandit_b2.png","68","img/orange_2bandit_b2.png","68","prac","","","4","","","","","","","","","","","","","","","","",""
"608.5","196472","SARL_v6","SARL_v6fjsjehe5","5fd5381b5807b616d910c586","infreqPrac_resp","","","img/orange_2bandit_b.png","68","img/blue_2bandit_b.png","68","prac","","","4","","","","","","","","","","","","","","","","",""
"null","196635","SARL_v6","SARL_v6fjsjehe5","5fd5381b5807b616d910c586","fixation","","","img/fixation.png","null","","","prac","","","","","","","","","","","","","","","","","","","",""
"581.7999999998137","197221","SARL_v6","SARL_v6fjsjehe5","5fd5381b5807b616d910c586","mixAttFreqPrac","","","img/blue_2bandit_b2.png","70","img/blue_2bandit_b2.png","70","prac","","","5","","","","","","","","","","","","","","","","",""
"581.7999999998137","197451","SARL_v6","SARL_v6fjsjehe5","5fd5381b5807b616d910c586","freqPrac_resp","","","img/blue_2bandit_b.png","70","img/blue_2bandit_b.png","70","prac","","","5","","","","","","","","","","","","","","","","",""
"null","197607","SARL_v6","SARL_v6fjsjehe5","5fd5381b5807b616d910c586","fixation","","","img/fixation.png","null","","","prac","","","","","","","","","","","","","","","","","","","",""
"689.3999999994412","198299","SARL_v6","SARL_v6fjsjehe5","5fd5381b5807b616d910c586","mixRLPractice","","","img/black_2bandit_b2.png","74","img/black_2bandit_b2.png","","prac","","","5","","","","","","","","","","","","","","","","",""
"null","199054","SARL_v6","SARL_v6fjsjehe5","5fd5381b5807b616d910c586","feedback","","","<div class=""verylowPoints""> -14 </div>","null","","na","prac","","","6","-14","10","-14","","","","","","","","","","","","","",""
"null","199213","SARL_v6","SARL_v6fjsjehe5","5fd5381b5807b616d910c586","fixation","","","img/fixation.png","null","","","prac","","","","","","","","","","","","","","","","","","","",""
"641.8999999994412","199858","SARL_v6","SARL_v6fjsjehe5","5fd5381b5807b616d910c586","mixAttFreqPrac","","","img/blue_2bandit_b2.png","70","img/blue_2bandit_b2.png","70","prac","","","7","","","","","","","","","","","","","","","","",""
"641.8999999994412","200026","SARL_v6","SARL_v6fjsjehe5","5fd5381b5807b616d910c586","freqPrac_resp","","","img/blue_2bandit_b.png","70","img/blue_2bandit_b.png","70","prac","","","7","","","","","","","","","","","","","","","","",""
"null","200181","SARL_v6","SARL_v6fjsjehe5","5fd5381b5807b616d910c586","fixation","","","img/fixation.png","null","","","prac","","","","","","","","","","","","","","","","","","","",""
"596.2000000001863","200780","SARL_v6","SARL_v6fjsjehe5","5fd5381b5807b616d910c586","mixAttInfreqPrac","","","img/orange_2bandit_b2.png","68","img/orange_2bandit_b2.png","68","prac","","","8","","","","","","","","","","","","","","","","",""
"596.2000000001863","200991","SARL_v6","SARL_v6fjsjehe5","5fd5381b5807b616d910c586","infreqPrac_resp","","","img/orange_2bandit_b.png","68","img/blue_2bandit_b.png","68","prac","","","8","","","","","","","","","","","","","","","","",""
"null","201150","SARL_v6","SARL_v6fjsjehe5","5fd5381b5807b616d910c586","fixation","","","img/fixation.png","null","","","prac","","","","","","","","","","","","","","","","","","","",""
"679.9000000003725","201832","SARL_v6","SARL_v6fjsjehe5","5fd5381b5807b616d910c586","mixAttFreqPrac","","","img/blue_2bandit_b2.png","70","img/blue_2bandit_b2.png","70","prac","","","9","","","","","","","","","","","","","","","","",""
"679.9000000003725","201956","SARL_v6","SARL_v6fjsjehe5","5fd5381b5807b616d910c586","freqPrac_resp","","","img/blue_2bandit_b.png","70","img/blue_2bandit_b.png","70","prac","","","9","","","","","","","","","","","","","","","","",""
"null","202110","SARL_v6","SARL_v6fjsjehe5","5fd5381b5807b616d910c586","fixation","","","img/fixation.png","null","","","prac","","","","","","","","","","","","","","","","","","","",""
"617.2000000001863","202730","SARL_v6","SARL_v6fjsjehe5","5fd5381b5807b616d910c586","mixAttFreqPrac","","","img/blue_2bandit_b2.png","70","img/blue_2bandit_b2.png","70","prac","","","10","","","","","","","","","","","","","","","","",""
"617.2000000001863","202920","SARL_v6","SARL_v6fjsjehe5","5fd5381b5807b616d910c586","freqPrac_resp","","","img/blue_2bandit_b.png","70","img/blue_2bandit_b.png","70","prac","","","10","","","","","","","","","","","","","","","","",""
"null","203080","SARL_v6","SARL_v6fjsjehe5","5fd5381b5807b616d910c586","fixation","","","img/fixation.png","null","","","prac","","","","","","","","","","","","","","","","","","","",""
"671.8999999994412","203755","SARL_v6","SARL_v6fjsjehe5","5fd5381b5807b616d910c586","mixAttInfreqPrac","","","img/orange_2bandit_b2.png","68","img/orange_2bandit_b2.png","68","prac","","","11","","","","","","","","","","","","","","","","",""
"671.8999999994412","203899","SARL_v6","SARL_v6fjsjehe5","5fd5381b5807b616d910c586","infreqPrac_resp","","","img/orange_2bandit_b.png","68","img/blue_2bandit_b.png","68","prac","","","11","","","","","","","","","","","","","","","","",""
"null","204055","SARL_v6","SARL_v6fjsjehe5","5fd5381b5807b616d910c586","fixation","","","img/fixation.png","null","","","prac","","","","","","","","","","","","","","","","","","","",""
"813.7999999998137","204872","SARL_v6","SARL_v6fjsjehe5","5fd5381b5807b616d910c586","mixRLPractice","","","img/black_2bandit_b2.png","75","img/black_2bandit_b2.png","","prac","","","11","","","","","","","","","","","","","","","","",""
"null","205635","SARL_v6","SARL_v6fjsjehe5","5fd5381b5807b616d910c586","feedback","","","<div class=""verylowPoints_sq""> -5 </div>","null","","na","prac","","","12","5","-5","5","","","","","","","","","","","","","",""
"null","205790","SARL_v6","SARL_v6fjsjehe5","5fd5381b5807b616d910c586","fixation","","","img/fixation.png","null","","","prac","","","","","","","","","","","","","","","","","","","",""
"25373.700000000186","231166","SARL_v6","SARL_v6fjsjehe5","5fd5381b5807b616d910c586","","","","","","","","prac","","","","","","","","","","","","","","","","","","","",""
"744.6999999992549","231913","SARL_v6","SARL_v6fjsjehe5","5fd5381b5807b616d910c586","freq","","","img/blue_2bandit_b2.png","70","","70","test","1","","1","","","","circle","square","1","1","1","1","","","","","","","",""
"null","231973","SARL_v6","SARL_v6fjsjehe5","5fd5381b5807b616d910c586","freq_resp","","","img/blue_2bandit_b.png","70","img/blue_2bandit_b.png","70","test","","","","","","","","","","","1","","","","","","","","",""
"null","232136","SARL_v6","SARL_v6fjsjehe5","5fd5381b5807b616d910c586","fixation","","","img/fixation.png","null","","","test","","","","","","","","","","","","","","","","","","","",""
"442.79999999981374","232581","SARL_v6","SARL_v6fjsjehe5","5fd5381b5807b616d910c586","freq","","","img/blue_2bandit_b2.png","70","","70","test","1","","2","","","","circle","square","2","2","1","1","","","","","","","",""
"null","232942","SARL_v6","SARL_v6fjsjehe5","5fd5381b5807b616d910c586","freq_resp","","","img/blue_2bandit_b.png","70","img/blue_2bandit_b.png","70","test","","","","","","","","","","","1","","","","","","","","",""
"null","233101","SARL_v6","SARL_v6fjsjehe5","5fd5381b5807b616d910c586","fixation","","","img/fixation.png","null","","","test","","","","","","","","","","","","","","","","","","","",""
"486.6000000005588","233591","SARL_v6","SARL_v6fjsjehe5","5fd5381b5807b616d910c586","freq","","","img/blue_2bandit_b2.png","70","","70","test","1","","3","","","","circle","square","3","3","1","1","","","","","","","",""
"null","233911","SARL_v6","SARL_v6fjsjehe5","5fd5381b5807b616d910c586","freq_resp","","","img/blue_2bandit_b.png","70","img/blue_2bandit_b.png","70","test","","","","","","","","","","","1","","","","","","","","",""
"null","234068","SARL_v6","SARL_v6fjsjehe5","5fd5381b5807b616d910c586","fixation","","","img/fixation.png","null","","","test","","","","","","","","","","","","","","","","","","","",""
"438.1000000005588","234510","SARL_v6","SARL_v6fjsjehe5","5fd5381b5807b616d910c586","freq","","","img/blue_2bandit_b2.png","70","","70","test","1","","4","","","","circle","square","4","4","1","1","","","","","","","",""
"null","234883","SARL_v6","SARL_v6fjsjehe5","5fd5381b5807b616d910c586","freq_resp","","","img/blue_2bandit_b.png","70","img/blue_2bandit_b.png","70","test","","","","","","","","","","","1","","","","","","","","",""
"null","235040","SARL_v6","SARL_v6fjsjehe5","5fd5381b5807b616d910c586","fixation","","","img/fixation.png","null","","","test","","","","","","","","","","","","","","","","","","","",""
"468.3999999994412","235512","SARL_v6","SARL_v6fjsjehe5","5fd5381b5807b616d910c586","freq","","","img/blue_2bandit_b2.png","70","","70","test","1","","5","","","","circle","square","5","5","1","1","","","","","","","",""
"null","235860","SARL_v6","SARL_v6fjsjehe5","5fd5381b5807b616d910c586","freq_resp","","","img/blue_2bandit_b.png","70","img/blue_2bandit_b.png","70","test","","","","","","","","","","","1","","","","","","","","",""
"null","236015","SARL_v6","SARL_v6fjsjehe5","5fd5381b5807b616d910c586","fixation","","","img/fixation.png","null","","","test","","","","","","","","","","","","","","","","","","","",""
"466.79999999981374","236485","SARL_v6","SARL_v6fjsjehe5","5fd5381b5807b616d910c586","freq","","","img/blue_2bandit_b2.png","70","","70","test","1","","6","","","","circle","square","6","6","1","1","","","","","","","",""
"null","236825","SARL_v6","SARL_v6fjsjehe5","5fd5381b5807b616d910c586","freq_resp","","","img/blue_2bandit_b.png","70","img/blue_2bandit_b.png","70","test","","","","","","","","","","","1","","","","","","","","",""
"null","236988","SARL_v6","SARL_v6fjsjehe5","5fd5381b5807b616d910c586","fixation","","","img/fixation.png","null","","","test","","","","","","","","","","","","","","","","","","","",""
"526.5","237518","SARL_v6","SARL_v6fjsjehe5","5fd5381b5807b616d910c586","freq","","","img/blue_2bandit_b2.png","70","","70","test","1","","7","","","","circle","square","7","7","1","1","","","","","","","",""
"null","237804","SARL_v6","SARL_v6fjsjehe5","5fd5381b5807b616d910c586","freq_resp","","","img/blue_2bandit_b.png","70","img/blue_2bandit_b.png","70","test","","","","","","","","","","","1","","","","","","","","",""
"null","237958","SARL_v6","SARL_v6fjsjehe5","5fd5381b5807b616d910c586","fixation","","","img/fixation.png","null","","","test","","","","","","","","","","","","","","","","","","","",""
"473.5","238435","SARL_v6","SARL_v6fjsjehe5","5fd5381b5807b616d910c586","freq","","","img/blue_2bandit_b2.png","70","","70","test","1","","8","","","","circle","square","8","8","1","1","","","","","","","",""
"null","238772","SARL_v6","SARL_v6fjsjehe5","5fd5381b5807b616d910c586","freq_resp","","","img/blue_2bandit_b.png","70","img/blue_2bandit_b.png","70","test","","","","","","","","","","","1","","","","","","","","",""
"null","238932","SARL_v6","SARL_v6fjsjehe5","5fd5381b5807b616d910c586","fixation","","","img/fixation.png","null","","","test","","","","","","","","","","","","","","","","","","","",""
"465.80000000074506","239402","SARL_v6","SARL_v6fjsjehe5","5fd5381b5807b616d910c586","freq","","","img/blue_2bandit_b2.png","70","","70","test","1","","9","","","","circle","square","9","9","1","1","","","","","","","",""
"null","239743","SARL_v6","SARL_v6fjsjehe5","5fd5381b5807b616d910c586","freq_resp","","","img/blue_2bandit_b.png","70","img/blue_2bandit_b.png","70","test","","","","","","","","","","","1","","","","","","","","",""
"null","239901","SARL_v6","SARL_v6fjsjehe5","5fd5381b5807b616d910c586","fixation","","","img/fixation.png","null","","","test","","","","","","","","","","","","","","","","","","","",""
"474.70000000018626","240378","SARL_v6","SARL_v6fjsjehe5","5fd5381b5807b616d910c586","infreq","","","img/orange_2bandit_b2.png","68","","68","test","1","","10","","","","circle","square","10","10","1","1","","","","","","","",""
"null","240711","SARL_v6","SARL_v6fjsjehe5","5fd5381b5807b616d910c586","infreq_resp","","","img/orange_2bandit_b.png","68","img/orange_2bandit_b.png","68","test","","","","","","","","","","","1","","","","","","","","",""
"null","240870","SARL_v6","SARL_v6fjsjehe5","5fd5381b5807b616d910c586","fixation","","","img/fixation.png","null","","","test","","","","","","","","","","","","","","","","","","","",""
"602.5","241475","SARL_v6","SARL_v6fjsjehe5","5fd5381b5807b616d910c586","freq","","","img/blue_2bandit_b2.png","70","","70","test","1","","11","","","","circle","square","11","11","1","1","","","","","","","",""
"null","241678","SARL_v6","SARL_v6fjsjehe5","5fd5381b5807b616d910c586","freq_resp","","","img/blue_2bandit_b.png","70","img/blue_2bandit_b.png","70","test","","","","","","","","","","","1","","","","","","","","",""
"null","241837","SARL_v6","SARL_v6fjsjehe5","5fd5381b5807b616d910c586","fixation","","","img/fixation.png","null","","","test","","","","","","","","","","","","","","","","","","","",""
"432.5","242272","SARL_v6","SARL_v6fjsjehe5","5fd5381b5807b616d910c586","freq","","","img/blue_2bandit_b2.png","70","","70","test","1","","12","","","","circle","square","12","12","1","1","","","","","","","",""
"null","242650","SARL_v6","SARL_v6fjsjehe5","5fd5381b5807b616d910c586","freq_resp","","","img/blue_2bandit_b.png","70","img/blue_2bandit_b.png","70","test","","","","","","","","","","","1","","","","","","","","",""
"null","242809","SARL_v6","SARL_v6fjsjehe5","5fd5381b5807b616d910c586","fixation","","","img/fixation.png","null","","","test","","","","","","","","","","","","","","","","","","","",""
"330.20000000018626","243142","SARL_v6","SARL_v6fjsjehe5","5fd5381b5807b616d910c586","freq","","","img/blue_2bandit_b2.png","70","","70","test","1","","13","","","","circle","square","13","13","1","1","","","","","","","",""
"null","243615","SARL_v6","SARL_v6fjsjehe5","5fd5381b5807b616d910c586","freq_resp","","","img/blue_2bandit_b.png","70","img/blue_2bandit_b.png","70","test","","","","","","","","","","","1","","","","","","","","",""
"null","243775","SARL_v6","SARL_v6fjsjehe5","5fd5381b5807b616d910c586","fixation","","","img/fixation.png","null","","","test","","","","","","","","","","","","","","","","","","","",""
"417.5","244195","SARL_v6","SARL_v6fjsjehe5","5fd5381b5807b616d910c586","infreq","","","img/orange_2bandit_b2.png","68","","68","test","1","","14","","","","circle","square","14","14","1","1","","","","","","","",""
"null","244587","SARL_v6","SARL_v6fjsjehe5","5fd5381b5807b616d910c586","infreq_resp","","","img/orange_2bandit_b.png","68","img/orange_2bandit_b.png","68","test","","","","","","","","","","","1","","","","","","","","",""
"null","244747","SARL_v6","SARL_v6fjsjehe5","5fd5381b5807b616d910c586","fixation","","","img/fixation.png","null","","","test","","","","","","","","","","","","","","","","","","","",""
"568.9000000003725","245319","SARL_v6","SARL_v6fjsjehe5","5fd5381b5807b616d910c586","freq","","","img/blue_2bandit_b2.png","70","","70","test","1","","15","","","","circle","square","15","15","1","1","","","","","","","",""
"null","245563","SARL_v6","SARL_v6fjsjehe5","5fd5381b5807b616d910c586","freq_resp","","","img/blue_2bandit_b.png","70","img/blue_2bandit_b.png","70","test","","","","","","","","","","","1","","","","","","","","",""
"null","245724","SARL_v6","SARL_v6fjsjehe5","5fd5381b5807b616d910c586","fixation","","","img/fixation.png","null","","","test","","","","","","","","","","","","","","","","","","","",""
"410","246137","SARL_v6","SARL_v6fjsjehe5","5fd5381b5807b616d910c586","freq","","","img/blue_2bandit_b2.png","70","","70","test","1","","16","","","","circle","square","16","16","1","1","","","","","","","",""
"null","246540","SARL_v6","SARL_v6fjsjehe5","5fd5381b5807b616d910c586","freq_resp","","","img/blue_2bandit_b.png","70","img/blue_2bandit_b.png","70","test","","","","","","","","","","","1","","","","","","","","",""
"null","246694","SARL_v6","SARL_v6fjsjehe5","5fd5381b5807b616d910c586","fixation","","","img/fixation.png","null","","","test","","","","","","","","","","","","","","","","","","","",""
"349.09999999962747","247047","SARL_v6","SARL_v6fjsjehe5","5fd5381b5807b616d910c586","freq","","","img/blue_2bandit_b2.png","70","","70","test","1","","17","","","","circle","square","17","17","1","1","","","","","","","",""
"null","247508","SARL_v6","SARL_v6fjsjehe5","5fd5381b5807b616d910c586","freq_resp","","","img/blue_2bandit_b.png","70","img/blue_2bandit_b.png","70","test","","","","","","","","","","","1","","","","","","","","",""
"null","247668","SARL_v6","SARL_v6fjsjehe5","5fd5381b5807b616d910c586","fixation","","","img/fixation.png","null","","","test","","","","","","","","","","","","","","","","","","","",""
"348.69999999925494","248020","SARL_v6","SARL_v6fjsjehe5","5fd5381b5807b616d910c586","freq","","","img/blue_2bandit_b2.png","70","","70","test","1","","18","","","","circle","square","18","18","1","1","","","","","","","",""
"null","248478","SARL_v6","SARL_v6fjsjehe5","5fd5381b5807b616d910c586","freq_resp","","","img/blue_2bandit_b.png","70","img/blue_2bandit_b.png","70","test","","","","","","","","","","","1","","","","","","","","",""
"null","248644","SARL_v6","SARL_v6fjsjehe5","5fd5381b5807b616d910c586","fixation","","","img/fixation.png","null","","","test","","","","","","","","","","","","","","","","","","","",""
"349.3999999994412","248997","SARL_v6","SARL_v6fjsjehe5","5fd5381b5807b616d910c586","freq","","","img/blue_2bandit_b2.png","70","","70","test","1","","19","","","","circle","square","19","19","1","1","","","","","","","",""
"null","249460","SARL_v6","SARL_v6fjsjehe5","5fd5381b5807b616d910c586","freq_resp","","","img/blue_2bandit_b.png","70","img/blue_2bandit_b.png","70","test","","","","","","","","","","","1","","","","","","","","",""
"null","249620","SARL_v6","SARL_v6fjsjehe5","5fd5381b5807b616d910c586","fixation","","","img/fixation.png","null","","","test","","","","","","","","","","","","","","","","","","","",""
"285.40000000037253","249909","SARL_v6","SARL_v6fjsjehe5","5fd5381b5807b616d910c586","freq","","","img/blue_2bandit_b2.png","70","","70","test","1","","20","","","","circle","square","20","20","1","1","","","","","","","",""
"null","250432","SARL_v6","SARL_v6fjsjehe5","5fd5381b5807b616d910c586","freq_resp","","","img/blue_2bandit_b.png","70","img/blue_2bandit_b.png","70","test","","","","","","","","","","","1","","","","","","","","",""
"null","250589","SARL_v6","SARL_v6fjsjehe5","5fd5381b5807b616d910c586","fixation","","","img/fixation.png","null","","","test","","","","","","","","","","","","","","","","","","","",""
"281.70000000018626","250874","SARL_v6","SARL_v6fjsjehe5","5fd5381b5807b616d910c586","freq","","","img/blue_2bandit_b2.png","70","","70","test","1","","21","","","","circle","square","21","21","1","1","","","","","","","",""
"null","251401","SARL_v6","SARL_v6fjsjehe5","5fd5381b5807b616d910c586","freq_resp","","","img/blue_2bandit_b.png","70","img/blue_2bandit_b.png","70","test","","","","","","","","","","","1","","","","","","","","",""
"null","251558","SARL_v6","SARL_v6fjsjehe5","5fd5381b5807b616d910c586","fixation","","","img/fixation.png","null","","","test","","","","","","","","","","","","","","","","","","","",""
"486.1000000005588","252047","SARL_v6","SARL_v6fjsjehe5","5fd5381b5807b616d910c586","rl","","","img/black_2bandit_b2.png","75","","0","test","","","22","","","-3","circle","square","","0","1","","75","-3","-3","-3","-3","square","1","0"
"null","252806","SARL_v6","SARL_v6fjsjehe5","5fd5381b5807b616d910c586","feedback","","","<div class=""verylowPoints_sq""> -3 </div>","null","","na","test","","","NaN","","","","","","","","1","","75","","","","","","1",""
"546.9000000003725","253355","SARL_v6","SARL_v6fjsjehe5","5fd5381b5807b616d910c586","freq","","","img/blue_2bandit_b2.png","70","","70","test","1","","23","","","","circle","square","22","1","2","1","","","","","","","",""
"null","253614","SARL_v6","SARL_v6fjsjehe5","5fd5381b5807b616d910c586","freq_resp","","","img/blue_2bandit_b.png","70","img/blue_2bandit_b.png","70","test","","","","","","","","","","","2","","","","","","","","",""
"null","253774","SARL_v6","SARL_v6fjsjehe5","5fd5381b5807b616d910c586","fixation","","","img/fixation.png","null","","","test","","","","","","","","","","","","","","","","","","","",""
"410","254187","SARL_v6","SARL_v6fjsjehe5","5fd5381b5807b616d910c586","freq","","","img/blue_2bandit_b2.png","70","","70","test","1","","24","","","","circle","square","23","2","2","1","","","","","","","",""
"null","254585","SARL_v6","SARL_v6fjsjehe5","5fd5381b5807b616d910c586","freq_resp","","","img/blue_2bandit_b.png","70","img/blue_2bandit_b.png","70","test","","","","","","","","","","","2","","","","","","","","",""
"null","254745","SARL_v6","SARL_v6fjsjehe5","5fd5381b5807b616d910c586","fixation","","","img/fixation.png","null","","","test","","","","","","","","","","","","","","","","","","","",""
"301.5","255049","SARL_v6","SARL_v6fjsjehe5","5fd5381b5807b616d910c586","freq","","","img/blue_2bandit_b2.png","70","","70","test","1","","25","","","","circle","square","24","3","2","1","","","","","","","",""
"null","255550","SARL_v6","SARL_v6fjsjehe5","5fd5381b5807b616d910c586","freq_resp","","","img/blue_2bandit_b.png","70","img/blue_2bandit_b.png","70","test","","","","","","","","","","","2","","","","","","","","",""
"null","255716","SARL_v6","SARL_v6fjsjehe5","5fd5381b5807b616d910c586","fixation","","","img/fixation.png","null","","","test","","","","","","","","","","","","","","","","","","","",""
"320.09999999962747","256040","SARL_v6","SARL_v6fjsjehe5","5fd5381b5807b616d910c586","freq","","","img/blue_2bandit_b2.png","70","","70","test","1","","26","","","","circle","square","25","4","2","1","","","","","","","",""
"null","256529","SARL_v6","SARL_v6fjsjehe5","5fd5381b5807b616d910c586","freq_resp","","","img/blue_2bandit_b.png","70","img/blue_2bandit_b.png","70","test","","","","","","","","","","","2","","","","","","","","",""
"null","256688","SARL_v6","SARL_v6fjsjehe5","5fd5381b5807b616d910c586","fixation","","","img/fixation.png","null","","","test","","","","","","","","","","","","","","","","","","","",""
"293","256984","SARL_v6","SARL_v6fjsjehe5","5fd5381b5807b616d910c586","freq","","","img/blue_2bandit_b2.png","70","","70","test","1","","27","","","","circle","square","26","5","2","1","","","","","","","",""
"null","257496","SARL_v6","SARL_v6fjsjehe5","5fd5381b5807b616d910c586","freq_resp","","","img/blue_2bandit_b.png","70","img/blue_2bandit_b.png","70","test","","","","","","","","","","","2","","","","","","","","",""
"null","257660","SARL_v6","SARL_v6fjsjehe5","5fd5381b5807b616d910c586","fixation","","","img/fixation.png","null","","","test","","","","","","","","","","","","","","","","","","","",""
"363.29999999981374","258027","SARL_v6","SARL_v6fjsjehe5","5fd5381b5807b616d910c586","freq","","","img/blue_2bandit_b2.png","70","","70","test","1","","28","","","","circle","square","27","6","2","1","","","","","","","",""
"null","258476","SARL_v6","SARL_v6fjsjehe5","5fd5381b5807b616d910c586","freq_resp","","","img/blue_2bandit_b.png","70","img/blue_2bandit_b.png","70","test","","","","","","","","","","","2","","","","","","","","",""
"null","258636","SARL_v6","SARL_v6fjsjehe5","5fd5381b5807b616d910c586","fixation","","","img/fixation.png","null","","","test","","","","","","","","","","","","","","","","","","","",""
"355.80000000074506","258996","SARL_v6","SARL_v6fjsjehe5","5fd5381b5807b616d910c586","freq","","","img/blue_2bandit_b2.png","70","","70","test","1","","29","","","","circle","square","28","7","2","1","","","","","","","",""
"null","259451","SARL_v6","SARL_v6fjsjehe5","5fd5381b5807b616d910c586","freq_resp","","","img/blue_2bandit_b.png","70","img/blue_2bandit_b.png","70","test","","","","","","","","","","","2","","","","","","","","",""
"null","259609","SARL_v6","SARL_v6fjsjehe5","5fd5381b5807b616d910c586","fixation","","","img/fixation.png","null","","","test","","","","","","","","","","","","","","","","","","","",""
"353.3999999994412","259965","SARL_v6","SARL_v6fjsjehe5","5fd5381b5807b616d910c586","freq","","","img/blue_2bandit_b2.png","70","","70","test","1","","30","","","","circle","square","29","8","2","1","","","","","","","",""
"null","260425","SARL_v6","SARL_v6fjsjehe5","5fd5381b5807b616d910c586","freq_resp","","","img/blue_2bandit_b.png","70","img/blue_2bandit_b.png","70","test","","","","","","","","","","","2","","","","","","","","",""
"null","260582","SARL_v6","SARL_v6fjsjehe5","5fd5381b5807b616d910c586","fixation","","","img/fixation.png","null","","","test","","","","","","","","","","","","","","","","","","","",""
"394.20000000018626","260979","SARL_v6","SARL_v6fjsjehe5","5fd5381b5807b616d910c586","freq","","","img/blue_2bandit_b2.png","70","","70","test","1","","31","","","","circle","square","30","9","2","1","","","","","","","",""
"null","261390","SARL_v6","SARL_v6fjsjehe5","5fd5381b5807b616d910c586","freq_resp","","","img/blue_2bandit_b.png","70","img/blue_2bandit_b.png","70","test","","","","","","","","","","","2","","","","","","","","",""
"null","261551","SARL_v6","SARL_v6fjsjehe5","5fd5381b5807b616d910c586","fixation","","","img/fixation.png","null","","","test","","","","","","","","","","","","","","","","","","","",""
"411.29999999981374","261965","SARL_v6","SARL_v6fjsjehe5","5fd5381b5807b616d910c586","infreq","","","img/orange_2bandit_b2.png","68","","68","test","1","","32","","","","circle","square","31","10","2","1","","","","","","","",""
"null","262358","SARL_v6","SARL_v6fjsjehe5","5fd5381b5807b616d910c586","infreq_resp","","","img/orange_2bandit_b.png","68","img/orange_2bandit_b.png","68","test","","","","","","","","","","","2","","","","","","","","",""
"null","262519","SARL_v6","SARL_v6fjsjehe5","5fd5381b5807b616d910c586","fixation","","","img/fixation.png","null","","","test","","","","","","","","","","","","","","","","","","","",""
"417.79999999981374","262940","SARL_v6","SARL_v6fjsjehe5","5fd5381b5807b616d910c586","freq","","","img/blue_2bandit_b2.png","70","","70","test","1","","33","","","","circle","square","32","11","2","1","","","","","","","",""
"null","263326","SARL_v6","SARL_v6fjsjehe5","5fd5381b5807b616d910c586","freq_resp","","","img/blue_2bandit_b.png","70","img/blue_2bandit_b.png","70","test","","","","","","","","","","","2","","","","","","","","",""
"null","263486","SARL_v6","SARL_v6fjsjehe5","5fd5381b5807b616d910c586","fixation","","","img/fixation.png","null","","","test","","","","","","","","","","","","","","","","","","","",""
"333.79999999981374","263822","SARL_v6","SARL_v6fjsjehe5","5fd5381b5807b616d910c586","freq","","","img/blue_2bandit_b2.png","70","","70","test","1","","34","","","","circle","square","33","12","2","1","","","","","","","",""
"null","264294","SARL_v6","SARL_v6fjsjehe5","5fd5381b5807b616d910c586","freq_resp","","","img/blue_2bandit_b.png","70","img/blue_2bandit_b.png","70","test","","","","","","","","","","","2","","","","","","","","",""
"null","264459","SARL_v6","SARL_v6fjsjehe5","5fd5381b5807b616d910c586","fixation","","","img/fixation.png","null","","","test","","","","","","","","","","","","","","","","","","","",""
"392.1000000005588","264854","SARL_v6","SARL_v6fjsjehe5","5fd5381b5807b616d910c586","infreq","","","img/orange_2bandit_b2.png","68","","68","test","1","","35","","","","circle","square","34","13","2","1","","","","","","","",""
"null","265276","SARL_v6","SARL_v6fjsjehe5","5fd5381b5807b616d910c586","infreq_resp","","","img/orange_2bandit_b.png","68","img/orange_2bandit_b.png","68","test","","","","","","","","","","","2","","","","","","","","",""
"null","265431","SARL_v6","SARL_v6fjsjehe5","5fd5381b5807b616d910c586","fixation","","","img/fixation.png","null","","","test","","","","","","","","","","","","","","","","","","","",""
"437.79999999981374","265871","SARL_v6","SARL_v6fjsjehe5","5fd5381b5807b616d910c586","freq","","","img/blue_2bandit_b2.png","70","","70","test","1","","36","","","","circle","square","35","14","2","1","","","","","","","",""
"null","266240","SARL_v6","SARL_v6fjsjehe5","5fd5381b5807b616d910c586","freq_resp","","","img/blue_2bandit_b.png","70","img/blue_2bandit_b.png","70","test","","","","","","","","","","","2","","","","","","","","",""
"null","266399","SARL_v6","SARL_v6fjsjehe5","5fd5381b5807b616d910c586","fixation","","","img/fixation.png","null","","","test","","","","","","","","","","","","","","","","","","","",""
"347.29999999981374","266750","SARL_v6","SARL_v6fjsjehe5","5fd5381b5807b616d910c586","freq","","","img/blue_2bandit_b2.png","70","","70","test","1","","37","","","","circle","square","36","15","2","1","","","","","","","",""
"null","267212","SARL_v6","SARL_v6fjsjehe5","5fd5381b5807b616d910c586","freq_resp","","","img/blue_2bandit_b.png","70","img/blue_2bandit_b.png","70","test","","","","","","","","","","","2","","","","","","","","",""
"null","267371","SARL_v6","SARL_v6fjsjehe5","5fd5381b5807b616d910c586","fixation","","","img/fixation.png","null","","","test","","","","","","","","","","","","","","","","","","","",""
"358.1000000005588","267733","SARL_v6","SARL_v6fjsjehe5","5fd5381b5807b616d910c586","freq","","","img/blue_2bandit_b2.png","70","","70","test","1","","38","","","","circle","square","37","16","2","1","","","","","","","",""
"null","268188","SARL_v6","SARL_v6fjsjehe5","5fd5381b5807b616d910c586","freq_resp","","","img/blue_2bandit_b.png","70","img/blue_2bandit_b.png","70","test","","","","","","","","","","","2","","","","","","","","",""
"null","268348","SARL_v6","SARL_v6fjsjehe5","5fd5381b5807b616d910c586","fixation","","","img/fixation.png","null","","","test","","","","","","","","","","","","","","","","","","","",""
"288.29999999981374","268639","SARL_v6","SARL_v6fjsjehe5","5fd5381b5807b616d910c586","freq","","","img/blue_2bandit_b2.png","70","","70","test","1","","39","","","","circle","square","38","17","2","1","","","","","","","",""
"null","269162","SARL_v6","SARL_v6fjsjehe5","5fd5381b5807b616d910c586","freq_resp","","","img/blue_2bandit_b.png","70","img/blue_2bandit_b.png","70","test","","","","","","","","","","","2","","","","","","","","",""
"null","269320","SARL_v6","SARL_v6fjsjehe5","5fd5381b5807b616d910c586","fixation","","","img/fixation.png","null","","","test","","","","","","","","","","","","","","","","","","","",""
"268.70000000018626","269592","SARL_v6","SARL_v6fjsjehe5","5fd5381b5807b616d910c586","freq","","","img/blue_2bandit_b2.png","70","","70","test","1","","40","","","","circle","square","39","18","2","1","","","","","","","",""
"null","270140","SARL_v6","SARL_v6fjsjehe5","5fd5381b5807b616d910c586","freq_resp","","","img/blue_2bandit_b.png","70","img/blue_2bandit_b.png","70","test","","","","","","","","","","","2","","","","","","","","",""
"null","270295","SARL_v6","SARL_v6fjsjehe5","5fd5381b5807b616d910c586","fixation","","","img/fixation.png","null","","","test","","","","","","","","","","","","","","","","","","","",""
"300.79999999981374","270600","SARL_v6","SARL_v6fjsjehe5","5fd5381b5807b616d910c586","infreq","","","img/orange_2bandit_b2.png","70","","68","test","0","","41","","","","circle","square","40","19","2","0.975","","","","","","","",""
"null","271104","SARL_v6","SARL_v6fjsjehe5","5fd5381b5807b616d910c586","infreq_resp","","","img/orange_2bandit_b.png","70","img/orange_2bandit_b.png","68","test","","","","","","","","","","","2","","","","","","","","",""
"null","271263","SARL_v6","SARL_v6fjsjehe5","5fd5381b5807b616d910c586","fixation","","","img/fixation.png","null","","","test","","","","","","","","","","","","","","","","","","","",""
"460.90000000037253","271726","SARL_v6","SARL_v6fjsjehe5","5fd5381b5807b616d910c586","freq","","","img/blue_2bandit_b2.png","70","","70","test","1","","42","","","","circle","square","41","20","2","0.975609756097561","","","","","","","",""
"null","272070","SARL_v6","SARL_v6fjsjehe5","5fd5381b5807b616d910c586","freq_resp","","","img/blue_2bandit_b.png","70","img/blue_2bandit_b.png","70","test","","","","","","","","","","","2","","","","","","","","",""
"null","272230","SARL_v6","SARL_v6fjsjehe5","5fd5381b5807b616d910c586","fixation","","","img/fixation.png","null","","","test","","","","","","","","","","","","","","","","","","","",""
"378.79999999981374","272611","SARL_v6","SARL_v6fjsjehe5","5fd5381b5807b616d910c586","freq","","","img/blue_2bandit_b2.png","70","","70","test","1","","43","","","","circle","square","42","21","2","0.9761904761904762","","","","","","","",""
"null","273038","SARL_v6","SARL_v6fjsjehe5","5fd5381b5807b616d910c586","freq_resp","","","img/blue_2bandit_b.png","70","img/blue_2bandit_b.png","70","test","","","","","","","","","","","2","","","","","","","","",""
"null","273200","SARL_v6","SARL_v6fjsjehe5","5fd5381b5807b616d910c586","fixation","","","img/fixation.png","null","","","test","","","","","","","","","","","","","","","","","","","",""
"375.6000000005588","273578","SARL_v6","SARL_v6fjsjehe5","5fd5381b5807b616d910c586","freq","","","img/blue_2bandit_b2.png","70","","70","test","1","","44","","","","circle","square","43","22","2","0.9767441860465116","","","","","","","",""
"null","274006","SARL_v6","SARL_v6fjsjehe5","5fd5381b5807b616d910c586","freq_resp","","","img/blue_2bandit_b.png","70","img/blue_2bandit_b.png","70","test","","","","","","","","","","","2","","","","","","","","",""
"null","274168","SARL_v6","SARL_v6fjsjehe5","5fd5381b5807b616d910c586","fixation","","","img/fixation.png","null","","","test","","","","","","","","","","","","","","","","","","","",""
"383.69999999925494","274554","SARL_v6","SARL_v6fjsjehe5","5fd5381b5807b616d910c586","freq","","","img/blue_2bandit_b2.png","70","","70","test","1","","45","","","","circle","square","44","23","2","0.9772727272727273","","","","","","","",""
"null","274974","SARL_v6","SARL_v6fjsjehe5","5fd5381b5807b616d910c586","freq_resp","","","img/blue_2bandit_b.png","70","img/blue_2bandit_b.png","70","test","","","","","","","","","","","2","","","","","","","","",""
"null","275136","SARL_v6","SARL_v6fjsjehe5","5fd5381b5807b616d910c586","fixation","","","img/fixation.png","null","","","test","","","","","","","","","","","","","","","","","","","",""
"375.3999999994412","275515","SARL_v6","SARL_v6fjsjehe5","5fd5381b5807b616d910c586","freq","","","img/blue_2bandit_b2.png","70","","70","test","1","","46","","","","circle","square","45","24","2","0.9777777777777777","","","","","","","",""
"null","275946","SARL_v6","SARL_v6fjsjehe5","5fd5381b5807b616d910c586","freq_resp","","","img/blue_2bandit_b.png","70","img/blue_2bandit_b.png","70","test","","","","","","","","","","","2","","","","","","","","",""
"null","276102","SARL_v6","SARL_v6fjsjehe5","5fd5381b5807b616d910c586","fixation","","","img/fixation.png","null","","","test","","","","","","","","","","","","","","","","","","","",""
"358.3999999994412","276464","SARL_v6","SARL_v6fjsjehe5","5fd5381b5807b616d910c586","freq","","","img/blue_2bandit_b2.png","70","","70","test","1","","47","","","","circle","square","46","25","2","0.9782608695652174","","","","","","","",""
"null","276912","SARL_v6","SARL_v6fjsjehe5","5fd5381b5807b616d910c586","freq_resp","","","img/blue_2bandit_b.png","70","img/blue_2bandit_b.png","70","test","","","","","","","","","","","2","","","","","","","","",""
"null","277065","SARL_v6","SARL_v6fjsjehe5","5fd5381b5807b616d910c586","fixation","","","img/fixation.png","null","","","test","","","","","","","","","","","","","","","","","","","",""
"679.9000000003725","277748","SARL_v6","SARL_v6fjsjehe5","5fd5381b5807b616d910c586","rl","","","img/black_2bandit_b2.png","74","","0","test","","","48","","","-8","circle","square","","0","2","","74","-8","-5","-8","-5","circle","2","0"
"null","278509","SARL_v6","SARL_v6fjsjehe5","5fd5381b5807b616d910c586","feedback","","","<div class=""verylowPoints""> -8 </div>","null","","na","test","","","NaN","","","","","","","","2","","74","","","","","","2",""
"432.5","278944","SARL_v6","SARL_v6fjsjehe5","5fd5381b5807b616d910c586","freq","","","img/blue_2bandit_b2.png","70","","70","test","1","","49","","","","circle","square","47","1","3","0.9787234042553191","","","","","","","",""
"null","279321","SARL_v6","SARL_v6fjsjehe5","5fd5381b5807b616d910c586","freq_resp","","","img/blue_2bandit_b.png","70","img/blue_2bandit_b.png","70","test","","","","","","","","","","","3","","","","","","","","",""
"null","279484","SARL_v6","SARL_v6fjsjehe5","5fd5381b5807b616d910c586","fixation","","","img/fixation.png","null","","","test","","","","","","","","","","","","","","","","","","","",""
"389.40000000037253","279877","SARL_v6","SARL_v6fjsjehe5","5fd5381b5807b616d910c586","freq","","","img/blue_2bandit_b2.png","70","","70","test","1","","50","","","","circle","square","48","2","3","0.9791666666666666","","","","","","","",""
"null","280296","SARL_v6","SARL_v6fjsjehe5","5fd5381b5807b616d910c586","freq_resp","","","img/blue_2bandit_b.png","70","img/blue_2bandit_b.png","70","test","","","","","","","","","","","3","","","","","","","","",""
"null","280460","SARL_v6","SARL_v6fjsjehe5","5fd5381b5807b616d910c586","fixation","","","img/fixation.png","null","","","test","","","","","","","","","","","","","","","","","","","",""
"340.59999999962747","280804","SARL_v6","SARL_v6fjsjehe5","5fd5381b5807b616d910c586","freq","","","img/blue_2bandit_b2.png","70","","70","test","1","","51","","","","circle","square","49","3","3","0.9795918367346939","","","","","","","",""
"null","281276","SARL_v6","SARL_v6fjsjehe5","5fd5381b5807b616d910c586","freq_resp","","","img/blue_2bandit_b.png","70","img/blue_2bandit_b.png","70","test","","","","","","","","","","","3","","","","","","","","",""
"null","281433","SARL_v6","SARL_v6fjsjehe5","5fd5381b5807b616d910c586","fixation","","","img/fixation.png","null","","","test","","","","","","","","","","","","","","","","","","","",""
"312.09999999962747","281747","SARL_v6","SARL_v6fjsjehe5","5fd5381b5807b616d910c586","freq","","","img/blue_2bandit_b2.png","70","","70","test","1","","52","","","","circle","square","50","4","3","0.98","","","","","","","",""
"null","282240","SARL_v6","SARL_v6fjsjehe5","5fd5381b5807b616d910c586","freq_resp","","","img/blue_2bandit_b.png","70","img/blue_2bandit_b.png","70","test","","","","","","","","","","","3","","","","","","","","",""
"null","282398","SARL_v6","SARL_v6fjsjehe5","5fd5381b5807b616d910c586","fixation","","","img/fixation.png","null","","","test","","","","","","","","","","","","","","","","","","","",""
"458.59999999962747","282859","SARL_v6","SARL_v6fjsjehe5","5fd5381b5807b616d910c586","infreq","","","img/orange_2bandit_b2.png","68","","68","test","1","","53","","","","circle","square","51","5","3","0.9803921568627451","","","","","","","",""
"null","283208","SARL_v6","SARL_v6fjsjehe5","5fd5381b5807b616d910c586","infreq_resp","","","img/orange_2bandit_b.png","68","img/orange_2bandit_b.png","68","test","","","","","","","","","","","3","","","","","","","","",""
"null","283366","SARL_v6","SARL_v6fjsjehe5","5fd5381b5807b616d910c586","fixation","","","img/fixation.png","null","","","test","","","","","","","","","","","","","","","","","","","",""
"412.30000000074506","283781","SARL_v6","SARL_v6fjsjehe5","5fd5381b5807b616d910c586","freq","","","img/blue_2bandit_b2.png","70","","70","test","1","","54","","","","circle","square","52","6","3","0.9807692307692307","","","","","","","",""
"null","284174","SARL_v6","SARL_v6fjsjehe5","5fd5381b5807b616d910c586","freq_resp","","","img/blue_2bandit_b.png","70","img/blue_2bandit_b.png","70","test","","","","","","","","","","","3","","","","","","","","",""
"null","284334","SARL_v6","SARL_v6fjsjehe5","5fd5381b5807b616d910c586","fixation","","","img/fixation.png","null","","","test","","","","","","","","","","","","","","","","","","","",""
"459.6000000005588","284796","SARL_v6","SARL_v6fjsjehe5","5fd5381b5807b616d910c586","freq","","","img/blue_2bandit_b2.png","70","","70","test","1","","55","","","","circle","square","53","7","3","0.9811320754716981","","","","","","","",""
"null","285142","SARL_v6","SARL_v6fjsjehe5","5fd5381b5807b616d910c586","freq_resp","","","img/blue_2bandit_b.png","70","img/blue_2bandit_b.png","70","test","","","","","","","","","","","3","","","","","","","","",""
"null","285302","SARL_v6","SARL_v6fjsjehe5","5fd5381b5807b616d910c586","fixation","","","img/fixation.png","null","","","test","","","","","","","","","","","","","","","","","","","",""
"421.90000000037253","285727","SARL_v6","SARL_v6fjsjehe5","5fd5381b5807b616d910c586","freq","","","img/blue_2bandit_b2.png","70","","70","test","1","","56","","","","circle","square","54","8","3","0.9814814814814815","","","","","","","",""
"null","286116","SARL_v6","SARL_v6fjsjehe5","5fd5381b5807b616d910c586","freq_resp","","","img/blue_2bandit_b.png","70","img/blue_2bandit_b.png","70","test","","","","","","","","","","","3","","","","","","","","",""
"null","286271","SARL_v6","SARL_v6fjsjehe5","5fd5381b5807b616d910c586","fixation","","","img/fixation.png","null","","","test","","","","","","","","","","","","","","","","","","","",""
"420.79999999981374","286694","SARL_v6","SARL_v6fjsjehe5","5fd5381b5807b616d910c586","freq","","","img/blue_2bandit_b2.png","70","","70","test","1","","57","","","","circle","square","55","9","3","0.9818181818181818","","","","","","","",""
"null","287082","SARL_v6","SARL_v6fjsjehe5","5fd5381b5807b616d910c586","freq_resp","","","img/blue_2bandit_b.png","70","img/blue_2bandit_b.png","70","test","","","","","","","","","","","3","","","","","","","","",""
"null","287244","SARL_v6","SARL_v6fjsjehe5","5fd5381b5807b616d910c586","fixation","","","img/fixation.png","null","","","test","","","","","","","","","","","","","","","","","","","",""
"399","287647","SARL_v6","SARL_v6fjsjehe5","5fd5381b5807b616d910c586","freq","","","img/blue_2bandit_b2.png","70","","70","test","1","","58","","","","circle","square","56","10","3","0.9821428571428571","","","","","","","",""
"null","288060","SARL_v6","SARL_v6fjsjehe5","5fd5381b5807b616d910c586","freq_resp","","","img/blue_2bandit_b.png","70","img/blue_2bandit_b.png","70","test","","","","","","","","","","","3","","","","","","","","",""
"null","288220","SARL_v6","SARL_v6fjsjehe5","5fd5381b5807b616d910c586","fixation","","","img/fixation.png","null","","","test","","","","","","","","","","","","","","","","","","","",""
"469","288693","SARL_v6","SARL_v6fjsjehe5","5fd5381b5807b616d910c586","infreq","","","img/orange_2bandit_b2.png","68","","68","test","1","","59","","","","circle","square","57","11","3","0.9824561403508771","","","","","","","",""
"null","289036","SARL_v6","SARL_v6fjsjehe5","5fd5381b5807b616d910c586","infreq_resp","","","img/orange_2bandit_b.png","68","img/orange_2bandit_b.png","68","test","","","","","","","","","","","3","","","","","","","","",""
"null","289196","SARL_v6","SARL_v6fjsjehe5","5fd5381b5807b616d910c586","fixation","","","img/fixation.png","null","","","test","","","","","","","","","","","","","","","","","","","",""
"446.59999999962747","289646","SARL_v6","SARL_v6fjsjehe5","5fd5381b5807b616d910c586","freq","","","img/blue_2bandit_b2.png","70","","70","test","1","","60","","","","circle","square","58","12","3","0.9827586206896551","","","","","","","",""
"null","290012","SARL_v6","SARL_v6fjsjehe5","5fd5381b5807b616d910c586","freq_resp","","","img/blue_2bandit_b.png","70","img/blue_2bandit_b.png","70","test","","","","","","","","","","","3","","","","","","","","",""
"null","290170","SARL_v6","SARL_v6fjsjehe5","5fd5381b5807b616d910c586","fixation","","","img/fixation.png","null","","","test","","","","","","","","","","","","","","","","","","","",""
"327.20000000018626","290501","SARL_v6","SARL_v6fjsjehe5","5fd5381b5807b616d910c586","freq","","","img/blue_2bandit_b2.png","70","","70","test","1","","61","","","","circle","square","59","13","3","0.9830508474576272","","","","","","","",""
"null","290988","SARL_v6","SARL_v6fjsjehe5","5fd5381b5807b616d910c586","freq_resp","","","img/blue_2bandit_b.png","70","img/blue_2bandit_b.png","70","test","","","","","","","","","","","3","","","","","","","","",""
"null","291148","SARL_v6","SARL_v6fjsjehe5","5fd5381b5807b616d910c586","fixation","","","img/fixation.png","null","","","test","","","","","","","","","","","","","","","","","","","",""
"323.19999999925494","291475","SARL_v6","SARL_v6fjsjehe5","5fd5381b5807b616d910c586","freq","","","img/blue_2bandit_b2.png","70","","70","test","1","","62","","","","circle","square","60","14","3","0.9833333333333333","","","","","","","",""
"null","291961","SARL_v6","SARL_v6fjsjehe5","5fd5381b5807b616d910c586","freq_resp","","","img/blue_2bandit_b.png","70","img/blue_2bandit_b.png","70","test","","","","","","","","","","","3","","","","","","","","",""
"null","292119","SARL_v6","SARL_v6fjsjehe5","5fd5381b5807b616d910c586","fixation","","","img/fixation.png","null","","","test","","","","","","","","","","","","","","","","","","","",""
"391.5","292513","SARL_v6","SARL_v6fjsjehe5","5fd5381b5807b616d910c586","freq","","","img/blue_2bandit_b2.png","70","","70","test","1","","63","","","","circle","square","61","15","3","0.9836065573770492","","","","","","","",""
"null","292930","SARL_v6","SARL_v6fjsjehe5","5fd5381b5807b616d910c586","freq_resp","","","img/blue_2bandit_b.png","70","img/blue_2bandit_b.png","70","test","","","","","","","","","","","3","","","","","","","","",""
"null","293088","SARL_v6","SARL_v6fjsjehe5","5fd5381b5807b616d910c586","fixation","","","img/fixation.png","null","","","test","","","","","","","","","","","","","","","","","","","",""
"360.40000000037253","293451","SARL_v6","SARL_v6fjsjehe5","5fd5381b5807b616d910c586","freq","","","img/blue_2bandit_b2.png","70","","70","test","1","","64","","","","circle","square","62","16","3","0.9838709677419355","","","","","","","",""
"null","293894","SARL_v6","SARL_v6fjsjehe5","5fd5381b5807b616d910c586","freq_resp","","","img/blue_2bandit_b.png","70","img/blue_2bandit_b.png","70","test","","","","","","","","","","","3","","","","","","","","",""
"null","294054","SARL_v6","SARL_v6fjsjehe5","5fd5381b5807b616d910c586","fixation","","","img/fixation.png","null","","","test","","","","","","","","","","","","","","","","","","","",""
"410.40000000037253","294468","SARL_v6","SARL_v6fjsjehe5","5fd5381b5807b616d910c586","freq","","","img/blue_2bandit_b2.png","70","","70","test","1","","65","","","","circle","square","63","17","3","0.9841269841269841","","","","","","","",""
"null","294862","SARL_v6","SARL_v6fjsjehe5","5fd5381b5807b616d910c586","freq_resp","","","img/blue_2bandit_b.png","70","img/blue_2bandit_b.png","70","test","","","","","","","","","","","3","","","","","","","","",""
"null","295022","SARL_v6","SARL_v6fjsjehe5","5fd5381b5807b616d910c586","fixation","","","img/fixation.png","null","","","test","","","","","","","","","","","","","","","","","","","",""
"355.1000000005588","295380","SARL_v6","SARL_v6fjsjehe5","5fd5381b5807b616d910c586","freq","","","img/blue_2bandit_b2.png","70","","70","test","1","","66","","","","circle","square","64","18","3","0.984375","","","","","","","",""
"null","295830","SARL_v6","SARL_v6fjsjehe5","5fd5381b5807b616d910c586","freq_resp","","","img/blue_2bandit_b.png","70","img/blue_2bandit_b.png","70","test","","","","","","","","","","","3","","","","","","","","",""
"null","295990","SARL_v6","SARL_v6fjsjehe5","5fd5381b5807b616d910c586","fixation","","","img/fixation.png","null","","","test","","","","","","","","","","","","","","","","","","","",""
"358.70000000018626","296352","SARL_v6","SARL_v6fjsjehe5","5fd5381b5807b616d910c586","freq","","","img/blue_2bandit_b2.png","70","","70","test","1","","67","","","","circle","square","65","19","3","0.9846153846153847","","","","","","","",""
"null","296799","SARL_v6","SARL_v6fjsjehe5","5fd5381b5807b616d910c586","freq_resp","","","img/blue_2bandit_b.png","70","img/blue_2bandit_b.png","70","test","","","","","","","","","","","3","","","","","","","","",""
"null","296961","SARL_v6","SARL_v6fjsjehe5","5fd5381b5807b616d910c586","fixation","","","img/fixation.png","null","","","test","","","","","","","","","","","","","","","","","","","",""
"362.6000000005588","297327","SARL_v6","SARL_v6fjsjehe5","5fd5381b5807b616d910c586","freq","","","img/blue_2bandit_b2.png","70","","70","test","1","","68","","","","circle","square","66","20","3","0.9848484848484849","","","","","","","",""
"null","297776","SARL_v6","SARL_v6fjsjehe5","5fd5381b5807b616d910c586","freq_resp","","","img/blue_2bandit_b.png","70","img/blue_2bandit_b.png","70","test","","","","","","","","","","","3","","","","","","","","",""
"null","297940","SARL_v6","SARL_v6fjsjehe5","5fd5381b5807b616d910c586","fixation","","","img/fixation.png","null","","","test","","","","","","","","","","","","","","","","","","","",""
"487.1000000005588","298430","SARL_v6","SARL_v6fjsjehe5","5fd5381b5807b616d910c586","rl","","","img/black_2bandit_b2.png","74","","0","test","","","69","","","-8","circle","square","","0","3","","74","-8","-4","-8","-4","circle","3","0"
"null","299196","SARL_v6","SARL_v6fjsjehe5","5fd5381b5807b616d910c586","feedback","","","<div class=""verylowPoints""> -8 </div>","null","","na","test","","","NaN","","","","","","","","3","","74","","","","","","3",""
"554.2000000001863","299754","SARL_v6","SARL_v6fjsjehe5","5fd5381b5807b616d910c586","freq","","","img/blue_2bandit_b2.png","70","","70","test","1","","70","","","","circle","square","67","1","4","0.9850746268656716","","","","","","","",""
"null","300012","SARL_v6","SARL_v6fjsjehe5","5fd5381b5807b616d910c586","freq_resp","","","img/blue_2bandit_b.png","70","img/blue_2bandit_b.png","70","test","","","","","","","","","","","4","","","","","","","","",""
"null","300172","SARL_v6","SARL_v6fjsjehe5","5fd5381b5807b616d910c586","fixation","","","img/fixation.png","null","","","test","","","","","","","","","","","","","","","","","","","",""
"547.7000000001863","300723","SARL_v6","SARL_v6fjsjehe5","5fd5381b5807b616d910c586","freq","","","img/blue_2bandit_b2.png","70","","70","test","1","","71","","","","circle","square","68","2","4","0.9852941176470589","","","","","","","",""
"null","300987","SARL_v6","SARL_v6fjsjehe5","5fd5381b5807b616d910c586","freq_resp","","","img/blue_2bandit_b.png","70","img/blue_2bandit_b.png","70","test","","","","","","","","","","","4","","","","","","","","",""
"null","301147","SARL_v6","SARL_v6fjsjehe5","5fd5381b5807b616d910c586","fixation","","","img/fixation.png","null","","","test","","","","","","","","","","","","","","","","","","","",""
"509.59999999962747","301660","SARL_v6","SARL_v6fjsjehe5","5fd5381b5807b616d910c586","freq","","","img/blue_2bandit_b2.png","70","","70","test","1","","72","","","","circle","square","69","3","4","0.9855072463768116","","","","","","","",""
"null","301963","SARL_v6","SARL_v6fjsjehe5","5fd5381b5807b616d910c586","freq_resp","","","img/blue_2bandit_b.png","70","img/blue_2bandit_b.png","70","test","","","","","","","","","","","4","","","","","","","","",""
"null","302120","SARL_v6","SARL_v6fjsjehe5","5fd5381b5807b616d910c586","fixation","","","img/fixation.png","null","","","test","","","","","","","","","","","","","","","","","","","",""
"455.29999999981374","302578","SARL_v6","SARL_v6fjsjehe5","5fd5381b5807b616d910c586","freq","","","img/blue_2bandit_b2.png","70","","70","test","1","","73","","","","circle","square","70","4","4","0.9857142857142858","","","","","","","",""
"null","302930","SARL_v6","SARL_v6fjsjehe5","5fd5381b5807b616d910c586","freq_resp","","","img/blue_2bandit_b.png","70","img/blue_2bandit_b.png","70","test","","","","","","","","","","","4","","","","","","","","",""
"null","303091","SARL_v6","SARL_v6fjsjehe5","5fd5381b5807b616d910c586","fixation","","","img/fixation.png","null","","","test","","","","","","","","","","","","","","","","","","","",""
"430.5","303524","SARL_v6","SARL_v6fjsjehe5","5fd5381b5807b616d910c586","freq","","","img/blue_2bandit_b2.png","70","","70","test","1","","74","","","","circle","square","71","5","4","0.9859154929577465","","","","","","","",""
"null","303907","SARL_v6","SARL_v6fjsjehe5","5fd5381b5807b616d910c586","freq_resp","","","img/blue_2bandit_b.png","70","img/blue_2bandit_b.png","70","test","","","","","","","","","","","4","","","","","","","","",""
"null","304063","SARL_v6","SARL_v6fjsjehe5","5fd5381b5807b616d910c586","fixation","","","img/fixation.png","null","","","test","","","","","","","","","","","","","","","","","","","",""
"334.30000000074506","304400","SARL_v6","SARL_v6fjsjehe5","5fd5381b5807b616d910c586","freq","","","img/blue_2bandit_b2.png","70","","70","test","1","","75","","","","circle","square","72","6","4","0.9861111111111112","","","","","","","",""
"null","304873","SARL_v6","SARL_v6fjsjehe5","5fd5381b5807b616d910c586","freq_resp","","","img/blue_2bandit_b.png","70","img/blue_2bandit_b.png","70","test","","","","","","","","","","","4","","","","","","","","",""
"null","305030","SARL_v6","SARL_v6fjsjehe5","5fd5381b5807b616d910c586","fixation","","","img/fixation.png","null","","","test","","","","","","","","","","","","","","","","","","","",""
"389.20000000018626","305422","SARL_v6","SARL_v6fjsjehe5","5fd5381b5807b616d910c586","infreq","","","img/orange_2bandit_b2.png","68","","68","test","1","","76","","","","circle","square","73","7","4","0.9863013698630136","","","","","","","",""
"null","305838","SARL_v6","SARL_v6fjsjehe5","5fd5381b5807b616d910c586","infreq_resp","","","img/orange_2bandit_b.png","68","img/orange_2bandit_b.png","68","test","","","","","","","","","","","4","","","","","","","","",""
"null","305998","SARL_v6","SARL_v6fjsjehe5","5fd5381b5807b616d910c586","fixation","","","img/fixation.png","null","","","test","","","","","","","","","","","","","","","","","","","",""
"425.79999999981374","306427","SARL_v6","SARL_v6fjsjehe5","5fd5381b5807b616d910c586","freq","","","img/blue_2bandit_b2.png","70","","70","test","1","","77","","","","circle","square","74","8","4","0.9864864864864865","","","","","","","",""
"null","306813","SARL_v6","SARL_v6fjsjehe5","5fd5381b5807b616d910c586","freq_resp","","","img/blue_2bandit_b.png","70","img/blue_2bandit_b.png","70","test","","","","","","","","","","","4","","","","","","","","",""
"null","306968","SARL_v6","SARL_v6fjsjehe5","5fd5381b5807b616d910c586","fixation","","","img/fixation.png","null","","","test","","","","","","","","","","","","","","","","","","","",""
"385.1000000005588","307356","SARL_v6","SARL_v6fjsjehe5","5fd5381b5807b616d910c586","freq","","","img/blue_2bandit_b2.png","70","","70","test","1","","78","","","","circle","square","75","9","4","0.9866666666666667","","","","","","","",""
"null","307774","SARL_v6","SARL_v6fjsjehe5","5fd5381b5807b616d910c586","freq_resp","","","img/blue_2bandit_b.png","70","img/blue_2bandit_b.png","70","test","","","","","","","","","","","4","","","","","","","","",""
"null","307941","SARL_v6","SARL_v6fjsjehe5","5fd5381b5807b616d910c586","fixation","","","img/fixation.png","null","","","test","","","","","","","","","","","","","","","","","","","",""
"297.20000000018626","308241","SARL_v6","SARL_v6fjsjehe5","5fd5381b5807b616d910c586","freq","","","img/blue_2bandit_b2.png","70","","70","test","1","","79","","","","circle","square","76","10","4","0.9868421052631579","","","","","","","",""
"null","308748","SARL_v6","SARL_v6fjsjehe5","5fd5381b5807b616d910c586","freq_resp","","","img/blue_2bandit_b.png","70","img/blue_2bandit_b.png","70","test","","","","","","","","","","","4","","","","","","","","",""
"null","308909","SARL_v6","SARL_v6fjsjehe5","5fd5381b5807b616d910c586","fixation","","","img/fixation.png","null","","","test","","","","","","","","","","","","","","","","","","","",""
"364","309276","SARL_v6","SARL_v6fjsjehe5","5fd5381b5807b616d910c586","freq","","","img/blue_2bandit_b2.png","70","","70","test","1","","80","","","","circle","square","77","11","4","0.987012987012987","","","","","","","",""
"null","309725","SARL_v6","SARL_v6fjsjehe5","5fd5381b5807b616d910c586","freq_resp","","","img/blue_2bandit_b.png","70","img/blue_2bandit_b.png","70","test","","","","","","","","","","","4","","","","","","","","",""
"null","309884","SARL_v6","SARL_v6fjsjehe5","5fd5381b5807b616d910c586","fixation","","","img/fixation.png","null","","","test","","","","","","","","","","","","","","","","","","","",""
"275.5","310163","SARL_v6","SARL_v6fjsjehe5","5fd5381b5807b616d910c586","freq","","","img/blue_2bandit_b2.png","70","","70","test","1","","81","","","","circle","square","78","12","4","0.9871794871794872","","","","","","","",""
"null","310695","SARL_v6","SARL_v6fjsjehe5","5fd5381b5807b616d910c586","freq_resp","","","img/blue_2bandit_b.png","70","img/blue_2bandit_b.png","70","test","","","","","","","","","","","4","","","","","","","","",""
"null","310861","SARL_v6","SARL_v6fjsjehe5","5fd5381b5807b616d910c586","fixation","","","img/fixation.png","null","","","test","","","","","","","","","","","","","","","","","","","",""
"337.79999999981374","311202","SARL_v6","SARL_v6fjsjehe5","5fd5381b5807b616d910c586","freq","","","img/blue_2bandit_b2.png","70","","70","test","1","","82","","","","circle","square","79","13","4","0.9873417721518988","","","","","","","",""
"null","311672","SARL_v6","SARL_v6fjsjehe5","5fd5381b5807b616d910c586","freq_resp","","","img/blue_2bandit_b.png","70","img/blue_2bandit_b.png","70","test","","","","","","","","","","","4","","","","","","","","",""
"null","311837","SARL_v6","SARL_v6fjsjehe5","5fd5381b5807b616d910c586","fixation","","","img/fixation.png","null","","","test","","","","","","","","","","","","","","","","","","","",""
"406.5","312247","SARL_v6","SARL_v6fjsjehe5","5fd5381b5807b616d910c586","infreq","","","img/orange_2bandit_b2.png","68","","68","test","1","","83","","","","circle","square","80","14","4","0.9875","","","","","","","",""
"null","312652","SARL_v6","SARL_v6fjsjehe5","5fd5381b5807b616d910c586","infreq_resp","","","img/orange_2bandit_b.png","68","img/orange_2bandit_b.png","68","test","","","","","","","","","","","4","","","","","","","","",""
"null","312808","SARL_v6","SARL_v6fjsjehe5","5fd5381b5807b616d910c586","fixation","","","img/fixation.png","null","","","test","","","","","","","","","","","","","","","","","","","",""
"555.5","313366","SARL_v6","SARL_v6fjsjehe5","5fd5381b5807b616d910c586","freq","","","img/blue_2bandit_b2.png","70","","70","test","1","","84","","","","circle","square","81","15","4","0.9876543209876543","","","","","","","",""
"null","313615","SARL_v6","SARL_v6fjsjehe5","5fd5381b5807b616d910c586","freq_resp","","","img/blue_2bandit_b.png","70","img/blue_2bandit_b.png","70","test","","","","","","","","","","","4","","","","","","","","",""
"null","313775","SARL_v6","SARL_v6fjsjehe5","5fd5381b5807b616d910c586","fixation","","","img/fixation.png","null","","","test","","","","","","","","","","","","","","","","","","","",""
"501.40000000037253","314279","SARL_v6","SARL_v6fjsjehe5","5fd5381b5807b616d910c586","freq","","","img/blue_2bandit_b2.png","70","","70","test","1","","85","","","","circle","square","82","16","4","0.9878048780487805","","","","","","","",""
"null","314582","SARL_v6","SARL_v6fjsjehe5","5fd5381b5807b616d910c586","freq_resp","","","img/blue_2bandit_b.png","70","img/blue_2bandit_b.png","70","test","","","","","","","","","","","4","","","","","","","","",""
"null","314744","SARL_v6","SARL_v6fjsjehe5","5fd5381b5807b616d910c586","fixation","","","img/fixation.png","null","","","test","","","","","","","","","","","","","","","","","","","",""
"365.59999999962747","315112","SARL_v6","SARL_v6fjsjehe5","5fd5381b5807b616d910c586","freq","","","img/blue_2bandit_b2.png","70","","70","test","1","","86","","","","circle","square","83","17","4","0.9879518072289156","","","","","","","",""
"null","315551","SARL_v6","SARL_v6fjsjehe5","5fd5381b5807b616d910c586","freq_resp","","","img/blue_2bandit_b.png","70","img/blue_2bandit_b.png","70","test","","","","","","","","","","","4","","","","","","","","",""
"null","315711","SARL_v6","SARL_v6fjsjehe5","5fd5381b5807b616d910c586","fixation","","","img/fixation.png","null","","","test","","","","","","","","","","","","","","","","","","","",""
"322.79999999981374","316037","SARL_v6","SARL_v6fjsjehe5","5fd5381b5807b616d910c586","freq","","","img/blue_2bandit_b2.png","70","","70","test","1","","87","","","","circle","square","84","18","4","0.9880952380952381","","","","","","","",""
"null","316518","SARL_v6","SARL_v6fjsjehe5","5fd5381b5807b616d910c586","freq_resp","","","img/blue_2bandit_b.png","70","img/blue_2bandit_b.png","70","test","","","","","","","","","","","4","","","","","","","","",""
"null","316679","SARL_v6","SARL_v6fjsjehe5","5fd5381b5807b616d910c586","fixation","","","img/fixation.png","null","","","test","","","","","","","","","","","","","","","","","","","",""
"301.3999999994412","316983","SARL_v6","SARL_v6fjsjehe5","5fd5381b5807b616d910c586","freq","","","img/blue_2bandit_b2.png","70","","70","test","1","","88","","","","circle","square","85","19","4","0.9882352941176471","","","","","","","",""
"null","317489","SARL_v6","SARL_v6fjsjehe5","5fd5381b5807b616d910c586","freq_resp","","","img/blue_2bandit_b.png","70","img/blue_2bandit_b.png","70","test","","","","","","","","","","","4","","","","","","","","",""
"null","317650","SARL_v6","SARL_v6fjsjehe5","5fd5381b5807b616d910c586","fixation","","","img/fixation.png","null","","","test","","","","","","","","","","","","","","","","","","","",""
"289.69999999925494","317942","SARL_v6","SARL_v6fjsjehe5","5fd5381b5807b616d910c586","freq","","","img/blue_2bandit_b2.png","70","","70","test","1","","89","","","","circle","square","86","20","4","0.9883720930232558","","","","","","","",""
"null","318466","SARL_v6","SARL_v6fjsjehe5","5fd5381b5807b616d910c586","freq_resp","","","img/blue_2bandit_b.png","70","img/blue_2bandit_b.png","70","test","","","","","","","","","","","4","","","","","","","","",""
"null","318629","SARL_v6","SARL_v6fjsjehe5","5fd5381b5807b616d910c586","fixation","","","img/fixation.png","null","","","test","","","","","","","","","","","","","","","","","","","",""
"859.0999999996275","319492","SARL_v6","SARL_v6fjsjehe5","5fd5381b5807b616d910c586","rl","","","img/black_2bandit_b2.png","74","","0","test","","","90","","","-12","circle","square","","0","4","","74","-12","0","-12","0","circle","4","0"
"null","320253","SARL_v6","SARL_v6fjsjehe5","5fd5381b5807b616d910c586","feedback","","","<div class=""verylowPoints""> -12 </div>","null","","na","test","","","NaN","","","","","","","","4","","74","","","","","","4",""
"522.7000000001863","320779","SARL_v6","SARL_v6fjsjehe5","5fd5381b5807b616d910c586","freq","","","img/blue_2bandit_b2.png","70","","70","test","1","","91","","","","circle","square","87","1","5","0.9885057471264368","","","","","","","",""
"null","321068","SARL_v6","SARL_v6fjsjehe5","5fd5381b5807b616d910c586","freq_resp","","","img/blue_2bandit_b.png","70","img/blue_2bandit_b.png","70","test","","","","","","","","","","","5","","","","","","","","",""
"null","321226","SARL_v6","SARL_v6fjsjehe5","5fd5381b5807b616d910c586","fixation","","","img/fixation.png","null","","","test","","","","","","","","","","","","","","","","","","","",""
"490.70000000018626","321720","SARL_v6","SARL_v6fjsjehe5","5fd5381b5807b616d910c586","freq","","","img/blue_2bandit_b2.png","70","","70","test","1","","92","","","","circle","square","88","2","5","0.9886363636363636","","","","","","","",""
"null","322044","SARL_v6","SARL_v6fjsjehe5","5fd5381b5807b616d910c586","freq_resp","","","img/blue_2bandit_b.png","70","img/blue_2bandit_b.png","70","test","","","","","","","","","","","5","","","","","","","","",""
"null","322202","SARL_v6","SARL_v6fjsjehe5","5fd5381b5807b616d910c586","fixation","","","img/fixation.png","null","","","test","","","","","","","","","","","","","","","","","","","",""
"545.3999999994412","322751","SARL_v6","SARL_v6fjsjehe5","5fd5381b5807b616d910c586","freq","","","img/blue_2bandit_b2.png","70","","70","test","1","","93","","","","circle","square","89","3","5","0.9887640449438202","","","","","","","",""
"null","323019","SARL_v6","SARL_v6fjsjehe5","5fd5381b5807b616d910c586","freq_resp","","","img/blue_2bandit_b.png","70","img/blue_2bandit_b.png","70","test","","","","","","","","","","","5","","","","","","","","",""
"null","323174","SARL_v6","SARL_v6fjsjehe5","5fd5381b5807b616d910c586","fixation","","","img/fixation.png","null","","","test","","","","","","","","","","","","","","","","","","","",""
"556.2000000001863","323733","SARL_v6","SARL_v6fjsjehe5","5fd5381b5807b616d910c586","infreq","","","img/orange_2bandit_b2.png","68","","68","test","1","","94","","","","circle","square","90","4","5","0.9888888888888889","","","","","","","",""
"null","323984","SARL_v6","SARL_v6fjsjehe5","5fd5381b5807b616d910c586","infreq_resp","","","img/orange_2bandit_b.png","68","img/orange_2bandit_b.png","68","test","","","","","","","","","","","5","","","","","","","","",""
"null","324144","SARL_v6","SARL_v6fjsjehe5","5fd5381b5807b616d910c586","fixation","","","img/fixation.png","null","","","test","","","","","","","","","","","","","","","","","","","",""
"529.2999999998137","324676","SARL_v6","SARL_v6fjsjehe5","5fd5381b5807b616d910c586","freq","","","img/blue_2bandit_b2.png","70","","70","test","1","","95","","","","circle","square","91","5","5","0.989010989010989","","","","","","","",""
"null","324950","SARL_v6","SARL_v6fjsjehe5","5fd5381b5807b616d910c586","freq_resp","","","img/blue_2bandit_b.png","70","img/blue_2bandit_b.png","70","test","","","","","","","","","","","5","","","","","","","","",""
"null","325110","SARL_v6","SARL_v6fjsjehe5","5fd5381b5807b616d910c586","fixation","","","img/fixation.png","null","","","test","","","","","","","","","","","","","","","","","","","",""
"479.6000000005588","325593","SARL_v6","SARL_v6fjsjehe5","5fd5381b5807b616d910c586","freq","","","img/blue_2bandit_b2.png","70","","70","test","1","","96","","","","circle","square","92","6","5","0.9891304347826086","","","","","","","",""
"null","325919","SARL_v6","SARL_v6fjsjehe5","5fd5381b5807b616d910c586","freq_resp","","","img/blue_2bandit_b.png","70","img/blue_2bandit_b.png","70","test","","","","","","","","","","","5","","","","","","","","",""
"null","326078","SARL_v6","SARL_v6fjsjehe5","5fd5381b5807b616d910c586","fixation","","","img/fixation.png","null","","","test","","","","","","","","","","","","","","","","","","","",""
"363.70000000018626","326445","SARL_v6","SARL_v6fjsjehe5","5fd5381b5807b616d910c586","freq","","","img/blue_2bandit_b2.png","70","","70","test","1","","97","","","","circle","square","93","7","5","0.989247311827957","","","","","","","",""
"null","326888","SARL_v6","SARL_v6fjsjehe5","5fd5381b5807b616d910c586","freq_resp","","","img/blue_2bandit_b.png","70","img/blue_2bandit_b.png","70","test","","","","","","","","","","","5","","","","","","","","",""
"null","327047","SARL_v6","SARL_v6fjsjehe5","5fd5381b5807b616d910c586","fixation","","","img/fixation.png","null","","","test","","","","","","","","","","","","","","","","","","","",""
"358.20000000018626","327408","SARL_v6","SARL_v6fjsjehe5","5fd5381b5807b616d910c586","freq","","","img/blue_2bandit_b2.png","70","","70","test","1","","98","","","","circle","square","94","8","5","0.9893617021276596","","","","","","","",""
"null","327857","SARL_v6","SARL_v6fjsjehe5","5fd5381b5807b616d910c586","freq_resp","","","img/blue_2bandit_b.png","70","img/blue_2bandit_b.png","70","test","","","","","","","","","","","5","","","","","","","","",""
"null","328015","SARL_v6","SARL_v6fjsjehe5","5fd5381b5807b616d910c586","fixation","","","img/fixation.png","null","","","test","","","","","","","","","","","","","","","","","","","",""
"302.40000000037253","328320","SARL_v6","SARL_v6fjsjehe5","5fd5381b5807b616d910c586","freq","","","img/blue_2bandit_b2.png","70","","70","test","1","","99","","","","circle","square","95","9","5","0.9894736842105263","","","","","","","",""
"null","328829","SARL_v6","SARL_v6fjsjehe5","5fd5381b5807b616d910c586","freq_resp","","","img/blue_2bandit_b.png","70","img/blue_2bandit_b.png","70","test","","","","","","","","","","","5","","","","","","","","",""
"null","328988","SARL_v6","SARL_v6fjsjehe5","5fd5381b5807b616d910c586","fixation","","","img/fixation.png","null","","","test","","","","","","","","","","","","","","","","","","","",""
"305.5","329297","SARL_v6","SARL_v6fjsjehe5","5fd5381b5807b616d910c586","freq","","","img/blue_2bandit_b2.png","70","","70","test","1","","100","","","","circle","square","96","10","5","0.9895833333333334","","","","","","","",""
"null","329802","SARL_v6","SARL_v6fjsjehe5","5fd5381b5807b616d910c586","freq_resp","","","img/blue_2bandit_b.png","70","img/blue_2bandit_b.png","70","test","","","","","","","","","","","5","","","","","","","","",""
"null","329961","SARL_v6","SARL_v6fjsjehe5","5fd5381b5807b616d910c586","fixation","","","img/fixation.png","null","","","test","","","","","","","","","","","","","","","","","","","",""
"399.70000000018626","330363","SARL_v6","SARL_v6fjsjehe5","5fd5381b5807b616d910c586","freq","","","img/blue_2bandit_b2.png","70","","70","test","1","","101","","","","circle","square","97","11","5","0.9896907216494846","","","","","","","",""
"null","330769","SARL_v6","SARL_v6fjsjehe5","5fd5381b5807b616d910c586","freq_resp","","","img/blue_2bandit_b.png","70","img/blue_2bandit_b.png","70","test","","","","","","","","","","","5","","","","","","","","",""
"null","330931","SARL_v6","SARL_v6fjsjehe5","5fd5381b5807b616d910c586","fixation","","","img/fixation.png","null","","","test","","","","","","","","","","","","","","","","","","","",""
"668.2999999998137","331603","SARL_v6","SARL_v6fjsjehe5","5fd5381b5807b616d910c586","infreq","","","img/orange_2bandit_b2.png","68","","68","test","1","","102","","","","circle","square","98","12","5","0.9897959183673469","","","","","","","",""
"null","331744","SARL_v6","SARL_v6fjsjehe5","5fd5381b5807b616d910c586","infreq_resp","","","img/orange_2bandit_b.png","68","img/orange_2bandit_b.png","68","test","","","","","","","","","","","5","","","","","","","","",""
"null","331909","SARL_v6","SARL_v6fjsjehe5","5fd5381b5807b616d910c586","fixation","","","img/fixation.png","null","","","test","","","","","","","","","","","","","","","","","","","",""
"503.3999999994412","332416","SARL_v6","SARL_v6fjsjehe5","5fd5381b5807b616d910c586","freq","","","img/blue_2bandit_b2.png","70","","70","test","1","","103","","","","circle","square","99","13","5","0.98989898989899","","","","","","","",""
"null","332725","SARL_v6","SARL_v6fjsjehe5","5fd5381b5807b616d910c586","freq_resp","","","img/blue_2bandit_b.png","70","img/blue_2bandit_b.png","70","test","","","","","","","","","","","5","","","","","","","","",""
"null","332884","SARL_v6","SARL_v6fjsjehe5","5fd5381b5807b616d910c586","fixation","","","img/fixation.png","null","","","test","","","","","","","","","","","","","","","","","","","",""
"382.6000000005588","333270","SARL_v6","SARL_v6fjsjehe5","5fd5381b5807b616d910c586","freq","","","img/blue_2bandit_b2.png","70","","70","test","1","","104","","","","circle","square","100","14","5","0.99","","","","","","","",""
"null","333701","SARL_v6","SARL_v6fjsjehe5","5fd5381b5807b616d910c586","freq_resp","","","img/blue_2bandit_b.png","70","img/blue_2bandit_b.png","70","test","","","","","","","","","","","5","","","","","","","","",""
"null","333855","SARL_v6","SARL_v6fjsjehe5","5fd5381b5807b616d910c586","fixation","","","img/fixation.png","null","","","test","","","","","","","","","","","","","","","","","","","",""
"311.29999999981374","334169","SARL_v6","SARL_v6fjsjehe5","5fd5381b5807b616d910c586","freq","","","img/blue_2bandit_b2.png","70","","70","test","1","","105","","","","circle","square","101","15","5","0.9900990099009901","","","","","","","",""
"null","334662","SARL_v6","SARL_v6fjsjehe5","5fd5381b5807b616d910c586","freq_resp","","","img/blue_2bandit_b.png","70","img/blue_2bandit_b.png","70","test","","","","","","","","","","","5","","","","","","","","",""
"null","334824","SARL_v6","SARL_v6fjsjehe5","5fd5381b5807b616d910c586","fixation","","","img/fixation.png","null","","","test","","","","","","","","","","","","","","","","","","","",""
"326","335152","SARL_v6","SARL_v6fjsjehe5","5fd5381b5807b616d910c586","freq","","","img/blue_2bandit_b2.png","70","","70","test","1","","106","","","","circle","square","102","16","5","0.9901960784313726","","","","","","","",""
"null","335635","SARL_v6","SARL_v6fjsjehe5","5fd5381b5807b616d910c586","freq_resp","","","img/blue_2bandit_b.png","70","img/blue_2bandit_b.png","70","test","","","","","","","","","","","5","","","","","","","","",""
"null","335793","SARL_v6","SARL_v6fjsjehe5","5fd5381b5807b616d910c586","fixation","","","img/fixation.png","null","","","test","","","","","","","","","","","","","","","","","","","",""
"305.79999999981374","336101","SARL_v6","SARL_v6fjsjehe5","5fd5381b5807b616d910c586","freq","","","img/blue_2bandit_b2.png","70","","70","test","1","","107","","","","circle","square","103","17","5","0.9902912621359223","","","","","","","",""
"null","336603","SARL_v6","SARL_v6fjsjehe5","5fd5381b5807b616d910c586","freq_resp","","","img/blue_2bandit_b.png","70","img/blue_2bandit_b.png","70","test","","","","","","","","","","","5","","","","","","","","",""
"null","336760","SARL_v6","SARL_v6fjsjehe5","5fd5381b5807b616d910c586","fixation","","","img/fixation.png","null","","","test","","","","","","","","","","","","","","","","","","","",""
"310.59999999962747","337073","SARL_v6","SARL_v6fjsjehe5","5fd5381b5807b616d910c586","freq","","","img/blue_2bandit_b2.png","70","","70","test","1","","108","","","","circle","square","104","18","5","0.9903846153846154","","","","","","","",""
"null","337567","SARL_v6","SARL_v6fjsjehe5","5fd5381b5807b616d910c586","freq_resp","","","img/blue_2bandit_b.png","70","img/blue_2bandit_b.png","70","test","","","","","","","","","","","5","","","","","","","","",""
"null","337730","SARL_v6","SARL_v6fjsjehe5","5fd5381b5807b616d910c586","fixation","","","img/fixation.png","null","","","test","","","","","","","","","","","","","","","","","","","",""
"295.3999999994412","338028","SARL_v6","SARL_v6fjsjehe5","5fd5381b5807b616d910c586","freq","","","img/blue_2bandit_b2.png","70","","70","test","1","","109","","","","circle","square","105","19","5","0.9904761904761905","","","","","","","",""
"null","338537","SARL_v6","SARL_v6fjsjehe5","5fd5381b5807b616d910c586","freq_resp","","","img/blue_2bandit_b.png","70","img/blue_2bandit_b.png","70","test","","","","","","","","","","","5","","","","","","","","",""
"null","338700","SARL_v6","SARL_v6fjsjehe5","5fd5381b5807b616d910c586","fixation","","","img/fixation.png","null","","","test","","","","","","","","","","","","","","","","","","","",""
"334.69999999925494","339038","SARL_v6","SARL_v6fjsjehe5","5fd5381b5807b616d910c586","freq","","","img/blue_2bandit_b2.png","70","","70","test","1","","110","","","","circle","square","106","20","5","0.9905660377358491","","","","","","","",""
"null","339515","SARL_v6","SARL_v6fjsjehe5","5fd5381b5807b616d910c586","freq_resp","","","img/blue_2bandit_b.png","70","img/blue_2bandit_b.png","70","test","","","","","","","","","","","5","","","","","","","","",""
"null","339671","SARL_v6","SARL_v6fjsjehe5","5fd5381b5807b616d910c586","fixation","","","img/fixation.png","null","","","test","","","","","","","","","","","","","","","","","","","",""
"347.20000000018626","340022","SARL_v6","SARL_v6fjsjehe5","5fd5381b5807b616d910c586","freq","","","img/blue_2bandit_b2.png","70","","70","test","1","","111","","","","circle","square","107","21","5","0.9906542056074766","","","","","","","",""
"null","340480","SARL_v6","SARL_v6fjsjehe5","5fd5381b5807b616d910c586","freq_resp","","","img/blue_2bandit_b.png","70","img/blue_2bandit_b.png","70","test","","","","","","","","","","","5","","","","","","","","",""
"null","340643","SARL_v6","SARL_v6fjsjehe5","5fd5381b5807b616d910c586","fixation","","","img/fixation.png","null","","","test","","","","","","","","","","","","","","","","","","","",""
"356.70000000018626","341003","SARL_v6","SARL_v6fjsjehe5","5fd5381b5807b616d910c586","freq","","","img/blue_2bandit_b2.png","70","","70","test","1","","112","","","","circle","square","108","22","5","0.9907407407407407","","","","","","","",""
"null","341460","SARL_v6","SARL_v6fjsjehe5","5fd5381b5807b616d910c586","freq_resp","","","img/blue_2bandit_b.png","70","img/blue_2bandit_b.png","70","test","","","","","","","","","","","5","","","","","","","","",""
"null","341619","SARL_v6","SARL_v6fjsjehe5","5fd5381b5807b616d910c586","fixation","","","img/fixation.png","null","","","test","","","","","","","","","","","","","","","","","","","",""
"342.59999999962747","341965","SARL_v6","SARL_v6fjsjehe5","5fd5381b5807b616d910c586","freq","","","img/blue_2bandit_b2.png","70","","70","test","1","","113","","","","circle","square","109","23","5","0.9908256880733946","","","","","","","",""
"null","342432","SARL_v6","SARL_v6fjsjehe5","5fd5381b5807b616d910c586","freq_resp","","","img/blue_2bandit_b.png","70","img/blue_2bandit_b.png","70","test","","","","","","","","","","","5","","","","","","","","",""
"null","342596","SARL_v6","SARL_v6fjsjehe5","5fd5381b5807b616d910c586","fixation","","","img/fixation.png","null","","","test","","","","","","","","","","","","","","","","","","","",""
"677.1000000005588","343277","SARL_v6","SARL_v6fjsjehe5","5fd5381b5807b616d910c586","rl","","","img/black_2bandit_b2.png","75","","0","test","","","114","","","4","circle","square","","0","5","","75","-7","4","-7","4","square","5","0"
"null","344044","SARL_v6","SARL_v6fjsjehe5","5fd5381b5807b616d910c586","feedback","","","<div class=""veryhighPoints_sq""> 4 </div>","null","","na","test","","","NaN","","","","","","","","5","","75","","","","","","5",""
"511.70000000018626","344559","SARL_v6","SARL_v6fjsjehe5","5fd5381b5807b616d910c586","freq","","","img/blue_2bandit_b2.png","70","","70","test","1","","115","","","","circle","square","110","1","6","0.990909090909091","","","","","","","",""
"null","344855","SARL_v6","SARL_v6fjsjehe5","5fd5381b5807b616d910c586","freq_resp","","","img/blue_2bandit_b.png","70","img/blue_2bandit_b.png","70","test","","","","","","","","","","","6","","","","","","","","",""
"null","345015","SARL_v6","SARL_v6fjsjehe5","5fd5381b5807b616d910c586","fixation","","","img/fixation.png","null","","","test","","","","","","","","","","","","","","","","","","","",""
"576.2999999998137","345594","SARL_v6","SARL_v6fjsjehe5","5fd5381b5807b616d910c586","freq","","","img/blue_2bandit_b2.png","70","","70","test","1","","116","","","","circle","square","111","2","6","0.990990990990991","","","","","","","",""
"null","345823","SARL_v6","SARL_v6fjsjehe5","5fd5381b5807b616d910c586","freq_resp","","","img/blue_2bandit_b.png","70","img/blue_2bandit_b.png","70","test","","","","","","","","","","","6","","","","","","","","",""
"null","345983","SARL_v6","SARL_v6fjsjehe5","5fd5381b5807b616d910c586","fixation","","","img/fixation.png","null","","","test","","","","","","","","","","","","","","","","","","","",""
"529.2999999998137","346514","SARL_v6","SARL_v6fjsjehe5","5fd5381b5807b616d910c586","freq","","","img/blue_2bandit_b2.png","70","","70","test","1","","117","","","","circle","square","112","3","6","0.9910714285714286","","","","","","","",""
"null","346791","SARL_v6","SARL_v6fjsjehe5","5fd5381b5807b616d910c586","freq_resp","","","img/blue_2bandit_b.png","70","img/blue_2bandit_b.png","70","test","","","","","","","","","","","6","","","","","","","","",""
"null","346951","SARL_v6","SARL_v6fjsjehe5","5fd5381b5807b616d910c586","fixation","","","img/fixation.png","null","","","test","","","","","","","","","","","","","","","","","","","",""
"436.5","347390","SARL_v6","SARL_v6fjsjehe5","5fd5381b5807b616d910c586","freq","","","img/blue_2bandit_b2.png","70","","70","test","1","","118","","","","circle","square","113","4","6","0.9911504424778761","","","","","","","",""
"null","347760","SARL_v6","SARL_v6fjsjehe5","5fd5381b5807b616d910c586","freq_resp","","","img/blue_2bandit_b.png","70","img/blue_2bandit_b.png","70","test","","","","","","","","","","","6","","","","","","","","",""
"null","347923","SARL_v6","SARL_v6fjsjehe5","5fd5381b5807b616d910c586","fixation","","","img/fixation.png","null","","","test","","","","","","","","","","","","","","","","","","","",""
"415","348340","SARL_v6","SARL_v6fjsjehe5","5fd5381b5807b616d910c586","freq","","","img/blue_2bandit_b2.png","70","","70","test","1","","119","","","","circle","square","114","5","6","0.9912280701754386","","","","","","","",""
"null","348735","SARL_v6","SARL_v6fjsjehe5","5fd5381b5807b616d910c586","freq_resp","","","img/blue_2bandit_b.png","70","img/blue_2bandit_b.png","70","test","","","","","","","","","","","6","","","","","","","","",""
"null","348895","SARL_v6","SARL_v6fjsjehe5","5fd5381b5807b616d910c586","fixation","","","img/fixation.png","null","","","test","","","","","","","","","","","","","","","","","","","",""
"491.09999999962747","349389","SARL_v6","SARL_v6fjsjehe5","5fd5381b5807b616d910c586","infreq","","","img/orange_2bandit_b2.png","68","","68","test","1","","120","","","","circle","square","115","6","6","0.991304347826087","","","","","","","",""
"null","349705","SARL_v6","SARL_v6fjsjehe5","5fd5381b5807b616d910c586","infreq_resp","","","img/orange_2bandit_b.png","68","img/orange_2bandit_b.png","68","test","","","","","","","","","","","6","","","","","","","","",""
"null","349868","SARL_v6","SARL_v6fjsjehe5","5fd5381b5807b616d910c586","fixation","","","img/fixation.png","null","","","test","","","","","","","","","","","","","","","","","","","",""
"378.5","350249","SARL_v6","SARL_v6fjsjehe5","5fd5381b5807b616d910c586","freq","","","img/blue_2bandit_b2.png","70","","70","test","1","","121","","","","circle","square","116","7","6","0.9913793103448276","","","","","","","",""
"null","350680","SARL_v6","SARL_v6fjsjehe5","5fd5381b5807b616d910c586","freq_resp","","","img/blue_2bandit_b.png","70","img/blue_2bandit_b.png","70","test","","","","","","","","","","","6","","","","","","","","",""
"null","350844","SARL_v6","SARL_v6fjsjehe5","5fd5381b5807b616d910c586","fixation","","","img/fixation.png","null","","","test","","","","","","","","","","","","","","","","","","","",""
"367.79999999981374","351215","SARL_v6","SARL_v6fjsjehe5","5fd5381b5807b616d910c586","freq","","","img/blue_2bandit_b2.png","70","","70","test","1","","122","","","","circle","square","117","8","6","0.9914529914529915","","","","","","","",""
"null","351659","SARL_v6","SARL_v6fjsjehe5","5fd5381b5807b616d910c586","freq_resp","","","img/blue_2bandit_b.png","70","img/blue_2bandit_b.png","70","test","","","","","","","","","","","6","","","","","","","","",""
"null","351816","SARL_v6","SARL_v6fjsjehe5","5fd5381b5807b616d910c586","fixation","","","img/fixation.png","null","","","test","","","","","","","","","","","","","","","","","","","",""
"762.8999999994412","352583","SARL_v6","SARL_v6fjsjehe5","5fd5381b5807b616d910c586","infreq","","","img/orange_2bandit_b2.png","68","","68","test","1","","123","","","","circle","square","118","9","6","0.9915254237288136","","","","","","","",""
"null","352633","SARL_v6","SARL_v6fjsjehe5","5fd5381b5807b616d910c586","infreq_resp","","","img/orange_2bandit_b.png","68","img/orange_2bandit_b.png","68","test","","","","","","","","","","","6","","","","","","","","",""
"null","352797","SARL_v6","SARL_v6fjsjehe5","5fd5381b5807b616d910c586","fixation","","","img/fixation.png","null","","","test","","","","","","","","","","","","","","","","","","","",""
"593.5","353394","SARL_v6","SARL_v6fjsjehe5","5fd5381b5807b616d910c586","freq","","","img/blue_2bandit_b2.png","70","","70","test","1","","124","","","","circle","square","119","10","6","0.9915966386554622","","","","","","","",""
"null","353612","SARL_v6","SARL_v6fjsjehe5","5fd5381b5807b616d910c586","freq_resp","","","img/blue_2bandit_b.png","70","img/blue_2bandit_b.png","70","test","","","","","","","","","","","6","","","","","","","","",""
"null","353773","SARL_v6","SARL_v6fjsjehe5","5fd5381b5807b616d910c586","fixation","","","img/fixation.png","null","","","test","","","","","","","","","","","","","","","","","","","",""
"379.20000000018626","354156","SARL_v6","SARL_v6fjsjehe5","5fd5381b5807b616d910c586","freq","","","img/blue_2bandit_b2.png","70","","70","test","1","","125","","","","circle","square","120","11","6","0.9916666666666667","","","","","","","",""
"null","354584","SARL_v6","SARL_v6fjsjehe5","5fd5381b5807b616d910c586","freq_resp","","","img/blue_2bandit_b.png","70","img/blue_2bandit_b.png","70","test","","","","","","","","","","","6","","","","","","","","",""
"null","354745","SARL_v6","SARL_v6fjsjehe5","5fd5381b5807b616d910c586","fixation","","","img/fixation.png","null","","","test","","","","","","","","","","","","","","","","","","","",""
"314.20000000018626","355062","SARL_v6","SARL_v6fjsjehe5","5fd5381b5807b616d910c586","freq","","","img/blue_2bandit_b2.png","70","","70","test","1","","126","","","","circle","square","121","12","6","0.9917355371900827","","","","","","","",""
"null","355551","SARL_v6","SARL_v6fjsjehe5","5fd5381b5807b616d910c586","freq_resp","","","img/blue_2bandit_b.png","70","img/blue_2bandit_b.png","70","test","","","","","","","","","","","6","","","","","","","","",""
"null","355711","SARL_v6","SARL_v6fjsjehe5","5fd5381b5807b616d910c586","fixation","","","img/fixation.png","null","","","test","","","","","","","","","","","","","","","","","","","",""
"287","356000","SARL_v6","SARL_v6fjsjehe5","5fd5381b5807b616d910c586","freq","","","img/blue_2bandit_b2.png","70","","70","test","1","","127","","","","circle","square","122","13","6","0.9918032786885246","","","","","","","",""
"null","356521","SARL_v6","SARL_v6fjsjehe5","5fd5381b5807b616d910c586","freq_resp","","","img/blue_2bandit_b.png","70","img/blue_2bandit_b.png","70","test","","","","","","","","","","","6","","","","","","","","",""
"null","356684","SARL_v6","SARL_v6fjsjehe5","5fd5381b5807b616d910c586","fixation","","","img/fixation.png","null","","","test","","","","","","","","","","","","","","","","","","","",""
"317","357003","SARL_v6","SARL_v6fjsjehe5","5fd5381b5807b616d910c586","freq","","","img/blue_2bandit_b2.png","70","","70","test","1","","128","","","","circle","square","123","14","6","0.991869918699187","","","","","","","",""
"null","357497","SARL_v6","SARL_v6fjsjehe5","5fd5381b5807b616d910c586","freq_resp","","","img/blue_2bandit_b.png","70","img/blue_2bandit_b.png","70","test","","","","","","","","","","","6","","","","","","","","",""
"null","357656","SARL_v6","SARL_v6fjsjehe5","5fd5381b5807b616d910c586","fixation","","","img/fixation.png","null","","","test","","","","","","","","","","","","","","","","","","","",""
"281.1000000005588","357939","SARL_v6","SARL_v6fjsjehe5","5fd5381b5807b616d910c586","freq","","","img/blue_2bandit_b2.png","70","","70","test","1","","129","","","","circle","square","124","15","6","0.9919354838709677","","","","","","","",""
"null","358466","SARL_v6","SARL_v6fjsjehe5","5fd5381b5807b616d910c586","freq_resp","","","img/blue_2bandit_b.png","70","img/blue_2bandit_b.png","70","test","","","","","","","","","","","6","","","","","","","","",""
"null","358623","SARL_v6","SARL_v6fjsjehe5","5fd5381b5807b616d910c586","fixation","","","img/fixation.png","null","","","test","","","","","","","","","","","","","","","","","","","",""
"390.40000000037253","359016","SARL_v6","SARL_v6fjsjehe5","5fd5381b5807b616d910c586","freq","","","img/blue_2bandit_b2.png","70","","70","test","1","","130","","","","circle","square","125","16","6","0.992","","","","","","","",""
