"rt","time_elapsed","expId","subject","prolificID","trialType","rlType","attType","stimulus","key_press","stim","corrresp","phase","corr","pracCounter","trialNum","rewardOne","rewardTwo","reward","bandOne","bandTwo","attentionNum","attentionRunNum","blockNum","performance","bandChosen","circleVal","squareVal","bandOneVal","bandTwoVal","shapeChosen","rlNum","badFlag"
"13910.399999856949","13913","SARL_v6","SARL_v6ws0x9qte","5b6259be5256470001bd0c6d","","","","","","","","","","","","","","","","","","","","","","","","","","","",""
"","16104","SARL_v6","SARL_v6ws0x9qte","5b6259be5256470001bd0c6d","fullscreen","fullscreen","fullscreen","","","","","","","","","","","","","","","","","","","","","","","","",""
"67720.90000009537","83827","SARL_v6","SARL_v6ws0x9qte","5b6259be5256470001bd0c6d","","","","","","","","","","","","","","","","","","","","","","","","","","","",""
"627.9000000953674","84458","SARL_v6","SARL_v6ws0x9qte","5b6259be5256470001bd0c6d","freqPrac","","","img/orange_2bandit_b2.png","70","img/orange_2bandit_b2.png","70","prac","1","0","","","","","","","","","","","","","","","","","",""
"627.9000000953674","84645","SARL_v6","SARL_v6ws0x9qte","5b6259be5256470001bd0c6d","freqPrac_resp","","","img/orange_2bandit_b.png","70","img/orange_2bandit_b.png","70","prac","","","","","","","","","","","","","","","","","","","",""
"null","84801","SARL_v6","SARL_v6ws0x9qte","5b6259be5256470001bd0c6d","fixation","","","img/fixation.png","null","","","prac","","","","","","","","","","","","","","","","","","","",""
"471","85274","SARL_v6","SARL_v6ws0x9qte","5b6259be5256470001bd0c6d","infreqPrac","","","img/blue_2bandit_b2.png","68","img/blue_2bandit_b2.png","68","prac","1","0","","","","","","","","","","","","","","","","","",""
"471","85607","SARL_v6","SARL_v6ws0x9qte","5b6259be5256470001bd0c6d","infreqPrac_resp","","","img/blue_2bandit_b.png","68","img/blue_2bandit_b.png","68","prac","","","","","","","","","","","","","","","","","","","",""
"null","85761","SARL_v6","SARL_v6ws0x9qte","5b6259be5256470001bd0c6d","fixation","","","img/fixation.png","null","","","prac","","","","","","","","","","","","","","","","","","","",""
"479.10000014305115","86242","SARL_v6","SARL_v6ws0x9qte","5b6259be5256470001bd0c6d","freqPrac","","","img/orange_2bandit_b2.png","70","img/orange_2bandit_b2.png","70","prac","1","0","","","","","","","","","","","","","","","","","",""
"479.10000014305115","86574","SARL_v6","SARL_v6ws0x9qte","5b6259be5256470001bd0c6d","freqPrac_resp","","","img/orange_2bandit_b.png","70","img/orange_2bandit_b.png","70","prac","","","","","","","","","","","","","","","","","","","",""
"null","86727","SARL_v6","SARL_v6ws0x9qte","5b6259be5256470001bd0c6d","fixation","","","img/fixation.png","null","","","prac","","","","","","","","","","","","","","","","","","","",""
"424.5","87154","SARL_v6","SARL_v6ws0x9qte","5b6259be5256470001bd0c6d","infreqPrac","","","img/blue_2bandit_b2.png","68","img/blue_2bandit_b2.png","68","prac","1","0","","","","","","","","","","","","","","","","","",""
"424.5","87539","SARL_v6","SARL_v6ws0x9qte","5b6259be5256470001bd0c6d","infreqPrac_resp","","","img/blue_2bandit_b.png","68","img/blue_2bandit_b.png","68","prac","","","","","","","","","","","","","","","","","","","",""
"null","87697","SARL_v6","SARL_v6ws0x9qte","5b6259be5256470001bd0c6d","fixation","","","img/fixation.png","null","","","prac","","","","","","","","","","","","","","","","","","","",""
"398.59999990463257","88098","SARL_v6","SARL_v6ws0x9qte","5b6259be5256470001bd0c6d","infreqPrac","","","img/blue_2bandit_b2.png","68","img/blue_2bandit_b2.png","68","prac","1","0","","","","","","","","","","","","","","","","","",""
"398.59999990463257","88505","SARL_v6","SARL_v6ws0x9qte","5b6259be5256470001bd0c6d","infreqPrac_resp","","","img/blue_2bandit_b.png","68","img/blue_2bandit_b.png","68","prac","","","","","","","","","","","","","","","","","","","",""
"null","88663","SARL_v6","SARL_v6ws0x9qte","5b6259be5256470001bd0c6d","fixation","","","img/fixation.png","null","","","prac","","","","","","","","","","","","","","","","","","","",""
"273","88937","SARL_v6","SARL_v6ws0x9qte","5b6259be5256470001bd0c6d","infreqPrac","","","img/blue_2bandit_b2.png","68","img/blue_2bandit_b2.png","68","prac","1","0","","","","","","","","","","","","","","","","","",""
"273","89474","SARL_v6","SARL_v6ws0x9qte","5b6259be5256470001bd0c6d","infreqPrac_resp","","","img/blue_2bandit_b.png","68","img/blue_2bandit_b.png","68","prac","","","","","","","","","","","","","","","","","","","",""
"null","89635","SARL_v6","SARL_v6ws0x9qte","5b6259be5256470001bd0c6d","fixation","","","img/fixation.png","null","","","prac","","","","","","","","","","","","","","","","","","","",""
"389.80000019073486","90026","SARL_v6","SARL_v6ws0x9qte","5b6259be5256470001bd0c6d","freqPrac","","","img/orange_2bandit_b2.png","70","img/orange_2bandit_b2.png","70","prac","1","0","","","","","","","","","","","","","","","","","",""
"389.80000019073486","90446","SARL_v6","SARL_v6ws0x9qte","5b6259be5256470001bd0c6d","freqPrac_resp","","","img/orange_2bandit_b.png","70","img/orange_2bandit_b.png","70","prac","","","","","","","","","","","","","","","","","","","",""
"null","90603","SARL_v6","SARL_v6ws0x9qte","5b6259be5256470001bd0c6d","fixation","","","img/fixation.png","null","","","prac","","","","","","","","","","","","","","","","","","","",""
"293.2000000476837","90898","SARL_v6","SARL_v6ws0x9qte","5b6259be5256470001bd0c6d","infreqPrac","","","img/blue_2bandit_b2.png","70","img/blue_2bandit_b2.png","68","prac","0","1","","","","","","","","","","","","","","","","","",""
"293.2000000476837","91416","SARL_v6","SARL_v6ws0x9qte","5b6259be5256470001bd0c6d","infreqPrac_resp","","","img/blue_2bandit_b.png","70","img/blue_2bandit_b.png","68","prac","","","","","","","","","","","","","","","","","","","",""
"null","92423","SARL_v6","SARL_v6ws0x9qte","5b6259be5256470001bd0c6d","feedback","","","img/wrongKey.png","null","","na","prac","","","","","","","","","","","","","","","","","","","",""
"null","92581","SARL_v6","SARL_v6ws0x9qte","5b6259be5256470001bd0c6d","fixation","","","img/fixation.png","null","","","prac","","","","","","","","","","","","","","","","","","","",""
"618.6000001430511","93201","SARL_v6","SARL_v6ws0x9qte","5b6259be5256470001bd0c6d","freqPrac","","","img/orange_2bandit_b2.png","70","img/orange_2bandit_b2.png","70","prac","1","1","","","","","","","","","","","","","","","","","",""
"618.6000001430511","93392","SARL_v6","SARL_v6ws0x9qte","5b6259be5256470001bd0c6d","freqPrac_resp","","","img/orange_2bandit_b.png","70","img/orange_2bandit_b.png","70","prac","","","","","","","","","","","","","","","","","","","",""
"null","93552","SARL_v6","SARL_v6ws0x9qte","5b6259be5256470001bd0c6d","fixation","","","img/fixation.png","null","","","prac","","","","","","","","","","","","","","","","","","","",""
"367.59999990463257","93922","SARL_v6","SARL_v6ws0x9qte","5b6259be5256470001bd0c6d","freqPrac","","","img/orange_2bandit_b2.png","70","img/orange_2bandit_b2.png","70","prac","1","1","","","","","","","","","","","","","","","","","",""
"367.59999990463257","94367","SARL_v6","SARL_v6ws0x9qte","5b6259be5256470001bd0c6d","freqPrac_resp","","","img/orange_2bandit_b.png","70","img/orange_2bandit_b.png","70","prac","","","","","","","","","","","","","","","","","","","",""
"null","94526","SARL_v6","SARL_v6ws0x9qte","5b6259be5256470001bd0c6d","fixation","","","img/fixation.png","null","","","prac","","","","","","","","","","","","","","","","","","","",""
"33362.59999990463","127889","SARL_v6","SARL_v6ws0x9qte","5b6259be5256470001bd0c6d","","","","","","","","prac","","","","","","","","","","","","","","","","","","","",""
"422.2999999523163","128313","SARL_v6","SARL_v6ws0x9qte","5b6259be5256470001bd0c6d","rlPractice","","","img/black_2bandit_b2.png","75","img/black_2bandit_b2.png","","prac","","","0","","","","","","","","","","","","","","","","",""
"null","129071","SARL_v6","SARL_v6ws0x9qte","5b6259be5256470001bd0c6d","feedback","","","<div class=""verylowPoints_sq""> -14 </div>","null","","na","prac","","","1","10","-14","10","","","","","","","","","","","","","",""
"null","129225","SARL_v6","SARL_v6ws0x9qte","5b6259be5256470001bd0c6d","fixation","","","img/fixation.png","null","","","prac","","","","","","","","","","","","","","","","","","","",""
"527.7000000476837","129754","SARL_v6","SARL_v6ws0x9qte","5b6259be5256470001bd0c6d","rlPractice","","","img/black_2bandit_b2.png","74","img/black_2bandit_b2.png","","prac","","","1","","","","","","","","","","","","","","","","",""
"null","130519","SARL_v6","SARL_v6ws0x9qte","5b6259be5256470001bd0c6d","feedback","","","<div class=""veryhighPoints""> 5 </div>","null","","na","prac","","","2","5","-5","5","","","","","","","","","","","","","",""
"null","130676","SARL_v6","SARL_v6ws0x9qte","5b6259be5256470001bd0c6d","fixation","","","img/fixation.png","null","","","prac","","","","","","","","","","","","","","","","","","","",""
"412.2999999523163","131089","SARL_v6","SARL_v6ws0x9qte","5b6259be5256470001bd0c6d","rlPractice","","","img/black_2bandit_b2.png","74","img/black_2bandit_b2.png","","prac","","","2","","","","","","","","","","","","","","","","",""
"null","131843","SARL_v6","SARL_v6ws0x9qte","5b6259be5256470001bd0c6d","feedback","","","<div class=""veryhighPoints""> 30 </div>","null","","na","prac","","","3","30","2","30","","","","","","","","","","","","","",""
"null","132001","SARL_v6","SARL_v6ws0x9qte","5b6259be5256470001bd0c6d","fixation","","","img/fixation.png","null","","","prac","","","","","","","","","","","","","","","","","","","",""
"335.10000014305115","132337","SARL_v6","SARL_v6ws0x9qte","5b6259be5256470001bd0c6d","rlPractice","","","img/black_2bandit_b2.png","74","img/black_2bandit_b2.png","","prac","","","3","","","","","","","","","","","","","","","","",""
"null","133099","SARL_v6","SARL_v6ws0x9qte","5b6259be5256470001bd0c6d","feedback","","","<div class=""verylowPoints""> -2 </div>","null","","na","prac","","","4","-2","20","-2","","","","","","","","","","","","","",""
"null","133253","SARL_v6","SARL_v6ws0x9qte","5b6259be5256470001bd0c6d","fixation","","","img/fixation.png","null","","","prac","","","","","","","","","","","","","","","","","","","",""
"13611.399999856949","146866","SARL_v6","SARL_v6ws0x9qte","5b6259be5256470001bd0c6d","","","","","","","","prac","","","","","","","","","","","","","","","","","","","",""
"613.7999999523163","147482","SARL_v6","SARL_v6ws0x9qte","5b6259be5256470001bd0c6d","mixAttFreqPrac","","","img/orange_2bandit_b2.png","70","img/orange_2bandit_b2.png","70","prac","","","1","","","","","","","","","","","","","","","","",""
"613.7999999523163","147677","SARL_v6","SARL_v6ws0x9qte","5b6259be5256470001bd0c6d","freqPrac_resp","","","img/orange_2bandit_b.png","70","img/orange_2bandit_b.png","70","prac","","","1","","","","","","","","","","","","","","","","",""
"null","147838","SARL_v6","SARL_v6ws0x9qte","5b6259be5256470001bd0c6d","fixation","","","img/fixation.png","null","","","prac","","","","","","","","","","","","","","","","","","","",""
"402.2000000476837","148241","SARL_v6","SARL_v6ws0x9qte","5b6259be5256470001bd0c6d","mixAttInfreqPrac","","","img/blue_2bandit_b2.png","68","img/blue_2bandit_b2.png","68","prac","","","2","","","","","","","","","","","","","","","","",""
"402.2000000476837","148652","SARL_v6","SARL_v6ws0x9qte","5b6259be5256470001bd0c6d","infreqPrac_resp","","","img/blue_2bandit_b.png","68","img/orange_2bandit_b.png","68","prac","","","2","","","","","","","","","","","","","","","","",""
"null","148811","SARL_v6","SARL_v6ws0x9qte","5b6259be5256470001bd0c6d","fixation","","","img/fixation.png","null","","","prac","","","","","","","","","","","","","","","","","","","",""
"309.5","149122","SARL_v6","SARL_v6ws0x9qte","5b6259be5256470001bd0c6d","mixAttInfreqPrac","","","img/blue_2bandit_b2.png","68","img/blue_2bandit_b2.png","68","prac","","","3","","","","","","","","","","","","","","","","",""
"309.5","149622","SARL_v6","SARL_v6ws0x9qte","5b6259be5256470001bd0c6d","infreqPrac_resp","","","img/blue_2bandit_b.png","68","img/orange_2bandit_b.png","68","prac","","","3","","","","","","","","","","","","","","","","",""
"null","149783","SARL_v6","SARL_v6ws0x9qte","5b6259be5256470001bd0c6d","fixation","","","img/fixation.png","null","","","prac","","","","","","","","","","","","","","","","","","","",""
"344.90000009536743","150129","SARL_v6","SARL_v6ws0x9qte","5b6259be5256470001bd0c6d","mixAttInfreqPrac","","","img/blue_2bandit_b2.png","68","img/blue_2bandit_b2.png","68","prac","","","4","","","","","","","","","","","","","","","","",""
"344.90000009536743","150587","SARL_v6","SARL_v6ws0x9qte","5b6259be5256470001bd0c6d","infreqPrac_resp","","","img/blue_2bandit_b.png","68","img/orange_2bandit_b.png","68","prac","","","4","","","","","","","","","","","","","","","","",""
"null","150743","SARL_v6","SARL_v6ws0x9qte","5b6259be5256470001bd0c6d","fixation","","","img/fixation.png","null","","","prac","","","","","","","","","","","","","","","","","","","",""
"425.2000000476837","151170","SARL_v6","SARL_v6ws0x9qte","5b6259be5256470001bd0c6d","mixAttFreqPrac","","","img/orange_2bandit_b2.png","70","img/orange_2bandit_b2.png","70","prac","","","5","","","","","","","","","","","","","","","","",""
"425.2000000476837","151554","SARL_v6","SARL_v6ws0x9qte","5b6259be5256470001bd0c6d","freqPrac_resp","","","img/orange_2bandit_b.png","70","img/orange_2bandit_b.png","70","prac","","","5","","","","","","","","","","","","","","","","",""
"null","151709","SARL_v6","SARL_v6ws0x9qte","5b6259be5256470001bd0c6d","fixation","","","img/fixation.png","null","","","prac","","","","","","","","","","","","","","","","","","","",""
"586.6000001430511","152297","SARL_v6","SARL_v6ws0x9qte","5b6259be5256470001bd0c6d","mixRLPractice","","","img/black_2bandit_b2.png","74","img/black_2bandit_b2.png","","prac","","","5","","","","","","","","","","","","","","","","",""
"null","153054","SARL_v6","SARL_v6ws0x9qte","5b6259be5256470001bd0c6d","feedback","","","<div class=""verylowPoints""> -14 </div>","null","","na","prac","","","6","-14","10","-14","","","","","","","","","","","","","",""
"null","153214","SARL_v6","SARL_v6ws0x9qte","5b6259be5256470001bd0c6d","fixation","","","img/fixation.png","null","","","prac","","","","","","","","","","","","","","","","","","","",""
"null","154028","SARL_v6","SARL_v6ws0x9qte","5b6259be5256470001bd0c6d","mixAttFreqPrac","","","img/orange_2bandit_b2.png","null","img/orange_2bandit_b2.png","70","prac","","","7","","","","","","","","","","","","","","","","",""
"null","154180","SARL_v6","SARL_v6ws0x9qte","5b6259be5256470001bd0c6d","fixation","","","img/fixation.png","null","","","prac","","","","","","","","","","","","","","","","","","","",""
"67.5","154249","SARL_v6","SARL_v6ws0x9qte","5b6259be5256470001bd0c6d","mixAttInfreqPrac","","","img/blue_2bandit_b2.png","70","img/blue_2bandit_b2.png","68","prac","","","8","","","","","","","","","","","","","","","","",""
"67.5","154990","SARL_v6","SARL_v6ws0x9qte","5b6259be5256470001bd0c6d","infreqPrac_resp","","","img/blue_2bandit_b.png","70","img/orange_2bandit_b.png","68","prac","","","8","","","","","","","","","","","","","","","","",""
"153.90000009536743","155145","SARL_v6","SARL_v6ws0x9qte","5b6259be5256470001bd0c6d","fixation","","","img/fixation.png","68","","","prac","","","","","","","","","","","","","","","","","","","",""
"454.5","155601","SARL_v6","SARL_v6ws0x9qte","5b6259be5256470001bd0c6d","mixAttFreqPrac","","","img/orange_2bandit_b2.png","70","img/orange_2bandit_b2.png","70","prac","","","9","","","","","","","","","","","","","","","","",""
"454.5","155963","SARL_v6","SARL_v6ws0x9qte","5b6259be5256470001bd0c6d","freqPrac_resp","","","img/orange_2bandit_b.png","70","img/orange_2bandit_b.png","70","prac","","","9","","","","","","","","","","","","","","","","",""
"null","156123","SARL_v6","SARL_v6ws0x9qte","5b6259be5256470001bd0c6d","fixation","","","img/fixation.png","null","","","prac","","","","","","","","","","","","","","","","","","","",""
"357","156481","SARL_v6","SARL_v6ws0x9qte","5b6259be5256470001bd0c6d","mixAttFreqPrac","","","img/orange_2bandit_b2.png","70","img/orange_2bandit_b2.png","70","prac","","","10","","","","","","","","","","","","","","","","",""
"357","156931","SARL_v6","SARL_v6ws0x9qte","5b6259be5256470001bd0c6d","freqPrac_resp","","","img/orange_2bandit_b.png","70","img/orange_2bandit_b.png","70","prac","","","10","","","","","","","","","","","","","","","","",""
"null","157088","SARL_v6","SARL_v6ws0x9qte","5b6259be5256470001bd0c6d","fixation","","","img/fixation.png","null","","","prac","","","","","","","","","","","","","","","","","","","",""
"367.5","157457","SARL_v6","SARL_v6ws0x9qte","5b6259be5256470001bd0c6d","mixAttInfreqPrac","","","img/blue_2bandit_b2.png","68","img/blue_2bandit_b2.png","68","prac","","","11","","","","","","","","","","","","","","","","",""
"367.5","157905","SARL_v6","SARL_v6ws0x9qte","5b6259be5256470001bd0c6d","infreqPrac_resp","","","img/blue_2bandit_b.png","68","img/orange_2bandit_b.png","68","prac","","","11","","","","","","","","","","","","","","","","",""
"null","158065","SARL_v6","SARL_v6ws0x9qte","5b6259be5256470001bd0c6d","fixation","","","img/fixation.png","null","","","prac","","","","","","","","","","","","","","","","","","","",""
"542.8000001907349","158610","SARL_v6","SARL_v6ws0x9qte","5b6259be5256470001bd0c6d","mixRLPractice","","","img/black_2bandit_b2.png","74","img/black_2bandit_b2.png","","prac","","","11","","","","","","","","","","","","","","","","",""
"null","159376","SARL_v6","SARL_v6ws0x9qte","5b6259be5256470001bd0c6d","feedback","","","<div class=""veryhighPoints""> 5 </div>","null","","na","prac","","","12","5","-5","5","","","","","","","","","","","","","",""
"null","159536","SARL_v6","SARL_v6ws0x9qte","5b6259be5256470001bd0c6d","fixation","","","img/fixation.png","null","","","prac","","","","","","","","","","","","","","","","","","","",""
"12848.300000190735","172386","SARL_v6","SARL_v6ws0x9qte","5b6259be5256470001bd0c6d","","","","","","","","prac","","","","","","","","","","","","","","","","","","","",""
"581.5999999046326","172969","SARL_v6","SARL_v6ws0x9qte","5b6259be5256470001bd0c6d","freq","","","img/orange_2bandit_b2.png","70","","70","test","1","","1","","","","circle","square","1","1","1","1","","","","","","","",""
"null","173201","SARL_v6","SARL_v6ws0x9qte","5b6259be5256470001bd0c6d","freq_resp","","","img/orange_2bandit_b.png","70","img/orange_2bandit_b.png","70","test","","","","","","","","","","","1","","","","","","","","",""
"null","173354","SARL_v6","SARL_v6ws0x9qte","5b6259be5256470001bd0c6d","fixation","","","img/fixation.png","null","","","test","","","","","","","","","","","","","","","","","","","",""
"310.09999990463257","173666","SARL_v6","SARL_v6ws0x9qte","5b6259be5256470001bd0c6d","freq","","","img/orange_2bandit_b2.png","70","","70","test","1","","2","","","","circle","square","2","2","1","1","","","","","","","",""
"null","174158","SARL_v6","SARL_v6ws0x9qte","5b6259be5256470001bd0c6d","freq_resp","","","img/orange_2bandit_b.png","70","img/orange_2bandit_b.png","70","test","","","","","","","","","","","1","","","","","","","","",""
"null","174311","SARL_v6","SARL_v6ws0x9qte","5b6259be5256470001bd0c6d","fixation","","","img/fixation.png","null","","","test","","","","","","","","","","","","","","","","","","","",""
"369","174681","SARL_v6","SARL_v6ws0x9qte","5b6259be5256470001bd0c6d","freq","","","img/orange_2bandit_b2.png","70","","70","test","1","","3","","","","circle","square","3","3","1","1","","","","","","","",""
"null","175124","SARL_v6","SARL_v6ws0x9qte","5b6259be5256470001bd0c6d","freq_resp","","","img/orange_2bandit_b.png","70","img/orange_2bandit_b.png","70","test","","","","","","","","","","","1","","","","","","","","",""
"null","175278","SARL_v6","SARL_v6ws0x9qte","5b6259be5256470001bd0c6d","fixation","","","img/fixation.png","null","","","test","","","","","","","","","","","","","","","","","","","",""
"378.09999990463257","175657","SARL_v6","SARL_v6ws0x9qte","5b6259be5256470001bd0c6d","freq","","","img/orange_2bandit_b2.png","70","","70","test","1","","4","","","","circle","square","4","4","1","1","","","","","","","",""
"null","176092","SARL_v6","SARL_v6ws0x9qte","5b6259be5256470001bd0c6d","freq_resp","","","img/orange_2bandit_b.png","70","img/orange_2bandit_b.png","70","test","","","","","","","","","","","1","","","","","","","","",""
"null","176252","SARL_v6","SARL_v6ws0x9qte","5b6259be5256470001bd0c6d","fixation","","","img/fixation.png","null","","","test","","","","","","","","","","","","","","","","","","","",""
"379.59999990463257","176633","SARL_v6","SARL_v6ws0x9qte","5b6259be5256470001bd0c6d","freq","","","img/orange_2bandit_b2.png","70","","70","test","1","","5","","","","circle","square","5","5","1","1","","","","","","","",""
"null","177059","SARL_v6","SARL_v6ws0x9qte","5b6259be5256470001bd0c6d","freq_resp","","","img/orange_2bandit_b.png","70","img/orange_2bandit_b.png","70","test","","","","","","","","","","","1","","","","","","","","",""
"null","177217","SARL_v6","SARL_v6ws0x9qte","5b6259be5256470001bd0c6d","fixation","","","img/fixation.png","null","","","test","","","","","","","","","","","","","","","","","","","",""
"310.40000009536743","177529","SARL_v6","SARL_v6ws0x9qte","5b6259be5256470001bd0c6d","freq","","","img/orange_2bandit_b2.png","70","","70","test","1","","6","","","","circle","square","6","6","1","1","","","","","","","",""
"null","178030","SARL_v6","SARL_v6ws0x9qte","5b6259be5256470001bd0c6d","freq_resp","","","img/orange_2bandit_b.png","70","img/orange_2bandit_b.png","70","test","","","","","","","","","","","1","","","","","","","","",""
"null","178189","SARL_v6","SARL_v6ws0x9qte","5b6259be5256470001bd0c6d","fixation","","","img/fixation.png","null","","","test","","","","","","","","","","","","","","","","","","","",""
"291.09999990463257","178481","SARL_v6","SARL_v6ws0x9qte","5b6259be5256470001bd0c6d","freq","","","img/orange_2bandit_b2.png","70","","70","test","1","","7","","","","circle","square","7","7","1","1","","","","","","","",""
"null","178993","SARL_v6","SARL_v6ws0x9qte","5b6259be5256470001bd0c6d","freq_resp","","","img/orange_2bandit_b.png","70","img/orange_2bandit_b.png","70","test","","","","","","","","","","","1","","","","","","","","",""
"null","179152","SARL_v6","SARL_v6ws0x9qte","5b6259be5256470001bd0c6d","fixation","","","img/fixation.png","null","","","test","","","","","","","","","","","","","","","","","","","",""
"343.90000009536743","179497","SARL_v6","SARL_v6ws0x9qte","5b6259be5256470001bd0c6d","freq","","","img/orange_2bandit_b2.png","70","","70","test","1","","8","","","","circle","square","8","8","1","1","","","","","","","",""
"null","179957","SARL_v6","SARL_v6ws0x9qte","5b6259be5256470001bd0c6d","freq_resp","","","img/orange_2bandit_b.png","70","img/orange_2bandit_b.png","70","test","","","","","","","","","","","1","","","","","","","","",""
"null","180117","SARL_v6","SARL_v6ws0x9qte","5b6259be5256470001bd0c6d","fixation","","","img/fixation.png","null","","","test","","","","","","","","","","","","","","","","","","","",""
"362.59999990463257","180481","SARL_v6","SARL_v6ws0x9qte","5b6259be5256470001bd0c6d","freq","","","img/orange_2bandit_b2.png","70","","70","test","1","","9","","","","circle","square","9","9","1","1","","","","","","","",""
"null","180934","SARL_v6","SARL_v6ws0x9qte","5b6259be5256470001bd0c6d","freq_resp","","","img/orange_2bandit_b.png","70","img/orange_2bandit_b.png","70","test","","","","","","","","","","","1","","","","","","","","",""
"null","181094","SARL_v6","SARL_v6ws0x9qte","5b6259be5256470001bd0c6d","fixation","","","img/fixation.png","null","","","test","","","","","","","","","","","","","","","","","","","",""
"345.2000000476837","181441","SARL_v6","SARL_v6ws0x9qte","5b6259be5256470001bd0c6d","freq","","","img/orange_2bandit_b2.png","70","","70","test","1","","10","","","","circle","square","10","10","1","1","","","","","","","",""
"null","181901","SARL_v6","SARL_v6ws0x9qte","5b6259be5256470001bd0c6d","freq_resp","","","img/orange_2bandit_b.png","70","img/orange_2bandit_b.png","70","test","","","","","","","","","","","1","","","","","","","","",""
"null","182054","SARL_v6","SARL_v6ws0x9qte","5b6259be5256470001bd0c6d","fixation","","","img/fixation.png","null","","","test","","","","","","","","","","","","","","","","","","","",""
"337.59999990463257","182393","SARL_v6","SARL_v6ws0x9qte","5b6259be5256470001bd0c6d","freq","","","img/orange_2bandit_b2.png","70","","70","test","1","","11","","","","circle","square","11","11","1","1","","","","","","","",""
"null","182870","SARL_v6","SARL_v6ws0x9qte","5b6259be5256470001bd0c6d","freq_resp","","","img/orange_2bandit_b.png","70","img/orange_2bandit_b.png","70","test","","","","","","","","","","","1","","","","","","","","",""
"null","183027","SARL_v6","SARL_v6ws0x9qte","5b6259be5256470001bd0c6d","fixation","","","img/fixation.png","null","","","test","","","","","","","","","","","","","","","","","","","",""
"356.7999999523163","183385","SARL_v6","SARL_v6ws0x9qte","5b6259be5256470001bd0c6d","freq","","","img/orange_2bandit_b2.png","70","","70","test","1","","12","","","","circle","square","12","12","1","1","","","","","","","",""
"null","183838","SARL_v6","SARL_v6ws0x9qte","5b6259be5256470001bd0c6d","freq_resp","","","img/orange_2bandit_b.png","70","img/orange_2bandit_b.png","70","test","","","","","","","","","","","1","","","","","","","","",""
"null","183994","SARL_v6","SARL_v6ws0x9qte","5b6259be5256470001bd0c6d","fixation","","","img/fixation.png","null","","","test","","","","","","","","","","","","","","","","","","","",""
"309.5","184306","SARL_v6","SARL_v6ws0x9qte","5b6259be5256470001bd0c6d","freq","","","img/orange_2bandit_b2.png","70","","70","test","1","","13","","","","circle","square","13","13","1","1","","","","","","","",""
"null","184812","SARL_v6","SARL_v6ws0x9qte","5b6259be5256470001bd0c6d","freq_resp","","","img/orange_2bandit_b.png","70","img/orange_2bandit_b.png","70","test","","","","","","","","","","","1","","","","","","","","",""
"null","184966","SARL_v6","SARL_v6ws0x9qte","5b6259be5256470001bd0c6d","fixation","","","img/fixation.png","null","","","test","","","","","","","","","","","","","","","","","","","",""
"314.39999985694885","185282","SARL_v6","SARL_v6ws0x9qte","5b6259be5256470001bd0c6d","freq","","","img/orange_2bandit_b2.png","70","","70","test","1","","14","","","","circle","square","14","14","1","1","","","","","","","",""
"null","185769","SARL_v6","SARL_v6ws0x9qte","5b6259be5256470001bd0c6d","freq_resp","","","img/orange_2bandit_b.png","70","img/orange_2bandit_b.png","70","test","","","","","","","","","","","1","","","","","","","","",""
"null","185925","SARL_v6","SARL_v6ws0x9qte","5b6259be5256470001bd0c6d","fixation","","","img/fixation.png","null","","","test","","","","","","","","","","","","","","","","","","","",""
"346.40000009536743","186274","SARL_v6","SARL_v6ws0x9qte","5b6259be5256470001bd0c6d","freq","","","img/orange_2bandit_b2.png","70","","70","test","1","","15","","","","circle","square","15","15","1","1","","","","","","","",""
"null","186730","SARL_v6","SARL_v6ws0x9qte","5b6259be5256470001bd0c6d","freq_resp","","","img/orange_2bandit_b.png","70","img/orange_2bandit_b.png","70","test","","","","","","","","","","","1","","","","","","","","",""
"null","186885","SARL_v6","SARL_v6ws0x9qte","5b6259be5256470001bd0c6d","fixation","","","img/fixation.png","null","","","test","","","","","","","","","","","","","","","","","","","",""
"258.40000009536743","187145","SARL_v6","SARL_v6ws0x9qte","5b6259be5256470001bd0c6d","freq","","","img/orange_2bandit_b2.png","70","","70","test","1","","16","","","","circle","square","16","16","1","1","","","","","","","",""
"null","187704","SARL_v6","SARL_v6ws0x9qte","5b6259be5256470001bd0c6d","freq_resp","","","img/orange_2bandit_b.png","70","img/orange_2bandit_b.png","70","test","","","","","","","","","","","1","","","","","","","","",""
"null","187860","SARL_v6","SARL_v6ws0x9qte","5b6259be5256470001bd0c6d","fixation","","","img/fixation.png","null","","","test","","","","","","","","","","","","","","","","","","","",""
"443.69999980926514","188306","SARL_v6","SARL_v6ws0x9qte","5b6259be5256470001bd0c6d","infreq","","","img/blue_2bandit_b2.png","68","","68","test","1","","17","","","","circle","square","17","17","1","1","","","","","","","",""
"null","188679","SARL_v6","SARL_v6ws0x9qte","5b6259be5256470001bd0c6d","infreq_resp","","","img/blue_2bandit_b.png","68","img/blue_2bandit_b.png","68","test","","","","","","","","","","","1","","","","","","","","",""
"null","188833","SARL_v6","SARL_v6ws0x9qte","5b6259be5256470001bd0c6d","fixation","","","img/fixation.png","null","","","test","","","","","","","","","","","","","","","","","","","",""
"351.2999999523163","189186","SARL_v6","SARL_v6ws0x9qte","5b6259be5256470001bd0c6d","infreq","","","img/blue_2bandit_b2.png","68","","68","test","1","","18","","","","circle","square","18","18","1","1","","","","","","","",""
"null","189636","SARL_v6","SARL_v6ws0x9qte","5b6259be5256470001bd0c6d","infreq_resp","","","img/blue_2bandit_b.png","68","img/blue_2bandit_b.png","68","test","","","","","","","","","","","1","","","","","","","","",""
"null","189789","SARL_v6","SARL_v6ws0x9qte","5b6259be5256470001bd0c6d","fixation","","","img/fixation.png","null","","","test","","","","","","","","","","","","","","","","","","","",""
"450.59999990463257","190242","SARL_v6","SARL_v6ws0x9qte","5b6259be5256470001bd0c6d","freq","","","img/orange_2bandit_b2.png","70","","70","test","1","","19","","","","circle","square","19","19","1","1","","","","","","","",""
"null","190596","SARL_v6","SARL_v6ws0x9qte","5b6259be5256470001bd0c6d","freq_resp","","","img/orange_2bandit_b.png","70","img/orange_2bandit_b.png","70","test","","","","","","","","","","","1","","","","","","","","",""
"null","190752","SARL_v6","SARL_v6ws0x9qte","5b6259be5256470001bd0c6d","fixation","","","img/fixation.png","null","","","test","","","","","","","","","","","","","","","","","","","",""
"440","191193","SARL_v6","SARL_v6ws0x9qte","5b6259be5256470001bd0c6d","freq","","","img/orange_2bandit_b2.png","70","","70","test","1","","20","","","","circle","square","20","20","1","1","","","","","","","",""
"null","191565","SARL_v6","SARL_v6ws0x9qte","5b6259be5256470001bd0c6d","freq_resp","","","img/orange_2bandit_b.png","70","img/orange_2bandit_b.png","70","test","","","","","","","","","","","1","","","","","","","","",""
"null","191724","SARL_v6","SARL_v6ws0x9qte","5b6259be5256470001bd0c6d","fixation","","","img/fixation.png","null","","","test","","","","","","","","","","","","","","","","","","","",""
"331.40000009536743","192057","SARL_v6","SARL_v6ws0x9qte","5b6259be5256470001bd0c6d","freq","","","img/orange_2bandit_b2.png","70","","70","test","1","","21","","","","circle","square","21","21","1","1","","","","","","","",""
"null","192539","SARL_v6","SARL_v6ws0x9qte","5b6259be5256470001bd0c6d","freq_resp","","","img/orange_2bandit_b.png","70","img/orange_2bandit_b.png","70","test","","","","","","","","","","","1","","","","","","","","",""
"null","192691","SARL_v6","SARL_v6ws0x9qte","5b6259be5256470001bd0c6d","fixation","","","img/fixation.png","null","","","test","","","","","","","","","","","","","","","","","","","",""
"548.2999999523163","193242","SARL_v6","SARL_v6ws0x9qte","5b6259be5256470001bd0c6d","rl","","","img/black_2bandit_b2.png","74","","0","test","","","22","","","-3","circle","square","","0","1","","74","-3","-3","-3","-3","circle","1","0"
"null","194005","SARL_v6","SARL_v6ws0x9qte","5b6259be5256470001bd0c6d","feedback","","","<div class=""verylowPoints""> -3 </div>","null","","na","test","","","NaN","","","","","","","","1","","74","","","","","","1",""
"null","194820","SARL_v6","SARL_v6ws0x9qte","5b6259be5256470001bd0c6d","freq","","","img/orange_2bandit_b2.png","null","","70","test","0","","23","","","","circle","square","22","1","2","0.9545454545454546","","","","","","","",""
"null","194980","SARL_v6","SARL_v6ws0x9qte","5b6259be5256470001bd0c6d","fixation","","","img/fixation.png","null","","","test","","","","","","","","","","","","","","","","","","","",""
"323.10000014305115","195305","SARL_v6","SARL_v6ws0x9qte","5b6259be5256470001bd0c6d","infreq","","","img/blue_2bandit_b2.png","68","","68","test","1","","24","","","","circle","square","23","2","2","0.9565217391304348","","","","","","","",""
"null","195795","SARL_v6","SARL_v6ws0x9qte","5b6259be5256470001bd0c6d","infreq_resp","","","img/blue_2bandit_b.png","68","img/blue_2bandit_b.png","68","test","","","","","","","","","","","2","","","","","","","","",""
"null","195947","SARL_v6","SARL_v6ws0x9qte","5b6259be5256470001bd0c6d","fixation","","","img/fixation.png","null","","","test","","","","","","","","","","","","","","","","","","","",""
"380.59999990463257","196329","SARL_v6","SARL_v6ws0x9qte","5b6259be5256470001bd0c6d","freq","","","img/orange_2bandit_b2.png","70","","70","test","1","","25","","","","circle","square","24","3","2","0.9583333333333334","","","","","","","",""
"null","196766","SARL_v6","SARL_v6ws0x9qte","5b6259be5256470001bd0c6d","freq_resp","","","img/orange_2bandit_b.png","70","img/orange_2bandit_b.png","70","test","","","","","","","","","","","2","","","","","","","","",""
"null","196926","SARL_v6","SARL_v6ws0x9qte","5b6259be5256470001bd0c6d","fixation","","","img/fixation.png","null","","","test","","","","","","","","","","","","","","","","","","","",""
"369.59999990463257","197297","SARL_v6","SARL_v6ws0x9qte","5b6259be5256470001bd0c6d","infreq","","","img/blue_2bandit_b2.png","68","","68","test","1","","26","","","","circle","square","25","4","2","0.96","","","","","","","",""
"null","197743","SARL_v6","SARL_v6ws0x9qte","5b6259be5256470001bd0c6d","infreq_resp","","","img/blue_2bandit_b.png","68","img/blue_2bandit_b.png","68","test","","","","","","","","","","","2","","","","","","","","",""
"null","197903","SARL_v6","SARL_v6ws0x9qte","5b6259be5256470001bd0c6d","fixation","","","img/fixation.png","null","","","test","","","","","","","","","","","","","","","","","","","",""
"480.7999999523163","198386","SARL_v6","SARL_v6ws0x9qte","5b6259be5256470001bd0c6d","freq","","","img/orange_2bandit_b2.png","70","","70","test","1","","27","","","","circle","square","26","5","2","0.9615384615384616","","","","","","","",""
"null","198716","SARL_v6","SARL_v6ws0x9qte","5b6259be5256470001bd0c6d","freq_resp","","","img/orange_2bandit_b.png","70","img/orange_2bandit_b.png","70","test","","","","","","","","","","","2","","","","","","","","",""
"null","198868","SARL_v6","SARL_v6ws0x9qte","5b6259be5256470001bd0c6d","fixation","","","img/fixation.png","null","","","test","","","","","","","","","","","","","","","","","","","",""
"300.2000000476837","199170","SARL_v6","SARL_v6ws0x9qte","5b6259be5256470001bd0c6d","freq","","","img/orange_2bandit_b2.png","70","","70","test","1","","28","","","","circle","square","27","6","2","0.9629629629629629","","","","","","","",""
"null","199671","SARL_v6","SARL_v6ws0x9qte","5b6259be5256470001bd0c6d","freq_resp","","","img/orange_2bandit_b.png","70","img/orange_2bandit_b.png","70","test","","","","","","","","","","","2","","","","","","","","",""
"null","199825","SARL_v6","SARL_v6ws0x9qte","5b6259be5256470001bd0c6d","fixation","","","img/fixation.png","null","","","test","","","","","","","","","","","","","","","","","","","",""
"231","200058","SARL_v6","SARL_v6ws0x9qte","5b6259be5256470001bd0c6d","freq","","","img/orange_2bandit_b2.png","70","","70","test","1","","29","","","","circle","square","28","7","2","0.9642857142857143","","","","","","","",""
"null","200644","SARL_v6","SARL_v6ws0x9qte","5b6259be5256470001bd0c6d","freq_resp","","","img/orange_2bandit_b.png","70","img/orange_2bandit_b.png","70","test","","","","","","","","","","","2","","","","","","","","",""
"null","200795","SARL_v6","SARL_v6ws0x9qte","5b6259be5256470001bd0c6d","fixation","","","img/fixation.png","null","","","test","","","","","","","","","","","","","","","","","","","",""
"300.59999990463257","201098","SARL_v6","SARL_v6ws0x9qte","5b6259be5256470001bd0c6d","freq","","","img/orange_2bandit_b2.png","70","","70","test","1","","30","","","","circle","square","29","8","2","0.9655172413793104","","","","","","","",""
"null","201612","SARL_v6","SARL_v6ws0x9qte","5b6259be5256470001bd0c6d","freq_resp","","","img/orange_2bandit_b.png","70","img/orange_2bandit_b.png","70","test","","","","","","","","","","","2","","","","","","","","",""
"null","201764","SARL_v6","SARL_v6ws0x9qte","5b6259be5256470001bd0c6d","fixation","","","img/fixation.png","null","","","test","","","","","","","","","","","","","","","","","","","",""
"259.5","202025","SARL_v6","SARL_v6ws0x9qte","5b6259be5256470001bd0c6d","freq","","","img/orange_2bandit_b2.png","70","","70","test","1","","31","","","","circle","square","30","9","2","0.9666666666666667","","","","","","","",""
"null","202574","SARL_v6","SARL_v6ws0x9qte","5b6259be5256470001bd0c6d","freq_resp","","","img/orange_2bandit_b.png","70","img/orange_2bandit_b.png","70","test","","","","","","","","","","","2","","","","","","","","",""
"null","202733","SARL_v6","SARL_v6ws0x9qte","5b6259be5256470001bd0c6d","fixation","","","img/fixation.png","null","","","test","","","","","","","","","","","","","","","","","","","",""
"266.39999985694885","203002","SARL_v6","SARL_v6ws0x9qte","5b6259be5256470001bd0c6d","freq","","","img/orange_2bandit_b2.png","70","","70","test","1","","32","","","","circle","square","31","10","2","0.967741935483871","","","","","","","",""
"null","203542","SARL_v6","SARL_v6ws0x9qte","5b6259be5256470001bd0c6d","freq_resp","","","img/orange_2bandit_b.png","70","img/orange_2bandit_b.png","70","test","","","","","","","","","","","2","","","","","","","","",""
"null","203695","SARL_v6","SARL_v6ws0x9qte","5b6259be5256470001bd0c6d","fixation","","","img/fixation.png","null","","","test","","","","","","","","","","","","","","","","","","","",""
"249.29999995231628","203946","SARL_v6","SARL_v6ws0x9qte","5b6259be5256470001bd0c6d","freq","","","img/orange_2bandit_b2.png","70","","70","test","1","","33","","","","circle","square","32","11","2","0.96875","","","","","","","",""
"null","204498","SARL_v6","SARL_v6ws0x9qte","5b6259be5256470001bd0c6d","freq_resp","","","img/orange_2bandit_b.png","70","img/orange_2bandit_b.png","70","test","","","","","","","","","","","2","","","","","","","","",""
"null","204658","SARL_v6","SARL_v6ws0x9qte","5b6259be5256470001bd0c6d","fixation","","","img/fixation.png","null","","","test","","","","","","","","","","","","","","","","","","","",""
"381.7000000476837","205042","SARL_v6","SARL_v6ws0x9qte","5b6259be5256470001bd0c6d","freq","","","img/orange_2bandit_b2.png","70","","70","test","1","","34","","","","circle","square","33","12","2","0.9696969696969697","","","","","","","",""
"null","205473","SARL_v6","SARL_v6ws0x9qte","5b6259be5256470001bd0c6d","freq_resp","","","img/orange_2bandit_b.png","70","img/orange_2bandit_b.png","70","test","","","","","","","","","","","2","","","","","","","","",""
"null","205633","SARL_v6","SARL_v6ws0x9qte","5b6259be5256470001bd0c6d","fixation","","","img/fixation.png","null","","","test","","","","","","","","","","","","","","","","","","","",""
"246.29999995231628","205882","SARL_v6","SARL_v6ws0x9qte","5b6259be5256470001bd0c6d","freq","","","img/orange_2bandit_b2.png","70","","70","test","1","","35","","","","circle","square","34","13","2","0.9705882352941176","","","","","","","",""
"null","206450","SARL_v6","SARL_v6ws0x9qte","5b6259be5256470001bd0c6d","freq_resp","","","img/orange_2bandit_b.png","70","img/orange_2bandit_b.png","70","test","","","","","","","","","","","2","","","","","","","","",""
"null","206610","SARL_v6","SARL_v6ws0x9qte","5b6259be5256470001bd0c6d","fixation","","","img/fixation.png","null","","","test","","","","","","","","","","","","","","","","","","","",""
"237.5","206850","SARL_v6","SARL_v6ws0x9qte","5b6259be5256470001bd0c6d","freq","","","img/orange_2bandit_b2.png","70","","70","test","1","","36","","","","circle","square","35","14","2","0.9714285714285714","","","","","","","",""
"null","207427","SARL_v6","SARL_v6ws0x9qte","5b6259be5256470001bd0c6d","freq_resp","","","img/orange_2bandit_b.png","70","img/orange_2bandit_b.png","70","test","","","","","","","","","","","2","","","","","","","","",""
"null","207579","SARL_v6","SARL_v6ws0x9qte","5b6259be5256470001bd0c6d","fixation","","","img/fixation.png","null","","","test","","","","","","","","","","","","","","","","","","","",""
"260.5","207842","SARL_v6","SARL_v6ws0x9qte","5b6259be5256470001bd0c6d","freq","","","img/orange_2bandit_b2.png","70","","70","test","1","","37","","","","circle","square","36","15","2","0.9722222222222222","","","","","","","",""
"null","208384","SARL_v6","SARL_v6ws0x9qte","5b6259be5256470001bd0c6d","freq_resp","","","img/orange_2bandit_b.png","70","img/orange_2bandit_b.png","70","test","","","","","","","","","","","2","","","","","","","","",""
"null","208542","SARL_v6","SARL_v6ws0x9qte","5b6259be5256470001bd0c6d","fixation","","","img/fixation.png","null","","","test","","","","","","","","","","","","","","","","","","","",""
"345.59999990463257","208890","SARL_v6","SARL_v6ws0x9qte","5b6259be5256470001bd0c6d","freq","","","img/orange_2bandit_b2.png","70","","70","test","1","","38","","","","circle","square","37","16","2","0.972972972972973","","","","","","","",""
"null","209359","SARL_v6","SARL_v6ws0x9qte","5b6259be5256470001bd0c6d","freq_resp","","","img/orange_2bandit_b.png","70","img/orange_2bandit_b.png","70","test","","","","","","","","","","","2","","","","","","","","",""
"null","209519","SARL_v6","SARL_v6ws0x9qte","5b6259be5256470001bd0c6d","fixation","","","img/fixation.png","null","","","test","","","","","","","","","","","","","","","","","","","",""
"281.2000000476837","209802","SARL_v6","SARL_v6ws0x9qte","5b6259be5256470001bd0c6d","freq","","","img/orange_2bandit_b2.png","70","","70","test","1","","39","","","","circle","square","38","17","2","0.9736842105263158","","","","","","","",""
"null","210326","SARL_v6","SARL_v6ws0x9qte","5b6259be5256470001bd0c6d","freq_resp","","","img/orange_2bandit_b.png","70","img/orange_2bandit_b.png","70","test","","","","","","","","","","","2","","","","","","","","",""
"null","210478","SARL_v6","SARL_v6ws0x9qte","5b6259be5256470001bd0c6d","fixation","","","img/fixation.png","null","","","test","","","","","","","","","","","","","","","","","","","",""
"298","210778","SARL_v6","SARL_v6ws0x9qte","5b6259be5256470001bd0c6d","freq","","","img/orange_2bandit_b2.png","70","","70","test","1","","40","","","","circle","square","39","18","2","0.9743589743589743","","","","","","","",""
"null","211297","SARL_v6","SARL_v6ws0x9qte","5b6259be5256470001bd0c6d","freq_resp","","","img/orange_2bandit_b.png","70","img/orange_2bandit_b.png","70","test","","","","","","","","","","","2","","","","","","","","",""
"null","211449","SARL_v6","SARL_v6ws0x9qte","5b6259be5256470001bd0c6d","fixation","","","img/fixation.png","null","","","test","","","","","","","","","","","","","","","","","","","",""
"254.40000009536743","211705","SARL_v6","SARL_v6ws0x9qte","5b6259be5256470001bd0c6d","freq","","","img/orange_2bandit_b2.png","70","","70","test","1","","41","","","","circle","square","40","19","2","0.975","","","","","","","",""
"null","212268","SARL_v6","SARL_v6ws0x9qte","5b6259be5256470001bd0c6d","freq_resp","","","img/orange_2bandit_b.png","70","img/orange_2bandit_b.png","70","test","","","","","","","","","","","2","","","","","","","","",""
"null","212420","SARL_v6","SARL_v6ws0x9qte","5b6259be5256470001bd0c6d","fixation","","","img/fixation.png","null","","","test","","","","","","","","","","","","","","","","","","","",""
"532.3999998569489","212954","SARL_v6","SARL_v6ws0x9qte","5b6259be5256470001bd0c6d","rl","","","img/black_2bandit_b2.png","74","","0","test","","","42","","","-8","circle","square","","0","2","","74","-8","-5","-8","-5","circle","2","0"
"null","213714","SARL_v6","SARL_v6ws0x9qte","5b6259be5256470001bd0c6d","feedback","","","<div class=""verylowPoints""> -8 </div>","null","","na","test","","","NaN","","","","","","","","2","","74","","","","","","2",""
"589.7999999523163","214306","SARL_v6","SARL_v6ws0x9qte","5b6259be5256470001bd0c6d","freq","","","img/orange_2bandit_b2.png","70","","70","test","1","","43","","","","circle","square","41","1","3","0.975609756097561","","","","","","","",""
"null","214530","SARL_v6","SARL_v6ws0x9qte","5b6259be5256470001bd0c6d","freq_resp","","","img/orange_2bandit_b.png","70","img/orange_2bandit_b.png","70","test","","","","","","","","","","","3","","","","","","","","",""
"null","214685","SARL_v6","SARL_v6ws0x9qte","5b6259be5256470001bd0c6d","fixation","","","img/fixation.png","null","","","test","","","","","","","","","","","","","","","","","","","",""
"354.59999990463257","215041","SARL_v6","SARL_v6ws0x9qte","5b6259be5256470001bd0c6d","freq","","","img/orange_2bandit_b2.png","70","","70","test","1","","44","","","","circle","square","42","2","3","0.9761904761904762","","","","","","","",""
"null","215497","SARL_v6","SARL_v6ws0x9qte","5b6259be5256470001bd0c6d","freq_resp","","","img/orange_2bandit_b.png","70","img/orange_2bandit_b.png","70","test","","","","","","","","","","","3","","","","","","","","",""
"null","215651","SARL_v6","SARL_v6ws0x9qte","5b6259be5256470001bd0c6d","fixation","","","img/fixation.png","null","","","test","","","","","","","","","","","","","","","","","","","",""
"244.5","215898","SARL_v6","SARL_v6ws0x9qte","5b6259be5256470001bd0c6d","freq","","","img/orange_2bandit_b2.png","70","","70","test","1","","45","","","","circle","square","43","3","3","0.9767441860465116","","","","","","","",""
"null","216458","SARL_v6","SARL_v6ws0x9qte","5b6259be5256470001bd0c6d","freq_resp","","","img/orange_2bandit_b.png","70","img/orange_2bandit_b.png","70","test","","","","","","","","","","","3","","","","","","","","",""
"null","216618","SARL_v6","SARL_v6ws0x9qte","5b6259be5256470001bd0c6d","fixation","","","img/fixation.png","null","","","test","","","","","","","","","","","","","","","","","","","",""
"261.39999985694885","216881","SARL_v6","SARL_v6ws0x9qte","5b6259be5256470001bd0c6d","freq","","","img/orange_2bandit_b2.png","70","","70","test","1","","46","","","","circle","square","44","4","3","0.9772727272727273","","","","","","","",""
"null","217426","SARL_v6","SARL_v6ws0x9qte","5b6259be5256470001bd0c6d","freq_resp","","","img/orange_2bandit_b.png","70","img/orange_2bandit_b.png","70","test","","","","","","","","","","","3","","","","","","","","",""
"null","217580","SARL_v6","SARL_v6ws0x9qte","5b6259be5256470001bd0c6d","fixation","","","img/fixation.png","null","","","test","","","","","","","","","","","","","","","","","","","",""
"156.19999980926514","217738","SARL_v6","SARL_v6ws0x9qte","5b6259be5256470001bd0c6d","freq","","","img/orange_2bandit_b2.png","70","","70","test","1","","47","","","","circle","square","45","5","3","0.9777777777777777","","","","","","","",""
"null","218397","SARL_v6","SARL_v6ws0x9qte","5b6259be5256470001bd0c6d","freq_resp","","","img/orange_2bandit_b.png","70","img/orange_2bandit_b.png","70","test","","","","","","","","","","","3","","","","","","","","",""
"null","218550","SARL_v6","SARL_v6ws0x9qte","5b6259be5256470001bd0c6d","fixation","","","img/fixation.png","null","","","test","","","","","","","","","","","","","","","","","","","",""
"242","218794","SARL_v6","SARL_v6ws0x9qte","5b6259be5256470001bd0c6d","freq","","","img/orange_2bandit_b2.png","70","","70","test","1","","48","","","","circle","square","46","6","3","0.9782608695652174","","","","","","","",""
"null","219369","SARL_v6","SARL_v6ws0x9qte","5b6259be5256470001bd0c6d","freq_resp","","","img/orange_2bandit_b.png","70","img/orange_2bandit_b.png","70","test","","","","","","","","","","","3","","","","","","","","",""
"null","219521","SARL_v6","SARL_v6ws0x9qte","5b6259be5256470001bd0c6d","fixation","","","img/fixation.png","null","","","test","","","","","","","","","","","","","","","","","","","",""
"270.7999999523163","219793","SARL_v6","SARL_v6ws0x9qte","5b6259be5256470001bd0c6d","freq","","","img/orange_2bandit_b2.png","70","","70","test","1","","49","","","","circle","square","47","7","3","0.9787234042553191","","","","","","","",""
"null","220338","SARL_v6","SARL_v6ws0x9qte","5b6259be5256470001bd0c6d","freq_resp","","","img/orange_2bandit_b.png","70","img/orange_2bandit_b.png","70","test","","","","","","","","","","","3","","","","","","","","",""
"null","220490","SARL_v6","SARL_v6ws0x9qte","5b6259be5256470001bd0c6d","fixation","","","img/fixation.png","null","","","test","","","","","","","","","","","","","","","","","","","",""
"237.29999995231628","220730","SARL_v6","SARL_v6ws0x9qte","5b6259be5256470001bd0c6d","freq","","","img/orange_2bandit_b2.png","70","","70","test","1","","50","","","","circle","square","48","8","3","0.9791666666666666","","","","","","","",""
"null","221305","SARL_v6","SARL_v6ws0x9qte","5b6259be5256470001bd0c6d","freq_resp","","","img/orange_2bandit_b.png","70","img/orange_2bandit_b.png","70","test","","","","","","","","","","","3","","","","","","","","",""
"null","221457","SARL_v6","SARL_v6ws0x9qte","5b6259be5256470001bd0c6d","fixation","","","img/fixation.png","null","","","test","","","","","","","","","","","","","","","","","","","",""
"239.19999980926514","221698","SARL_v6","SARL_v6ws0x9qte","5b6259be5256470001bd0c6d","freq","","","img/orange_2bandit_b2.png","70","","70","test","1","","51","","","","circle","square","49","9","3","0.9795918367346939","","","","","","","",""
"null","222261","SARL_v6","SARL_v6ws0x9qte","5b6259be5256470001bd0c6d","freq_resp","","","img/orange_2bandit_b.png","70","img/orange_2bandit_b.png","70","test","","","","","","","","","","","3","","","","","","","","",""
"null","222417","SARL_v6","SARL_v6ws0x9qte","5b6259be5256470001bd0c6d","fixation","","","img/fixation.png","null","","","test","","","","","","","","","","","","","","","","","","","",""
"278.7000000476837","222698","SARL_v6","SARL_v6ws0x9qte","5b6259be5256470001bd0c6d","freq","","","img/orange_2bandit_b2.png","70","","70","test","1","","52","","","","circle","square","50","10","3","0.98","","","","","","","",""
"null","223234","SARL_v6","SARL_v6ws0x9qte","5b6259be5256470001bd0c6d","freq_resp","","","img/orange_2bandit_b.png","70","img/orange_2bandit_b.png","70","test","","","","","","","","","","","3","","","","","","","","",""
"null","223386","SARL_v6","SARL_v6ws0x9qte","5b6259be5256470001bd0c6d","fixation","","","img/fixation.png","null","","","test","","","","","","","","","","","","","","","","","","","",""
"253.29999995231628","223642","SARL_v6","SARL_v6ws0x9qte","5b6259be5256470001bd0c6d","freq","","","img/orange_2bandit_b2.png","70","","70","test","1","","53","","","","circle","square","51","11","3","0.9803921568627451","","","","","","","",""
"null","224192","SARL_v6","SARL_v6ws0x9qte","5b6259be5256470001bd0c6d","freq_resp","","","img/orange_2bandit_b.png","70","img/orange_2bandit_b.png","70","test","","","","","","","","","","","3","","","","","","","","",""
"null","224344","SARL_v6","SARL_v6ws0x9qte","5b6259be5256470001bd0c6d","fixation","","","img/fixation.png","null","","","test","","","","","","","","","","","","","","","","","","","",""
"208","224554","SARL_v6","SARL_v6ws0x9qte","5b6259be5256470001bd0c6d","freq","","","img/orange_2bandit_b2.png","70","","70","test","1","","54","","","","circle","square","52","12","3","0.9807692307692307","","","","","","","",""
"null","225161","SARL_v6","SARL_v6ws0x9qte","5b6259be5256470001bd0c6d","freq_resp","","","img/orange_2bandit_b.png","70","img/orange_2bandit_b.png","70","test","","","","","","","","","","","3","","","","","","","","",""
"null","225317","SARL_v6","SARL_v6ws0x9qte","5b6259be5256470001bd0c6d","fixation","","","img/fixation.png","null","","","test","","","","","","","","","","","","","","","","","","","",""
"250.90000009536743","225570","SARL_v6","SARL_v6ws0x9qte","5b6259be5256470001bd0c6d","freq","","","img/orange_2bandit_b2.png","70","","70","test","1","","55","","","","circle","square","53","13","3","0.9811320754716981","","","","","","","",""
"null","226126","SARL_v6","SARL_v6ws0x9qte","5b6259be5256470001bd0c6d","freq_resp","","","img/orange_2bandit_b.png","70","img/orange_2bandit_b.png","70","test","","","","","","","","","","","3","","","","","","","","",""
"null","226285","SARL_v6","SARL_v6ws0x9qte","5b6259be5256470001bd0c6d","fixation","","","img/fixation.png","null","","","test","","","","","","","","","","","","","","","","","","","",""
"306.59999990463257","226594","SARL_v6","SARL_v6ws0x9qte","5b6259be5256470001bd0c6d","freq","","","img/orange_2bandit_b2.png","70","","70","test","1","","56","","","","circle","square","54","14","3","0.9814814814814815","","","","","","","",""
"null","227104","SARL_v6","SARL_v6ws0x9qte","5b6259be5256470001bd0c6d","freq_resp","","","img/orange_2bandit_b.png","70","img/orange_2bandit_b.png","70","test","","","","","","","","","","","3","","","","","","","","",""
"null","227257","SARL_v6","SARL_v6ws0x9qte","5b6259be5256470001bd0c6d","fixation","","","img/fixation.png","null","","","test","","","","","","","","","","","","","","","","","","","",""
"343","227602","SARL_v6","SARL_v6ws0x9qte","5b6259be5256470001bd0c6d","freq","","","img/orange_2bandit_b2.png","70","","70","test","1","","57","","","","circle","square","55","15","3","0.9818181818181818","","","","","","","",""
"null","228064","SARL_v6","SARL_v6ws0x9qte","5b6259be5256470001bd0c6d","freq_resp","","","img/orange_2bandit_b.png","70","img/orange_2bandit_b.png","70","test","","","","","","","","","","","3","","","","","","","","",""
"null","228219","SARL_v6","SARL_v6ws0x9qte","5b6259be5256470001bd0c6d","fixation","","","img/fixation.png","null","","","test","","","","","","","","","","","","","","","","","","","",""
"316.69999980926514","228538","SARL_v6","SARL_v6ws0x9qte","5b6259be5256470001bd0c6d","freq","","","img/orange_2bandit_b2.png","70","","70","test","1","","58","","","","circle","square","56","16","3","0.9821428571428571","","","","","","","",""
"null","229025","SARL_v6","SARL_v6ws0x9qte","5b6259be5256470001bd0c6d","freq_resp","","","img/orange_2bandit_b.png","70","img/orange_2bandit_b.png","70","test","","","","","","","","","","","3","","","","","","","","",""
"null","229178","SARL_v6","SARL_v6ws0x9qte","5b6259be5256470001bd0c6d","fixation","","","img/fixation.png","null","","","test","","","","","","","","","","","","","","","","","","","",""
"262","229442","SARL_v6","SARL_v6ws0x9qte","5b6259be5256470001bd0c6d","freq","","","img/orange_2bandit_b2.png","70","","70","test","1","","59","","","","circle","square","57","17","3","0.9824561403508771","","","","","","","",""
"null","229982","SARL_v6","SARL_v6ws0x9qte","5b6259be5256470001bd0c6d","freq_resp","","","img/orange_2bandit_b.png","70","img/orange_2bandit_b.png","70","test","","","","","","","","","","","3","","","","","","","","",""
"null","230134","SARL_v6","SARL_v6ws0x9qte","5b6259be5256470001bd0c6d","fixation","","","img/fixation.png","null","","","test","","","","","","","","","","","","","","","","","","","",""
"209.90000009536743","230345","SARL_v6","SARL_v6ws0x9qte","5b6259be5256470001bd0c6d","infreq","","","img/blue_2bandit_b2.png","70","","68","test","0","","60","","","","circle","square","58","18","3","0.9655172413793104","","","","","","","",""
"null","230938","SARL_v6","SARL_v6ws0x9qte","5b6259be5256470001bd0c6d","infreq_resp","","","img/blue_2bandit_b.png","70","img/blue_2bandit_b.png","68","test","","","","","","","","","","","3","","","","","","","","",""
"null","231099","SARL_v6","SARL_v6ws0x9qte","5b6259be5256470001bd0c6d","fixation","","","img/fixation.png","null","","","test","","","","","","","","","","","","","","","","","","","",""
"429.2999999523163","231530","SARL_v6","SARL_v6ws0x9qte","5b6259be5256470001bd0c6d","freq","","","img/orange_2bandit_b2.png","70","","70","test","1","","61","","","","circle","square","59","19","3","0.9661016949152542","","","","","","","",""
"null","231910","SARL_v6","SARL_v6ws0x9qte","5b6259be5256470001bd0c6d","freq_resp","","","img/orange_2bandit_b.png","70","img/orange_2bandit_b.png","70","test","","","","","","","","","","","3","","","","","","","","",""
"null","232070","SARL_v6","SARL_v6ws0x9qte","5b6259be5256470001bd0c6d","fixation","","","img/fixation.png","null","","","test","","","","","","","","","","","","","","","","","","","",""
"441.89999985694885","232514","SARL_v6","SARL_v6ws0x9qte","5b6259be5256470001bd0c6d","infreq","","","img/blue_2bandit_b2.png","68","","68","test","1","","62","","","","circle","square","60","20","3","0.9666666666666667","","","","","","","",""
"null","232881","SARL_v6","SARL_v6ws0x9qte","5b6259be5256470001bd0c6d","infreq_resp","","","img/blue_2bandit_b.png","68","img/blue_2bandit_b.png","68","test","","","","","","","","","","","3","","","","","","","","",""
"null","233041","SARL_v6","SARL_v6ws0x9qte","5b6259be5256470001bd0c6d","fixation","","","img/fixation.png","null","","","test","","","","","","","","","","","","","","","","","","","",""
"382.7999999523163","233426","SARL_v6","SARL_v6ws0x9qte","5b6259be5256470001bd0c6d","freq","","","img/orange_2bandit_b2.png","70","","70","test","1","","63","","","","circle","square","61","21","3","0.9672131147540983","","","","","","","",""
"null","233854","SARL_v6","SARL_v6ws0x9qte","5b6259be5256470001bd0c6d","freq_resp","","","img/orange_2bandit_b.png","70","img/orange_2bandit_b.png","70","test","","","","","","","","","","","3","","","","","","","","",""
"null","234014","SARL_v6","SARL_v6ws0x9qte","5b6259be5256470001bd0c6d","fixation","","","img/fixation.png","null","","","test","","","","","","","","","","","","","","","","","","","",""
"322.19999980926514","234338","SARL_v6","SARL_v6ws0x9qte","5b6259be5256470001bd0c6d","freq","","","img/orange_2bandit_b2.png","70","","70","test","1","","64","","","","circle","square","62","22","3","0.967741935483871","","","","","","","",""
"null","234826","SARL_v6","SARL_v6ws0x9qte","5b6259be5256470001bd0c6d","freq_resp","","","img/orange_2bandit_b.png","70","img/orange_2bandit_b.png","70","test","","","","","","","","","","","3","","","","","","","","",""
"null","234978","SARL_v6","SARL_v6ws0x9qte","5b6259be5256470001bd0c6d","fixation","","","img/fixation.png","null","","","test","","","","","","","","","","","","","","","","","","","",""
"285.5","235266","SARL_v6","SARL_v6ws0x9qte","5b6259be5256470001bd0c6d","freq","","","img/orange_2bandit_b2.png","70","","70","test","1","","65","","","","circle","square","63","23","3","0.9682539682539683","","","","","","","",""
"null","235785","SARL_v6","SARL_v6ws0x9qte","5b6259be5256470001bd0c6d","freq_resp","","","img/orange_2bandit_b.png","70","img/orange_2bandit_b.png","70","test","","","","","","","","","","","3","","","","","","","","",""
"null","235943","SARL_v6","SARL_v6ws0x9qte","5b6259be5256470001bd0c6d","fixation","","","img/fixation.png","null","","","test","","","","","","","","","","","","","","","","","","","",""
"296.5","236242","SARL_v6","SARL_v6ws0x9qte","5b6259be5256470001bd0c6d","freq","","","img/orange_2bandit_b2.png","70","","70","test","1","","66","","","","circle","square","64","24","3","0.96875","","","","","","","",""
"null","236760","SARL_v6","SARL_v6ws0x9qte","5b6259be5256470001bd0c6d","freq_resp","","","img/orange_2bandit_b.png","70","img/orange_2bandit_b.png","70","test","","","","","","","","","","","3","","","","","","","","",""
"null","236918","SARL_v6","SARL_v6ws0x9qte","5b6259be5256470001bd0c6d","fixation","","","img/fixation.png","null","","","test","","","","","","","","","","","","","","","","","","","",""
"601","237522","SARL_v6","SARL_v6ws0x9qte","5b6259be5256470001bd0c6d","rl","","","img/black_2bandit_b2.png","74","","0","test","","","67","","","-8","circle","square","","0","3","","74","-8","-4","-8","-4","circle","3","0"
"null","238276","SARL_v6","SARL_v6ws0x9qte","5b6259be5256470001bd0c6d","feedback","","","<div class=""verylowPoints""> -8 </div>","null","","na","test","","","NaN","","","","","","","","3","","74","","","","","","3",""
"763.6000001430511","239041","SARL_v6","SARL_v6ws0x9qte","5b6259be5256470001bd0c6d","freq","","","img/orange_2bandit_b2.png","70","","70","test","1","","68","","","","circle","square","65","1","4","0.9692307692307692","","","","","","","",""
"null","239093","SARL_v6","SARL_v6ws0x9qte","5b6259be5256470001bd0c6d","freq_resp","","","img/orange_2bandit_b.png","70","img/orange_2bandit_b.png","70","test","","","","","","","","","","","4","","","","","","","","",""
"null","239253","SARL_v6","SARL_v6ws0x9qte","5b6259be5256470001bd0c6d","fixation","","","img/fixation.png","null","","","test","","","","","","","","","","","","","","","","","","","",""
"418.5","239674","SARL_v6","SARL_v6ws0x9qte","5b6259be5256470001bd0c6d","freq","","","img/orange_2bandit_b2.png","70","","70","test","1","","69","","","","circle","square","66","2","4","0.9696969696969697","","","","","","","",""
"null","240066","SARL_v6","SARL_v6ws0x9qte","5b6259be5256470001bd0c6d","freq_resp","","","img/orange_2bandit_b.png","70","img/orange_2bandit_b.png","70","test","","","","","","","","","","","4","","","","","","","","",""
"null","240224","SARL_v6","SARL_v6ws0x9qte","5b6259be5256470001bd0c6d","fixation","","","img/fixation.png","null","","","test","","","","","","","","","","","","","","","","","","","",""
"287.69999980926514","240514","SARL_v6","SARL_v6ws0x9qte","5b6259be5256470001bd0c6d","freq","","","img/orange_2bandit_b2.png","70","","70","test","1","","70","","","","circle","square","67","3","4","0.9701492537313433","","","","","","","",""
"null","241039","SARL_v6","SARL_v6ws0x9qte","5b6259be5256470001bd0c6d","freq_resp","","","img/orange_2bandit_b.png","70","img/orange_2bandit_b.png","70","test","","","","","","","","","","","4","","","","","","","","",""
"null","241199","SARL_v6","SARL_v6ws0x9qte","5b6259be5256470001bd0c6d","fixation","","","img/fixation.png","null","","","test","","","","","","","","","","","","","","","","","","","",""
"345.2000000476837","241546","SARL_v6","SARL_v6ws0x9qte","5b6259be5256470001bd0c6d","freq","","","img/orange_2bandit_b2.png","70","","70","test","1","","71","","","","circle","square","68","4","4","0.9705882352941176","","","","","","","",""
"null","242010","SARL_v6","SARL_v6ws0x9qte","5b6259be5256470001bd0c6d","freq_resp","","","img/orange_2bandit_b.png","70","img/orange_2bandit_b.png","70","test","","","","","","","","","","","4","","","","","","","","",""
"null","242170","SARL_v6","SARL_v6ws0x9qte","5b6259be5256470001bd0c6d","fixation","","","img/fixation.png","null","","","test","","","","","","","","","","","","","","","","","","","",""
"214.29999995231628","242386","SARL_v6","SARL_v6ws0x9qte","5b6259be5256470001bd0c6d","freq","","","img/orange_2bandit_b2.png","70","","70","test","1","","72","","","","circle","square","69","5","4","0.9710144927536232","","","","","","","",""
"null","242987","SARL_v6","SARL_v6ws0x9qte","5b6259be5256470001bd0c6d","freq_resp","","","img/orange_2bandit_b.png","70","img/orange_2bandit_b.png","70","test","","","","","","","","","","","4","","","","","","","","",""
"null","243139","SARL_v6","SARL_v6ws0x9qte","5b6259be5256470001bd0c6d","fixation","","","img/fixation.png","null","","","test","","","","","","","","","","","","","","","","","","","",""
"301.09999990463257","243442","SARL_v6","SARL_v6ws0x9qte","5b6259be5256470001bd0c6d","freq","","","img/orange_2bandit_b2.png","70","","70","test","1","","73","","","","circle","square","70","6","4","0.9714285714285714","","","","","","","",""
"null","243944","SARL_v6","SARL_v6ws0x9qte","5b6259be5256470001bd0c6d","freq_resp","","","img/orange_2bandit_b.png","70","img/orange_2bandit_b.png","70","test","","","","","","","","","","","4","","","","","","","","",""
"null","244102","SARL_v6","SARL_v6ws0x9qte","5b6259be5256470001bd0c6d","fixation","","","img/fixation.png","null","","","test","","","","","","","","","","","","","","","","","","","",""
"506.19999980926514","244610","SARL_v6","SARL_v6ws0x9qte","5b6259be5256470001bd0c6d","infreq","","","img/blue_2bandit_b2.png","68","","68","test","1","","74","","","","circle","square","71","7","4","0.971830985915493","","","","","","","",""
"null","244917","SARL_v6","SARL_v6ws0x9qte","5b6259be5256470001bd0c6d","infreq_resp","","","img/blue_2bandit_b.png","68","img/blue_2bandit_b.png","68","test","","","","","","","","","","","4","","","","","","","","",""
"null","245077","SARL_v6","SARL_v6ws0x9qte","5b6259be5256470001bd0c6d","fixation","","","img/fixation.png","null","","","test","","","","","","","","","","","","","","","","","","","",""
"475.2999999523163","245554","SARL_v6","SARL_v6ws0x9qte","5b6259be5256470001bd0c6d","freq","","","img/orange_2bandit_b2.png","70","","70","test","1","","75","","","","circle","square","72","8","4","0.9722222222222222","","","","","","","",""
"null","245894","SARL_v6","SARL_v6ws0x9qte","5b6259be5256470001bd0c6d","freq_resp","","","img/orange_2bandit_b.png","70","img/orange_2bandit_b.png","70","test","","","","","","","","","","","4","","","","","","","","",""
"null","246046","SARL_v6","SARL_v6ws0x9qte","5b6259be5256470001bd0c6d","fixation","","","img/fixation.png","null","","","test","","","","","","","","","","","","","","","","","","","",""
"482.19999980926514","246530","SARL_v6","SARL_v6ws0x9qte","5b6259be5256470001bd0c6d","freq","","","img/orange_2bandit_b2.png","70","","70","test","1","","76","","","","circle","square","73","9","4","0.9726027397260274","","","","","","","",""
"null","246855","SARL_v6","SARL_v6ws0x9qte","5b6259be5256470001bd0c6d","freq_resp","","","img/orange_2bandit_b.png","70","img/orange_2bandit_b.png","70","test","","","","","","","","","","","4","","","","","","","","",""
"null","247015","SARL_v6","SARL_v6ws0x9qte","5b6259be5256470001bd0c6d","fixation","","","img/fixation.png","null","","","test","","","","","","","","","","","","","","","","","","","",""
"465.39999985694885","247482","SARL_v6","SARL_v6ws0x9qte","5b6259be5256470001bd0c6d","freq","","","img/orange_2bandit_b2.png","70","","70","test","1","","77","","","","circle","square","74","10","4","0.972972972972973","","","","","","","",""
"null","247821","SARL_v6","SARL_v6ws0x9qte","5b6259be5256470001bd0c6d","freq_resp","","","img/orange_2bandit_b.png","70","img/orange_2bandit_b.png","70","test","","","","","","","","","","","4","","","","","","","","",""
"null","247977","SARL_v6","SARL_v6ws0x9qte","5b6259be5256470001bd0c6d","fixation","","","img/fixation.png","null","","","test","","","","","","","","","","","","","","","","","","","",""
"335.39999985694885","248314","SARL_v6","SARL_v6ws0x9qte","5b6259be5256470001bd0c6d","freq","","","img/orange_2bandit_b2.png","70","","70","test","1","","78","","","","circle","square","75","11","4","0.9733333333333334","","","","","","","",""
"null","248781","SARL_v6","SARL_v6ws0x9qte","5b6259be5256470001bd0c6d","freq_resp","","","img/orange_2bandit_b.png","70","img/orange_2bandit_b.png","70","test","","","","","","","","","","","4","","","","","","","","",""
"null","248934","SARL_v6","SARL_v6ws0x9qte","5b6259be5256470001bd0c6d","fixation","","","img/fixation.png","null","","","test","","","","","","","","","","","","","","","","","","","",""
"266.5","249202","SARL_v6","SARL_v6ws0x9qte","5b6259be5256470001bd0c6d","freq","","","img/orange_2bandit_b2.png","70","","70","test","1","","79","","","","circle","square","76","12","4","0.9736842105263158","","","","","","","",""
"null","249744","SARL_v6","SARL_v6ws0x9qte","5b6259be5256470001bd0c6d","freq_resp","","","img/orange_2bandit_b.png","70","img/orange_2bandit_b.png","70","test","","","","","","","","","","","4","","","","","","","","",""
"null","249896","SARL_v6","SARL_v6ws0x9qte","5b6259be5256470001bd0c6d","fixation","","","img/fixation.png","null","","","test","","","","","","","","","","","","","","","","","","","",""
"272","250170","SARL_v6","SARL_v6ws0x9qte","5b6259be5256470001bd0c6d","freq","","","img/orange_2bandit_b2.png","70","","70","test","1","","80","","","","circle","square","77","13","4","0.974025974025974","","","","","","","",""
"null","250714","SARL_v6","SARL_v6ws0x9qte","5b6259be5256470001bd0c6d","freq_resp","","","img/orange_2bandit_b.png","70","img/orange_2bandit_b.png","70","test","","","","","","","","","","","4","","","","","","","","",""
"null","250866","SARL_v6","SARL_v6ws0x9qte","5b6259be5256470001bd0c6d","fixation","","","img/fixation.png","null","","","test","","","","","","","","","","","","","","","","","","","",""
"262","251130","SARL_v6","SARL_v6ws0x9qte","5b6259be5256470001bd0c6d","freq","","","img/orange_2bandit_b2.png","70","","70","test","1","","81","","","","circle","square","78","14","4","0.9743589743589743","","","","","","","",""
"null","251675","SARL_v6","SARL_v6ws0x9qte","5b6259be5256470001bd0c6d","freq_resp","","","img/orange_2bandit_b.png","70","img/orange_2bandit_b.png","70","test","","","","","","","","","","","4","","","","","","","","",""
"null","251835","SARL_v6","SARL_v6ws0x9qte","5b6259be5256470001bd0c6d","fixation","","","img/fixation.png","null","","","test","","","","","","","","","","","","","","","","","","","",""
"205.09999990463257","252042","SARL_v6","SARL_v6ws0x9qte","5b6259be5256470001bd0c6d","freq","","","img/orange_2bandit_b2.png","70","","70","test","1","","82","","","","circle","square","79","15","4","0.9746835443037974","","","","","","","",""
"null","252646","SARL_v6","SARL_v6ws0x9qte","5b6259be5256470001bd0c6d","freq_resp","","","img/orange_2bandit_b.png","70","img/orange_2bandit_b.png","70","test","","","","","","","","","","","4","","","","","","","","",""
"null","252806","SARL_v6","SARL_v6ws0x9qte","5b6259be5256470001bd0c6d","fixation","","","img/fixation.png","null","","","test","","","","","","","","","","","","","","","","","","","",""
"241.90000009536743","253050","SARL_v6","SARL_v6ws0x9qte","5b6259be5256470001bd0c6d","freq","","","img/orange_2bandit_b2.png","70","","70","test","1","","83","","","","circle","square","80","16","4","0.975","","","","","","","",""
"null","253623","SARL_v6","SARL_v6ws0x9qte","5b6259be5256470001bd0c6d","freq_resp","","","img/orange_2bandit_b.png","70","img/orange_2bandit_b.png","70","test","","","","","","","","","","","4","","","","","","","","",""
"null","253775","SARL_v6","SARL_v6ws0x9qte","5b6259be5256470001bd0c6d","fixation","","","img/fixation.png","null","","","test","","","","","","","","","","","","","","","","","","","",""
"369.2999999523163","254146","SARL_v6","SARL_v6ws0x9qte","5b6259be5256470001bd0c6d","freq","","","img/orange_2bandit_b2.png","70","","70","test","1","","84","","","","circle","square","81","17","4","0.9753086419753086","","","","","","","",""
"null","254594","SARL_v6","SARL_v6ws0x9qte","5b6259be5256470001bd0c6d","freq_resp","","","img/orange_2bandit_b.png","70","img/orange_2bandit_b.png","70","test","","","","","","","","","","","4","","","","","","","","",""
"null","254754","SARL_v6","SARL_v6ws0x9qte","5b6259be5256470001bd0c6d","fixation","","","img/fixation.png","null","","","test","","","","","","","","","","","","","","","","","","","",""
"534.9000000953674","255290","SARL_v6","SARL_v6ws0x9qte","5b6259be5256470001bd0c6d","infreq","","","img/blue_2bandit_b2.png","68","","68","test","1","","85","","","","circle","square","82","18","4","0.975609756097561","","","","","","","",""
"null","255569","SARL_v6","SARL_v6ws0x9qte","5b6259be5256470001bd0c6d","infreq_resp","","","img/blue_2bandit_b.png","68","img/blue_2bandit_b.png","68","test","","","","","","","","","","","4","","","","","","","","",""
"null","255721","SARL_v6","SARL_v6ws0x9qte","5b6259be5256470001bd0c6d","fixation","","","img/fixation.png","null","","","test","","","","","","","","","","","","","","","","","","","",""
"495.09999990463257","256218","SARL_v6","SARL_v6ws0x9qte","5b6259be5256470001bd0c6d","freq","","","img/orange_2bandit_b2.png","70","","70","test","1","","86","","","","circle","square","83","19","4","0.9759036144578314","","","","","","","",""
"null","256530","SARL_v6","SARL_v6ws0x9qte","5b6259be5256470001bd0c6d","freq_resp","","","img/orange_2bandit_b.png","70","img/orange_2bandit_b.png","70","test","","","","","","","","","","","4","","","","","","","","",""
"null","256690","SARL_v6","SARL_v6ws0x9qte","5b6259be5256470001bd0c6d","fixation","","","img/fixation.png","null","","","test","","","","","","","","","","","","","","","","","","","",""
"750.5","257443","SARL_v6","SARL_v6ws0x9qte","5b6259be5256470001bd0c6d","rl","","","img/black_2bandit_b2.png","74","","0","test","","","87","","","-12","circle","square","","0","4","","74","-12","0","-12","0","circle","4","0"
"null","258206","SARL_v6","SARL_v6ws0x9qte","5b6259be5256470001bd0c6d","feedback","","","<div class=""verylowPoints""> -12 </div>","null","","na","test","","","NaN","","","","","","","","4","","74","","","","","","4",""
"610.0999999046326","258818","SARL_v6","SARL_v6ws0x9qte","5b6259be5256470001bd0c6d","freq","","","img/orange_2bandit_b2.png","70","","70","test","1","","88","","","","circle","square","84","1","5","0.9761904761904762","","","","","","","",""
"null","259021","SARL_v6","SARL_v6ws0x9qte","5b6259be5256470001bd0c6d","freq_resp","","","img/orange_2bandit_b.png","70","img/orange_2bandit_b.png","70","test","","","","","","","","","","","5","","","","","","","","",""
"null","259181","SARL_v6","SARL_v6ws0x9qte","5b6259be5256470001bd0c6d","fixation","","","img/fixation.png","null","","","test","","","","","","","","","","","","","","","","","","","",""
"771.4000000953674","259954","SARL_v6","SARL_v6ws0x9qte","5b6259be5256470001bd0c6d","freq","","","img/orange_2bandit_b2.png","70","","70","test","1","","89","","","","circle","square","85","2","5","0.9764705882352941","","","","","","","",""
"null","259984","SARL_v6","SARL_v6ws0x9qte","5b6259be5256470001bd0c6d","freq_resp","","","img/orange_2bandit_b.png","70","img/orange_2bandit_b.png","70","test","","","","","","","","","","","5","","","","","","","","",""
"null","260148","SARL_v6","SARL_v6ws0x9qte","5b6259be5256470001bd0c6d","fixation","","","img/fixation.png","null","","","test","","","","","","","","","","","","","","","","","","","",""
"420","260570","SARL_v6","SARL_v6ws0x9qte","5b6259be5256470001bd0c6d","freq","","","img/orange_2bandit_b2.png","70","","70","test","1","","90","","","","circle","square","86","3","5","0.9767441860465116","","","","","","","",""
"null","260959","SARL_v6","SARL_v6ws0x9qte","5b6259be5256470001bd0c6d","freq_resp","","","img/orange_2bandit_b.png","70","img/orange_2bandit_b.png","70","test","","","","","","","","","","","5","","","","","","","","",""
"null","261117","SARL_v6","SARL_v6ws0x9qte","5b6259be5256470001bd0c6d","fixation","","","img/fixation.png","null","","","test","","","","","","","","","","","","","","","","","","","",""
"386.89999985694885","261506","SARL_v6","SARL_v6ws0x9qte","5b6259be5256470001bd0c6d","infreq","","","img/blue_2bandit_b2.png","68","","68","test","1","","91","","","","circle","square","87","4","5","0.9770114942528736","","","","","","","",""
"null","261934","SARL_v6","SARL_v6ws0x9qte","5b6259be5256470001bd0c6d","infreq_resp","","","img/blue_2bandit_b.png","68","img/blue_2bandit_b.png","68","test","","","","","","","","","","","5","","","","","","","","",""
"null","262088","SARL_v6","SARL_v6ws0x9qte","5b6259be5256470001bd0c6d","fixation","","","img/fixation.png","null","","","test","","","","","","","","","","","","","","","","","","","",""
"431.90000009536743","262522","SARL_v6","SARL_v6ws0x9qte","5b6259be5256470001bd0c6d","freq","","","img/orange_2bandit_b2.png","70","","70","test","1","","92","","","","circle","square","88","5","5","0.9772727272727273","","","","","","","",""
"null","262902","SARL_v6","SARL_v6ws0x9qte","5b6259be5256470001bd0c6d","freq_resp","","","img/orange_2bandit_b.png","70","img/orange_2bandit_b.png","70","test","","","","","","","","","","","5","","","","","","","","",""
"null","263058","SARL_v6","SARL_v6ws0x9qte","5b6259be5256470001bd0c6d","fixation","","","img/fixation.png","null","","","test","","","","","","","","","","","","","","","","","","","",""
"502.5","263562","SARL_v6","SARL_v6ws0x9qte","5b6259be5256470001bd0c6d","infreq","","","img/blue_2bandit_b2.png","68","","68","test","1","","93","","","","circle","square","89","6","5","0.9775280898876404","","","","","","","",""
"null","263865","SARL_v6","SARL_v6ws0x9qte","5b6259be5256470001bd0c6d","infreq_resp","","","img/blue_2bandit_b.png","68","img/blue_2bandit_b.png","68","test","","","","","","","","","","","5","","","","","","","","",""
"null","264019","SARL_v6","SARL_v6ws0x9qte","5b6259be5256470001bd0c6d","fixation","","","img/fixation.png","null","","","test","","","","","","","","","","","","","","","","","","","",""
"493.5","264514","SARL_v6","SARL_v6ws0x9qte","5b6259be5256470001bd0c6d","freq","","","img/orange_2bandit_b2.png","70","","70","test","1","","94","","","","circle","square","90","7","5","0.9777777777777777","","","","","","","",""
"null","264832","SARL_v6","SARL_v6ws0x9qte","5b6259be5256470001bd0c6d","freq_resp","","","img/orange_2bandit_b.png","70","img/orange_2bandit_b.png","70","test","","","","","","","","","","","5","","","","","","","","",""
"null","264988","SARL_v6","SARL_v6ws0x9qte","5b6259be5256470001bd0c6d","fixation","","","img/fixation.png","null","","","test","","","","","","","","","","","","","","","","","","","",""
"380.09999990463257","265370","SARL_v6","SARL_v6ws0x9qte","5b6259be5256470001bd0c6d","freq","","","img/orange_2bandit_b2.png","70","","70","test","1","","95","","","","circle","square","91","8","5","0.978021978021978","","","","","","","",""
"null","265797","SARL_v6","SARL_v6ws0x9qte","5b6259be5256470001bd0c6d","freq_resp","","","img/orange_2bandit_b.png","70","img/orange_2bandit_b.png","70","test","","","","","","","","","","","5","","","","","","","","",""
"null","265955","SARL_v6","SARL_v6ws0x9qte","5b6259be5256470001bd0c6d","fixation","","","img/fixation.png","null","","","test","","","","","","","","","","","","","","","","","","","",""
"285.2000000476837","266242","SARL_v6","SARL_v6ws0x9qte","5b6259be5256470001bd0c6d","freq","","","img/orange_2bandit_b2.png","70","","70","test","1","","96","","","","circle","square","92","9","5","0.9782608695652174","","","","","","","",""
"null","266772","SARL_v6","SARL_v6ws0x9qte","5b6259be5256470001bd0c6d","freq_resp","","","img/orange_2bandit_b.png","70","img/orange_2bandit_b.png","70","test","","","","","","","","","","","5","","","","","","","","",""
"null","266929","SARL_v6","SARL_v6ws0x9qte","5b6259be5256470001bd0c6d","fixation","","","img/fixation.png","null","","","test","","","","","","","","","","","","","","","","","","","",""
"343.5","267274","SARL_v6","SARL_v6ws0x9qte","5b6259be5256470001bd0c6d","freq","","","img/orange_2bandit_b2.png","70","","70","test","1","","97","","","","circle","square","93","10","5","0.978494623655914","","","","","","","",""
"null","267742","SARL_v6","SARL_v6ws0x9qte","5b6259be5256470001bd0c6d","freq_resp","","","img/orange_2bandit_b.png","70","img/orange_2bandit_b.png","70","test","","","","","","","","","","","5","","","","","","","","",""
"null","267902","SARL_v6","SARL_v6ws0x9qte","5b6259be5256470001bd0c6d","fixation","","","img/fixation.png","null","","","test","","","","","","","","","","","","","","","","","","","",""
"562.3999998569489","268466","SARL_v6","SARL_v6ws0x9qte","5b6259be5256470001bd0c6d","freq","","","img/orange_2bandit_b2.png","70","","70","test","1","","98","","","","circle","square","94","11","5","0.9787234042553191","","","","","","","",""
"null","268719","SARL_v6","SARL_v6ws0x9qte","5b6259be5256470001bd0c6d","freq_resp","","","img/orange_2bandit_b.png","70","img/orange_2bandit_b.png","70","test","","","","","","","","","","","5","","","","","","","","",""
"null","268871","SARL_v6","SARL_v6ws0x9qte","5b6259be5256470001bd0c6d","fixation","","","img/fixation.png","null","","","test","","","","","","","","","","","","","","","","","","","",""
"377","269250","SARL_v6","SARL_v6ws0x9qte","5b6259be5256470001bd0c6d","freq","","","img/orange_2bandit_b2.png","70","","70","test","1","","99","","","","circle","square","95","12","5","0.9789473684210527","","","","","","","",""
"null","269690","SARL_v6","SARL_v6ws0x9qte","5b6259be5256470001bd0c6d","freq_resp","","","img/orange_2bandit_b.png","70","img/orange_2bandit_b.png","70","test","","","","","","","","","","","5","","","","","","","","",""
"null","269846","SARL_v6","SARL_v6ws0x9qte","5b6259be5256470001bd0c6d","fixation","","","img/fixation.png","null","","","test","","","","","","","","","","","","","","","","","","","",""
"378.2999999523163","270226","SARL_v6","SARL_v6ws0x9qte","5b6259be5256470001bd0c6d","freq","","","img/orange_2bandit_b2.png","70","","70","test","1","","100","","","","circle","square","96","13","5","0.9791666666666666","","","","","","","",""
"null","270664","SARL_v6","SARL_v6ws0x9qte","5b6259be5256470001bd0c6d","freq_resp","","","img/orange_2bandit_b.png","70","img/orange_2bandit_b.png","70","test","","","","","","","","","","","5","","","","","","","","",""
"null","270818","SARL_v6","SARL_v6ws0x9qte","5b6259be5256470001bd0c6d","fixation","","","img/fixation.png","null","","","test","","","","","","","","","","","","","","","","","","","",""
"317.7999999523163","271138","SARL_v6","SARL_v6ws0x9qte","5b6259be5256470001bd0c6d","freq","","","img/orange_2bandit_b2.png","70","","70","test","1","","101","","","","circle","square","97","14","5","0.979381443298969","","","","","","","",""
"null","271632","SARL_v6","SARL_v6ws0x9qte","5b6259be5256470001bd0c6d","freq_resp","","","img/orange_2bandit_b.png","70","img/orange_2bandit_b.png","70","test","","","","","","","","","","","5","","","","","","","","",""
"null","271784","SARL_v6","SARL_v6ws0x9qte","5b6259be5256470001bd0c6d","fixation","","","img/fixation.png","null","","","test","","","","","","","","","","","","","","","","","","","",""
"311.69999980926514","272098","SARL_v6","SARL_v6ws0x9qte","5b6259be5256470001bd0c6d","freq","","","img/orange_2bandit_b2.png","70","","70","test","1","","102","","","","circle","square","98","15","5","0.9795918367346939","","","","","","","",""
"null","272592","SARL_v6","SARL_v6ws0x9qte","5b6259be5256470001bd0c6d","freq_resp","","","img/orange_2bandit_b.png","70","img/orange_2bandit_b.png","70","test","","","","","","","","","","","5","","","","","","","","",""
"null","272752","SARL_v6","SARL_v6ws0x9qte","5b6259be5256470001bd0c6d","fixation","","","img/fixation.png","null","","","test","","","","","","","","","","","","","","","","","","","",""
"239.79999995231628","272994","SARL_v6","SARL_v6ws0x9qte","5b6259be5256470001bd0c6d","infreq","","","img/blue_2bandit_b2.png","70","","68","test","0","","103","","","","circle","square","99","16","5","0.9696969696969697","","","","","","","",""
"null","273569","SARL_v6","SARL_v6ws0x9qte","5b6259be5256470001bd0c6d","infreq_resp","","","img/blue_2bandit_b.png","70","img/blue_2bandit_b.png","68","test","","","","","","","","","","","5","","","","","","","","",""
"null","273721","SARL_v6","SARL_v6ws0x9qte","5b6259be5256470001bd0c6d","fixation","","","img/fixation.png","null","","","test","","","","","","","","","","","","","","","","","","","",""
"415.09999990463257","274138","SARL_v6","SARL_v6ws0x9qte","5b6259be5256470001bd0c6d","freq","","","img/orange_2bandit_b2.png","70","","70","test","1","","104","","","","circle","square","100","17","5","0.97","","","","","","","",""
"null","274526","SARL_v6","SARL_v6ws0x9qte","5b6259be5256470001bd0c6d","freq_resp","","","img/orange_2bandit_b.png","70","img/orange_2bandit_b.png","70","test","","","","","","","","","","","5","","","","","","","","",""
"null","274686","SARL_v6","SARL_v6ws0x9qte","5b6259be5256470001bd0c6d","fixation","","","img/fixation.png","null","","","test","","","","","","","","","","","","","","","","","","","",""
"330.09999990463257","275018","SARL_v6","SARL_v6ws0x9qte","5b6259be5256470001bd0c6d","freq","","","img/orange_2bandit_b2.png","70","","70","test","1","","105","","","","circle","square","101","18","5","0.9702970297029703","","","","","","","",""
"null","275502","SARL_v6","SARL_v6ws0x9qte","5b6259be5256470001bd0c6d","freq_resp","","","img/orange_2bandit_b.png","70","img/orange_2bandit_b.png","70","test","","","","","","","","","","","5","","","","","","","","",""
"null","275662","SARL_v6","SARL_v6ws0x9qte","5b6259be5256470001bd0c6d","fixation","","","img/fixation.png","null","","","test","","","","","","","","","","","","","","","","","","","",""
"370","276034","SARL_v6","SARL_v6ws0x9qte","5b6259be5256470001bd0c6d","freq","","","img/orange_2bandit_b2.png","70","","70","test","1","","106","","","","circle","square","102","19","5","0.9705882352941176","","","","","","","",""
"null","276474","SARL_v6","SARL_v6ws0x9qte","5b6259be5256470001bd0c6d","freq_resp","","","img/orange_2bandit_b.png","70","img/orange_2bandit_b.png","70","test","","","","","","","","","","","5","","","","","","","","",""
"null","276633","SARL_v6","SARL_v6ws0x9qte","5b6259be5256470001bd0c6d","fixation","","","img/fixation.png","null","","","test","","","","","","","","","","","","","","","","","","","",""
"327","276962","SARL_v6","SARL_v6ws0x9qte","5b6259be5256470001bd0c6d","freq","","","img/orange_2bandit_b2.png","70","","70","test","1","","107","","","","circle","square","103","20","5","0.970873786407767","","","","","","","",""
"null","277437","SARL_v6","SARL_v6ws0x9qte","5b6259be5256470001bd0c6d","freq_resp","","","img/orange_2bandit_b.png","70","img/orange_2bandit_b.png","70","test","","","","","","","","","","","5","","","","","","","","",""
"null","277595","SARL_v6","SARL_v6ws0x9qte","5b6259be5256470001bd0c6d","fixation","","","img/fixation.png","null","","","test","","","","","","","","","","","","","","","","","","","",""
"317","277914","SARL_v6","SARL_v6ws0x9qte","5b6259be5256470001bd0c6d","freq","","","img/orange_2bandit_b2.png","70","","70","test","1","","108","","","","circle","square","104","21","5","0.9711538461538461","","","","","","","",""
"null","278407","SARL_v6","SARL_v6ws0x9qte","5b6259be5256470001bd0c6d","freq_resp","","","img/orange_2bandit_b.png","70","img/orange_2bandit_b.png","70","test","","","","","","","","","","","5","","","","","","","","",""
"null","278560","SARL_v6","SARL_v6ws0x9qte","5b6259be5256470001bd0c6d","fixation","","","img/fixation.png","null","","","test","","","","","","","","","","","","","","","","","","","",""
"272.2000000476837","278834","SARL_v6","SARL_v6ws0x9qte","5b6259be5256470001bd0c6d","freq","","","img/orange_2bandit_b2.png","70","","70","test","1","","109","","","","circle","square","105","22","5","0.9714285714285714","","","","","","","",""
"null","279369","SARL_v6","SARL_v6ws0x9qte","5b6259be5256470001bd0c6d","freq_resp","","","img/orange_2bandit_b.png","70","img/orange_2bandit_b.png","70","test","","","","","","","","","","","5","","","","","","","","",""
"null","279526","SARL_v6","SARL_v6ws0x9qte","5b6259be5256470001bd0c6d","fixation","","","img/fixation.png","null","","","test","","","","","","","","","","","","","","","","","","","",""
"434.39999985694885","279962","SARL_v6","SARL_v6ws0x9qte","5b6259be5256470001bd0c6d","freq","","","img/orange_2bandit_b2.png","70","","70","test","1","","110","","","","circle","square","106","23","5","0.9716981132075472","","","","","","","",""
"null","280337","SARL_v6","SARL_v6ws0x9qte","5b6259be5256470001bd0c6d","freq_resp","","","img/orange_2bandit_b.png","70","img/orange_2bandit_b.png","70","test","","","","","","","","","","","5","","","","","","","","",""
"null","280490","SARL_v6","SARL_v6ws0x9qte","5b6259be5256470001bd0c6d","fixation","","","img/fixation.png","null","","","test","","","","","","","","","","","","","","","","","","","",""
"357.90000009536743","280850","SARL_v6","SARL_v6ws0x9qte","5b6259be5256470001bd0c6d","freq","","","img/orange_2bandit_b2.png","70","","70","test","1","","111","","","","circle","square","107","24","5","0.9719626168224299","","","","","","","",""
"null","281297","SARL_v6","SARL_v6ws0x9qte","5b6259be5256470001bd0c6d","freq_resp","","","img/orange_2bandit_b.png","70","img/orange_2bandit_b.png","70","test","","","","","","","","","","","5","","","","","","","","",""
"null","281458","SARL_v6","SARL_v6ws0x9qte","5b6259be5256470001bd0c6d","fixation","","","img/fixation.png","null","","","test","","","","","","","","","","","","","","","","","","","",""
"422.5","281882","SARL_v6","SARL_v6ws0x9qte","5b6259be5256470001bd0c6d","freq","","","img/orange_2bandit_b2.png","70","","70","test","1","","112","","","","circle","square","108","25","5","0.9722222222222222","","","","","","","",""
"null","282263","SARL_v6","SARL_v6ws0x9qte","5b6259be5256470001bd0c6d","freq_resp","","","img/orange_2bandit_b.png","70","img/orange_2bandit_b.png","70","test","","","","","","","","","","","5","","","","","","","","",""
"null","282421","SARL_v6","SARL_v6ws0x9qte","5b6259be5256470001bd0c6d","fixation","","","img/fixation.png","null","","","test","","","","","","","","","","","","","","","","","","","",""
"562.5","282986","SARL_v6","SARL_v6ws0x9qte","5b6259be5256470001bd0c6d","rl","","","img/black_2bandit_b2.png","74","","0","test","","","113","","","-7","circle","square","","0","5","","74","-7","4","-7","4","circle","5","0"
"null","283751","SARL_v6","SARL_v6ws0x9qte","5b6259be5256470001bd0c6d","feedback","","","<div class=""verylowPoints""> -7 </div>","null","","na","test","","","NaN","","","","","","","","5","","74","","","","","","5",""
"760.5999999046326","284514","SARL_v6","SARL_v6ws0x9qte","5b6259be5256470001bd0c6d","freq","","","img/orange_2bandit_b2.png","70","","70","test","1","","114","","","","circle","square","109","1","6","0.9724770642201835","","","","","","","",""
"null","284565","SARL_v6","SARL_v6ws0x9qte","5b6259be5256470001bd0c6d","freq_resp","","","img/orange_2bandit_b.png","70","img/orange_2bandit_b.png","70","test","","","","","","","","","","","6","","","","","","","","",""
"null","284725","SARL_v6","SARL_v6ws0x9qte","5b6259be5256470001bd0c6d","fixation","","","img/fixation.png","null","","","test","","","","","","","","","","","","","","","","","","","",""
"556.1999998092651","285283","SARL_v6","SARL_v6ws0x9qte","5b6259be5256470001bd0c6d","infreq","","","img/blue_2bandit_b2.png","68","","68","test","1","","115","","","","circle","square","110","2","6","0.9727272727272728","","","","","","","",""
"null","285529","SARL_v6","SARL_v6ws0x9qte","5b6259be5256470001bd0c6d","infreq_resp","","","img/blue_2bandit_b.png","68","img/blue_2bandit_b.png","68","test","","","","","","","","","","","6","","","","","","","","",""
"null","285685","SARL_v6","SARL_v6ws0x9qte","5b6259be5256470001bd0c6d","fixation","","","img/fixation.png","null","","","test","","","","","","","","","","","","","","","","","","","",""
"363.5","286050","SARL_v6","SARL_v6ws0x9qte","5b6259be5256470001bd0c6d","infreq","","","img/blue_2bandit_b2.png","68","","68","test","1","","116","","","","circle","square","111","3","6","0.972972972972973","","","","","","","",""
"null","286490","SARL_v6","SARL_v6ws0x9qte","5b6259be5256470001bd0c6d","infreq_resp","","","img/blue_2bandit_b.png","68","img/blue_2bandit_b.png","68","test","","","","","","","","","","","6","","","","","","","","",""
"null","286651","SARL_v6","SARL_v6ws0x9qte","5b6259be5256470001bd0c6d","fixation","","","img/fixation.png","null","","","test","","","","","","","","","","","","","","","","","","","",""
"349.5","287002","SARL_v6","SARL_v6ws0x9qte","5b6259be5256470001bd0c6d","freq","","","img/orange_2bandit_b2.png","70","","70","test","1","","117","","","","circle","square","112","4","6","0.9732142857142857","","","","","","","",""
"null","287459","SARL_v6","SARL_v6ws0x9qte","5b6259be5256470001bd0c6d","freq_resp","","","img/orange_2bandit_b.png","70","img/orange_2bandit_b.png","70","test","","","","","","","","","","","6","","","","","","","","",""
"null","287614","SARL_v6","SARL_v6ws0x9qte","5b6259be5256470001bd0c6d","fixation","","","img/fixation.png","null","","","test","","","","","","","","","","","","","","","","","","","",""
"258.69999980926514","287874","SARL_v6","SARL_v6ws0x9qte","5b6259be5256470001bd0c6d","freq","","","img/orange_2bandit_b2.png","70","","70","test","1","","118","","","","circle","square","113","5","6","0.9734513274336283","","","","","","","",""
"null","288422","SARL_v6","SARL_v6ws0x9qte","5b6259be5256470001bd0c6d","freq_resp","","","img/orange_2bandit_b.png","70","img/orange_2bandit_b.png","70","test","","","","","","","","","","","6","","","","","","","","",""
"null","288577","SARL_v6","SARL_v6ws0x9qte","5b6259be5256470001bd0c6d","fixation","","","img/fixation.png","null","","","test","","","","","","","","","","","","","","","","","","","",""
"327.7000000476837","288907","SARL_v6","SARL_v6ws0x9qte","5b6259be5256470001bd0c6d","freq","","","img/orange_2bandit_b2.png","70","","70","test","1","","119","","","","circle","square","114","6","6","0.9736842105263158","","","","","","","",""
"null","289384","SARL_v6","SARL_v6ws0x9qte","5b6259be5256470001bd0c6d","freq_resp","","","img/orange_2bandit_b.png","70","img/orange_2bandit_b.png","70","test","","","","","","","","","","","6","","","","","","","","",""
"null","289538","SARL_v6","SARL_v6ws0x9qte","5b6259be5256470001bd0c6d","fixation","","","img/fixation.png","null","","","test","","","","","","","","","","","","","","","","","","","",""
"262","289802","SARL_v6","SARL_v6ws0x9qte","5b6259be5256470001bd0c6d","freq","","","img/orange_2bandit_b2.png","70","","70","test","1","","120","","","","circle","square","115","7","6","0.9739130434782609","","","","","","","",""
"null","290342","SARL_v6","SARL_v6ws0x9qte","5b6259be5256470001bd0c6d","freq_resp","","","img/orange_2bandit_b.png","70","img/orange_2bandit_b.png","70","test","","","","","","","","","","","6","","","","","","","","",""
"null","290495","SARL_v6","SARL_v6ws0x9qte","5b6259be5256470001bd0c6d","fixation","","","img/fixation.png","null","","","test","","","","","","","","","","","","","","","","","","","",""
"193.5","290690","SARL_v6","SARL_v6ws0x9qte","5b6259be5256470001bd0c6d","freq","","","img/orange_2bandit_b2.png","70","","70","test","1","","121","","","","circle","square","116","8","6","0.9741379310344828","","","","","","","",""
"null","291301","SARL_v6","SARL_v6ws0x9qte","5b6259be5256470001bd0c6d","freq_resp","","","img/orange_2bandit_b.png","70","img/orange_2bandit_b.png","70","test","","","","","","","","","","","6","","","","","","","","",""
"null","291461","SARL_v6","SARL_v6ws0x9qte","5b6259be5256470001bd0c6d","fixation","","","img/fixation.png","null","","","test","","","","","","","","","","","","","","","","","","","",""
"274.59999990463257","291738","SARL_v6","SARL_v6ws0x9qte","5b6259be5256470001bd0c6d","freq","","","img/orange_2bandit_b2.png","70","","70","test","1","","122","","","","circle","square","117","9","6","0.9743589743589743","","","","","","","",""
"null","292276","SARL_v6","SARL_v6ws0x9qte","5b6259be5256470001bd0c6d","freq_resp","","","img/orange_2bandit_b.png","70","img/orange_2bandit_b.png","70","test","","","","","","","","","","","6","","","","","","","","",""
"null","292429","SARL_v6","SARL_v6ws0x9qte","5b6259be5256470001bd0c6d","fixation","","","img/fixation.png","null","","","test","","","","","","","","","","","","","","","","","","","",""
"211.69999980926514","292642","SARL_v6","SARL_v6ws0x9qte","5b6259be5256470001bd0c6d","freq","","","img/orange_2bandit_b2.png","70","","70","test","1","","123","","","","circle","square","118","10","6","0.9745762711864406","","","","","","","",""
"null","293237","SARL_v6","SARL_v6ws0x9qte","5b6259be5256470001bd0c6d","freq_resp","","","img/orange_2bandit_b.png","70","img/orange_2bandit_b.png","70","test","","","","","","","","","","","6","","","","","","","","",""
"null","293398","SARL_v6","SARL_v6ws0x9qte","5b6259be5256470001bd0c6d","fixation","","","img/fixation.png","null","","","test","","","","","","","","","","","","","","","","","","","",""
"122.5","293522","SARL_v6","SARL_v6ws0x9qte","5b6259be5256470001bd0c6d","freq","","","img/orange_2bandit_b2.png","70","","70","test","1","","124","","","","circle","square","119","11","6","0.9747899159663865","","","","","","","",""
"null","294212","SARL_v6","SARL_v6ws0x9qte","5b6259be5256470001bd0c6d","freq_resp","","","img/orange_2bandit_b.png","70","img/orange_2bandit_b.png","70","test","","","","","","","","","","","6","","","","","","","","",""
"null","294364","SARL_v6","SARL_v6ws0x9qte","5b6259be5256470001bd0c6d","fixation","","","img/fixation.png","null","","","test","","","","","","","","","","","","","","","","","","","",""
"171.59999990463257","294538","SARL_v6","SARL_v6ws0x9qte","5b6259be5256470001bd0c6d","freq","","","img/orange_2bandit_b2.png","70","","70","test","1","","125","","","","circle","square","120","12","6","0.975","","","","","","","",""
"null","295171","SARL_v6","SARL_v6ws0x9qte","5b6259be5256470001bd0c6d","freq_resp","","","img/orange_2bandit_b.png","70","img/orange_2bandit_b.png","70","test","","","","","","","","","","","6","","","","","","","","",""
"null","295325","SARL_v6","SARL_v6ws0x9qte","5b6259be5256470001bd0c6d","fixation","","","img/fixation.png","null","","","test","","","","","","","","","","","","","","","","","","","",""
"163.29999995231628","295490","SARL_v6","SARL_v6ws0x9qte","5b6259be5256470001bd0c6d","freq","","","img/orange_2bandit_b2.png","70","","70","test","1","","126","","","","circle","square","121","13","6","0.9752066115702479","","","","","","","",""
"null","296137","SARL_v6","SARL_v6ws0x9qte","5b6259be5256470001bd0c6d","freq_resp","","","img/orange_2bandit_b.png","70","img/orange_2bandit_b.png","70","test","","","","","","","","","","","6","","","","","","","","",""
"null","296297","SARL_v6","SARL_v6ws0x9qte","5b6259be5256470001bd0c6d","fixation","","","img/fixation.png","null","","","test","","","","","","","","","","","","","","","","","","","",""
"319.5","296618","SARL_v6","SARL_v6ws0x9qte","5b6259be5256470001bd0c6d","freq","","","img/orange_2bandit_b2.png","70","","70","test","1","","127","","","","circle","square","122","14","6","0.9754098360655737","","","","","","","",""
"null","297115","SARL_v6","SARL_v6ws0x9qte","5b6259be5256470001bd0c6d","freq_resp","","","img/orange_2bandit_b.png","70","img/orange_2bandit_b.png","70","test","","","","","","","","","","","6","","","","","","","","",""
"null","297273","SARL_v6","SARL_v6ws0x9qte","5b6259be5256470001bd0c6d","fixation","","","img/fixation.png","null","","","test","","","","","","","","","","","","","","","","","","","",""
"326.90000009536743","297602","SARL_v6","SARL_v6ws0x9qte","5b6259be5256470001bd0c6d","freq","","","img/orange_2bandit_b2.png","70","","70","test","1","","128","","","","circle","square","123","15","6","0.975609756097561","","","","","","","",""
"null","298080","SARL_v6","SARL_v6ws0x9qte","5b6259be5256470001bd0c6d","freq_resp","","","img/orange_2bandit_b.png","70","img/orange_2bandit_b.png","70","test","","","","","","","","","","","6","","","","","","","","",""
"null","298239","SARL_v6","SARL_v6ws0x9qte","5b6259be5256470001bd0c6d","fixation","","","img/fixation.png","null","","","test","","","","","","","","","","","","","","","","","","","",""
"289.5","298530","SARL_v6","SARL_v6ws0x9qte","5b6259be5256470001bd0c6d","freq","","","img/orange_2bandit_b2.png","70","","70","test","1","","129","","","","circle","square","124","16","6","0.9758064516129032","","","","","","","",""
"null","299056","SARL_v6","SARL_v6ws0x9qte","5b6259be5256470001bd0c6d","freq_resp","","","img/orange_2bandit_b.png","70","img/orange_2bandit_b.png","70","test","","","","","","","","","","","6","","","","","","","","",""
