"rt","time_elapsed","expId","subject","prolificID","trialType","rlType","attType","stimulus","key_press","stim","corrresp","phase","corr","pracCounter","trialNum","rewardOne","rewardTwo","reward","bandOne","bandTwo","attentionNum","attentionRunNum","blockNum","performance","bandChosen","circleVal","squareVal","bandOneVal","bandTwoVal","shapeChosen","rlNum","badFlag"
"182466.40000000596","182468","SARL_v6","SARL_v6lfw9cog9","5d269fedf6dec40019b87a59","","","","","","","","","","","","","","","","","","","","","","","","","","","",""
"","184915","SARL_v6","SARL_v6lfw9cog9","5d269fedf6dec40019b87a59","fullscreen","fullscreen","fullscreen","","","","","","","","","","","","","","","","","","","","","","","","",""
"735692.900000006","920609","SARL_v6","SARL_v6lfw9cog9","5d269fedf6dec40019b87a59","","","","","","","","","","","","","","","","","","","","","","","","","","","",""
"null","921422","SARL_v6","SARL_v6lfw9cog9","5d269fedf6dec40019b87a59","freqPrac","","","img/blue_2bandit_b2.png","null","img/blue_2bandit_b2.png","70","prac","0","1","","","","","","","","","","","","","","","","","",""
"null","922437","SARL_v6","SARL_v6lfw9cog9","5d269fedf6dec40019b87a59","feedback","","","img/tooSlow.png","null","","na","prac","","","","","","","","","","","","","","","","","","","",""
"null","922594","SARL_v6","SARL_v6lfw9cog9","5d269fedf6dec40019b87a59","fixation","","","img/fixation.png","null","","","prac","","","","","","","","","","","","","","","","","","","",""
"null","923405","SARL_v6","SARL_v6lfw9cog9","5d269fedf6dec40019b87a59","infreqPrac","","","img/orange_2bandit_b2.png","null","img/orange_2bandit_b2.png","68","prac","0","2","","","","","","","","","","","","","","","","","",""
"null","924417","SARL_v6","SARL_v6lfw9cog9","5d269fedf6dec40019b87a59","feedback","","","img/tooSlow.png","null","","na","prac","","","","","","","","","","","","","","","","","","","",""
"null","924569","SARL_v6","SARL_v6lfw9cog9","5d269fedf6dec40019b87a59","fixation","","","img/fixation.png","null","","","prac","","","","","","","","","","","","","","","","","","","",""
"414.5","924986","SARL_v6","SARL_v6lfw9cog9","5d269fedf6dec40019b87a59","freqPrac","","","img/blue_2bandit_b2.png","70","img/blue_2bandit_b2.png","70","prac","1","2","","","","","","","","","","","","","","","","","",""
"414.5","925386","SARL_v6","SARL_v6lfw9cog9","5d269fedf6dec40019b87a59","freqPrac_resp","","","img/blue_2bandit_b.png","70","img/blue_2bandit_b.png","70","prac","","","","","","","","","","","","","","","","","","","",""
"null","925543","SARL_v6","SARL_v6lfw9cog9","5d269fedf6dec40019b87a59","fixation","","","img/fixation.png","null","","","prac","","","","","","","","","","","","","","","","","","","",""
"385.09999999403954","925930","SARL_v6","SARL_v6lfw9cog9","5d269fedf6dec40019b87a59","infreqPrac","","","img/orange_2bandit_b2.png","68","img/orange_2bandit_b2.png","68","prac","1","2","","","","","","","","","","","","","","","","","",""
"385.09999999403954","926357","SARL_v6","SARL_v6lfw9cog9","5d269fedf6dec40019b87a59","infreqPrac_resp","","","img/orange_2bandit_b.png","68","img/orange_2bandit_b.png","68","prac","","","","","","","","","","","","","","","","","","","",""
"null","926514","SARL_v6","SARL_v6lfw9cog9","5d269fedf6dec40019b87a59","fixation","","","img/fixation.png","null","","","prac","","","","","","","","","","","","","","","","","","","",""
"357.09999999403954","926874","SARL_v6","SARL_v6lfw9cog9","5d269fedf6dec40019b87a59","infreqPrac","","","img/orange_2bandit_b2.png","68","img/orange_2bandit_b2.png","68","prac","1","2","","","","","","","","","","","","","","","","","",""
"357.09999999403954","927327","SARL_v6","SARL_v6lfw9cog9","5d269fedf6dec40019b87a59","infreqPrac_resp","","","img/orange_2bandit_b.png","68","img/orange_2bandit_b.png","68","prac","","","","","","","","","","","","","","","","","","","",""
"null","927482","SARL_v6","SARL_v6lfw9cog9","5d269fedf6dec40019b87a59","fixation","","","img/fixation.png","null","","","prac","","","","","","","","","","","","","","","","","","","",""
"317.59999999403954","927801","SARL_v6","SARL_v6lfw9cog9","5d269fedf6dec40019b87a59","infreqPrac","","","img/orange_2bandit_b2.png","68","img/orange_2bandit_b2.png","68","prac","1","2","","","","","","","","","","","","","","","","","",""
"317.59999999403954","928293","SARL_v6","SARL_v6lfw9cog9","5d269fedf6dec40019b87a59","infreqPrac_resp","","","img/orange_2bandit_b.png","68","img/orange_2bandit_b.png","68","prac","","","","","","","","","","","","","","","","","","","",""
"null","928445","SARL_v6","SARL_v6lfw9cog9","5d269fedf6dec40019b87a59","fixation","","","img/fixation.png","null","","","prac","","","","","","","","","","","","","","","","","","","",""
"306.60000002384186","928753","SARL_v6","SARL_v6lfw9cog9","5d269fedf6dec40019b87a59","freqPrac","","","img/blue_2bandit_b2.png","68","img/blue_2bandit_b2.png","70","prac","0","3","","","","","","","","","","","","","","","","","",""
"306.60000002384186","929263","SARL_v6","SARL_v6lfw9cog9","5d269fedf6dec40019b87a59","freqPrac_resp","","","img/blue_2bandit_b.png","68","img/blue_2bandit_b.png","70","prac","","","","","","","","","","","","","","","","","","","",""
"null","930275","SARL_v6","SARL_v6lfw9cog9","5d269fedf6dec40019b87a59","feedback","","","img/wrongKey.png","null","","na","prac","","","","","","","","","","","","","","","","","","","",""
"null","930432","SARL_v6","SARL_v6lfw9cog9","5d269fedf6dec40019b87a59","fixation","","","img/fixation.png","null","","","prac","","","","","","","","","","","","","","","","","","","",""
"391.69999998807907","930825","SARL_v6","SARL_v6lfw9cog9","5d269fedf6dec40019b87a59","infreqPrac","","","img/orange_2bandit_b2.png","68","img/orange_2bandit_b2.png","68","prac","1","3","","","","","","","","","","","","","","","","","",""
"391.69999998807907","931242","SARL_v6","SARL_v6lfw9cog9","5d269fedf6dec40019b87a59","infreqPrac_resp","","","img/orange_2bandit_b.png","68","img/orange_2bandit_b.png","68","prac","","","","","","","","","","","","","","","","","","","",""
"null","931397","SARL_v6","SARL_v6lfw9cog9","5d269fedf6dec40019b87a59","fixation","","","img/fixation.png","null","","","prac","","","","","","","","","","","","","","","","","","","",""
"354.7999999821186","931753","SARL_v6","SARL_v6lfw9cog9","5d269fedf6dec40019b87a59","freqPrac","","","img/blue_2bandit_b2.png","70","img/blue_2bandit_b2.png","70","prac","1","3","","","","","","","","","","","","","","","","","",""
"354.7999999821186","932208","SARL_v6","SARL_v6lfw9cog9","5d269fedf6dec40019b87a59","freqPrac_resp","","","img/blue_2bandit_b.png","70","img/blue_2bandit_b.png","70","prac","","","","","","","","","","","","","","","","","","","",""
"null","932364","SARL_v6","SARL_v6lfw9cog9","5d269fedf6dec40019b87a59","fixation","","","img/fixation.png","null","","","prac","","","","","","","","","","","","","","","","","","","",""
"371.10000002384186","932737","SARL_v6","SARL_v6lfw9cog9","5d269fedf6dec40019b87a59","freqPrac","","","img/blue_2bandit_b2.png","70","img/blue_2bandit_b2.png","70","prac","1","3","","","","","","","","","","","","","","","","","",""
"371.10000002384186","933180","SARL_v6","SARL_v6lfw9cog9","5d269fedf6dec40019b87a59","freqPrac_resp","","","img/blue_2bandit_b.png","70","img/blue_2bandit_b.png","70","prac","","","","","","","","","","","","","","","","","","","",""
"null","933336","SARL_v6","SARL_v6lfw9cog9","5d269fedf6dec40019b87a59","fixation","","","img/fixation.png","null","","","prac","","","","","","","","","","","","","","","","","","","",""
"39440.5","972777","SARL_v6","SARL_v6lfw9cog9","5d269fedf6dec40019b87a59","","","","","","","","prac","","","","","","","","","","","","","","","","","","","",""
"766.0999999940395","973545","SARL_v6","SARL_v6lfw9cog9","5d269fedf6dec40019b87a59","rlPractice","","","img/black_2bandit_b2.png","75","img/black_2bandit_b2.png","","prac","","","0","","","","","","","","","","","","","","","","",""
"null","974299","SARL_v6","SARL_v6lfw9cog9","5d269fedf6dec40019b87a59","feedback","","","<div class=""verylowPoints_sq""> -14 </div>","null","","na","prac","","","1","10","-14","10","","","","","","","","","","","","","",""
"null","974454","SARL_v6","SARL_v6lfw9cog9","5d269fedf6dec40019b87a59","fixation","","","img/fixation.png","null","","","prac","","","","","","","","","","","","","","","","","","","",""
"456.69999998807907","974913","SARL_v6","SARL_v6lfw9cog9","5d269fedf6dec40019b87a59","rlPractice","","","img/black_2bandit_b2.png","75","img/black_2bandit_b2.png","","prac","","","1","","","","","","","","","","","","","","","","",""
"null","975678","SARL_v6","SARL_v6lfw9cog9","5d269fedf6dec40019b87a59","feedback","","","<div class=""verylowPoints_sq""> -5 </div>","null","","na","prac","","","2","5","-5","5","","","","","","","","","","","","","",""
"null","975833","SARL_v6","SARL_v6lfw9cog9","5d269fedf6dec40019b87a59","fixation","","","img/fixation.png","null","","","prac","","","","","","","","","","","","","","","","","","","",""
"254","976088","SARL_v6","SARL_v6lfw9cog9","5d269fedf6dec40019b87a59","rlPractice","","","img/black_2bandit_b2.png","75","img/black_2bandit_b2.png","","prac","","","2","","","","","","","","","","","","","","","","",""
"null","976852","SARL_v6","SARL_v6lfw9cog9","5d269fedf6dec40019b87a59","feedback","","","<div class=""veryhighPoints_sq""> 2 </div>","null","","na","prac","","","3","30","2","30","","","","","","","","","","","","","",""
"null","977009","SARL_v6","SARL_v6lfw9cog9","5d269fedf6dec40019b87a59","fixation","","","img/fixation.png","null","","","prac","","","","","","","","","","","","","","","","","","","",""
"70","977081","SARL_v6","SARL_v6lfw9cog9","5d269fedf6dec40019b87a59","rlPractice","","","img/black_2bandit_b2.png","75","img/black_2bandit_b2.png","","prac","","","3","","","","","","","","","","","","","","","","",""
"null","977835","SARL_v6","SARL_v6lfw9cog9","5d269fedf6dec40019b87a59","feedback","","","<div class=""veryhighPoints_sq""> 20 </div>","null","","na","prac","","","4","-2","20","-2","","","","","","","","","","","","","",""
"null","977991","SARL_v6","SARL_v6lfw9cog9","5d269fedf6dec40019b87a59","fixation","","","img/fixation.png","null","","","prac","","","","","","","","","","","","","","","","","","","",""
"138898.59999999404","1116891","SARL_v6","SARL_v6lfw9cog9","5d269fedf6dec40019b87a59","","","","","","","","prac","","","","","","","","","","","","","","","","","","","",""
"651.5","1117544","SARL_v6","SARL_v6lfw9cog9","5d269fedf6dec40019b87a59","mixAttFreqPrac","","","img/blue_2bandit_b2.png","70","img/blue_2bandit_b2.png","70","prac","","","1","","","","","","","","","","","","","","","","",""
"651.5","1117697","SARL_v6","SARL_v6lfw9cog9","5d269fedf6dec40019b87a59","freqPrac_resp","","","img/blue_2bandit_b.png","70","img/blue_2bandit_b.png","70","prac","","","1","","","","","","","","","","","","","","","","",""
"null","1117853","SARL_v6","SARL_v6lfw9cog9","5d269fedf6dec40019b87a59","fixation","","","img/fixation.png","null","","","prac","","","","","","","","","","","","","","","","","","","",""
"457.19999998807907","1118312","SARL_v6","SARL_v6lfw9cog9","5d269fedf6dec40019b87a59","mixAttInfreqPrac","","","img/orange_2bandit_b2.png","68","img/orange_2bandit_b2.png","68","prac","","","2","","","","","","","","","","","","","","","","",""
"457.19999998807907","1118662","SARL_v6","SARL_v6lfw9cog9","5d269fedf6dec40019b87a59","infreqPrac_resp","","","img/orange_2bandit_b.png","68","img/blue_2bandit_b.png","68","prac","","","2","","","","","","","","","","","","","","","","",""
"null","1118817","SARL_v6","SARL_v6lfw9cog9","5d269fedf6dec40019b87a59","fixation","","","img/fixation.png","null","","","prac","","","","","","","","","","","","","","","","","","","",""
"429.7999999821186","1119248","SARL_v6","SARL_v6lfw9cog9","5d269fedf6dec40019b87a59","mixAttInfreqPrac","","","img/orange_2bandit_b2.png","68","img/orange_2bandit_b2.png","68","prac","","","3","","","","","","","","","","","","","","","","",""
"429.7999999821186","1119625","SARL_v6","SARL_v6lfw9cog9","5d269fedf6dec40019b87a59","infreqPrac_resp","","","img/orange_2bandit_b.png","68","img/blue_2bandit_b.png","68","prac","","","3","","","","","","","","","","","","","","","","",""
"null","1119779","SARL_v6","SARL_v6lfw9cog9","5d269fedf6dec40019b87a59","fixation","","","img/fixation.png","null","","","prac","","","","","","","","","","","","","","","","","","","",""
"379.59999999403954","1120160","SARL_v6","SARL_v6lfw9cog9","5d269fedf6dec40019b87a59","mixAttInfreqPrac","","","img/orange_2bandit_b2.png","68","img/orange_2bandit_b2.png","68","prac","","","4","","","","","","","","","","","","","","","","",""
"379.59999999403954","1120585","SARL_v6","SARL_v6lfw9cog9","5d269fedf6dec40019b87a59","infreqPrac_resp","","","img/orange_2bandit_b.png","68","img/blue_2bandit_b.png","68","prac","","","4","","","","","","","","","","","","","","","","",""
"null","1120752","SARL_v6","SARL_v6lfw9cog9","5d269fedf6dec40019b87a59","fixation","","","img/fixation.png","null","","","prac","","","","","","","","","","","","","","","","","","","",""
"382.09999999403954","1121138","SARL_v6","SARL_v6lfw9cog9","5d269fedf6dec40019b87a59","mixAttFreqPrac","","","img/blue_2bandit_b2.png","70","img/blue_2bandit_b2.png","70","prac","","","5","","","","","","","","","","","","","","","","",""
"382.09999999403954","1121568","SARL_v6","SARL_v6lfw9cog9","5d269fedf6dec40019b87a59","freqPrac_resp","","","img/blue_2bandit_b.png","70","img/blue_2bandit_b.png","70","prac","","","5","","","","","","","","","","","","","","","","",""
"null","1121730","SARL_v6","SARL_v6lfw9cog9","5d269fedf6dec40019b87a59","fixation","","","img/fixation.png","null","","","prac","","","","","","","","","","","","","","","","","","","",""
"411.69999998807907","1122144","SARL_v6","SARL_v6lfw9cog9","5d269fedf6dec40019b87a59","mixRLPractice","","","img/black_2bandit_b2.png","75","img/black_2bandit_b2.png","","prac","","","5","","","","","","","","","","","","","","","","",""
"null","1122897","SARL_v6","SARL_v6lfw9cog9","5d269fedf6dec40019b87a59","feedback","","","<div class=""veryhighPoints_sq""> 10 </div>","null","","na","prac","","","6","-14","10","-14","","","","","","","","","","","","","",""
"null","1123051","SARL_v6","SARL_v6lfw9cog9","5d269fedf6dec40019b87a59","fixation","","","img/fixation.png","null","","","prac","","","","","","","","","","","","","","","","","","","",""
"619.7999999821186","1123672","SARL_v6","SARL_v6lfw9cog9","5d269fedf6dec40019b87a59","mixAttFreqPrac","","","img/blue_2bandit_b2.png","70","img/blue_2bandit_b2.png","70","prac","","","7","","","","","","","","","","","","","","","","",""
"619.7999999821186","1123868","SARL_v6","SARL_v6lfw9cog9","5d269fedf6dec40019b87a59","freqPrac_resp","","","img/blue_2bandit_b.png","70","img/blue_2bandit_b.png","70","prac","","","7","","","","","","","","","","","","","","","","",""
"null","1124022","SARL_v6","SARL_v6lfw9cog9","5d269fedf6dec40019b87a59","fixation","","","img/fixation.png","null","","","prac","","","","","","","","","","","","","","","","","","","",""
"432.09999999403954","1124456","SARL_v6","SARL_v6lfw9cog9","5d269fedf6dec40019b87a59","mixAttInfreqPrac","","","img/orange_2bandit_b2.png","68","img/orange_2bandit_b2.png","68","prac","","","8","","","","","","","","","","","","","","","","",""
"432.09999999403954","1124837","SARL_v6","SARL_v6lfw9cog9","5d269fedf6dec40019b87a59","infreqPrac_resp","","","img/orange_2bandit_b.png","68","img/blue_2bandit_b.png","68","prac","","","8","","","","","","","","","","","","","","","","",""
"null","1124993","SARL_v6","SARL_v6lfw9cog9","5d269fedf6dec40019b87a59","fixation","","","img/fixation.png","null","","","prac","","","","","","","","","","","","","","","","","","","",""
"445.5","1125440","SARL_v6","SARL_v6lfw9cog9","5d269fedf6dec40019b87a59","mixAttFreqPrac","","","img/blue_2bandit_b2.png","70","img/blue_2bandit_b2.png","70","prac","","","9","","","","","","","","","","","","","","","","",""
"445.5","1125800","SARL_v6","SARL_v6lfw9cog9","5d269fedf6dec40019b87a59","freqPrac_resp","","","img/blue_2bandit_b.png","70","img/blue_2bandit_b.png","70","prac","","","9","","","","","","","","","","","","","","","","",""
"null","1125957","SARL_v6","SARL_v6lfw9cog9","5d269fedf6dec40019b87a59","fixation","","","img/fixation.png","null","","","prac","","","","","","","","","","","","","","","","","","","",""
"329.09999999403954","1126288","SARL_v6","SARL_v6lfw9cog9","5d269fedf6dec40019b87a59","mixAttFreqPrac","","","img/blue_2bandit_b2.png","70","img/blue_2bandit_b2.png","70","prac","","","10","","","","","","","","","","","","","","","","",""
"329.09999999403954","1126773","SARL_v6","SARL_v6lfw9cog9","5d269fedf6dec40019b87a59","freqPrac_resp","","","img/blue_2bandit_b.png","70","img/blue_2bandit_b.png","70","prac","","","10","","","","","","","","","","","","","","","","",""
"null","1126927","SARL_v6","SARL_v6lfw9cog9","5d269fedf6dec40019b87a59","fixation","","","img/fixation.png","null","","","prac","","","","","","","","","","","","","","","","","","","",""
"297.59999999403954","1127226","SARL_v6","SARL_v6lfw9cog9","5d269fedf6dec40019b87a59","mixAttInfreqPrac","","","img/orange_2bandit_b2.png","68","img/orange_2bandit_b2.png","68","prac","","","11","","","","","","","","","","","","","","","","",""
"297.59999999403954","1127736","SARL_v6","SARL_v6lfw9cog9","5d269fedf6dec40019b87a59","infreqPrac_resp","","","img/orange_2bandit_b.png","68","img/blue_2bandit_b.png","68","prac","","","11","","","","","","","","","","","","","","","","",""
"null","1127892","SARL_v6","SARL_v6lfw9cog9","5d269fedf6dec40019b87a59","fixation","","","img/fixation.png","null","","","prac","","","","","","","","","","","","","","","","","","","",""
"586.8999999761581","1128480","SARL_v6","SARL_v6lfw9cog9","5d269fedf6dec40019b87a59","mixRLPractice","","","img/black_2bandit_b2.png","75","img/black_2bandit_b2.png","","prac","","","11","","","","","","","","","","","","","","","","",""
"null","1129232","SARL_v6","SARL_v6lfw9cog9","5d269fedf6dec40019b87a59","feedback","","","<div class=""verylowPoints_sq""> -5 </div>","null","","na","prac","","","12","5","-5","5","","","","","","","","","","","","","",""
"null","1129389","SARL_v6","SARL_v6lfw9cog9","5d269fedf6dec40019b87a59","fixation","","","img/fixation.png","null","","","prac","","","","","","","","","","","","","","","","","","","",""
"16946","1146337","SARL_v6","SARL_v6lfw9cog9","5d269fedf6dec40019b87a59","","","","","","","","prac","","","","","","","","","","","","","","","","","","","",""
"613.6999999880791","1146952","SARL_v6","SARL_v6lfw9cog9","5d269fedf6dec40019b87a59","freq","","","img/blue_2bandit_b2.png","70","","70","test","1","","1","","","","circle","square","1","1","1","1","","","","","","","",""
"null","1147144","SARL_v6","SARL_v6lfw9cog9","5d269fedf6dec40019b87a59","freq_resp","","","img/blue_2bandit_b.png","70","img/blue_2bandit_b.png","70","test","","","","","","","","","","","1","","","","","","","","",""
"null","1147296","SARL_v6","SARL_v6lfw9cog9","5d269fedf6dec40019b87a59","fixation","","","img/fixation.png","null","","","test","","","","","","","","","","","","","","","","","","","",""
"342.7999999821186","1147640","SARL_v6","SARL_v6lfw9cog9","5d269fedf6dec40019b87a59","freq","","","img/blue_2bandit_b2.png","70","","70","test","1","","2","","","","circle","square","2","2","1","1","","","","","","","",""
"null","1148112","SARL_v6","SARL_v6lfw9cog9","5d269fedf6dec40019b87a59","freq_resp","","","img/blue_2bandit_b.png","70","img/blue_2bandit_b.png","70","test","","","","","","","","","","","1","","","","","","","","",""
"null","1148271","SARL_v6","SARL_v6lfw9cog9","5d269fedf6dec40019b87a59","fixation","","","img/fixation.png","null","","","test","","","","","","","","","","","","","","","","","","","",""
"287","1148559","SARL_v6","SARL_v6lfw9cog9","5d269fedf6dec40019b87a59","freq","","","img/blue_2bandit_b2.png","70","","70","test","1","","3","","","","circle","square","3","3","1","1","","","","","","","",""
"null","1149081","SARL_v6","SARL_v6lfw9cog9","5d269fedf6dec40019b87a59","freq_resp","","","img/blue_2bandit_b.png","70","img/blue_2bandit_b.png","70","test","","","","","","","","","","","1","","","","","","","","",""
"null","1149238","SARL_v6","SARL_v6lfw9cog9","5d269fedf6dec40019b87a59","fixation","","","img/fixation.png","null","","","test","","","","","","","","","","","","","","","","","","","",""
"344.7000000178814","1149583","SARL_v6","SARL_v6lfw9cog9","5d269fedf6dec40019b87a59","freq","","","img/blue_2bandit_b2.png","70","","70","test","1","","4","","","","circle","square","4","4","1","1","","","","","","","",""
"null","1150054","SARL_v6","SARL_v6lfw9cog9","5d269fedf6dec40019b87a59","freq_resp","","","img/blue_2bandit_b.png","70","img/blue_2bandit_b.png","70","test","","","","","","","","","","","1","","","","","","","","",""
"null","1150209","SARL_v6","SARL_v6lfw9cog9","5d269fedf6dec40019b87a59","fixation","","","img/fixation.png","null","","","test","","","","","","","","","","","","","","","","","","","",""
"437.7999999821186","1150648","SARL_v6","SARL_v6lfw9cog9","5d269fedf6dec40019b87a59","infreq","","","img/orange_2bandit_b2.png","68","","68","test","1","","5","","","","circle","square","5","5","1","1","","","","","","","",""
"null","1151016","SARL_v6","SARL_v6lfw9cog9","5d269fedf6dec40019b87a59","infreq_resp","","","img/orange_2bandit_b.png","68","img/orange_2bandit_b.png","68","test","","","","","","","","","","","1","","","","","","","","",""
"null","1151172","SARL_v6","SARL_v6lfw9cog9","5d269fedf6dec40019b87a59","fixation","","","img/fixation.png","null","","","test","","","","","","","","","","","","","","","","","","","",""
"522.3000000119209","1151697","SARL_v6","SARL_v6lfw9cog9","5d269fedf6dec40019b87a59","freq","","","img/blue_2bandit_b2.png","70","","70","test","1","","6","","","","circle","square","6","6","1","1","","","","","","","",""
"null","1151983","SARL_v6","SARL_v6lfw9cog9","5d269fedf6dec40019b87a59","freq_resp","","","img/blue_2bandit_b.png","70","img/blue_2bandit_b.png","70","test","","","","","","","","","","","1","","","","","","","","",""
"null","1152136","SARL_v6","SARL_v6lfw9cog9","5d269fedf6dec40019b87a59","fixation","","","img/fixation.png","null","","","test","","","","","","","","","","","","","","","","","","","",""
"310.69999998807907","1152448","SARL_v6","SARL_v6lfw9cog9","5d269fedf6dec40019b87a59","freq","","","img/blue_2bandit_b2.png","70","","70","test","1","","7","","","","circle","square","7","7","1","1","","","","","","","",""
"null","1152941","SARL_v6","SARL_v6lfw9cog9","5d269fedf6dec40019b87a59","freq_resp","","","img/blue_2bandit_b.png","70","img/blue_2bandit_b.png","70","test","","","","","","","","","","","1","","","","","","","","",""
"null","1153096","SARL_v6","SARL_v6lfw9cog9","5d269fedf6dec40019b87a59","fixation","","","img/fixation.png","null","","","test","","","","","","","","","","","","","","","","","","","",""
"413.7999999821186","1153512","SARL_v6","SARL_v6lfw9cog9","5d269fedf6dec40019b87a59","freq","","","img/blue_2bandit_b2.png","70","","70","test","1","","8","","","","circle","square","8","8","1","1","","","","","","","",""
"null","1153907","SARL_v6","SARL_v6lfw9cog9","5d269fedf6dec40019b87a59","freq_resp","","","img/blue_2bandit_b.png","70","img/blue_2bandit_b.png","70","test","","","","","","","","","","","1","","","","","","","","",""
"null","1154064","SARL_v6","SARL_v6lfw9cog9","5d269fedf6dec40019b87a59","fixation","","","img/fixation.png","null","","","test","","","","","","","","","","","","","","","","","","","",""
"342.59999999403954","1154408","SARL_v6","SARL_v6lfw9cog9","5d269fedf6dec40019b87a59","freq","","","img/blue_2bandit_b2.png","70","","70","test","1","","9","","","","circle","square","9","9","1","1","","","","","","","",""
"null","1154876","SARL_v6","SARL_v6lfw9cog9","5d269fedf6dec40019b87a59","freq_resp","","","img/blue_2bandit_b.png","70","img/blue_2bandit_b.png","70","test","","","","","","","","","","","1","","","","","","","","",""
"null","1155033","SARL_v6","SARL_v6lfw9cog9","5d269fedf6dec40019b87a59","fixation","","","img/fixation.png","null","","","test","","","","","","","","","","","","","","","","","","","",""
"381.5","1155416","SARL_v6","SARL_v6lfw9cog9","5d269fedf6dec40019b87a59","freq","","","img/blue_2bandit_b2.png","70","","70","test","1","","10","","","","circle","square","10","10","1","1","","","","","","","",""
"null","1155844","SARL_v6","SARL_v6lfw9cog9","5d269fedf6dec40019b87a59","freq_resp","","","img/blue_2bandit_b.png","70","img/blue_2bandit_b.png","70","test","","","","","","","","","","","1","","","","","","","","",""
"null","1155999","SARL_v6","SARL_v6lfw9cog9","5d269fedf6dec40019b87a59","fixation","","","img/fixation.png","null","","","test","","","","","","","","","","","","","","","","","","","",""
"471.2000000178814","1156472","SARL_v6","SARL_v6lfw9cog9","5d269fedf6dec40019b87a59","freq","","","img/blue_2bandit_b2.png","70","","70","test","1","","11","","","","circle","square","11","11","1","1","","","","","","","",""
"null","1156811","SARL_v6","SARL_v6lfw9cog9","5d269fedf6dec40019b87a59","freq_resp","","","img/blue_2bandit_b.png","70","img/blue_2bandit_b.png","70","test","","","","","","","","","","","1","","","","","","","","",""
"null","1156969","SARL_v6","SARL_v6lfw9cog9","5d269fedf6dec40019b87a59","fixation","","","img/fixation.png","null","","","test","","","","","","","","","","","","","","","","","","","",""
"333.59999999403954","1157305","SARL_v6","SARL_v6lfw9cog9","5d269fedf6dec40019b87a59","freq","","","img/blue_2bandit_b2.png","70","","70","test","1","","12","","","","circle","square","12","12","1","1","","","","","","","",""
"null","1157780","SARL_v6","SARL_v6lfw9cog9","5d269fedf6dec40019b87a59","freq_resp","","","img/blue_2bandit_b.png","70","img/blue_2bandit_b.png","70","test","","","","","","","","","","","1","","","","","","","","",""
"null","1157937","SARL_v6","SARL_v6lfw9cog9","5d269fedf6dec40019b87a59","fixation","","","img/fixation.png","null","","","test","","","","","","","","","","","","","","","","","","","",""
"269.59999999403954","1158208","SARL_v6","SARL_v6lfw9cog9","5d269fedf6dec40019b87a59","freq","","","img/blue_2bandit_b2.png","70","","70","test","1","","13","","","","circle","square","13","13","1","1","","","","","","","",""
"null","1158749","SARL_v6","SARL_v6lfw9cog9","5d269fedf6dec40019b87a59","freq_resp","","","img/blue_2bandit_b.png","70","img/blue_2bandit_b.png","70","test","","","","","","","","","","","1","","","","","","","","",""
"null","1158905","SARL_v6","SARL_v6lfw9cog9","5d269fedf6dec40019b87a59","fixation","","","img/fixation.png","null","","","test","","","","","","","","","","","","","","","","","","","",""
"301.59999999403954","1159209","SARL_v6","SARL_v6lfw9cog9","5d269fedf6dec40019b87a59","freq","","","img/blue_2bandit_b2.png","70","","70","test","1","","14","","","","circle","square","14","14","1","1","","","","","","","",""
"null","1159718","SARL_v6","SARL_v6lfw9cog9","5d269fedf6dec40019b87a59","freq_resp","","","img/blue_2bandit_b.png","70","img/blue_2bandit_b.png","70","test","","","","","","","","","","","1","","","","","","","","",""
"null","1159870","SARL_v6","SARL_v6lfw9cog9","5d269fedf6dec40019b87a59","fixation","","","img/fixation.png","null","","","test","","","","","","","","","","","","","","","","","","","",""
"296.59999999403954","1160168","SARL_v6","SARL_v6lfw9cog9","5d269fedf6dec40019b87a59","freq","","","img/blue_2bandit_b2.png","70","","70","test","1","","15","","","","circle","square","15","15","1","1","","","","","","","",""
"null","1160684","SARL_v6","SARL_v6lfw9cog9","5d269fedf6dec40019b87a59","freq_resp","","","img/blue_2bandit_b.png","70","img/blue_2bandit_b.png","70","test","","","","","","","","","","","1","","","","","","","","",""
"null","1160838","SARL_v6","SARL_v6lfw9cog9","5d269fedf6dec40019b87a59","fixation","","","img/fixation.png","null","","","test","","","","","","","","","","","","","","","","","","","",""
"312.2999999821186","1161153","SARL_v6","SARL_v6lfw9cog9","5d269fedf6dec40019b87a59","freq","","","img/blue_2bandit_b2.png","70","","70","test","1","","16","","","","circle","square","16","16","1","1","","","","","","","",""
"null","1161651","SARL_v6","SARL_v6lfw9cog9","5d269fedf6dec40019b87a59","freq_resp","","","img/blue_2bandit_b.png","70","img/blue_2bandit_b.png","70","test","","","","","","","","","","","1","","","","","","","","",""
"null","1161805","SARL_v6","SARL_v6lfw9cog9","5d269fedf6dec40019b87a59","fixation","","","img/fixation.png","null","","","test","","","","","","","","","","","","","","","","","","","",""
"416.90000000596046","1162224","SARL_v6","SARL_v6lfw9cog9","5d269fedf6dec40019b87a59","infreq","","","img/orange_2bandit_b2.png","68","","68","test","1","","17","","","","circle","square","17","17","1","1","","","","","","","",""
"null","1162611","SARL_v6","SARL_v6lfw9cog9","5d269fedf6dec40019b87a59","infreq_resp","","","img/orange_2bandit_b.png","68","img/orange_2bandit_b.png","68","test","","","","","","","","","","","1","","","","","","","","",""
"null","1162767","SARL_v6","SARL_v6lfw9cog9","5d269fedf6dec40019b87a59","fixation","","","img/fixation.png","null","","","test","","","","","","","","","","","","","","","","","","","",""
"391.19999998807907","1163160","SARL_v6","SARL_v6lfw9cog9","5d269fedf6dec40019b87a59","freq","","","img/blue_2bandit_b2.png","70","","70","test","1","","18","","","","circle","square","18","18","1","1","","","","","","","",""
"null","1163579","SARL_v6","SARL_v6lfw9cog9","5d269fedf6dec40019b87a59","freq_resp","","","img/blue_2bandit_b.png","70","img/blue_2bandit_b.png","70","test","","","","","","","","","","","1","","","","","","","","",""
"null","1163733","SARL_v6","SARL_v6lfw9cog9","5d269fedf6dec40019b87a59","fixation","","","img/fixation.png","null","","","test","","","","","","","","","","","","","","","","","","","",""
"473.09999999403954","1164207","SARL_v6","SARL_v6lfw9cog9","5d269fedf6dec40019b87a59","freq","","","img/blue_2bandit_b2.png","70","","70","test","1","","19","","","","circle","square","19","19","1","1","","","","","","","",""
"null","1164546","SARL_v6","SARL_v6lfw9cog9","5d269fedf6dec40019b87a59","freq_resp","","","img/blue_2bandit_b.png","70","img/blue_2bandit_b.png","70","test","","","","","","","","","","","1","","","","","","","","",""
"null","1164698","SARL_v6","SARL_v6lfw9cog9","5d269fedf6dec40019b87a59","fixation","","","img/fixation.png","null","","","test","","","","","","","","","","","","","","","","","","","",""
"571.8000000119209","1165272","SARL_v6","SARL_v6lfw9cog9","5d269fedf6dec40019b87a59","rl","","","img/black_2bandit_b2.png","75","","0","test","","","20","","","-3","circle","square","","0","1","","75","-3","-3","-3","-3","square","1","0"
"null","1166026","SARL_v6","SARL_v6lfw9cog9","5d269fedf6dec40019b87a59","feedback","","","<div class=""verylowPoints_sq""> -3 </div>","null","","na","test","","","NaN","","","","","","","","1","","75","","","","","","1",""
"485","1166513","SARL_v6","SARL_v6lfw9cog9","5d269fedf6dec40019b87a59","freq","","","img/blue_2bandit_b2.png","70","","70","test","1","","21","","","","circle","square","20","1","2","1","","","","","","","",""
"null","1166839","SARL_v6","SARL_v6lfw9cog9","5d269fedf6dec40019b87a59","freq_resp","","","img/blue_2bandit_b.png","70","img/blue_2bandit_b.png","70","test","","","","","","","","","","","2","","","","","","","","",""
"null","1166994","SARL_v6","SARL_v6lfw9cog9","5d269fedf6dec40019b87a59","fixation","","","img/fixation.png","null","","","test","","","","","","","","","","","","","","","","","","","",""
"331.90000000596046","1167328","SARL_v6","SARL_v6lfw9cog9","5d269fedf6dec40019b87a59","freq","","","img/blue_2bandit_b2.png","70","","70","test","1","","22","","","","circle","square","21","2","2","1","","","","","","","",""
"null","1167806","SARL_v6","SARL_v6lfw9cog9","5d269fedf6dec40019b87a59","freq_resp","","","img/blue_2bandit_b.png","70","img/blue_2bandit_b.png","70","test","","","","","","","","","","","2","","","","","","","","",""
"null","1167960","SARL_v6","SARL_v6lfw9cog9","5d269fedf6dec40019b87a59","fixation","","","img/fixation.png","null","","","test","","","","","","","","","","","","","","","","","","","",""
"294.30000001192093","1168257","SARL_v6","SARL_v6lfw9cog9","5d269fedf6dec40019b87a59","freq","","","img/blue_2bandit_b2.png","70","","70","test","1","","23","","","","circle","square","22","3","2","1","","","","","","","",""
"null","1168771","SARL_v6","SARL_v6lfw9cog9","5d269fedf6dec40019b87a59","freq_resp","","","img/blue_2bandit_b.png","70","img/blue_2bandit_b.png","70","test","","","","","","","","","","","2","","","","","","","","",""
"null","1168926","SARL_v6","SARL_v6lfw9cog9","5d269fedf6dec40019b87a59","fixation","","","img/fixation.png","null","","","test","","","","","","","","","","","","","","","","","","","",""
"296.09999999403954","1169224","SARL_v6","SARL_v6lfw9cog9","5d269fedf6dec40019b87a59","freq","","","img/blue_2bandit_b2.png","70","","70","test","1","","24","","","","circle","square","23","4","2","1","","","","","","","",""
"null","1169740","SARL_v6","SARL_v6lfw9cog9","5d269fedf6dec40019b87a59","freq_resp","","","img/blue_2bandit_b.png","70","img/blue_2bandit_b.png","70","test","","","","","","","","","","","2","","","","","","","","",""
"null","1169896","SARL_v6","SARL_v6lfw9cog9","5d269fedf6dec40019b87a59","fixation","","","img/fixation.png","null","","","test","","","","","","","","","","","","","","","","","","","",""
"374.5","1170272","SARL_v6","SARL_v6lfw9cog9","5d269fedf6dec40019b87a59","freq","","","img/blue_2bandit_b2.png","70","","70","test","1","","25","","","","circle","square","24","5","2","1","","","","","","","",""
"null","1170705","SARL_v6","SARL_v6lfw9cog9","5d269fedf6dec40019b87a59","freq_resp","","","img/blue_2bandit_b.png","70","img/blue_2bandit_b.png","70","test","","","","","","","","","","","2","","","","","","","","",""
"null","1170862","SARL_v6","SARL_v6lfw9cog9","5d269fedf6dec40019b87a59","fixation","","","img/fixation.png","null","","","test","","","","","","","","","","","","","","","","","","","",""
"320.5","1171183","SARL_v6","SARL_v6lfw9cog9","5d269fedf6dec40019b87a59","freq","","","img/blue_2bandit_b2.png","70","","70","test","1","","26","","","","circle","square","25","6","2","1","","","","","","","",""
"null","1171676","SARL_v6","SARL_v6lfw9cog9","5d269fedf6dec40019b87a59","freq_resp","","","img/blue_2bandit_b.png","70","img/blue_2bandit_b.png","70","test","","","","","","","","","","","2","","","","","","","","",""
"null","1171828","SARL_v6","SARL_v6lfw9cog9","5d269fedf6dec40019b87a59","fixation","","","img/fixation.png","null","","","test","","","","","","","","","","","","","","","","","","","",""
"322.7999999821186","1172152","SARL_v6","SARL_v6lfw9cog9","5d269fedf6dec40019b87a59","freq","","","img/blue_2bandit_b2.png","70","","70","test","1","","27","","","","circle","square","26","7","2","1","","","","","","","",""
"null","1172642","SARL_v6","SARL_v6lfw9cog9","5d269fedf6dec40019b87a59","freq_resp","","","img/blue_2bandit_b.png","70","img/blue_2bandit_b.png","70","test","","","","","","","","","","","2","","","","","","","","",""
"null","1172800","SARL_v6","SARL_v6lfw9cog9","5d269fedf6dec40019b87a59","fixation","","","img/fixation.png","null","","","test","","","","","","","","","","","","","","","","","","","",""
"366.5","1173168","SARL_v6","SARL_v6lfw9cog9","5d269fedf6dec40019b87a59","freq","","","img/blue_2bandit_b2.png","70","","70","test","1","","28","","","","circle","square","27","8","2","1","","","","","","","",""
"null","1173614","SARL_v6","SARL_v6lfw9cog9","5d269fedf6dec40019b87a59","freq_resp","","","img/blue_2bandit_b.png","70","img/blue_2bandit_b.png","70","test","","","","","","","","","","","2","","","","","","","","",""
"null","1173770","SARL_v6","SARL_v6lfw9cog9","5d269fedf6dec40019b87a59","fixation","","","img/fixation.png","null","","","test","","","","","","","","","","","","","","","","","","","",""
"301.09999999403954","1174072","SARL_v6","SARL_v6lfw9cog9","5d269fedf6dec40019b87a59","freq","","","img/blue_2bandit_b2.png","70","","70","test","1","","29","","","","circle","square","28","9","2","1","","","","","","","",""
"null","1174581","SARL_v6","SARL_v6lfw9cog9","5d269fedf6dec40019b87a59","freq_resp","","","img/blue_2bandit_b.png","70","img/blue_2bandit_b.png","70","test","","","","","","","","","","","2","","","","","","","","",""
"null","1174740","SARL_v6","SARL_v6lfw9cog9","5d269fedf6dec40019b87a59","fixation","","","img/fixation.png","null","","","test","","","","","","","","","","","","","","","","","","","",""
"306.30000001192093","1175048","SARL_v6","SARL_v6lfw9cog9","5d269fedf6dec40019b87a59","freq","","","img/blue_2bandit_b2.png","70","","70","test","1","","30","","","","circle","square","29","10","2","1","","","","","","","",""
"null","1175553","SARL_v6","SARL_v6lfw9cog9","5d269fedf6dec40019b87a59","freq_resp","","","img/blue_2bandit_b.png","70","img/blue_2bandit_b.png","70","test","","","","","","","","","","","2","","","","","","","","",""
"null","1175710","SARL_v6","SARL_v6lfw9cog9","5d269fedf6dec40019b87a59","fixation","","","img/fixation.png","null","","","test","","","","","","","","","","","","","","","","","","","",""
"280.5","1175993","SARL_v6","SARL_v6lfw9cog9","5d269fedf6dec40019b87a59","freq","","","img/blue_2bandit_b2.png","70","","70","test","1","","31","","","","circle","square","30","11","2","1","","","","","","","",""
"null","1176518","SARL_v6","SARL_v6lfw9cog9","5d269fedf6dec40019b87a59","freq_resp","","","img/blue_2bandit_b.png","70","img/blue_2bandit_b.png","70","test","","","","","","","","","","","2","","","","","","","","",""
"null","1176674","SARL_v6","SARL_v6lfw9cog9","5d269fedf6dec40019b87a59","fixation","","","img/fixation.png","null","","","test","","","","","","","","","","","","","","","","","","","",""
"277.69999998807907","1176953","SARL_v6","SARL_v6lfw9cog9","5d269fedf6dec40019b87a59","freq","","","img/blue_2bandit_b2.png","70","","70","test","1","","32","","","","circle","square","31","12","2","1","","","","","","","",""
"null","1177485","SARL_v6","SARL_v6lfw9cog9","5d269fedf6dec40019b87a59","freq_resp","","","img/blue_2bandit_b.png","70","img/blue_2bandit_b.png","70","test","","","","","","","","","","","2","","","","","","","","",""
"null","1177639","SARL_v6","SARL_v6lfw9cog9","5d269fedf6dec40019b87a59","fixation","","","img/fixation.png","null","","","test","","","","","","","","","","","","","","","","","","","",""
"288.09999999403954","1177929","SARL_v6","SARL_v6lfw9cog9","5d269fedf6dec40019b87a59","freq","","","img/blue_2bandit_b2.png","70","","70","test","1","","33","","","","circle","square","32","13","2","1","","","","","","","",""
"null","1178448","SARL_v6","SARL_v6lfw9cog9","5d269fedf6dec40019b87a59","freq_resp","","","img/blue_2bandit_b.png","70","img/blue_2bandit_b.png","70","test","","","","","","","","","","","2","","","","","","","","",""
"null","1178602","SARL_v6","SARL_v6lfw9cog9","5d269fedf6dec40019b87a59","fixation","","","img/fixation.png","null","","","test","","","","","","","","","","","","","","","","","","","",""
"269.59999999403954","1178872","SARL_v6","SARL_v6lfw9cog9","5d269fedf6dec40019b87a59","freq","","","img/blue_2bandit_b2.png","70","","70","test","1","","34","","","","circle","square","33","14","2","1","","","","","","","",""
"null","1179410","SARL_v6","SARL_v6lfw9cog9","5d269fedf6dec40019b87a59","freq_resp","","","img/blue_2bandit_b.png","70","img/blue_2bandit_b.png","70","test","","","","","","","","","","","2","","","","","","","","",""
"null","1179566","SARL_v6","SARL_v6lfw9cog9","5d269fedf6dec40019b87a59","fixation","","","img/fixation.png","null","","","test","","","","","","","","","","","","","","","","","","","",""
"417.5","1179986","SARL_v6","SARL_v6lfw9cog9","5d269fedf6dec40019b87a59","infreq","","","img/orange_2bandit_b2.png","68","","68","test","1","","35","","","","circle","square","34","15","2","1","","","","","","","",""
"null","1180381","SARL_v6","SARL_v6lfw9cog9","5d269fedf6dec40019b87a59","infreq_resp","","","img/orange_2bandit_b.png","68","img/orange_2bandit_b.png","68","test","","","","","","","","","","","2","","","","","","","","",""
"null","1180537","SARL_v6","SARL_v6lfw9cog9","5d269fedf6dec40019b87a59","fixation","","","img/fixation.png","null","","","test","","","","","","","","","","","","","","","","","","","",""
"342.59999999403954","1180881","SARL_v6","SARL_v6lfw9cog9","5d269fedf6dec40019b87a59","freq","","","img/blue_2bandit_b2.png","70","","70","test","1","","36","","","","circle","square","35","16","2","1","","","","","","","",""
"null","1181343","SARL_v6","SARL_v6lfw9cog9","5d269fedf6dec40019b87a59","freq_resp","","","img/blue_2bandit_b.png","70","img/blue_2bandit_b.png","70","test","","","","","","","","","","","2","","","","","","","","",""
"null","1181500","SARL_v6","SARL_v6lfw9cog9","5d269fedf6dec40019b87a59","fixation","","","img/fixation.png","null","","","test","","","","","","","","","","","","","","","","","","","",""
"307.30000001192093","1181808","SARL_v6","SARL_v6lfw9cog9","5d269fedf6dec40019b87a59","freq","","","img/blue_2bandit_b2.png","70","","70","test","1","","37","","","","circle","square","36","17","2","1","","","","","","","",""
"null","1182308","SARL_v6","SARL_v6lfw9cog9","5d269fedf6dec40019b87a59","freq_resp","","","img/blue_2bandit_b.png","70","img/blue_2bandit_b.png","70","test","","","","","","","","","","","2","","","","","","","","",""
"null","1182460","SARL_v6","SARL_v6lfw9cog9","5d269fedf6dec40019b87a59","fixation","","","img/fixation.png","null","","","test","","","","","","","","","","","","","","","","","","","",""
"307.2000000178814","1182769","SARL_v6","SARL_v6lfw9cog9","5d269fedf6dec40019b87a59","freq","","","img/blue_2bandit_b2.png","70","","70","test","1","","38","","","","circle","square","37","18","2","1","","","","","","","",""
"null","1183277","SARL_v6","SARL_v6lfw9cog9","5d269fedf6dec40019b87a59","freq_resp","","","img/blue_2bandit_b.png","70","img/blue_2bandit_b.png","70","test","","","","","","","","","","","2","","","","","","","","",""
"null","1183435","SARL_v6","SARL_v6lfw9cog9","5d269fedf6dec40019b87a59","fixation","","","img/fixation.png","null","","","test","","","","","","","","","","","","","","","","","","","",""
"275.80000001192093","1183713","SARL_v6","SARL_v6lfw9cog9","5d269fedf6dec40019b87a59","infreq","","","img/orange_2bandit_b2.png","70","","68","test","0","","39","","","","circle","square","38","19","2","0.9736842105263158","","","","","","","",""
"null","1184254","SARL_v6","SARL_v6lfw9cog9","5d269fedf6dec40019b87a59","infreq_resp","","","img/orange_2bandit_b.png","70","img/orange_2bandit_b.png","68","test","","","","","","","","","","","2","","","","","","","","",""
"null","1184410","SARL_v6","SARL_v6lfw9cog9","5d269fedf6dec40019b87a59","fixation","","","img/fixation.png","null","","","test","","","","","","","","","","","","","","","","","","","",""
"429.90000000596046","1184841","SARL_v6","SARL_v6lfw9cog9","5d269fedf6dec40019b87a59","freq","","","img/blue_2bandit_b2.png","70","","70","test","1","","40","","","","circle","square","39","20","2","0.9743589743589743","","","","","","","",""
"null","1185224","SARL_v6","SARL_v6lfw9cog9","5d269fedf6dec40019b87a59","freq_resp","","","img/blue_2bandit_b.png","70","img/blue_2bandit_b.png","70","test","","","","","","","","","","","2","","","","","","","","",""
"null","1185379","SARL_v6","SARL_v6lfw9cog9","5d269fedf6dec40019b87a59","fixation","","","img/fixation.png","null","","","test","","","","","","","","","","","","","","","","","","","",""
"340.09999999403954","1185721","SARL_v6","SARL_v6lfw9cog9","5d269fedf6dec40019b87a59","freq","","","img/blue_2bandit_b2.png","70","","70","test","1","","41","","","","circle","square","40","21","2","0.975","","","","","","","",""
"null","1186192","SARL_v6","SARL_v6lfw9cog9","5d269fedf6dec40019b87a59","freq_resp","","","img/blue_2bandit_b.png","70","img/blue_2bandit_b.png","70","test","","","","","","","","","","","2","","","","","","","","",""
"null","1186348","SARL_v6","SARL_v6lfw9cog9","5d269fedf6dec40019b87a59","fixation","","","img/fixation.png","null","","","test","","","","","","","","","","","","","","","","","","","",""
"299.5","1186650","SARL_v6","SARL_v6lfw9cog9","5d269fedf6dec40019b87a59","freq","","","img/blue_2bandit_b2.png","70","","70","test","1","","42","","","","circle","square","41","22","2","0.975609756097561","","","","","","","",""
"null","1187158","SARL_v6","SARL_v6lfw9cog9","5d269fedf6dec40019b87a59","freq_resp","","","img/blue_2bandit_b.png","70","img/blue_2bandit_b.png","70","test","","","","","","","","","","","2","","","","","","","","",""
"null","1187310","SARL_v6","SARL_v6lfw9cog9","5d269fedf6dec40019b87a59","fixation","","","img/fixation.png","null","","","test","","","","","","","","","","","","","","","","","","","",""
"481.40000000596046","1187793","SARL_v6","SARL_v6lfw9cog9","5d269fedf6dec40019b87a59","rl","","","img/black_2bandit_b2.png","75","","0","test","","","43","","","-8","circle","square","","0","2","","75","-5","-8","-5","-8","square","2","0"
"null","1188546","SARL_v6","SARL_v6lfw9cog9","5d269fedf6dec40019b87a59","feedback","","","<div class=""verylowPoints_sq""> -8 </div>","null","","na","test","","","NaN","","","","","","","","2","","75","","","","","","2",""
"645.6999999880791","1189193","SARL_v6","SARL_v6lfw9cog9","5d269fedf6dec40019b87a59","freq","","","img/blue_2bandit_b2.png","70","","70","test","1","","44","","","","circle","square","42","1","3","0.9761904761904762","","","","","","","",""
"null","1189353","SARL_v6","SARL_v6lfw9cog9","5d269fedf6dec40019b87a59","freq_resp","","","img/blue_2bandit_b.png","70","img/blue_2bandit_b.png","70","test","","","","","","","","","","","3","","","","","","","","",""
"null","1189511","SARL_v6","SARL_v6lfw9cog9","5d269fedf6dec40019b87a59","fixation","","","img/fixation.png","null","","","test","","","","","","","","","","","","","","","","","","","",""
"344.7000000178814","1189857","SARL_v6","SARL_v6lfw9cog9","5d269fedf6dec40019b87a59","freq","","","img/blue_2bandit_b2.png","70","","70","test","1","","45","","","","circle","square","43","2","3","0.9767441860465116","","","","","","","",""
"null","1190330","SARL_v6","SARL_v6lfw9cog9","5d269fedf6dec40019b87a59","freq_resp","","","img/blue_2bandit_b.png","70","img/blue_2bandit_b.png","70","test","","","","","","","","","","","3","","","","","","","","",""
"null","1190498","SARL_v6","SARL_v6lfw9cog9","5d269fedf6dec40019b87a59","fixation","","","img/fixation.png","null","","","test","","","","","","","","","","","","","","","","","","","",""
"317","1190818","SARL_v6","SARL_v6lfw9cog9","5d269fedf6dec40019b87a59","freq","","","img/blue_2bandit_b2.png","70","","70","test","1","","46","","","","circle","square","44","3","3","0.9772727272727273","","","","","","","",""
"null","1191307","SARL_v6","SARL_v6lfw9cog9","5d269fedf6dec40019b87a59","freq_resp","","","img/blue_2bandit_b.png","70","img/blue_2bandit_b.png","70","test","","","","","","","","","","","3","","","","","","","","",""
"null","1191461","SARL_v6","SARL_v6lfw9cog9","5d269fedf6dec40019b87a59","fixation","","","img/fixation.png","null","","","test","","","","","","","","","","","","","","","","","","","",""
"330.2000000178814","1191793","SARL_v6","SARL_v6lfw9cog9","5d269fedf6dec40019b87a59","freq","","","img/blue_2bandit_b2.png","70","","70","test","1","","47","","","","circle","square","45","4","3","0.9777777777777777","","","","","","","",""
"null","1192274","SARL_v6","SARL_v6lfw9cog9","5d269fedf6dec40019b87a59","freq_resp","","","img/blue_2bandit_b.png","70","img/blue_2bandit_b.png","70","test","","","","","","","","","","","3","","","","","","","","",""
"null","1192430","SARL_v6","SARL_v6lfw9cog9","5d269fedf6dec40019b87a59","fixation","","","img/fixation.png","null","","","test","","","","","","","","","","","","","","","","","","","",""
"281.2000000178814","1192712","SARL_v6","SARL_v6lfw9cog9","5d269fedf6dec40019b87a59","freq","","","img/blue_2bandit_b2.png","70","","70","test","1","","48","","","","circle","square","46","5","3","0.9782608695652174","","","","","","","",""
"null","1193240","SARL_v6","SARL_v6lfw9cog9","5d269fedf6dec40019b87a59","freq_resp","","","img/blue_2bandit_b.png","70","img/blue_2bandit_b.png","70","test","","","","","","","","","","","3","","","","","","","","",""
"null","1193397","SARL_v6","SARL_v6lfw9cog9","5d269fedf6dec40019b87a59","fixation","","","img/fixation.png","null","","","test","","","","","","","","","","","","","","","","","","","",""
"433.80000001192093","1193833","SARL_v6","SARL_v6lfw9cog9","5d269fedf6dec40019b87a59","infreq","","","img/orange_2bandit_b2.png","68","","68","test","1","","49","","","","circle","square","47","6","3","0.9787234042553191","","","","","","","",""
"null","1194211","SARL_v6","SARL_v6lfw9cog9","5d269fedf6dec40019b87a59","infreq_resp","","","img/orange_2bandit_b.png","68","img/orange_2bandit_b.png","68","test","","","","","","","","","","","3","","","","","","","","",""
"null","1194366","SARL_v6","SARL_v6lfw9cog9","5d269fedf6dec40019b87a59","fixation","","","img/fixation.png","null","","","test","","","","","","","","","","","","","","","","","","","",""
"378.2000000178814","1194746","SARL_v6","SARL_v6lfw9cog9","5d269fedf6dec40019b87a59","freq","","","img/blue_2bandit_b2.png","70","","70","test","1","","50","","","","circle","square","48","7","3","0.9791666666666666","","","","","","","",""
"null","1195176","SARL_v6","SARL_v6lfw9cog9","5d269fedf6dec40019b87a59","freq_resp","","","img/blue_2bandit_b.png","70","img/blue_2bandit_b.png","70","test","","","","","","","","","","","3","","","","","","","","",""
"null","1195332","SARL_v6","SARL_v6lfw9cog9","5d269fedf6dec40019b87a59","fixation","","","img/fixation.png","null","","","test","","","","","","","","","","","","","","","","","","","",""
"315.59999999403954","1195649","SARL_v6","SARL_v6lfw9cog9","5d269fedf6dec40019b87a59","freq","","","img/blue_2bandit_b2.png","70","","70","test","1","","51","","","","circle","square","49","8","3","0.9795918367346939","","","","","","","",""
"null","1196143","SARL_v6","SARL_v6lfw9cog9","5d269fedf6dec40019b87a59","freq_resp","","","img/blue_2bandit_b.png","70","img/blue_2bandit_b.png","70","test","","","","","","","","","","","3","","","","","","","","",""
"null","1196297","SARL_v6","SARL_v6lfw9cog9","5d269fedf6dec40019b87a59","fixation","","","img/fixation.png","null","","","test","","","","","","","","","","","","","","","","","","","",""
"342.59999999403954","1196641","SARL_v6","SARL_v6lfw9cog9","5d269fedf6dec40019b87a59","freq","","","img/blue_2bandit_b2.png","70","","70","test","1","","52","","","","circle","square","50","9","3","0.98","","","","","","","",""
"null","1197112","SARL_v6","SARL_v6lfw9cog9","5d269fedf6dec40019b87a59","freq_resp","","","img/blue_2bandit_b.png","70","img/blue_2bandit_b.png","70","test","","","","","","","","","","","3","","","","","","","","",""
"null","1197268","SARL_v6","SARL_v6lfw9cog9","5d269fedf6dec40019b87a59","fixation","","","img/fixation.png","null","","","test","","","","","","","","","","","","","","","","","","","",""
"299.10000002384186","1197569","SARL_v6","SARL_v6lfw9cog9","5d269fedf6dec40019b87a59","freq","","","img/blue_2bandit_b2.png","70","","70","test","1","","53","","","","circle","square","51","10","3","0.9803921568627451","","","","","","","",""
"null","1198077","SARL_v6","SARL_v6lfw9cog9","5d269fedf6dec40019b87a59","freq_resp","","","img/blue_2bandit_b.png","70","img/blue_2bandit_b.png","70","test","","","","","","","","","","","3","","","","","","","","",""
"null","1198234","SARL_v6","SARL_v6lfw9cog9","5d269fedf6dec40019b87a59","fixation","","","img/fixation.png","null","","","test","","","","","","","","","","","","","","","","","","","",""
"277.5","1198513","SARL_v6","SARL_v6lfw9cog9","5d269fedf6dec40019b87a59","freq","","","img/blue_2bandit_b2.png","70","","70","test","1","","54","","","","circle","square","52","11","3","0.9807692307692307","","","","","","","",""
"null","1199043","SARL_v6","SARL_v6lfw9cog9","5d269fedf6dec40019b87a59","freq_resp","","","img/blue_2bandit_b.png","70","img/blue_2bandit_b.png","70","test","","","","","","","","","","","3","","","","","","","","",""
"null","1199196","SARL_v6","SARL_v6lfw9cog9","5d269fedf6dec40019b87a59","fixation","","","img/fixation.png","null","","","test","","","","","","","","","","","","","","","","","","","",""
"307.09999999403954","1199505","SARL_v6","SARL_v6lfw9cog9","5d269fedf6dec40019b87a59","freq","","","img/blue_2bandit_b2.png","70","","70","test","1","","55","","","","circle","square","53","12","3","0.9811320754716981","","","","","","","",""
"null","1200012","SARL_v6","SARL_v6lfw9cog9","5d269fedf6dec40019b87a59","freq_resp","","","img/blue_2bandit_b.png","70","img/blue_2bandit_b.png","70","test","","","","","","","","","","","3","","","","","","","","",""
"null","1200168","SARL_v6","SARL_v6lfw9cog9","5d269fedf6dec40019b87a59","fixation","","","img/fixation.png","null","","","test","","","","","","","","","","","","","","","","","","","",""
"295.30000001192093","1200466","SARL_v6","SARL_v6lfw9cog9","5d269fedf6dec40019b87a59","freq","","","img/blue_2bandit_b2.png","70","","70","test","1","","56","","","","circle","square","54","13","3","0.9814814814814815","","","","","","","",""
"null","1200980","SARL_v6","SARL_v6lfw9cog9","5d269fedf6dec40019b87a59","freq_resp","","","img/blue_2bandit_b.png","70","img/blue_2bandit_b.png","70","test","","","","","","","","","","","3","","","","","","","","",""
"null","1201135","SARL_v6","SARL_v6lfw9cog9","5d269fedf6dec40019b87a59","fixation","","","img/fixation.png","null","","","test","","","","","","","","","","","","","","","","","","","",""
"304.2000000178814","1201440","SARL_v6","SARL_v6lfw9cog9","5d269fedf6dec40019b87a59","freq","","","img/blue_2bandit_b2.png","70","","70","test","1","","57","","","","circle","square","55","14","3","0.9818181818181818","","","","","","","",""
"null","1201948","SARL_v6","SARL_v6lfw9cog9","5d269fedf6dec40019b87a59","freq_resp","","","img/blue_2bandit_b.png","70","img/blue_2bandit_b.png","70","test","","","","","","","","","","","3","","","","","","","","",""
"null","1202104","SARL_v6","SARL_v6lfw9cog9","5d269fedf6dec40019b87a59","fixation","","","img/fixation.png","null","","","test","","","","","","","","","","","","","","","","","","","",""
"286.89999997615814","1202392","SARL_v6","SARL_v6lfw9cog9","5d269fedf6dec40019b87a59","freq","","","img/blue_2bandit_b2.png","70","","70","test","1","","58","","","","circle","square","56","15","3","0.9821428571428571","","","","","","","",""
"null","1202918","SARL_v6","SARL_v6lfw9cog9","5d269fedf6dec40019b87a59","freq_resp","","","img/blue_2bandit_b.png","70","img/blue_2bandit_b.png","70","test","","","","","","","","","","","3","","","","","","","","",""
"null","1203070","SARL_v6","SARL_v6lfw9cog9","5d269fedf6dec40019b87a59","fixation","","","img/fixation.png","null","","","test","","","","","","","","","","","","","","","","","","","",""
"289.39999997615814","1203362","SARL_v6","SARL_v6lfw9cog9","5d269fedf6dec40019b87a59","freq","","","img/blue_2bandit_b2.png","70","","70","test","1","","59","","","","circle","square","57","16","3","0.9824561403508771","","","","","","","",""
"null","1203887","SARL_v6","SARL_v6lfw9cog9","5d269fedf6dec40019b87a59","freq_resp","","","img/blue_2bandit_b.png","70","img/blue_2bandit_b.png","70","test","","","","","","","","","","","3","","","","","","","","",""
"null","1204039","SARL_v6","SARL_v6lfw9cog9","5d269fedf6dec40019b87a59","fixation","","","img/fixation.png","null","","","test","","","","","","","","","","","","","","","","","","","",""
"400.30000001192093","1204440","SARL_v6","SARL_v6lfw9cog9","5d269fedf6dec40019b87a59","freq","","","img/blue_2bandit_b2.png","70","","70","test","1","","60","","","","circle","square","58","17","3","0.9827586206896551","","","","","","","",""
"null","1204851","SARL_v6","SARL_v6lfw9cog9","5d269fedf6dec40019b87a59","freq_resp","","","img/blue_2bandit_b.png","70","img/blue_2bandit_b.png","70","test","","","","","","","","","","","3","","","","","","","","",""
"null","1205008","SARL_v6","SARL_v6lfw9cog9","5d269fedf6dec40019b87a59","fixation","","","img/fixation.png","null","","","test","","","","","","","","","","","","","","","","","","","",""
"278.40000000596046","1205289","SARL_v6","SARL_v6lfw9cog9","5d269fedf6dec40019b87a59","freq","","","img/blue_2bandit_b2.png","70","","70","test","1","","61","","","","circle","square","59","18","3","0.9830508474576272","","","","","","","",""
"null","1205820","SARL_v6","SARL_v6lfw9cog9","5d269fedf6dec40019b87a59","freq_resp","","","img/blue_2bandit_b.png","70","img/blue_2bandit_b.png","70","test","","","","","","","","","","","3","","","","","","","","",""
"null","1205976","SARL_v6","SARL_v6lfw9cog9","5d269fedf6dec40019b87a59","fixation","","","img/fixation.png","null","","","test","","","","","","","","","","","","","","","","","","","",""
"311.90000000596046","1206290","SARL_v6","SARL_v6lfw9cog9","5d269fedf6dec40019b87a59","freq","","","img/blue_2bandit_b2.png","70","","70","test","1","","62","","","","circle","square","60","19","3","0.9833333333333333","","","","","","","",""
"null","1206787","SARL_v6","SARL_v6lfw9cog9","5d269fedf6dec40019b87a59","freq_resp","","","img/blue_2bandit_b.png","70","img/blue_2bandit_b.png","70","test","","","","","","","","","","","3","","","","","","","","",""
"null","1206942","SARL_v6","SARL_v6lfw9cog9","5d269fedf6dec40019b87a59","fixation","","","img/fixation.png","null","","","test","","","","","","","","","","","","","","","","","","","",""
"424.7000000178814","1207369","SARL_v6","SARL_v6lfw9cog9","5d269fedf6dec40019b87a59","infreq","","","img/orange_2bandit_b2.png","68","","68","test","1","","63","","","","circle","square","61","20","3","0.9836065573770492","","","","","","","",""
"null","1207760","SARL_v6","SARL_v6lfw9cog9","5d269fedf6dec40019b87a59","infreq_resp","","","img/orange_2bandit_b.png","68","img/orange_2bandit_b.png","68","test","","","","","","","","","","","3","","","","","","","","",""
"null","1207918","SARL_v6","SARL_v6lfw9cog9","5d269fedf6dec40019b87a59","fixation","","","img/fixation.png","null","","","test","","","","","","","","","","","","","","","","","","","",""
"329.09999999403954","1208248","SARL_v6","SARL_v6lfw9cog9","5d269fedf6dec40019b87a59","freq","","","img/blue_2bandit_b2.png","68","","70","test","0","","64","","","","circle","square","62","21","3","0.967741935483871","","","","","","","",""
"null","1208725","SARL_v6","SARL_v6lfw9cog9","5d269fedf6dec40019b87a59","freq_resp","","","img/blue_2bandit_b.png","68","img/blue_2bandit_b.png","70","test","","","","","","","","","","","3","","","","","","","","",""
"null","1208881","SARL_v6","SARL_v6lfw9cog9","5d269fedf6dec40019b87a59","fixation","","","img/fixation.png","null","","","test","","","","","","","","","","","","","","","","","","","",""
"359","1209241","SARL_v6","SARL_v6lfw9cog9","5d269fedf6dec40019b87a59","freq","","","img/blue_2bandit_b2.png","70","","70","test","1","","65","","","","circle","square","63","22","3","0.9682539682539683","","","","","","","",""
"null","1209693","SARL_v6","SARL_v6lfw9cog9","5d269fedf6dec40019b87a59","freq_resp","","","img/blue_2bandit_b.png","70","img/blue_2bandit_b.png","70","test","","","","","","","","","","","3","","","","","","","","",""
"null","1209848","SARL_v6","SARL_v6lfw9cog9","5d269fedf6dec40019b87a59","fixation","","","img/fixation.png","null","","","test","","","","","","","","","","","","","","","","","","","",""
"503.80000001192093","1210353","SARL_v6","SARL_v6lfw9cog9","5d269fedf6dec40019b87a59","rl","","","img/black_2bandit_b2.png","75","","0","test","","","66","","","-8","circle","square","","0","3","","75","-4","-8","-4","-8","square","3","0"
"null","1211116","SARL_v6","SARL_v6lfw9cog9","5d269fedf6dec40019b87a59","feedback","","","<div class=""verylowPoints_sq""> -8 </div>","null","","na","test","","","NaN","","","","","","","","3","","75","","","","","","3",""
"515.1000000238419","1211633","SARL_v6","SARL_v6lfw9cog9","5d269fedf6dec40019b87a59","freq","","","img/blue_2bandit_b2.png","70","","70","test","1","","67","","","","circle","square","64","1","4","0.96875","","","","","","","",""
"null","1211925","SARL_v6","SARL_v6lfw9cog9","5d269fedf6dec40019b87a59","freq_resp","","","img/blue_2bandit_b.png","70","img/blue_2bandit_b.png","70","test","","","","","","","","","","","4","","","","","","","","",""
"null","1212082","SARL_v6","SARL_v6lfw9cog9","5d269fedf6dec40019b87a59","fixation","","","img/fixation.png","null","","","test","","","","","","","","","","","","","","","","","","","",""
"300.7000000178814","1212385","SARL_v6","SARL_v6lfw9cog9","5d269fedf6dec40019b87a59","freq","","","img/blue_2bandit_b2.png","70","","70","test","1","","68","","","","circle","square","65","2","4","0.9692307692307692","","","","","","","",""
"null","1212896","SARL_v6","SARL_v6lfw9cog9","5d269fedf6dec40019b87a59","freq_resp","","","img/blue_2bandit_b.png","70","img/blue_2bandit_b.png","70","test","","","","","","","","","","","4","","","","","","","","",""
"null","1213048","SARL_v6","SARL_v6lfw9cog9","5d269fedf6dec40019b87a59","fixation","","","img/fixation.png","null","","","test","","","","","","","","","","","","","","","","","","","",""
"351.7999999821186","1213401","SARL_v6","SARL_v6lfw9cog9","5d269fedf6dec40019b87a59","freq","","","img/blue_2bandit_b2.png","70","","70","test","1","","69","","","","circle","square","66","3","4","0.9696969696969697","","","","","","","",""
"null","1213861","SARL_v6","SARL_v6lfw9cog9","5d269fedf6dec40019b87a59","freq_resp","","","img/blue_2bandit_b.png","70","img/blue_2bandit_b.png","70","test","","","","","","","","","","","4","","","","","","","","",""
"null","1214015","SARL_v6","SARL_v6lfw9cog9","5d269fedf6dec40019b87a59","fixation","","","img/fixation.png","null","","","test","","","","","","","","","","","","","","","","","","","",""
"337","1214354","SARL_v6","SARL_v6lfw9cog9","5d269fedf6dec40019b87a59","freq","","","img/blue_2bandit_b2.png","70","","70","test","1","","70","","","","circle","square","67","4","4","0.9701492537313433","","","","","","","",""
"null","1214825","SARL_v6","SARL_v6lfw9cog9","5d269fedf6dec40019b87a59","freq_resp","","","img/blue_2bandit_b.png","70","img/blue_2bandit_b.png","70","test","","","","","","","","","","","4","","","","","","","","",""
"null","1214983","SARL_v6","SARL_v6lfw9cog9","5d269fedf6dec40019b87a59","fixation","","","img/fixation.png","null","","","test","","","","","","","","","","","","","","","","","","","",""
"464.19999998807907","1215449","SARL_v6","SARL_v6lfw9cog9","5d269fedf6dec40019b87a59","freq","","","img/blue_2bandit_b2.png","70","","70","test","1","","71","","","","circle","square","68","5","4","0.9705882352941176","","","","","","","",""
"null","1215791","SARL_v6","SARL_v6lfw9cog9","5d269fedf6dec40019b87a59","freq_resp","","","img/blue_2bandit_b.png","70","img/blue_2bandit_b.png","70","test","","","","","","","","","","","4","","","","","","","","",""
"null","1215948","SARL_v6","SARL_v6lfw9cog9","5d269fedf6dec40019b87a59","fixation","","","img/fixation.png","null","","","test","","","","","","","","","","","","","","","","","","","",""
"458.80000001192093","1216409","SARL_v6","SARL_v6lfw9cog9","5d269fedf6dec40019b87a59","freq","","","img/blue_2bandit_b2.png","70","","70","test","1","","72","","","","circle","square","69","6","4","0.9710144927536232","","","","","","","",""
"null","1216761","SARL_v6","SARL_v6lfw9cog9","5d269fedf6dec40019b87a59","freq_resp","","","img/blue_2bandit_b.png","70","img/blue_2bandit_b.png","70","test","","","","","","","","","","","4","","","","","","","","",""
"null","1216920","SARL_v6","SARL_v6lfw9cog9","5d269fedf6dec40019b87a59","fixation","","","img/fixation.png","null","","","test","","","","","","","","","","","","","","","","","","","",""
"551.5999999940395","1217474","SARL_v6","SARL_v6lfw9cog9","5d269fedf6dec40019b87a59","freq","","","img/blue_2bandit_b2.png","70","","70","test","1","","73","","","","circle","square","70","7","4","0.9714285714285714","","","","","","","",""
"null","1217735","SARL_v6","SARL_v6lfw9cog9","5d269fedf6dec40019b87a59","freq_resp","","","img/blue_2bandit_b.png","70","img/blue_2bandit_b.png","70","test","","","","","","","","","","","4","","","","","","","","",""
"null","1217890","SARL_v6","SARL_v6lfw9cog9","5d269fedf6dec40019b87a59","fixation","","","img/fixation.png","null","","","test","","","","","","","","","","","","","","","","","","","",""
"373.09999999403954","1218266","SARL_v6","SARL_v6lfw9cog9","5d269fedf6dec40019b87a59","freq","","","img/blue_2bandit_b2.png","70","","70","test","1","","74","","","","circle","square","71","8","4","0.971830985915493","","","","","","","",""
"null","1218700","SARL_v6","SARL_v6lfw9cog9","5d269fedf6dec40019b87a59","freq_resp","","","img/blue_2bandit_b.png","70","img/blue_2bandit_b.png","70","test","","","","","","","","","","","4","","","","","","","","",""
"null","1218853","SARL_v6","SARL_v6lfw9cog9","5d269fedf6dec40019b87a59","fixation","","","img/fixation.png","null","","","test","","","","","","","","","","","","","","","","","","","",""
"353.90000000596046","1219210","SARL_v6","SARL_v6lfw9cog9","5d269fedf6dec40019b87a59","freq","","","img/blue_2bandit_b2.png","70","","70","test","1","","75","","","","circle","square","72","9","4","0.9722222222222222","","","","","","","",""
"null","1219670","SARL_v6","SARL_v6lfw9cog9","5d269fedf6dec40019b87a59","freq_resp","","","img/blue_2bandit_b.png","70","img/blue_2bandit_b.png","70","test","","","","","","","","","","","4","","","","","","","","",""
"null","1219827","SARL_v6","SARL_v6lfw9cog9","5d269fedf6dec40019b87a59","fixation","","","img/fixation.png","null","","","test","","","","","","","","","","","","","","","","","","","",""
"283.60000002384186","1220113","SARL_v6","SARL_v6lfw9cog9","5d269fedf6dec40019b87a59","freq","","","img/blue_2bandit_b2.png","70","","70","test","1","","76","","","","circle","square","73","10","4","0.9726027397260274","","","","","","","",""
"null","1220642","SARL_v6","SARL_v6lfw9cog9","5d269fedf6dec40019b87a59","freq_resp","","","img/blue_2bandit_b.png","70","img/blue_2bandit_b.png","70","test","","","","","","","","","","","4","","","","","","","","",""
"null","1220795","SARL_v6","SARL_v6lfw9cog9","5d269fedf6dec40019b87a59","fixation","","","img/fixation.png","null","","","test","","","","","","","","","","","","","","","","","","","",""
"243.7000000178814","1221041","SARL_v6","SARL_v6lfw9cog9","5d269fedf6dec40019b87a59","freq","","","img/blue_2bandit_b2.png","70","","70","test","1","","77","","","","circle","square","74","11","4","0.972972972972973","","","","","","","",""
"null","1221612","SARL_v6","SARL_v6lfw9cog9","5d269fedf6dec40019b87a59","freq_resp","","","img/blue_2bandit_b.png","70","img/blue_2bandit_b.png","70","test","","","","","","","","","","","4","","","","","","","","",""
"null","1221770","SARL_v6","SARL_v6lfw9cog9","5d269fedf6dec40019b87a59","fixation","","","img/fixation.png","null","","","test","","","","","","","","","","","","","","","","","","","",""
"244.90000000596046","1222018","SARL_v6","SARL_v6lfw9cog9","5d269fedf6dec40019b87a59","freq","","","img/blue_2bandit_b2.png","70","","70","test","1","","78","","","","circle","square","75","12","4","0.9733333333333334","","","","","","","",""
"null","1222582","SARL_v6","SARL_v6lfw9cog9","5d269fedf6dec40019b87a59","freq_resp","","","img/blue_2bandit_b.png","70","img/blue_2bandit_b.png","70","test","","","","","","","","","","","4","","","","","","","","",""
"null","1222735","SARL_v6","SARL_v6lfw9cog9","5d269fedf6dec40019b87a59","fixation","","","img/fixation.png","null","","","test","","","","","","","","","","","","","","","","","","","",""
"239.39999997615814","1222977","SARL_v6","SARL_v6lfw9cog9","5d269fedf6dec40019b87a59","freq","","","img/blue_2bandit_b2.png","70","","70","test","1","","79","","","","circle","square","76","13","4","0.9736842105263158","","","","","","","",""
"null","1223541","SARL_v6","SARL_v6lfw9cog9","5d269fedf6dec40019b87a59","freq_resp","","","img/blue_2bandit_b.png","70","img/blue_2bandit_b.png","70","test","","","","","","","","","","","4","","","","","","","","",""
"null","1223693","SARL_v6","SARL_v6lfw9cog9","5d269fedf6dec40019b87a59","fixation","","","img/fixation.png","null","","","test","","","","","","","","","","","","","","","","","","","",""
"290.69999998807907","1223986","SARL_v6","SARL_v6lfw9cog9","5d269fedf6dec40019b87a59","freq","","","img/blue_2bandit_b2.png","70","","70","test","1","","80","","","","circle","square","77","14","4","0.974025974025974","","","","","","","",""
"null","1224508","SARL_v6","SARL_v6lfw9cog9","5d269fedf6dec40019b87a59","freq_resp","","","img/blue_2bandit_b.png","70","img/blue_2bandit_b.png","70","test","","","","","","","","","","","4","","","","","","","","",""
"null","1224661","SARL_v6","SARL_v6lfw9cog9","5d269fedf6dec40019b87a59","fixation","","","img/fixation.png","null","","","test","","","","","","","","","","","","","","","","","","","",""
"274.7999999821186","1224937","SARL_v6","SARL_v6lfw9cog9","5d269fedf6dec40019b87a59","freq","","","img/blue_2bandit_b2.png","70","","70","test","1","","81","","","","circle","square","78","15","4","0.9743589743589743","","","","","","","",""
"null","1225475","SARL_v6","SARL_v6lfw9cog9","5d269fedf6dec40019b87a59","freq_resp","","","img/blue_2bandit_b.png","70","img/blue_2bandit_b.png","70","test","","","","","","","","","","","4","","","","","","","","",""
"null","1225631","SARL_v6","SARL_v6lfw9cog9","5d269fedf6dec40019b87a59","fixation","","","img/fixation.png","null","","","test","","","","","","","","","","","","","","","","","","","",""
"608.2999999821186","1226240","SARL_v6","SARL_v6lfw9cog9","5d269fedf6dec40019b87a59","infreq","","","img/orange_2bandit_b2.png","68","","68","test","1","","82","","","","circle","square","79","16","4","0.9746835443037974","","","","","","","",""
"null","1226440","SARL_v6","SARL_v6lfw9cog9","5d269fedf6dec40019b87a59","infreq_resp","","","img/orange_2bandit_b.png","68","img/orange_2bandit_b.png","68","test","","","","","","","","","","","4","","","","","","","","",""
"null","1226598","SARL_v6","SARL_v6lfw9cog9","5d269fedf6dec40019b87a59","fixation","","","img/fixation.png","null","","","test","","","","","","","","","","","","","","","","","","","",""
"369.5","1226969","SARL_v6","SARL_v6lfw9cog9","5d269fedf6dec40019b87a59","freq","","","img/blue_2bandit_b2.png","70","","70","test","1","","83","","","","circle","square","80","17","4","0.975","","","","","","","",""
"null","1227411","SARL_v6","SARL_v6lfw9cog9","5d269fedf6dec40019b87a59","freq_resp","","","img/blue_2bandit_b.png","70","img/blue_2bandit_b.png","70","test","","","","","","","","","","","4","","","","","","","","",""
"null","1227566","SARL_v6","SARL_v6lfw9cog9","5d269fedf6dec40019b87a59","fixation","","","img/fixation.png","null","","","test","","","","","","","","","","","","","","","","","","","",""
"408.90000000596046","1227976","SARL_v6","SARL_v6lfw9cog9","5d269fedf6dec40019b87a59","infreq","","","img/orange_2bandit_b2.png","68","","68","test","1","","84","","","","circle","square","81","18","4","0.9753086419753086","","","","","","","",""
"null","1228380","SARL_v6","SARL_v6lfw9cog9","5d269fedf6dec40019b87a59","infreq_resp","","","img/orange_2bandit_b.png","68","img/orange_2bandit_b.png","68","test","","","","","","","","","","","4","","","","","","","","",""
"null","1228536","SARL_v6","SARL_v6lfw9cog9","5d269fedf6dec40019b87a59","fixation","","","img/fixation.png","null","","","test","","","","","","","","","","","","","","","","","","","",""
"431.19999998807907","1228970","SARL_v6","SARL_v6lfw9cog9","5d269fedf6dec40019b87a59","freq","","","img/blue_2bandit_b2.png","70","","70","test","1","","85","","","","circle","square","82","19","4","0.975609756097561","","","","","","","",""
"null","1229345","SARL_v6","SARL_v6lfw9cog9","5d269fedf6dec40019b87a59","freq_resp","","","img/blue_2bandit_b.png","70","img/blue_2bandit_b.png","70","test","","","","","","","","","","","4","","","","","","","","",""
"null","1229501","SARL_v6","SARL_v6lfw9cog9","5d269fedf6dec40019b87a59","fixation","","","img/fixation.png","null","","","test","","","","","","","","","","","","","","","","","","","",""
"514.3000000119209","1230017","SARL_v6","SARL_v6lfw9cog9","5d269fedf6dec40019b87a59","freq","","","img/blue_2bandit_b2.png","70","","70","test","1","","86","","","","circle","square","83","20","4","0.9759036144578314","","","","","","","",""
"null","1230315","SARL_v6","SARL_v6lfw9cog9","5d269fedf6dec40019b87a59","freq_resp","","","img/blue_2bandit_b.png","70","img/blue_2bandit_b.png","70","test","","","","","","","","","","","4","","","","","","","","",""
"null","1230470","SARL_v6","SARL_v6lfw9cog9","5d269fedf6dec40019b87a59","fixation","","","img/fixation.png","null","","","test","","","","","","","","","","","","","","","","","","","",""
"297.10000002384186","1230769","SARL_v6","SARL_v6lfw9cog9","5d269fedf6dec40019b87a59","freq","","","img/blue_2bandit_b2.png","70","","70","test","1","","87","","","","circle","square","84","21","4","0.9761904761904762","","","","","","","",""
"null","1231280","SARL_v6","SARL_v6lfw9cog9","5d269fedf6dec40019b87a59","freq_resp","","","img/blue_2bandit_b.png","70","img/blue_2bandit_b.png","70","test","","","","","","","","","","","4","","","","","","","","",""
"null","1231437","SARL_v6","SARL_v6lfw9cog9","5d269fedf6dec40019b87a59","fixation","","","img/fixation.png","null","","","test","","","","","","","","","","","","","","","","","","","",""
"506.09999999403954","1231945","SARL_v6","SARL_v6lfw9cog9","5d269fedf6dec40019b87a59","rl","","","img/black_2bandit_b2.png","75","","0","test","","","88","","","-12","circle","square","","0","4","","75","0","-12","0","-12","square","4","0"
"null","1232703","SARL_v6","SARL_v6lfw9cog9","5d269fedf6dec40019b87a59","feedback","","","<div class=""verylowPoints_sq""> -12 </div>","null","","na","test","","","NaN","","","","","","","","4","","75","","","","","","4",""
"584.5","1233290","SARL_v6","SARL_v6lfw9cog9","5d269fedf6dec40019b87a59","freq","","","img/blue_2bandit_b2.png","70","","70","test","1","","89","","","","circle","square","85","1","5","0.9764705882352941","","","","","","","",""
"null","1233507","SARL_v6","SARL_v6lfw9cog9","5d269fedf6dec40019b87a59","freq_resp","","","img/blue_2bandit_b.png","70","img/blue_2bandit_b.png","70","test","","","","","","","","","","","5","","","","","","","","",""
"null","1233664","SARL_v6","SARL_v6lfw9cog9","5d269fedf6dec40019b87a59","fixation","","","img/fixation.png","null","","","test","","","","","","","","","","","","","","","","","","","",""
"367.09999999403954","1234033","SARL_v6","SARL_v6lfw9cog9","5d269fedf6dec40019b87a59","freq","","","img/blue_2bandit_b2.png","70","","70","test","1","","90","","","","circle","square","86","2","5","0.9767441860465116","","","","","","","",""
"null","1234477","SARL_v6","SARL_v6lfw9cog9","5d269fedf6dec40019b87a59","freq_resp","","","img/blue_2bandit_b.png","70","img/blue_2bandit_b.png","70","test","","","","","","","","","","","5","","","","","","","","",""
"null","1234631","SARL_v6","SARL_v6lfw9cog9","5d269fedf6dec40019b87a59","fixation","","","img/fixation.png","null","","","test","","","","","","","","","","","","","","","","","","","",""
"328.30000001192093","1234960","SARL_v6","SARL_v6lfw9cog9","5d269fedf6dec40019b87a59","freq","","","img/blue_2bandit_b2.png","70","","70","test","1","","91","","","","circle","square","87","3","5","0.9770114942528736","","","","","","","",""
"null","1235445","SARL_v6","SARL_v6lfw9cog9","5d269fedf6dec40019b87a59","freq_resp","","","img/blue_2bandit_b.png","70","img/blue_2bandit_b.png","70","test","","","","","","","","","","","5","","","","","","","","",""
"null","1235601","SARL_v6","SARL_v6lfw9cog9","5d269fedf6dec40019b87a59","fixation","","","img/fixation.png","null","","","test","","","","","","","","","","","","","","","","","","","",""
"342.10000002384186","1235945","SARL_v6","SARL_v6lfw9cog9","5d269fedf6dec40019b87a59","freq","","","img/blue_2bandit_b2.png","70","","70","test","1","","92","","","","circle","square","88","4","5","0.9772727272727273","","","","","","","",""
"null","1236417","SARL_v6","SARL_v6lfw9cog9","5d269fedf6dec40019b87a59","freq_resp","","","img/blue_2bandit_b.png","70","img/blue_2bandit_b.png","70","test","","","","","","","","","","","5","","","","","","","","",""
"null","1236571","SARL_v6","SARL_v6lfw9cog9","5d269fedf6dec40019b87a59","fixation","","","img/fixation.png","null","","","test","","","","","","","","","","","","","","","","","","","",""
"284.7000000178814","1236856","SARL_v6","SARL_v6lfw9cog9","5d269fedf6dec40019b87a59","freq","","","img/blue_2bandit_b2.png","70","","70","test","1","","93","","","","circle","square","89","5","5","0.9775280898876404","","","","","","","",""
"null","1237382","SARL_v6","SARL_v6lfw9cog9","5d269fedf6dec40019b87a59","freq_resp","","","img/blue_2bandit_b.png","70","img/blue_2bandit_b.png","70","test","","","","","","","","","","","5","","","","","","","","",""
"null","1237534","SARL_v6","SARL_v6lfw9cog9","5d269fedf6dec40019b87a59","fixation","","","img/fixation.png","null","","","test","","","","","","","","","","","","","","","","","","","",""
"409","1237945","SARL_v6","SARL_v6lfw9cog9","5d269fedf6dec40019b87a59","infreq","","","img/orange_2bandit_b2.png","68","","68","test","1","","94","","","","circle","square","90","6","5","0.9777777777777777","","","","","","","",""
"null","1238353","SARL_v6","SARL_v6lfw9cog9","5d269fedf6dec40019b87a59","infreq_resp","","","img/orange_2bandit_b.png","68","img/orange_2bandit_b.png","68","test","","","","","","","","","","","5","","","","","","","","",""
"null","1238509","SARL_v6","SARL_v6lfw9cog9","5d269fedf6dec40019b87a59","fixation","","","img/fixation.png","null","","","test","","","","","","","","","","","","","","","","","","","",""
"353.89999997615814","1238865","SARL_v6","SARL_v6lfw9cog9","5d269fedf6dec40019b87a59","freq","","","img/blue_2bandit_b2.png","70","","70","test","1","","95","","","","circle","square","91","7","5","0.978021978021978","","","","","","","",""
"null","1239317","SARL_v6","SARL_v6lfw9cog9","5d269fedf6dec40019b87a59","freq_resp","","","img/blue_2bandit_b.png","70","img/blue_2bandit_b.png","70","test","","","","","","","","","","","5","","","","","","","","",""
"null","1239474","SARL_v6","SARL_v6lfw9cog9","5d269fedf6dec40019b87a59","fixation","","","img/fixation.png","null","","","test","","","","","","","","","","","","","","","","","","","",""
"317.2000000178814","1239793","SARL_v6","SARL_v6lfw9cog9","5d269fedf6dec40019b87a59","freq","","","img/blue_2bandit_b2.png","70","","70","test","1","","96","","","","circle","square","92","8","5","0.9782608695652174","","","","","","","",""
"null","1240288","SARL_v6","SARL_v6lfw9cog9","5d269fedf6dec40019b87a59","freq_resp","","","img/blue_2bandit_b.png","70","img/blue_2bandit_b.png","70","test","","","","","","","","","","","5","","","","","","","","",""
"null","1240440","SARL_v6","SARL_v6lfw9cog9","5d269fedf6dec40019b87a59","fixation","","","img/fixation.png","null","","","test","","","","","","","","","","","","","","","","","","","",""
"327.30000001192093","1240770","SARL_v6","SARL_v6lfw9cog9","5d269fedf6dec40019b87a59","freq","","","img/blue_2bandit_b2.png","70","","70","test","1","","97","","","","circle","square","93","9","5","0.978494623655914","","","","","","","",""
"null","1241256","SARL_v6","SARL_v6lfw9cog9","5d269fedf6dec40019b87a59","freq_resp","","","img/blue_2bandit_b.png","70","img/blue_2bandit_b.png","70","test","","","","","","","","","","","5","","","","","","","","",""
"null","1241413","SARL_v6","SARL_v6lfw9cog9","5d269fedf6dec40019b87a59","fixation","","","img/fixation.png","null","","","test","","","","","","","","","","","","","","","","","","","",""
"322.7000000178814","1241736","SARL_v6","SARL_v6lfw9cog9","5d269fedf6dec40019b87a59","freq","","","img/blue_2bandit_b2.png","70","","70","test","1","","98","","","","circle","square","94","10","5","0.9787234042553191","","","","","","","",""
"null","1242221","SARL_v6","SARL_v6lfw9cog9","5d269fedf6dec40019b87a59","freq_resp","","","img/blue_2bandit_b.png","70","img/blue_2bandit_b.png","70","test","","","","","","","","","","","5","","","","","","","","",""
"null","1242378","SARL_v6","SARL_v6lfw9cog9","5d269fedf6dec40019b87a59","fixation","","","img/fixation.png","null","","","test","","","","","","","","","","","","","","","","","","","",""
"373.5","1242754","SARL_v6","SARL_v6lfw9cog9","5d269fedf6dec40019b87a59","freq","","","img/blue_2bandit_b2.png","70","","70","test","1","","99","","","","circle","square","95","11","5","0.9789473684210527","","","","","","","",""
"null","1243188","SARL_v6","SARL_v6lfw9cog9","5d269fedf6dec40019b87a59","freq_resp","","","img/blue_2bandit_b.png","70","img/blue_2bandit_b.png","70","test","","","","","","","","","","","5","","","","","","","","",""
"null","1243346","SARL_v6","SARL_v6lfw9cog9","5d269fedf6dec40019b87a59","fixation","","","img/fixation.png","null","","","test","","","","","","","","","","","","","","","","","","","",""
"333.5","1243681","SARL_v6","SARL_v6lfw9cog9","5d269fedf6dec40019b87a59","freq","","","img/blue_2bandit_b2.png","70","","70","test","1","","100","","","","circle","square","96","12","5","0.9791666666666666","","","","","","","",""
"null","1244159","SARL_v6","SARL_v6lfw9cog9","5d269fedf6dec40019b87a59","freq_resp","","","img/blue_2bandit_b.png","70","img/blue_2bandit_b.png","70","test","","","","","","","","","","","5","","","","","","","","",""
"null","1244316","SARL_v6","SARL_v6lfw9cog9","5d269fedf6dec40019b87a59","fixation","","","img/fixation.png","null","","","test","","","","","","","","","","","","","","","","","","","",""
"339.40000000596046","1244657","SARL_v6","SARL_v6lfw9cog9","5d269fedf6dec40019b87a59","freq","","","img/blue_2bandit_b2.png","70","","70","test","1","","101","","","","circle","square","97","13","5","0.979381443298969","","","","","","","",""
"null","1245126","SARL_v6","SARL_v6lfw9cog9","5d269fedf6dec40019b87a59","freq_resp","","","img/blue_2bandit_b.png","70","img/blue_2bandit_b.png","70","test","","","","","","","","","","","5","","","","","","","","",""
"null","1245283","SARL_v6","SARL_v6lfw9cog9","5d269fedf6dec40019b87a59","fixation","","","img/fixation.png","null","","","test","","","","","","","","","","","","","","","","","","","",""
"308","1245593","SARL_v6","SARL_v6lfw9cog9","5d269fedf6dec40019b87a59","freq","","","img/blue_2bandit_b2.png","70","","70","test","1","","102","","","","circle","square","98","14","5","0.9795918367346939","","","","","","","",""
"null","1246091","SARL_v6","SARL_v6lfw9cog9","5d269fedf6dec40019b87a59","freq_resp","","","img/blue_2bandit_b.png","70","img/blue_2bandit_b.png","70","test","","","","","","","","","","","5","","","","","","","","",""
"null","1246246","SARL_v6","SARL_v6lfw9cog9","5d269fedf6dec40019b87a59","fixation","","","img/fixation.png","null","","","test","","","","","","","","","","","","","","","","","","","",""
"401.2999999821186","1246649","SARL_v6","SARL_v6lfw9cog9","5d269fedf6dec40019b87a59","infreq","","","img/orange_2bandit_b2.png","68","","68","test","1","","103","","","","circle","square","99","15","5","0.9797979797979798","","","","","","","",""
"null","1247057","SARL_v6","SARL_v6lfw9cog9","5d269fedf6dec40019b87a59","infreq_resp","","","img/orange_2bandit_b.png","68","img/orange_2bandit_b.png","68","test","","","","","","","","","","","5","","","","","","","","",""
"null","1247214","SARL_v6","SARL_v6lfw9cog9","5d269fedf6dec40019b87a59","fixation","","","img/fixation.png","null","","","test","","","","","","","","","","","","","","","","","","","",""
"425.2000000178814","1247641","SARL_v6","SARL_v6lfw9cog9","5d269fedf6dec40019b87a59","freq","","","img/blue_2bandit_b2.png","70","","70","test","1","","104","","","","circle","square","100","16","5","0.98","","","","","","","",""
"null","1248024","SARL_v6","SARL_v6lfw9cog9","5d269fedf6dec40019b87a59","freq_resp","","","img/blue_2bandit_b.png","70","img/blue_2bandit_b.png","70","test","","","","","","","","","","","5","","","","","","","","",""
"null","1248180","SARL_v6","SARL_v6lfw9cog9","5d269fedf6dec40019b87a59","fixation","","","img/fixation.png","null","","","test","","","","","","","","","","","","","","","","","","","",""
"330.90000000596046","1248514","SARL_v6","SARL_v6lfw9cog9","5d269fedf6dec40019b87a59","freq","","","img/blue_2bandit_b2.png","70","","70","test","1","","105","","","","circle","square","101","17","5","0.9801980198019802","","","","","","","",""
"null","1248991","SARL_v6","SARL_v6lfw9cog9","5d269fedf6dec40019b87a59","freq_resp","","","img/blue_2bandit_b.png","70","img/blue_2bandit_b.png","70","test","","","","","","","","","","","5","","","","","","","","",""
"null","1249147","SARL_v6","SARL_v6lfw9cog9","5d269fedf6dec40019b87a59","fixation","","","img/fixation.png","null","","","test","","","","","","","","","","","","","","","","","","","",""
"324.7000000178814","1249473","SARL_v6","SARL_v6lfw9cog9","5d269fedf6dec40019b87a59","freq","","","img/blue_2bandit_b2.png","70","","70","test","1","","106","","","","circle","square","102","18","5","0.9803921568627451","","","","","","","",""
"null","1249957","SARL_v6","SARL_v6lfw9cog9","5d269fedf6dec40019b87a59","freq_resp","","","img/blue_2bandit_b.png","70","img/blue_2bandit_b.png","70","test","","","","","","","","","","","5","","","","","","","","",""
"null","1250114","SARL_v6","SARL_v6lfw9cog9","5d269fedf6dec40019b87a59","fixation","","","img/fixation.png","null","","","test","","","","","","","","","","","","","","","","","","","",""
"340.60000002384186","1250456","SARL_v6","SARL_v6lfw9cog9","5d269fedf6dec40019b87a59","freq","","","img/blue_2bandit_b2.png","70","","70","test","1","","107","","","","circle","square","103","19","5","0.9805825242718447","","","","","","","",""
"null","1250928","SARL_v6","SARL_v6lfw9cog9","5d269fedf6dec40019b87a59","freq_resp","","","img/blue_2bandit_b.png","70","img/blue_2bandit_b.png","70","test","","","","","","","","","","","5","","","","","","","","",""
"null","1251086","SARL_v6","SARL_v6lfw9cog9","5d269fedf6dec40019b87a59","fixation","","","img/fixation.png","null","","","test","","","","","","","","","","","","","","","","","","","",""
"337.5","1251425","SARL_v6","SARL_v6lfw9cog9","5d269fedf6dec40019b87a59","freq","","","img/blue_2bandit_b2.png","70","","70","test","1","","108","","","","circle","square","104","20","5","0.9807692307692307","","","","","","","",""
"null","1251898","SARL_v6","SARL_v6lfw9cog9","5d269fedf6dec40019b87a59","freq_resp","","","img/blue_2bandit_b.png","70","img/blue_2bandit_b.png","70","test","","","","","","","","","","","5","","","","","","","","",""
"null","1252054","SARL_v6","SARL_v6lfw9cog9","5d269fedf6dec40019b87a59","fixation","","","img/fixation.png","null","","","test","","","","","","","","","","","","","","","","","","","",""
"777.1999999880791","1252832","SARL_v6","SARL_v6lfw9cog9","5d269fedf6dec40019b87a59","rl","","","img/black_2bandit_b2.png","74","","0","test","","","109","","","4","circle","square","","0","5","","74","4","-7","4","-7","circle","5","0"
"null","1253587","SARL_v6","SARL_v6lfw9cog9","5d269fedf6dec40019b87a59","feedback","","","<div class=""veryhighPoints""> 4 </div>","null","","na","test","","","NaN","","","","","","","","5","","74","","","","","","5",""
"636.8000000119209","1254225","SARL_v6","SARL_v6lfw9cog9","5d269fedf6dec40019b87a59","freq","","","img/blue_2bandit_b2.png","70","","70","test","1","","110","","","","circle","square","105","1","6","0.9809523809523809","","","","","","","",""
"null","1254402","SARL_v6","SARL_v6lfw9cog9","5d269fedf6dec40019b87a59","freq_resp","","","img/blue_2bandit_b.png","70","img/blue_2bandit_b.png","70","test","","","","","","","","","","","6","","","","","","","","",""
"null","1254554","SARL_v6","SARL_v6lfw9cog9","5d269fedf6dec40019b87a59","fixation","","","img/fixation.png","null","","","test","","","","","","","","","","","","","","","","","","","",""
"405.90000000596046","1254962","SARL_v6","SARL_v6lfw9cog9","5d269fedf6dec40019b87a59","infreq","","","img/orange_2bandit_b2.png","68","","68","test","1","","111","","","","circle","square","106","2","6","0.9811320754716981","","","","","","","",""
"null","1255372","SARL_v6","SARL_v6lfw9cog9","5d269fedf6dec40019b87a59","infreq_resp","","","img/orange_2bandit_b.png","68","img/orange_2bandit_b.png","68","test","","","","","","","","","","","6","","","","","","","","",""
"null","1255527","SARL_v6","SARL_v6lfw9cog9","5d269fedf6dec40019b87a59","fixation","","","img/fixation.png","null","","","test","","","","","","","","","","","","","","","","","","","",""
"415.7000000178814","1255946","SARL_v6","SARL_v6lfw9cog9","5d269fedf6dec40019b87a59","freq","","","img/blue_2bandit_b2.png","70","","70","test","1","","112","","","","circle","square","107","3","6","0.9813084112149533","","","","","","","",""
"null","1256336","SARL_v6","SARL_v6lfw9cog9","5d269fedf6dec40019b87a59","freq_resp","","","img/blue_2bandit_b.png","70","img/blue_2bandit_b.png","70","test","","","","","","","","","","","6","","","","","","","","",""
"null","1256494","SARL_v6","SARL_v6lfw9cog9","5d269fedf6dec40019b87a59","fixation","","","img/fixation.png","null","","","test","","","","","","","","","","","","","","","","","","","",""
"329.30000001192093","1256825","SARL_v6","SARL_v6lfw9cog9","5d269fedf6dec40019b87a59","freq","","","img/blue_2bandit_b2.png","70","","70","test","1","","113","","","","circle","square","108","4","6","0.9814814814814815","","","","","","","",""
"null","1257304","SARL_v6","SARL_v6lfw9cog9","5d269fedf6dec40019b87a59","freq_resp","","","img/blue_2bandit_b.png","70","img/blue_2bandit_b.png","70","test","","","","","","","","","","","6","","","","","","","","",""
"null","1257459","SARL_v6","SARL_v6lfw9cog9","5d269fedf6dec40019b87a59","fixation","","","img/fixation.png","null","","","test","","","","","","","","","","","","","","","","","","","",""
"324.40000000596046","1257784","SARL_v6","SARL_v6lfw9cog9","5d269fedf6dec40019b87a59","freq","","","img/blue_2bandit_b2.png","70","","70","test","1","","114","","","","circle","square","109","5","6","0.981651376146789","","","","","","","",""
"null","1258270","SARL_v6","SARL_v6lfw9cog9","5d269fedf6dec40019b87a59","freq_resp","","","img/blue_2bandit_b.png","70","img/blue_2bandit_b.png","70","test","","","","","","","","","","","6","","","","","","","","",""
"null","1258427","SARL_v6","SARL_v6lfw9cog9","5d269fedf6dec40019b87a59","fixation","","","img/fixation.png","null","","","test","","","","","","","","","","","","","","","","","","","",""
"339.60000002384186","1258769","SARL_v6","SARL_v6lfw9cog9","5d269fedf6dec40019b87a59","freq","","","img/blue_2bandit_b2.png","70","","70","test","1","","115","","","","circle","square","110","6","6","0.9818181818181818","","","","","","","",""
"null","1259234","SARL_v6","SARL_v6lfw9cog9","5d269fedf6dec40019b87a59","freq_resp","","","img/blue_2bandit_b.png","70","img/blue_2bandit_b.png","70","test","","","","","","","","","","","6","","","","","","","","",""
"null","1259391","SARL_v6","SARL_v6lfw9cog9","5d269fedf6dec40019b87a59","fixation","","","img/fixation.png","null","","","test","","","","","","","","","","","","","","","","","","","",""
"304.60000002384186","1259697","SARL_v6","SARL_v6lfw9cog9","5d269fedf6dec40019b87a59","freq","","","img/blue_2bandit_b2.png","70","","70","test","1","","116","","","","circle","square","111","7","6","0.9819819819819819","","","","","","","",""
"null","1260202","SARL_v6","SARL_v6lfw9cog9","5d269fedf6dec40019b87a59","freq_resp","","","img/blue_2bandit_b.png","70","img/blue_2bandit_b.png","70","test","","","","","","","","","","","6","","","","","","","","",""
"null","1260358","SARL_v6","SARL_v6lfw9cog9","5d269fedf6dec40019b87a59","fixation","","","img/fixation.png","null","","","test","","","","","","","","","","","","","","","","","","","",""
"322","1260681","SARL_v6","SARL_v6lfw9cog9","5d269fedf6dec40019b87a59","freq","","","img/blue_2bandit_b2.png","70","","70","test","1","","117","","","","circle","square","112","8","6","0.9821428571428571","","","","","","","",""
"null","1261174","SARL_v6","SARL_v6lfw9cog9","5d269fedf6dec40019b87a59","freq_resp","","","img/blue_2bandit_b.png","70","img/blue_2bandit_b.png","70","test","","","","","","","","","","","6","","","","","","","","",""
"null","1261327","SARL_v6","SARL_v6lfw9cog9","5d269fedf6dec40019b87a59","fixation","","","img/fixation.png","null","","","test","","","","","","","","","","","","","","","","","","","",""
"312.40000000596046","1261641","SARL_v6","SARL_v6lfw9cog9","5d269fedf6dec40019b87a59","freq","","","img/blue_2bandit_b2.png","70","","70","test","1","","118","","","","circle","square","113","9","6","0.9823008849557522","","","","","","","",""
"null","1262144","SARL_v6","SARL_v6lfw9cog9","5d269fedf6dec40019b87a59","freq_resp","","","img/blue_2bandit_b.png","70","img/blue_2bandit_b.png","70","test","","","","","","","","","","","6","","","","","","","","",""
"null","1262301","SARL_v6","SARL_v6lfw9cog9","5d269fedf6dec40019b87a59","fixation","","","img/fixation.png","null","","","test","","","","","","","","","","","","","","","","","","","",""
"289.7000000178814","1262593","SARL_v6","SARL_v6lfw9cog9","5d269fedf6dec40019b87a59","freq","","","img/blue_2bandit_b2.png","70","","70","test","1","","119","","","","circle","square","114","10","6","0.9824561403508771","","","","","","","",""
"null","1263110","SARL_v6","SARL_v6lfw9cog9","5d269fedf6dec40019b87a59","freq_resp","","","img/blue_2bandit_b.png","70","img/blue_2bandit_b.png","70","test","","","","","","","","","","","6","","","","","","","","",""
"null","1263268","SARL_v6","SARL_v6lfw9cog9","5d269fedf6dec40019b87a59","fixation","","","img/fixation.png","null","","","test","","","","","","","","","","","","","","","","","","","",""
"299.09999999403954","1263568","SARL_v6","SARL_v6lfw9cog9","5d269fedf6dec40019b87a59","freq","","","img/blue_2bandit_b2.png","70","","70","test","1","","120","","","","circle","square","115","11","6","0.9826086956521739","","","","","","","",""
"null","1264076","SARL_v6","SARL_v6lfw9cog9","5d269fedf6dec40019b87a59","freq_resp","","","img/blue_2bandit_b.png","70","img/blue_2bandit_b.png","70","test","","","","","","","","","","","6","","","","","","","","",""
"null","1264234","SARL_v6","SARL_v6lfw9cog9","5d269fedf6dec40019b87a59","fixation","","","img/fixation.png","null","","","test","","","","","","","","","","","","","","","","","","","",""
"301.5","1264537","SARL_v6","SARL_v6lfw9cog9","5d269fedf6dec40019b87a59","freq","","","img/blue_2bandit_b2.png","70","","70","test","1","","121","","","","circle","square","116","12","6","0.9827586206896551","","","","","","","",""
"null","1265045","SARL_v6","SARL_v6lfw9cog9","5d269fedf6dec40019b87a59","freq_resp","","","img/blue_2bandit_b.png","70","img/blue_2bandit_b.png","70","test","","","","","","","","","","","6","","","","","","","","",""
"null","1265201","SARL_v6","SARL_v6lfw9cog9","5d269fedf6dec40019b87a59","fixation","","","img/fixation.png","null","","","test","","","","","","","","","","","","","","","","","","","",""
"294.80000001192093","1265498","SARL_v6","SARL_v6lfw9cog9","5d269fedf6dec40019b87a59","freq","","","img/blue_2bandit_b2.png","70","","70","test","1","","122","","","","circle","square","117","13","6","0.9829059829059829","","","","","","","",""
"null","1266012","SARL_v6","SARL_v6lfw9cog9","5d269fedf6dec40019b87a59","freq_resp","","","img/blue_2bandit_b.png","70","img/blue_2bandit_b.png","70","test","","","","","","","","","","","6","","","","","","","","",""
"null","1266168","SARL_v6","SARL_v6lfw9cog9","5d269fedf6dec40019b87a59","fixation","","","img/fixation.png","null","","","test","","","","","","","","","","","","","","","","","","","",""
"351.2000000178814","1266521","SARL_v6","SARL_v6lfw9cog9","5d269fedf6dec40019b87a59","freq","","","img/blue_2bandit_b2.png","70","","70","test","1","","123","","","","circle","square","118","14","6","0.9830508474576272","","","","","","","",""
"null","1266982","SARL_v6","SARL_v6lfw9cog9","5d269fedf6dec40019b87a59","freq_resp","","","img/blue_2bandit_b.png","70","img/blue_2bandit_b.png","70","test","","","","","","","","","","","6","","","","","","","","",""
"null","1267139","SARL_v6","SARL_v6lfw9cog9","5d269fedf6dec40019b87a59","fixation","","","img/fixation.png","null","","","test","","","","","","","","","","","","","","","","","","","",""
"292.10000002384186","1267433","SARL_v6","SARL_v6lfw9cog9","5d269fedf6dec40019b87a59","freq","","","img/blue_2bandit_b2.png","70","","70","test","1","","124","","","","circle","square","119","15","6","0.9831932773109243","","","","","","","",""
"null","1267950","SARL_v6","SARL_v6lfw9cog9","5d269fedf6dec40019b87a59","freq_resp","","","img/blue_2bandit_b.png","70","img/blue_2bandit_b.png","70","test","","","","","","","","","","","6","","","","","","","","",""
"null","1268103","SARL_v6","SARL_v6lfw9cog9","5d269fedf6dec40019b87a59","fixation","","","img/fixation.png","null","","","test","","","","","","","","","","","","","","","","","","","",""
"305.2000000178814","1268410","SARL_v6","SARL_v6lfw9cog9","5d269fedf6dec40019b87a59","freq","","","img/blue_2bandit_b2.png","70","","70","test","1","","125","","","","circle","square","120","16","6","0.9833333333333333","","","","","","","",""
"null","1268916","SARL_v6","SARL_v6lfw9cog9","5d269fedf6dec40019b87a59","freq_resp","","","img/blue_2bandit_b.png","70","img/blue_2bandit_b.png","70","test","","","","","","","","","","","6","","","","","","","","",""
"null","1269070","SARL_v6","SARL_v6lfw9cog9","5d269fedf6dec40019b87a59","fixation","","","img/fixation.png","null","","","test","","","","","","","","","","","","","","","","","","","",""
"289.60000002384186","1269361","SARL_v6","SARL_v6lfw9cog9","5d269fedf6dec40019b87a59","freq","","","img/blue_2bandit_b2.png","70","","70","test","1","","126","","","","circle","square","121","17","6","0.9834710743801653","","","","","","","",""
"null","1269880","SARL_v6","SARL_v6lfw9cog9","5d269fedf6dec40019b87a59","freq_resp","","","img/blue_2bandit_b.png","70","img/blue_2bandit_b.png","70","test","","","","","","","","","","","6","","","","","","","","",""
"null","1270036","SARL_v6","SARL_v6lfw9cog9","5d269fedf6dec40019b87a59","fixation","","","img/fixation.png","null","","","test","","","","","","","","","","","","","","","","","","","",""
"299.40000000596046","1270336","SARL_v6","SARL_v6lfw9cog9","5d269fedf6dec40019b87a59","freq","","","img/blue_2bandit_b2.png","70","","70","test","1","","127","","","","circle","square","122","18","6","0.9836065573770492","","","","","","","",""
"null","1270852","SARL_v6","SARL_v6lfw9cog9","5d269fedf6dec40019b87a59","freq_resp","","","img/blue_2bandit_b.png","70","img/blue_2bandit_b.png","70","test","","","","","","","","","","","6","","","","","","","","",""
"null","1271003","SARL_v6","SARL_v6lfw9cog9","5d269fedf6dec40019b87a59","fixation","","","img/fixation.png","null","","","test","","","","","","","","","","","","","","","","","","","",""
"276.40000000596046","1271281","SARL_v6","SARL_v6lfw9cog9","5d269fedf6dec40019b87a59","freq","","","img/blue_2bandit_b2.png","70","","70","test","1","","128","","","","circle","square","123","19","6","0.983739837398374","","","","","","","",""
"null","1271817","SARL_v6","SARL_v6lfw9cog9","5d269fedf6dec40019b87a59","freq_resp","","","img/blue_2bandit_b.png","70","img/blue_2bandit_b.png","70","test","","","","","","","","","","","6","","","","","","","","",""
"null","1271972","SARL_v6","SARL_v6lfw9cog9","5d269fedf6dec40019b87a59","fixation","","","img/fixation.png","null","","","test","","","","","","","","","","","","","","","","","","","",""
"434.69999998807907","1272409","SARL_v6","SARL_v6lfw9cog9","5d269fedf6dec40019b87a59","infreq","","","img/orange_2bandit_b2.png","68","","68","test","1","","129","","","","circle","square","124","20","6","0.9838709677419355","","","","","","","",""
