"rt","time_elapsed","expId","subject","prolificID","trialType","rlType","attType","stimulus","key_press","stim","corrresp","phase","corr","pracCounter","trialNum","rewardOne","rewardTwo","reward","bandOne","bandTwo","attentionNum","attentionRunNum","blockNum","performance","bandChosen","circleVal","squareVal","bandOneVal","bandTwoVal","shapeChosen","rlNum","badFlag"
"8475.399999976158","8478","SARL_v6","SARL_v6nt101pvk","629e241d171ec6698e05f149","","","","","","","","","","","","","","","","","","","","","","","","","","","",""
"","10872","SARL_v6","SARL_v6nt101pvk","629e241d171ec6698e05f149","fullscreen","fullscreen","fullscreen","","","","","","","","","","","","","","","","","","","","","","","","",""
"49618","60491","SARL_v6","SARL_v6nt101pvk","629e241d171ec6698e05f149","","","","","","","","","","","","","","","","","","","","","","","","","","","",""
"null","61295","SARL_v6","SARL_v6nt101pvk","629e241d171ec6698e05f149","freqPrac","","","img/blue_2bandit_b2.png","null","img/blue_2bandit_b2.png","70","prac","0","1","","","","","","","","","","","","","","","","","",""
"null","62302","SARL_v6","SARL_v6nt101pvk","629e241d171ec6698e05f149","feedback","","","img/tooSlow.png","null","","na","prac","","","","","","","","","","","","","","","","","","","",""
"null","62460","SARL_v6","SARL_v6nt101pvk","629e241d171ec6698e05f149","fixation","","","img/fixation.png","null","","","prac","","","","","","","","","","","","","","","","","","","",""
"614.2000000476837","63076","SARL_v6","SARL_v6nt101pvk","629e241d171ec6698e05f149","infreqPrac","","","img/orange_2bandit_b2.png","68","img/orange_2bandit_b2.png","68","prac","1","1","","","","","","","","","","","","","","","","","",""
"614.2000000476837","63269","SARL_v6","SARL_v6nt101pvk","629e241d171ec6698e05f149","infreqPrac_resp","","","img/orange_2bandit_b.png","68","img/orange_2bandit_b.png","68","prac","","","","","","","","","","","","","","","","","","","",""
"null","63428","SARL_v6","SARL_v6nt101pvk","629e241d171ec6698e05f149","fixation","","","img/fixation.png","null","","","prac","","","","","","","","","","","","","","","","","","","",""
"670.2000000476837","64099","SARL_v6","SARL_v6nt101pvk","629e241d171ec6698e05f149","freqPrac","","","img/blue_2bandit_b2.png","68","img/blue_2bandit_b2.png","70","prac","0","2","","","","","","","","","","","","","","","","","",""
"670.2000000476837","64238","SARL_v6","SARL_v6nt101pvk","629e241d171ec6698e05f149","freqPrac_resp","","","img/blue_2bandit_b.png","68","img/blue_2bandit_b.png","70","prac","","","","","","","","","","","","","","","","","","","",""
"null","65250","SARL_v6","SARL_v6nt101pvk","629e241d171ec6698e05f149","feedback","","","img/wrongKey.png","null","","na","prac","","","","","","","","","","","","","","","","","","","",""
"null","65410","SARL_v6","SARL_v6nt101pvk","629e241d171ec6698e05f149","fixation","","","img/fixation.png","null","","","prac","","","","","","","","","","","","","","","","","","","",""
"480.2000000476837","65891","SARL_v6","SARL_v6nt101pvk","629e241d171ec6698e05f149","infreqPrac","","","img/orange_2bandit_b2.png","70","img/orange_2bandit_b2.png","68","prac","0","3","","","","","","","","","","","","","","","","","",""
"480.2000000476837","66220","SARL_v6","SARL_v6nt101pvk","629e241d171ec6698e05f149","infreqPrac_resp","","","img/orange_2bandit_b.png","70","img/orange_2bandit_b.png","68","prac","","","","","","","","","","","","","","","","","","","",""
"null","67231","SARL_v6","SARL_v6nt101pvk","629e241d171ec6698e05f149","feedback","","","img/wrongKey.png","null","","na","prac","","","","","","","","","","","","","","","","","","","",""
"null","67388","SARL_v6","SARL_v6nt101pvk","629e241d171ec6698e05f149","fixation","","","img/fixation.png","null","","","prac","","","","","","","","","","","","","","","","","","","",""
"286.10000002384186","67676","SARL_v6","SARL_v6nt101pvk","629e241d171ec6698e05f149","infreqPrac","","","img/orange_2bandit_b2.png","68","img/orange_2bandit_b2.png","68","prac","1","3","","","","","","","","","","","","","","","","","",""
"286.10000002384186","68196","SARL_v6","SARL_v6nt101pvk","629e241d171ec6698e05f149","infreqPrac_resp","","","img/orange_2bandit_b.png","68","img/orange_2bandit_b.png","68","prac","","","","","","","","","","","","","","","","","","","",""
"null","68356","SARL_v6","SARL_v6nt101pvk","629e241d171ec6698e05f149","fixation","","","img/fixation.png","null","","","prac","","","","","","","","","","","","","","","","","","","",""
"462.5","68820","SARL_v6","SARL_v6nt101pvk","629e241d171ec6698e05f149","infreqPrac","","","img/orange_2bandit_b2.png","68","img/orange_2bandit_b2.png","68","prac","1","3","","","","","","","","","","","","","","","","","",""
"462.5","69163","SARL_v6","SARL_v6nt101pvk","629e241d171ec6698e05f149","infreqPrac_resp","","","img/orange_2bandit_b.png","68","img/orange_2bandit_b.png","68","prac","","","","","","","","","","","","","","","","","","","",""
"null","69318","SARL_v6","SARL_v6nt101pvk","629e241d171ec6698e05f149","fixation","","","img/fixation.png","null","","","prac","","","","","","","","","","","","","","","","","","","",""
"485","69804","SARL_v6","SARL_v6nt101pvk","629e241d171ec6698e05f149","freqPrac","","","img/blue_2bandit_b2.png","70","img/blue_2bandit_b2.png","70","prac","1","3","","","","","","","","","","","","","","","","","",""
"485","70127","SARL_v6","SARL_v6nt101pvk","629e241d171ec6698e05f149","freqPrac_resp","","","img/blue_2bandit_b.png","70","img/blue_2bandit_b.png","70","prac","","","","","","","","","","","","","","","","","","","",""
"null","70285","SARL_v6","SARL_v6nt101pvk","629e241d171ec6698e05f149","fixation","","","img/fixation.png","null","","","prac","","","","","","","","","","","","","","","","","","","",""
"430.1999999284744","70718","SARL_v6","SARL_v6nt101pvk","629e241d171ec6698e05f149","infreqPrac","","","img/orange_2bandit_b2.png","68","img/orange_2bandit_b2.png","68","prac","1","3","","","","","","","","","","","","","","","","","",""
"430.1999999284744","71093","SARL_v6","SARL_v6nt101pvk","629e241d171ec6698e05f149","infreqPrac_resp","","","img/orange_2bandit_b.png","68","img/orange_2bandit_b.png","68","prac","","","","","","","","","","","","","","","","","","","",""
"null","71248","SARL_v6","SARL_v6nt101pvk","629e241d171ec6698e05f149","fixation","","","img/fixation.png","null","","","prac","","","","","","","","","","","","","","","","","","","",""
"386.7999999523163","71636","SARL_v6","SARL_v6nt101pvk","629e241d171ec6698e05f149","freqPrac","","","img/blue_2bandit_b2.png","70","img/blue_2bandit_b2.png","70","prac","1","3","","","","","","","","","","","","","","","","","",""
"386.7999999523163","72052","SARL_v6","SARL_v6nt101pvk","629e241d171ec6698e05f149","freqPrac_resp","","","img/blue_2bandit_b.png","70","img/blue_2bandit_b.png","70","prac","","","","","","","","","","","","","","","","","","","",""
"null","72210","SARL_v6","SARL_v6nt101pvk","629e241d171ec6698e05f149","fixation","","","img/fixation.png","null","","","prac","","","","","","","","","","","","","","","","","","","",""
"448.7999999523163","72661","SARL_v6","SARL_v6nt101pvk","629e241d171ec6698e05f149","freqPrac","","","img/blue_2bandit_b2.png","70","img/blue_2bandit_b2.png","70","prac","1","3","","","","","","","","","","","","","","","","","",""
"448.7999999523163","73018","SARL_v6","SARL_v6nt101pvk","629e241d171ec6698e05f149","freqPrac_resp","","","img/blue_2bandit_b.png","70","img/blue_2bandit_b.png","70","prac","","","","","","","","","","","","","","","","","","","",""
"null","73178","SARL_v6","SARL_v6nt101pvk","629e241d171ec6698e05f149","fixation","","","img/fixation.png","null","","","prac","","","","","","","","","","","","","","","","","","","",""
"20842.200000047684","94021","SARL_v6","SARL_v6nt101pvk","629e241d171ec6698e05f149","","","","","","","","prac","","","","","","","","","","","","","","","","","","","",""
"1497.2000000476837","95520","SARL_v6","SARL_v6nt101pvk","629e241d171ec6698e05f149","rlPractice","","","img/black_2bandit_b2.png","75","img/black_2bandit_b2.png","","prac","","","0","","","","","","","","","","","","","","","","",""
"null","96281","SARL_v6","SARL_v6nt101pvk","629e241d171ec6698e05f149","feedback","","","<div class=""verylowPoints_sq""> -14 </div>","null","","na","prac","","","1","10","-14","10","","","","","","","","","","","","","",""
"null","96441","SARL_v6","SARL_v6nt101pvk","629e241d171ec6698e05f149","fixation","","","img/fixation.png","null","","","prac","","","","","","","","","","","","","","","","","","","",""
"637.3999999761581","97080","SARL_v6","SARL_v6nt101pvk","629e241d171ec6698e05f149","rlPractice","","","img/black_2bandit_b2.png","74","img/black_2bandit_b2.png","","prac","","","1","","","","","","","","","","","","","","","","",""
"null","97832","SARL_v6","SARL_v6nt101pvk","629e241d171ec6698e05f149","feedback","","","<div class=""veryhighPoints""> 5 </div>","null","","na","prac","","","2","5","-5","5","","","","","","","","","","","","","",""
"null","97988","SARL_v6","SARL_v6nt101pvk","629e241d171ec6698e05f149","fixation","","","img/fixation.png","null","","","prac","","","","","","","","","","","","","","","","","","","",""
"410.7000000476837","98400","SARL_v6","SARL_v6nt101pvk","629e241d171ec6698e05f149","rlPractice","","","img/black_2bandit_b2.png","74","img/black_2bandit_b2.png","","prac","","","2","","","","","","","","","","","","","","","","",""
"null","99159","SARL_v6","SARL_v6nt101pvk","629e241d171ec6698e05f149","feedback","","","<div class=""veryhighPoints""> 30 </div>","null","","na","prac","","","3","30","2","30","","","","","","","","","","","","","",""
"null","99319","SARL_v6","SARL_v6nt101pvk","629e241d171ec6698e05f149","fixation","","","img/fixation.png","null","","","prac","","","","","","","","","","","","","","","","","","","",""
"512.3999999761581","99832","SARL_v6","SARL_v6nt101pvk","629e241d171ec6698e05f149","rlPractice","","","img/black_2bandit_b2.png","74","img/black_2bandit_b2.png","","prac","","","3","","","","","","","","","","","","","","","","",""
"null","100589","SARL_v6","SARL_v6nt101pvk","629e241d171ec6698e05f149","feedback","","","<div class=""verylowPoints""> -2 </div>","null","","na","prac","","","4","-2","20","-2","","","","","","","","","","","","","",""
"null","100746","SARL_v6","SARL_v6nt101pvk","629e241d171ec6698e05f149","fixation","","","img/fixation.png","null","","","prac","","","","","","","","","","","","","","","","","","","",""
"4158.199999928474","104905","SARL_v6","SARL_v6nt101pvk","629e241d171ec6698e05f149","","","","","","","","prac","","","","","","","","","","","","","","","","","","","",""
"null","105707","SARL_v6","SARL_v6nt101pvk","629e241d171ec6698e05f149","mixAttFreqPrac","","","img/blue_2bandit_b2.png","null","img/blue_2bandit_b2.png","70","prac","","","1","","","","","","","","","","","","","","","","",""
"null","105865","SARL_v6","SARL_v6nt101pvk","629e241d171ec6698e05f149","fixation","","","img/fixation.png","null","","","prac","","","","","","","","","","","","","","","","","","","",""
"38.90000009536743","105905","SARL_v6","SARL_v6nt101pvk","629e241d171ec6698e05f149","mixAttInfreqPrac","","","img/orange_2bandit_b2.png","70","img/orange_2bandit_b2.png","68","prac","","","2","","","","","","","","","","","","","","","","",""
"38.90000009536743","106682","SARL_v6","SARL_v6nt101pvk","629e241d171ec6698e05f149","infreqPrac_resp","","","img/orange_2bandit_b.png","70","img/blue_2bandit_b.png","68","prac","","","2","","","","","","","","","","","","","","","","",""
"null","106842","SARL_v6","SARL_v6nt101pvk","629e241d171ec6698e05f149","fixation","","","img/fixation.png","null","","","prac","","","","","","","","","","","","","","","","","","","",""
"478.40000009536743","107322","SARL_v6","SARL_v6nt101pvk","629e241d171ec6698e05f149","mixAttInfreqPrac","","","img/orange_2bandit_b2.png","68","img/orange_2bandit_b2.png","68","prac","","","3","","","","","","","","","","","","","","","","",""
"478.40000009536743","107647","SARL_v6","SARL_v6nt101pvk","629e241d171ec6698e05f149","infreqPrac_resp","","","img/orange_2bandit_b.png","68","img/blue_2bandit_b.png","68","prac","","","3","","","","","","","","","","","","","","","","",""
"null","107806","SARL_v6","SARL_v6nt101pvk","629e241d171ec6698e05f149","fixation","","","img/fixation.png","null","","","prac","","","","","","","","","","","","","","","","","","","",""
"426.2000000476837","108234","SARL_v6","SARL_v6nt101pvk","629e241d171ec6698e05f149","mixAttInfreqPrac","","","img/orange_2bandit_b2.png","68","img/orange_2bandit_b2.png","68","prac","","","4","","","","","","","","","","","","","","","","",""
"426.2000000476837","108614","SARL_v6","SARL_v6nt101pvk","629e241d171ec6698e05f149","infreqPrac_resp","","","img/orange_2bandit_b.png","68","img/blue_2bandit_b.png","68","prac","","","4","","","","","","","","","","","","","","","","",""
"null","108774","SARL_v6","SARL_v6nt101pvk","629e241d171ec6698e05f149","fixation","","","img/fixation.png","null","","","prac","","","","","","","","","","","","","","","","","","","",""
"354.59999990463257","109130","SARL_v6","SARL_v6nt101pvk","629e241d171ec6698e05f149","mixAttFreqPrac","","","img/blue_2bandit_b2.png","70","img/blue_2bandit_b2.png","70","prac","","","5","","","","","","","","","","","","","","","","",""
"354.59999990463257","109580","SARL_v6","SARL_v6nt101pvk","629e241d171ec6698e05f149","freqPrac_resp","","","img/blue_2bandit_b.png","70","img/blue_2bandit_b.png","70","prac","","","5","","","","","","","","","","","","","","","","",""
"null","109731","SARL_v6","SARL_v6nt101pvk","629e241d171ec6698e05f149","fixation","","","img/fixation.png","null","","","prac","","","","","","","","","","","","","","","","","","","",""
"605.2999999523163","110338","SARL_v6","SARL_v6nt101pvk","629e241d171ec6698e05f149","mixRLPractice","","","img/black_2bandit_b2.png","74","img/black_2bandit_b2.png","","prac","","","5","","","","","","","","","","","","","","","","",""
"null","111101","SARL_v6","SARL_v6nt101pvk","629e241d171ec6698e05f149","feedback","","","<div class=""verylowPoints""> -14 </div>","null","","na","prac","","","6","-14","10","-14","","","","","","","","","","","","","",""
"null","111261","SARL_v6","SARL_v6nt101pvk","629e241d171ec6698e05f149","fixation","","","img/fixation.png","null","","","prac","","","","","","","","","","","","","","","","","","","",""
"580.3999999761581","111843","SARL_v6","SARL_v6nt101pvk","629e241d171ec6698e05f149","mixAttFreqPrac","","","img/blue_2bandit_b2.png","68","img/blue_2bandit_b2.png","70","prac","","","7","","","","","","","","","","","","","","","","",""
"580.3999999761581","112068","SARL_v6","SARL_v6nt101pvk","629e241d171ec6698e05f149","freqPrac_resp","","","img/blue_2bandit_b.png","68","img/blue_2bandit_b.png","70","prac","","","7","","","","","","","","","","","","","","","","",""
"null","112226","SARL_v6","SARL_v6nt101pvk","629e241d171ec6698e05f149","fixation","","","img/fixation.png","null","","","prac","","","","","","","","","","","","","","","","","","","",""
"558.5999999046326","112786","SARL_v6","SARL_v6nt101pvk","629e241d171ec6698e05f149","mixAttInfreqPrac","","","img/orange_2bandit_b2.png","70","img/orange_2bandit_b2.png","68","prac","","","8","","","","","","","","","","","","","","","","",""
"558.5999999046326","113038","SARL_v6","SARL_v6nt101pvk","629e241d171ec6698e05f149","infreqPrac_resp","","","img/orange_2bandit_b.png","70","img/blue_2bandit_b.png","68","prac","","","8","","","","","","","","","","","","","","","","",""
"null","113198","SARL_v6","SARL_v6nt101pvk","629e241d171ec6698e05f149","fixation","","","img/fixation.png","null","","","prac","","","","","","","","","","","","","","","","","","","",""
"650.6999999284744","113850","SARL_v6","SARL_v6nt101pvk","629e241d171ec6698e05f149","mixAttFreqPrac","","","img/blue_2bandit_b2.png","70","img/blue_2bandit_b2.png","70","prac","","","9","","","","","","","","","","","","","","","","",""
"650.6999999284744","114004","SARL_v6","SARL_v6nt101pvk","629e241d171ec6698e05f149","freqPrac_resp","","","img/blue_2bandit_b.png","70","img/blue_2bandit_b.png","70","prac","","","9","","","","","","","","","","","","","","","","",""
"null","114163","SARL_v6","SARL_v6nt101pvk","629e241d171ec6698e05f149","fixation","","","img/fixation.png","null","","","prac","","","","","","","","","","","","","","","","","","","",""
"789.9000000953674","114955","SARL_v6","SARL_v6nt101pvk","629e241d171ec6698e05f149","mixAttFreqPrac","","","img/blue_2bandit_b2.png","68","img/blue_2bandit_b2.png","70","prac","","","10","","","","","","","","","","","","","","","","",""
"789.9000000953674","114966","SARL_v6","SARL_v6nt101pvk","629e241d171ec6698e05f149","freqPrac_resp","","","img/blue_2bandit_b.png","68","img/blue_2bandit_b.png","70","prac","","","10","","","","","","","","","","","","","","","","",""
"null","115121","SARL_v6","SARL_v6nt101pvk","629e241d171ec6698e05f149","fixation","","","img/fixation.png","null","","","prac","","","","","","","","","","","","","","","","","","","",""
"null","115925","SARL_v6","SARL_v6nt101pvk","629e241d171ec6698e05f149","mixAttInfreqPrac","","","img/orange_2bandit_b2.png","null","img/orange_2bandit_b2.png","68","prac","","","11","","","","","","","","","","","","","","","","",""
"92.20000004768372","116077","SARL_v6","SARL_v6nt101pvk","629e241d171ec6698e05f149","fixation","","","img/fixation.png","70","","","prac","","","","","","","","","","","","","","","","","","","",""
"796.6999999284744","116875","SARL_v6","SARL_v6nt101pvk","629e241d171ec6698e05f149","mixRLPractice","","","img/black_2bandit_b2.png","74","img/black_2bandit_b2.png","","prac","","","11","","","","","","","","","","","","","","","","",""
"null","117636","SARL_v6","SARL_v6nt101pvk","629e241d171ec6698e05f149","feedback","","","<div class=""veryhighPoints""> 5 </div>","null","","na","prac","","","12","5","-5","5","","","","","","","","","","","","","",""
"null","117794","SARL_v6","SARL_v6nt101pvk","629e241d171ec6698e05f149","fixation","","","img/fixation.png","null","","","prac","","","","","","","","","","","","","","","","","","","",""
"36333.200000047684","154128","SARL_v6","SARL_v6nt101pvk","629e241d171ec6698e05f149","","","","","","","","prac","","","","","","","","","","","","","","","","","","","",""
"null","154931","SARL_v6","SARL_v6nt101pvk","629e241d171ec6698e05f149","freq","","","img/blue_2bandit_b2.png","null","","70","test","0","","1","","","","circle","square","1","1","1","0","","","","","","","",""
"null","155089","SARL_v6","SARL_v6nt101pvk","629e241d171ec6698e05f149","fixation","","","img/fixation.png","null","","","test","","","","","","","","","","","","","","","","","","","",""
"13.199999928474426","155104","SARL_v6","SARL_v6nt101pvk","629e241d171ec6698e05f149","freq","","","img/blue_2bandit_b2.png","70","","70","test","1","","2","","","","circle","square","2","2","1","0.5","","","","","","","",""
"null","155898","SARL_v6","SARL_v6nt101pvk","629e241d171ec6698e05f149","freq_resp","","","img/blue_2bandit_b.png","70","img/blue_2bandit_b.png","70","test","","","","","","","","","","","1","","","","","","","","",""
"null","156057","SARL_v6","SARL_v6nt101pvk","629e241d171ec6698e05f149","fixation","","","img/fixation.png","null","","","test","","","","","","","","","","","","","","","","","","","",""
"486.10000002384186","156544","SARL_v6","SARL_v6nt101pvk","629e241d171ec6698e05f149","infreq","","","img/orange_2bandit_b2.png","68","","68","test","1","","3","","","","circle","square","3","3","1","0.6666666666666666","","","","","","","",""
"null","156868","SARL_v6","SARL_v6nt101pvk","629e241d171ec6698e05f149","infreq_resp","","","img/orange_2bandit_b.png","68","img/orange_2bandit_b.png","68","test","","","","","","","","","","","1","","","","","","","","",""
"null","157028","SARL_v6","SARL_v6nt101pvk","629e241d171ec6698e05f149","fixation","","","img/fixation.png","null","","","test","","","","","","","","","","","","","","","","","","","",""
"483.1999999284744","157512","SARL_v6","SARL_v6nt101pvk","629e241d171ec6698e05f149","freq","","","img/blue_2bandit_b2.png","70","","70","test","1","","4","","","","circle","square","4","4","1","0.75","","","","","","","",""
"null","157832","SARL_v6","SARL_v6nt101pvk","629e241d171ec6698e05f149","freq_resp","","","img/blue_2bandit_b.png","70","img/blue_2bandit_b.png","70","test","","","","","","","","","","","1","","","","","","","","",""
"null","157990","SARL_v6","SARL_v6nt101pvk","629e241d171ec6698e05f149","fixation","","","img/fixation.png","null","","","test","","","","","","","","","","","","","","","","","","","",""
"465.2999999523163","158456","SARL_v6","SARL_v6nt101pvk","629e241d171ec6698e05f149","freq","","","img/blue_2bandit_b2.png","70","","70","test","1","","5","","","","circle","square","5","5","1","0.8","","","","","","","",""
"null","158802","SARL_v6","SARL_v6nt101pvk","629e241d171ec6698e05f149","freq_resp","","","img/blue_2bandit_b.png","70","img/blue_2bandit_b.png","70","test","","","","","","","","","","","1","","","","","","","","",""
"null","158962","SARL_v6","SARL_v6nt101pvk","629e241d171ec6698e05f149","fixation","","","img/fixation.png","null","","","test","","","","","","","","","","","","","","","","","","","",""
"412.89999997615814","159376","SARL_v6","SARL_v6nt101pvk","629e241d171ec6698e05f149","freq","","","img/blue_2bandit_b2.png","70","","70","test","1","","6","","","","circle","square","6","6","1","0.8333333333333334","","","","","","","",""
"null","159768","SARL_v6","SARL_v6nt101pvk","629e241d171ec6698e05f149","freq_resp","","","img/blue_2bandit_b.png","70","img/blue_2bandit_b.png","70","test","","","","","","","","","","","1","","","","","","","","",""
"null","159927","SARL_v6","SARL_v6nt101pvk","629e241d171ec6698e05f149","fixation","","","img/fixation.png","null","","","test","","","","","","","","","","","","","","","","","","","",""
"384.90000009536743","160313","SARL_v6","SARL_v6nt101pvk","629e241d171ec6698e05f149","freq","","","img/blue_2bandit_b2.png","70","","70","test","1","","7","","","","circle","square","7","7","1","0.8571428571428571","","","","","","","",""
"null","160745","SARL_v6","SARL_v6nt101pvk","629e241d171ec6698e05f149","freq_resp","","","img/blue_2bandit_b.png","70","img/blue_2bandit_b.png","70","test","","","","","","","","","","","1","","","","","","","","",""
"null","160905","SARL_v6","SARL_v6nt101pvk","629e241d171ec6698e05f149","fixation","","","img/fixation.png","null","","","test","","","","","","","","","","","","","","","","","","","",""
"374.7000000476837","161281","SARL_v6","SARL_v6nt101pvk","629e241d171ec6698e05f149","freq","","","img/blue_2bandit_b2.png","70","","70","test","1","","8","","","","circle","square","8","8","1","0.875","","","","","","","",""
"null","161723","SARL_v6","SARL_v6nt101pvk","629e241d171ec6698e05f149","freq_resp","","","img/blue_2bandit_b.png","70","img/blue_2bandit_b.png","70","test","","","","","","","","","","","1","","","","","","","","",""
"null","161881","SARL_v6","SARL_v6nt101pvk","629e241d171ec6698e05f149","fixation","","","img/fixation.png","null","","","test","","","","","","","","","","","","","","","","","","","",""
"374.7000000476837","162257","SARL_v6","SARL_v6nt101pvk","629e241d171ec6698e05f149","freq","","","img/blue_2bandit_b2.png","70","","70","test","1","","9","","","","circle","square","9","9","1","0.8888888888888888","","","","","","","",""
"null","162694","SARL_v6","SARL_v6nt101pvk","629e241d171ec6698e05f149","freq_resp","","","img/blue_2bandit_b.png","70","img/blue_2bandit_b.png","70","test","","","","","","","","","","","1","","","","","","","","",""
"null","162853","SARL_v6","SARL_v6nt101pvk","629e241d171ec6698e05f149","fixation","","","img/fixation.png","null","","","test","","","","","","","","","","","","","","","","","","","",""
"402.3000000715256","163257","SARL_v6","SARL_v6nt101pvk","629e241d171ec6698e05f149","infreq","","","img/orange_2bandit_b2.png","68","","68","test","1","","10","","","","circle","square","10","10","1","0.9","","","","","","","",""
"null","163657","SARL_v6","SARL_v6nt101pvk","629e241d171ec6698e05f149","infreq_resp","","","img/orange_2bandit_b.png","68","img/orange_2bandit_b.png","68","test","","","","","","","","","","","1","","","","","","","","",""
"null","163817","SARL_v6","SARL_v6nt101pvk","629e241d171ec6698e05f149","fixation","","","img/fixation.png","null","","","test","","","","","","","","","","","","","","","","","","","",""
"430.6999999284744","164249","SARL_v6","SARL_v6nt101pvk","629e241d171ec6698e05f149","freq","","","img/blue_2bandit_b2.png","70","","70","test","1","","11","","","","circle","square","11","11","1","0.9090909090909091","","","","","","","",""
"null","164634","SARL_v6","SARL_v6nt101pvk","629e241d171ec6698e05f149","freq_resp","","","img/blue_2bandit_b.png","70","img/blue_2bandit_b.png","70","test","","","","","","","","","","","1","","","","","","","","",""
"null","164794","SARL_v6","SARL_v6nt101pvk","629e241d171ec6698e05f149","fixation","","","img/fixation.png","null","","","test","","","","","","","","","","","","","","","","","","","",""
"373","165169","SARL_v6","SARL_v6nt101pvk","629e241d171ec6698e05f149","freq","","","img/blue_2bandit_b2.png","70","","70","test","1","","12","","","","circle","square","12","12","1","0.9166666666666666","","","","","","","",""
"null","165602","SARL_v6","SARL_v6nt101pvk","629e241d171ec6698e05f149","freq_resp","","","img/blue_2bandit_b.png","70","img/blue_2bandit_b.png","70","test","","","","","","","","","","","1","","","","","","","","",""
"null","165760","SARL_v6","SARL_v6nt101pvk","629e241d171ec6698e05f149","fixation","","","img/fixation.png","null","","","test","","","","","","","","","","","","","","","","","","","",""
"392.5","166153","SARL_v6","SARL_v6nt101pvk","629e241d171ec6698e05f149","freq","","","img/blue_2bandit_b2.png","70","","70","test","1","","13","","","","circle","square","13","13","1","0.9230769230769231","","","","","","","",""
"null","166570","SARL_v6","SARL_v6nt101pvk","629e241d171ec6698e05f149","freq_resp","","","img/blue_2bandit_b.png","70","img/blue_2bandit_b.png","70","test","","","","","","","","","","","1","","","","","","","","",""
"null","166728","SARL_v6","SARL_v6nt101pvk","629e241d171ec6698e05f149","fixation","","","img/fixation.png","null","","","test","","","","","","","","","","","","","","","","","","","",""
"424.60000002384186","167154","SARL_v6","SARL_v6nt101pvk","629e241d171ec6698e05f149","infreq","","","img/orange_2bandit_b2.png","68","","68","test","1","","14","","","","circle","square","14","14","1","0.9285714285714286","","","","","","","",""
"null","167532","SARL_v6","SARL_v6nt101pvk","629e241d171ec6698e05f149","infreq_resp","","","img/orange_2bandit_b.png","68","img/orange_2bandit_b.png","68","test","","","","","","","","","","","1","","","","","","","","",""
"null","167688","SARL_v6","SARL_v6nt101pvk","629e241d171ec6698e05f149","fixation","","","img/fixation.png","null","","","test","","","","","","","","","","","","","","","","","","","",""
"440.2000000476837","168130","SARL_v6","SARL_v6nt101pvk","629e241d171ec6698e05f149","freq","","","img/blue_2bandit_b2.png","70","","70","test","1","","15","","","","circle","square","15","15","1","0.9333333333333333","","","","","","","",""
"null","168495","SARL_v6","SARL_v6nt101pvk","629e241d171ec6698e05f149","freq_resp","","","img/blue_2bandit_b.png","70","img/blue_2bandit_b.png","70","test","","","","","","","","","","","1","","","","","","","","",""
"null","168652","SARL_v6","SARL_v6nt101pvk","629e241d171ec6698e05f149","fixation","","","img/fixation.png","null","","","test","","","","","","","","","","","","","","","","","","","",""
"364.2999999523163","169018","SARL_v6","SARL_v6nt101pvk","629e241d171ec6698e05f149","freq","","","img/blue_2bandit_b2.png","70","","70","test","1","","16","","","","circle","square","16","16","1","0.9375","","","","","","","",""
"null","169459","SARL_v6","SARL_v6nt101pvk","629e241d171ec6698e05f149","freq_resp","","","img/blue_2bandit_b.png","70","img/blue_2bandit_b.png","70","test","","","","","","","","","","","1","","","","","","","","",""
"null","169616","SARL_v6","SARL_v6nt101pvk","629e241d171ec6698e05f149","fixation","","","img/fixation.png","null","","","test","","","","","","","","","","","","","","","","","","","",""
"352.2000000476837","169970","SARL_v6","SARL_v6nt101pvk","629e241d171ec6698e05f149","freq","","","img/blue_2bandit_b2.png","70","","70","test","1","","17","","","","circle","square","17","17","1","0.9411764705882353","","","","","","","",""
"null","170427","SARL_v6","SARL_v6nt101pvk","629e241d171ec6698e05f149","freq_resp","","","img/blue_2bandit_b.png","70","img/blue_2bandit_b.png","70","test","","","","","","","","","","","1","","","","","","","","",""
"null","170586","SARL_v6","SARL_v6nt101pvk","629e241d171ec6698e05f149","fixation","","","img/fixation.png","null","","","test","","","","","","","","","","","","","","","","","","","",""
"319.40000009536743","170906","SARL_v6","SARL_v6nt101pvk","629e241d171ec6698e05f149","freq","","","img/blue_2bandit_b2.png","70","","70","test","1","","18","","","","circle","square","18","18","1","0.9444444444444444","","","","","","","",""
"null","171394","SARL_v6","SARL_v6nt101pvk","629e241d171ec6698e05f149","freq_resp","","","img/blue_2bandit_b.png","70","img/blue_2bandit_b.png","70","test","","","","","","","","","","","1","","","","","","","","",""
"null","171552","SARL_v6","SARL_v6nt101pvk","629e241d171ec6698e05f149","fixation","","","img/fixation.png","null","","","test","","","","","","","","","","","","","","","","","","","",""
"376.7999999523163","171931","SARL_v6","SARL_v6nt101pvk","629e241d171ec6698e05f149","freq","","","img/blue_2bandit_b2.png","70","","70","test","1","","19","","","","circle","square","19","19","1","0.9473684210526315","","","","","","","",""
"null","172360","SARL_v6","SARL_v6nt101pvk","629e241d171ec6698e05f149","freq_resp","","","img/blue_2bandit_b.png","70","img/blue_2bandit_b.png","70","test","","","","","","","","","","","1","","","","","","","","",""
"null","172516","SARL_v6","SARL_v6nt101pvk","629e241d171ec6698e05f149","fixation","","","img/fixation.png","null","","","test","","","","","","","","","","","","","","","","","","","",""
"340.89999997615814","172858","SARL_v6","SARL_v6nt101pvk","629e241d171ec6698e05f149","freq","","","img/blue_2bandit_b2.png","70","","70","test","1","","20","","","","circle","square","20","20","1","0.95","","","","","","","",""
"null","173322","SARL_v6","SARL_v6nt101pvk","629e241d171ec6698e05f149","freq_resp","","","img/blue_2bandit_b.png","70","img/blue_2bandit_b.png","70","test","","","","","","","","","","","1","","","","","","","","",""
"null","173482","SARL_v6","SARL_v6nt101pvk","629e241d171ec6698e05f149","fixation","","","img/fixation.png","null","","","test","","","","","","","","","","","","","","","","","","","",""
"391.5","173875","SARL_v6","SARL_v6nt101pvk","629e241d171ec6698e05f149","freq","","","img/blue_2bandit_b2.png","70","","70","test","1","","21","","","","circle","square","21","21","1","0.9523809523809523","","","","","","","",""
"null","174292","SARL_v6","SARL_v6nt101pvk","629e241d171ec6698e05f149","freq_resp","","","img/blue_2bandit_b.png","70","img/blue_2bandit_b.png","70","test","","","","","","","","","","","1","","","","","","","","",""
"null","174451","SARL_v6","SARL_v6nt101pvk","629e241d171ec6698e05f149","fixation","","","img/fixation.png","null","","","test","","","","","","","","","","","","","","","","","","","",""
"350.7999999523163","174803","SARL_v6","SARL_v6nt101pvk","629e241d171ec6698e05f149","freq","","","img/blue_2bandit_b2.png","70","","70","test","1","","22","","","","circle","square","22","22","1","0.9545454545454546","","","","","","","",""
"null","175257","SARL_v6","SARL_v6nt101pvk","629e241d171ec6698e05f149","freq_resp","","","img/blue_2bandit_b.png","70","img/blue_2bandit_b.png","70","test","","","","","","","","","","","1","","","","","","","","",""
"null","175416","SARL_v6","SARL_v6nt101pvk","629e241d171ec6698e05f149","fixation","","","img/fixation.png","null","","","test","","","","","","","","","","","","","","","","","","","",""
"369.2999999523163","175787","SARL_v6","SARL_v6nt101pvk","629e241d171ec6698e05f149","freq","","","img/blue_2bandit_b2.png","70","","70","test","1","","23","","","","circle","square","23","23","1","0.9565217391304348","","","","","","","",""
"null","176223","SARL_v6","SARL_v6nt101pvk","629e241d171ec6698e05f149","freq_resp","","","img/blue_2bandit_b.png","70","img/blue_2bandit_b.png","70","test","","","","","","","","","","","1","","","","","","","","",""
"null","176381","SARL_v6","SARL_v6nt101pvk","629e241d171ec6698e05f149","fixation","","","img/fixation.png","null","","","test","","","","","","","","","","","","","","","","","","","",""
"421.2000000476837","176803","SARL_v6","SARL_v6nt101pvk","629e241d171ec6698e05f149","rl","","","img/black_2bandit_b2.png","74","","0","test","","","24","","","-3","circle","square","","0","1","","74","-3","-3","-3","-3","circle","1","0"
"null","177566","SARL_v6","SARL_v6nt101pvk","629e241d171ec6698e05f149","feedback","","","<div class=""verylowPoints""> -3 </div>","null","","na","test","","","NaN","","","","","","","","1","","74","","","","","","1",""
"628","178195","SARL_v6","SARL_v6nt101pvk","629e241d171ec6698e05f149","freq","","","img/blue_2bandit_b2.png","70","","70","test","1","","25","","","","circle","square","24","1","2","0.9583333333333334","","","","","","","",""
"null","178385","SARL_v6","SARL_v6nt101pvk","629e241d171ec6698e05f149","freq_resp","","","img/blue_2bandit_b.png","70","img/blue_2bandit_b.png","70","test","","","","","","","","","","","2","","","","","","","","",""
"null","178536","SARL_v6","SARL_v6nt101pvk","629e241d171ec6698e05f149","fixation","","","img/fixation.png","null","","","test","","","","","","","","","","","","","","","","","","","",""
"434.10000002384186","178971","SARL_v6","SARL_v6nt101pvk","629e241d171ec6698e05f149","freq","","","img/blue_2bandit_b2.png","70","","70","test","1","","26","","","","circle","square","25","2","2","0.96","","","","","","","",""
"null","179349","SARL_v6","SARL_v6nt101pvk","629e241d171ec6698e05f149","freq_resp","","","img/blue_2bandit_b.png","70","img/blue_2bandit_b.png","70","test","","","","","","","","","","","2","","","","","","","","",""
"null","179502","SARL_v6","SARL_v6nt101pvk","629e241d171ec6698e05f149","fixation","","","img/fixation.png","null","","","test","","","","","","","","","","","","","","","","","","","",""
"452","179955","SARL_v6","SARL_v6nt101pvk","629e241d171ec6698e05f149","infreq","","","img/orange_2bandit_b2.png","68","","68","test","1","","27","","","","circle","square","26","3","2","0.9615384615384616","","","","","","","",""
"null","180320","SARL_v6","SARL_v6nt101pvk","629e241d171ec6698e05f149","infreq_resp","","","img/orange_2bandit_b.png","68","img/orange_2bandit_b.png","68","test","","","","","","","","","","","2","","","","","","","","",""
"null","180477","SARL_v6","SARL_v6nt101pvk","629e241d171ec6698e05f149","fixation","","","img/fixation.png","null","","","test","","","","","","","","","","","","","","","","","","","",""
"429.10000002384186","180908","SARL_v6","SARL_v6nt101pvk","629e241d171ec6698e05f149","freq","","","img/blue_2bandit_b2.png","70","","70","test","1","","28","","","","circle","square","27","4","2","0.9629629629629629","","","","","","","",""
"null","181281","SARL_v6","SARL_v6nt101pvk","629e241d171ec6698e05f149","freq_resp","","","img/blue_2bandit_b.png","70","img/blue_2bandit_b.png","70","test","","","","","","","","","","","2","","","","","","","","",""
"null","181439","SARL_v6","SARL_v6nt101pvk","629e241d171ec6698e05f149","fixation","","","img/fixation.png","null","","","test","","","","","","","","","","","","","","","","","","","",""
"356","181796","SARL_v6","SARL_v6nt101pvk","629e241d171ec6698e05f149","freq","","","img/blue_2bandit_b2.png","70","","70","test","1","","29","","","","circle","square","28","5","2","0.9642857142857143","","","","","","","",""
"null","182257","SARL_v6","SARL_v6nt101pvk","629e241d171ec6698e05f149","freq_resp","","","img/blue_2bandit_b.png","70","img/blue_2bandit_b.png","70","test","","","","","","","","","","","2","","","","","","","","",""
"null","182416","SARL_v6","SARL_v6nt101pvk","629e241d171ec6698e05f149","fixation","","","img/fixation.png","null","","","test","","","","","","","","","","","","","","","","","","","",""
"338.2999999523163","182756","SARL_v6","SARL_v6nt101pvk","629e241d171ec6698e05f149","freq","","","img/blue_2bandit_b2.png","70","","70","test","1","","30","","","","circle","square","29","6","2","0.9655172413793104","","","","","","","",""
"null","183222","SARL_v6","SARL_v6nt101pvk","629e241d171ec6698e05f149","freq_resp","","","img/blue_2bandit_b.png","70","img/blue_2bandit_b.png","70","test","","","","","","","","","","","2","","","","","","","","",""
"null","183381","SARL_v6","SARL_v6nt101pvk","629e241d171ec6698e05f149","fixation","","","img/fixation.png","null","","","test","","","","","","","","","","","","","","","","","","","",""
"333.89999997615814","183716","SARL_v6","SARL_v6nt101pvk","629e241d171ec6698e05f149","freq","","","img/blue_2bandit_b2.png","70","","70","test","1","","31","","","","circle","square","30","7","2","0.9666666666666667","","","","","","","",""
"null","184184","SARL_v6","SARL_v6nt101pvk","629e241d171ec6698e05f149","freq_resp","","","img/blue_2bandit_b.png","70","img/blue_2bandit_b.png","70","test","","","","","","","","","","","2","","","","","","","","",""
"null","184343","SARL_v6","SARL_v6nt101pvk","629e241d171ec6698e05f149","fixation","","","img/fixation.png","null","","","test","","","","","","","","","","","","","","","","","","","",""
"323.5","184668","SARL_v6","SARL_v6nt101pvk","629e241d171ec6698e05f149","freq","","","img/blue_2bandit_b2.png","70","","70","test","1","","32","","","","circle","square","31","8","2","0.967741935483871","","","","","","","",""
"null","185150","SARL_v6","SARL_v6nt101pvk","629e241d171ec6698e05f149","freq_resp","","","img/blue_2bandit_b.png","70","img/blue_2bandit_b.png","70","test","","","","","","","","","","","2","","","","","","","","",""
"null","185310","SARL_v6","SARL_v6nt101pvk","629e241d171ec6698e05f149","fixation","","","img/fixation.png","null","","","test","","","","","","","","","","","","","","","","","","","",""
"333.60000002384186","185644","SARL_v6","SARL_v6nt101pvk","629e241d171ec6698e05f149","freq","","","img/blue_2bandit_b2.png","70","","70","test","1","","33","","","","circle","square","32","9","2","0.96875","","","","","","","",""
"null","186122","SARL_v6","SARL_v6nt101pvk","629e241d171ec6698e05f149","freq_resp","","","img/blue_2bandit_b.png","70","img/blue_2bandit_b.png","70","test","","","","","","","","","","","2","","","","","","","","",""
"null","186281","SARL_v6","SARL_v6nt101pvk","629e241d171ec6698e05f149","fixation","","","img/fixation.png","null","","","test","","","","","","","","","","","","","","","","","","","",""
"282.7000000476837","186565","SARL_v6","SARL_v6nt101pvk","629e241d171ec6698e05f149","freq","","","img/blue_2bandit_b2.png","70","","70","test","1","","34","","","","circle","square","33","10","2","0.9696969696969697","","","","","","","",""
"null","187090","SARL_v6","SARL_v6nt101pvk","629e241d171ec6698e05f149","freq_resp","","","img/blue_2bandit_b.png","70","img/blue_2bandit_b.png","70","test","","","","","","","","","","","2","","","","","","","","",""
"null","187248","SARL_v6","SARL_v6nt101pvk","629e241d171ec6698e05f149","fixation","","","img/fixation.png","null","","","test","","","","","","","","","","","","","","","","","","","",""
"307.39999997615814","187557","SARL_v6","SARL_v6nt101pvk","629e241d171ec6698e05f149","freq","","","img/blue_2bandit_b2.png","70","","70","test","1","","35","","","","circle","square","34","11","2","0.9705882352941176","","","","","","","",""
"null","188055","SARL_v6","SARL_v6nt101pvk","629e241d171ec6698e05f149","freq_resp","","","img/blue_2bandit_b.png","70","img/blue_2bandit_b.png","70","test","","","","","","","","","","","2","","","","","","","","",""
"null","188212","SARL_v6","SARL_v6nt101pvk","629e241d171ec6698e05f149","fixation","","","img/fixation.png","null","","","test","","","","","","","","","","","","","","","","","","","",""
"391.2000000476837","188605","SARL_v6","SARL_v6nt101pvk","629e241d171ec6698e05f149","freq","","","img/blue_2bandit_b2.png","70","","70","test","1","","36","","","","circle","square","35","12","2","0.9714285714285714","","","","","","","",""
"null","189016","SARL_v6","SARL_v6nt101pvk","629e241d171ec6698e05f149","freq_resp","","","img/blue_2bandit_b.png","70","img/blue_2bandit_b.png","70","test","","","","","","","","","","","2","","","","","","","","",""
"null","189177","SARL_v6","SARL_v6nt101pvk","629e241d171ec6698e05f149","fixation","","","img/fixation.png","null","","","test","","","","","","","","","","","","","","","","","","","",""
"314.7999999523163","189493","SARL_v6","SARL_v6nt101pvk","629e241d171ec6698e05f149","freq","","","img/blue_2bandit_b2.png","70","","70","test","1","","37","","","","circle","square","36","13","2","0.9722222222222222","","","","","","","",""
"null","189981","SARL_v6","SARL_v6nt101pvk","629e241d171ec6698e05f149","freq_resp","","","img/blue_2bandit_b.png","70","img/blue_2bandit_b.png","70","test","","","","","","","","","","","2","","","","","","","","",""
"null","190141","SARL_v6","SARL_v6nt101pvk","629e241d171ec6698e05f149","fixation","","","img/fixation.png","null","","","test","","","","","","","","","","","","","","","","","","","",""
"319.2000000476837","190461","SARL_v6","SARL_v6nt101pvk","629e241d171ec6698e05f149","freq","","","img/blue_2bandit_b2.png","70","","70","test","1","","38","","","","circle","square","37","14","2","0.972972972972973","","","","","","","",""
"null","190947","SARL_v6","SARL_v6nt101pvk","629e241d171ec6698e05f149","freq_resp","","","img/blue_2bandit_b.png","70","img/blue_2bandit_b.png","70","test","","","","","","","","","","","2","","","","","","","","",""
"null","191106","SARL_v6","SARL_v6nt101pvk","629e241d171ec6698e05f149","fixation","","","img/fixation.png","null","","","test","","","","","","","","","","","","","","","","","","","",""
"282.09999990463257","191389","SARL_v6","SARL_v6nt101pvk","629e241d171ec6698e05f149","freq","","","img/blue_2bandit_b2.png","70","","70","test","1","","39","","","","circle","square","38","15","2","0.9736842105263158","","","","","","","",""
"null","191909","SARL_v6","SARL_v6nt101pvk","629e241d171ec6698e05f149","freq_resp","","","img/blue_2bandit_b.png","70","img/blue_2bandit_b.png","70","test","","","","","","","","","","","2","","","","","","","","",""
"null","192069","SARL_v6","SARL_v6nt101pvk","629e241d171ec6698e05f149","fixation","","","img/fixation.png","null","","","test","","","","","","","","","","","","","","","","","","","",""
"334.89999997615814","192406","SARL_v6","SARL_v6nt101pvk","629e241d171ec6698e05f149","freq","","","img/blue_2bandit_b2.png","70","","70","test","1","","40","","","","circle","square","39","16","2","0.9743589743589743","","","","","","","",""
"null","192875","SARL_v6","SARL_v6nt101pvk","629e241d171ec6698e05f149","freq_resp","","","img/blue_2bandit_b.png","70","img/blue_2bandit_b.png","70","test","","","","","","","","","","","2","","","","","","","","",""
"null","193033","SARL_v6","SARL_v6nt101pvk","629e241d171ec6698e05f149","fixation","","","img/fixation.png","null","","","test","","","","","","","","","","","","","","","","","","","",""
"298.89999997615814","193334","SARL_v6","SARL_v6nt101pvk","629e241d171ec6698e05f149","freq","","","img/blue_2bandit_b2.png","70","","70","test","1","","41","","","","circle","square","40","17","2","0.975","","","","","","","",""
"null","193846","SARL_v6","SARL_v6nt101pvk","629e241d171ec6698e05f149","freq_resp","","","img/blue_2bandit_b.png","70","img/blue_2bandit_b.png","70","test","","","","","","","","","","","2","","","","","","","","",""
"null","194006","SARL_v6","SARL_v6nt101pvk","629e241d171ec6698e05f149","fixation","","","img/fixation.png","null","","","test","","","","","","","","","","","","","","","","","","","",""
"254.70000004768372","194261","SARL_v6","SARL_v6nt101pvk","629e241d171ec6698e05f149","freq","","","img/blue_2bandit_b2.png","70","","70","test","1","","42","","","","circle","square","41","18","2","0.975609756097561","","","","","","","",""
"null","194812","SARL_v6","SARL_v6nt101pvk","629e241d171ec6698e05f149","freq_resp","","","img/blue_2bandit_b.png","70","img/blue_2bandit_b.png","70","test","","","","","","","","","","","2","","","","","","","","",""
"null","194969","SARL_v6","SARL_v6nt101pvk","629e241d171ec6698e05f149","fixation","","","img/fixation.png","null","","","test","","","","","","","","","","","","","","","","","","","",""
"291.7000000476837","195262","SARL_v6","SARL_v6nt101pvk","629e241d171ec6698e05f149","infreq","","","img/orange_2bandit_b2.png","70","","68","test","0","","43","","","","circle","square","42","19","2","0.9523809523809523","","","","","","","",""
"null","195781","SARL_v6","SARL_v6nt101pvk","629e241d171ec6698e05f149","infreq_resp","","","img/orange_2bandit_b.png","70","img/orange_2bandit_b.png","68","test","","","","","","","","","","","2","","","","","","","","",""
"null","195933","SARL_v6","SARL_v6nt101pvk","629e241d171ec6698e05f149","fixation","","","img/fixation.png","null","","","test","","","","","","","","","","","","","","","","","","","",""
"376.5","196311","SARL_v6","SARL_v6nt101pvk","629e241d171ec6698e05f149","freq","","","img/blue_2bandit_b2.png","68","","70","test","0","","44","","","","circle","square","43","20","2","0.9302325581395349","","","","","","","",""
"null","196740","SARL_v6","SARL_v6nt101pvk","629e241d171ec6698e05f149","freq_resp","","","img/blue_2bandit_b.png","68","img/blue_2bandit_b.png","70","test","","","","","","","","","","","2","","","","","","","","",""
"null","196900","SARL_v6","SARL_v6nt101pvk","629e241d171ec6698e05f149","fixation","","","img/fixation.png","null","","","test","","","","","","","","","","","","","","","","","","","",""
"680.7000000476837","197582","SARL_v6","SARL_v6nt101pvk","629e241d171ec6698e05f149","rl","","","img/black_2bandit_b2.png","74","","0","test","","","45","","","-5","circle","square","","0","2","","74","-5","-8","-5","-8","circle","2","0"
"null","198337","SARL_v6","SARL_v6nt101pvk","629e241d171ec6698e05f149","feedback","","","<div class=""verylowPoints""> -5 </div>","null","","na","test","","","NaN","","","","","","","","2","","74","","","","","","2",""
"556.4000000953674","198894","SARL_v6","SARL_v6nt101pvk","629e241d171ec6698e05f149","freq","","","img/blue_2bandit_b2.png","70","","70","test","1","","46","","","","circle","square","44","1","3","0.9318181818181818","","","","","","","",""
"null","199148","SARL_v6","SARL_v6nt101pvk","629e241d171ec6698e05f149","freq_resp","","","img/blue_2bandit_b.png","70","img/blue_2bandit_b.png","70","test","","","","","","","","","","","3","","","","","","","","",""
"null","199308","SARL_v6","SARL_v6nt101pvk","629e241d171ec6698e05f149","fixation","","","img/fixation.png","null","","","test","","","","","","","","","","","","","","","","","","","",""
"385","199694","SARL_v6","SARL_v6nt101pvk","629e241d171ec6698e05f149","freq","","","img/blue_2bandit_b2.png","70","","70","test","1","","47","","","","circle","square","45","2","3","0.9333333333333333","","","","","","","",""
"null","200126","SARL_v6","SARL_v6nt101pvk","629e241d171ec6698e05f149","freq_resp","","","img/blue_2bandit_b.png","70","img/blue_2bandit_b.png","70","test","","","","","","","","","","","3","","","","","","","","",""
"null","200282","SARL_v6","SARL_v6nt101pvk","629e241d171ec6698e05f149","fixation","","","img/fixation.png","null","","","test","","","","","","","","","","","","","","","","","","","",""
"467.5","200750","SARL_v6","SARL_v6nt101pvk","629e241d171ec6698e05f149","freq","","","img/blue_2bandit_b2.png","70","","70","test","1","","48","","","","circle","square","46","3","3","0.9347826086956522","","","","","","","",""
"null","201097","SARL_v6","SARL_v6nt101pvk","629e241d171ec6698e05f149","freq_resp","","","img/blue_2bandit_b.png","70","img/blue_2bandit_b.png","70","test","","","","","","","","","","","3","","","","","","","","",""
"null","201253","SARL_v6","SARL_v6nt101pvk","629e241d171ec6698e05f149","fixation","","","img/fixation.png","null","","","test","","","","","","","","","","","","","","","","","","","",""
"544.8999999761581","201799","SARL_v6","SARL_v6nt101pvk","629e241d171ec6698e05f149","infreq","","","img/orange_2bandit_b2.png","68","","68","test","1","","49","","","","circle","square","47","4","3","0.9361702127659575","","","","","","","",""
"null","202061","SARL_v6","SARL_v6nt101pvk","629e241d171ec6698e05f149","infreq_resp","","","img/orange_2bandit_b.png","68","img/orange_2bandit_b.png","68","test","","","","","","","","","","","3","","","","","","","","",""
"null","202220","SARL_v6","SARL_v6nt101pvk","629e241d171ec6698e05f149","fixation","","","img/fixation.png","null","","","test","","","","","","","","","","","","","","","","","","","",""
"465.59999990463257","202687","SARL_v6","SARL_v6nt101pvk","629e241d171ec6698e05f149","freq","","","img/blue_2bandit_b2.png","70","","70","test","1","","50","","","","circle","square","48","5","3","0.9375","","","","","","","",""
"null","203030","SARL_v6","SARL_v6nt101pvk","629e241d171ec6698e05f149","freq_resp","","","img/blue_2bandit_b.png","70","img/blue_2bandit_b.png","70","test","","","","","","","","","","","3","","","","","","","","",""
"null","203189","SARL_v6","SARL_v6nt101pvk","629e241d171ec6698e05f149","fixation","","","img/fixation.png","null","","","test","","","","","","","","","","","","","","","","","","","",""
"464.1999999284744","203655","SARL_v6","SARL_v6nt101pvk","629e241d171ec6698e05f149","freq","","","img/blue_2bandit_b2.png","70","","70","test","1","","51","","","","circle","square","49","6","3","0.9387755102040817","","","","","","","",""
"null","203994","SARL_v6","SARL_v6nt101pvk","629e241d171ec6698e05f149","freq_resp","","","img/blue_2bandit_b.png","70","img/blue_2bandit_b.png","70","test","","","","","","","","","","","3","","","","","","","","",""
"null","204153","SARL_v6","SARL_v6nt101pvk","629e241d171ec6698e05f149","fixation","","","img/fixation.png","null","","","test","","","","","","","","","","","","","","","","","","","",""
"477","204631","SARL_v6","SARL_v6nt101pvk","629e241d171ec6698e05f149","freq","","","img/blue_2bandit_b2.png","70","","70","test","1","","52","","","","circle","square","50","7","3","0.94","","","","","","","",""
"null","204957","SARL_v6","SARL_v6nt101pvk","629e241d171ec6698e05f149","freq_resp","","","img/blue_2bandit_b.png","70","img/blue_2bandit_b.png","70","test","","","","","","","","","","","3","","","","","","","","",""
"null","205113","SARL_v6","SARL_v6nt101pvk","629e241d171ec6698e05f149","fixation","","","img/fixation.png","null","","","test","","","","","","","","","","","","","","","","","","","",""
"460.60000002384186","205575","SARL_v6","SARL_v6nt101pvk","629e241d171ec6698e05f149","freq","","","img/blue_2bandit_b2.png","70","","70","test","1","","53","","","","circle","square","51","8","3","0.9411764705882353","","","","","","","",""
"null","205921","SARL_v6","SARL_v6nt101pvk","629e241d171ec6698e05f149","freq_resp","","","img/blue_2bandit_b.png","70","img/blue_2bandit_b.png","70","test","","","","","","","","","","","3","","","","","","","","",""
"null","206078","SARL_v6","SARL_v6nt101pvk","629e241d171ec6698e05f149","fixation","","","img/fixation.png","null","","","test","","","","","","","","","","","","","","","","","","","",""
"384.60000002384186","206463","SARL_v6","SARL_v6nt101pvk","629e241d171ec6698e05f149","freq","","","img/blue_2bandit_b2.png","70","","70","test","1","","54","","","","circle","square","52","9","3","0.9423076923076923","","","","","","","",""
"null","206891","SARL_v6","SARL_v6nt101pvk","629e241d171ec6698e05f149","freq_resp","","","img/blue_2bandit_b.png","70","img/blue_2bandit_b.png","70","test","","","","","","","","","","","3","","","","","","","","",""
"null","207050","SARL_v6","SARL_v6nt101pvk","629e241d171ec6698e05f149","fixation","","","img/fixation.png","null","","","test","","","","","","","","","","","","","","","","","","","",""
"340.2999999523163","207391","SARL_v6","SARL_v6nt101pvk","629e241d171ec6698e05f149","freq","","","img/blue_2bandit_b2.png","70","","70","test","1","","55","","","","circle","square","53","10","3","0.9433962264150944","","","","","","","",""
"null","207855","SARL_v6","SARL_v6nt101pvk","629e241d171ec6698e05f149","freq_resp","","","img/blue_2bandit_b.png","70","img/blue_2bandit_b.png","70","test","","","","","","","","","","","3","","","","","","","","",""
"null","208010","SARL_v6","SARL_v6nt101pvk","629e241d171ec6698e05f149","fixation","","","img/fixation.png","null","","","test","","","","","","","","","","","","","","","","","","","",""
"348.39999997615814","208360","SARL_v6","SARL_v6nt101pvk","629e241d171ec6698e05f149","freq","","","img/blue_2bandit_b2.png","70","","70","test","1","","56","","","","circle","square","54","11","3","0.9444444444444444","","","","","","","",""
"null","208814","SARL_v6","SARL_v6nt101pvk","629e241d171ec6698e05f149","freq_resp","","","img/blue_2bandit_b.png","70","img/blue_2bandit_b.png","70","test","","","","","","","","","","","3","","","","","","","","",""
"null","208973","SARL_v6","SARL_v6nt101pvk","629e241d171ec6698e05f149","fixation","","","img/fixation.png","null","","","test","","","","","","","","","","","","","","","","","","","",""
"361","209336","SARL_v6","SARL_v6nt101pvk","629e241d171ec6698e05f149","freq","","","img/blue_2bandit_b2.png","70","","70","test","1","","57","","","","circle","square","55","12","3","0.9454545454545454","","","","","","","",""
"null","209778","SARL_v6","SARL_v6nt101pvk","629e241d171ec6698e05f149","freq_resp","","","img/blue_2bandit_b.png","70","img/blue_2bandit_b.png","70","test","","","","","","","","","","","3","","","","","","","","",""
"null","209930","SARL_v6","SARL_v6nt101pvk","629e241d171ec6698e05f149","fixation","","","img/fixation.png","null","","","test","","","","","","","","","","","","","","","","","","","",""
"396.2999999523163","210328","SARL_v6","SARL_v6nt101pvk","629e241d171ec6698e05f149","freq","","","img/blue_2bandit_b2.png","70","","70","test","1","","58","","","","circle","square","56","13","3","0.9464285714285714","","","","","","","",""
"null","210733","SARL_v6","SARL_v6nt101pvk","629e241d171ec6698e05f149","freq_resp","","","img/blue_2bandit_b.png","70","img/blue_2bandit_b.png","70","test","","","","","","","","","","","3","","","","","","","","",""
"null","210891","SARL_v6","SARL_v6nt101pvk","629e241d171ec6698e05f149","fixation","","","img/fixation.png","null","","","test","","","","","","","","","","","","","","","","","","","",""
"355.39999997615814","211248","SARL_v6","SARL_v6nt101pvk","629e241d171ec6698e05f149","freq","","","img/blue_2bandit_b2.png","70","","70","test","1","","59","","","","circle","square","57","14","3","0.9473684210526315","","","","","","","",""
"null","211710","SARL_v6","SARL_v6nt101pvk","629e241d171ec6698e05f149","freq_resp","","","img/blue_2bandit_b.png","70","img/blue_2bandit_b.png","70","test","","","","","","","","","","","3","","","","","","","","",""
"null","211869","SARL_v6","SARL_v6nt101pvk","629e241d171ec6698e05f149","fixation","","","img/fixation.png","null","","","test","","","","","","","","","","","","","","","","","","","",""
"329.89999997615814","212200","SARL_v6","SARL_v6nt101pvk","629e241d171ec6698e05f149","freq","","","img/blue_2bandit_b2.png","70","","70","test","1","","60","","","","circle","square","58","15","3","0.9482758620689655","","","","","","","",""
"null","212678","SARL_v6","SARL_v6nt101pvk","629e241d171ec6698e05f149","freq_resp","","","img/blue_2bandit_b.png","70","img/blue_2bandit_b.png","70","test","","","","","","","","","","","3","","","","","","","","",""
"null","212829","SARL_v6","SARL_v6nt101pvk","629e241d171ec6698e05f149","fixation","","","img/fixation.png","null","","","test","","","","","","","","","","","","","","","","","","","",""
"345.89999997615814","213177","SARL_v6","SARL_v6nt101pvk","629e241d171ec6698e05f149","freq","","","img/blue_2bandit_b2.png","70","","70","test","1","","61","","","","circle","square","59","16","3","0.9491525423728814","","","","","","","",""
"null","213637","SARL_v6","SARL_v6nt101pvk","629e241d171ec6698e05f149","freq_resp","","","img/blue_2bandit_b.png","70","img/blue_2bandit_b.png","70","test","","","","","","","","","","","3","","","","","","","","",""
"null","213795","SARL_v6","SARL_v6nt101pvk","629e241d171ec6698e05f149","fixation","","","img/fixation.png","null","","","test","","","","","","","","","","","","","","","","","","","",""
"331.89999997615814","214129","SARL_v6","SARL_v6nt101pvk","629e241d171ec6698e05f149","freq","","","img/blue_2bandit_b2.png","70","","70","test","1","","62","","","","circle","square","60","17","3","0.95","","","","","","","",""
"null","214605","SARL_v6","SARL_v6nt101pvk","629e241d171ec6698e05f149","freq_resp","","","img/blue_2bandit_b.png","70","img/blue_2bandit_b.png","70","test","","","","","","","","","","","3","","","","","","","","",""
"null","214763","SARL_v6","SARL_v6nt101pvk","629e241d171ec6698e05f149","fixation","","","img/fixation.png","null","","","test","","","","","","","","","","","","","","","","","","","",""
"372.89999997615814","215137","SARL_v6","SARL_v6nt101pvk","629e241d171ec6698e05f149","freq","","","img/blue_2bandit_b2.png","70","","70","test","1","","63","","","","circle","square","61","18","3","0.9508196721311475","","","","","","","",""
"null","215570","SARL_v6","SARL_v6nt101pvk","629e241d171ec6698e05f149","freq_resp","","","img/blue_2bandit_b.png","70","img/blue_2bandit_b.png","70","test","","","","","","","","","","","3","","","","","","","","",""
"null","215729","SARL_v6","SARL_v6nt101pvk","629e241d171ec6698e05f149","fixation","","","img/fixation.png","null","","","test","","","","","","","","","","","","","","","","","","","",""
"430.7000000476837","216162","SARL_v6","SARL_v6nt101pvk","629e241d171ec6698e05f149","freq","","","img/blue_2bandit_b2.png","70","","70","test","1","","64","","","","circle","square","62","19","3","0.9516129032258065","","","","","","","",""
"null","216539","SARL_v6","SARL_v6nt101pvk","629e241d171ec6698e05f149","freq_resp","","","img/blue_2bandit_b.png","70","img/blue_2bandit_b.png","70","test","","","","","","","","","","","3","","","","","","","","",""
"null","216697","SARL_v6","SARL_v6nt101pvk","629e241d171ec6698e05f149","fixation","","","img/fixation.png","null","","","test","","","","","","","","","","","","","","","","","","","",""
"431","217130","SARL_v6","SARL_v6nt101pvk","629e241d171ec6698e05f149","freq","","","img/blue_2bandit_b2.png","70","","70","test","1","","65","","","","circle","square","63","20","3","0.9523809523809523","","","","","","","",""
"null","217509","SARL_v6","SARL_v6nt101pvk","629e241d171ec6698e05f149","freq_resp","","","img/blue_2bandit_b.png","70","img/blue_2bandit_b.png","70","test","","","","","","","","","","","3","","","","","","","","",""
"null","217669","SARL_v6","SARL_v6nt101pvk","629e241d171ec6698e05f149","fixation","","","img/fixation.png","null","","","test","","","","","","","","","","","","","","","","","","","",""
"475.60000002384186","218146","SARL_v6","SARL_v6nt101pvk","629e241d171ec6698e05f149","freq","","","img/blue_2bandit_b2.png","70","","70","test","1","","66","","","","circle","square","64","21","3","0.953125","","","","","","","",""
"null","218477","SARL_v6","SARL_v6nt101pvk","629e241d171ec6698e05f149","freq_resp","","","img/blue_2bandit_b.png","70","img/blue_2bandit_b.png","70","test","","","","","","","","","","","3","","","","","","","","",""
"null","218637","SARL_v6","SARL_v6nt101pvk","629e241d171ec6698e05f149","fixation","","","img/fixation.png","null","","","test","","","","","","","","","","","","","","","","","","","",""
"459.60000002384186","219098","SARL_v6","SARL_v6nt101pvk","629e241d171ec6698e05f149","freq","","","img/blue_2bandit_b2.png","70","","70","test","1","","67","","","","circle","square","65","22","3","0.9538461538461539","","","","","","","",""
"null","219444","SARL_v6","SARL_v6nt101pvk","629e241d171ec6698e05f149","freq_resp","","","img/blue_2bandit_b.png","70","img/blue_2bandit_b.png","70","test","","","","","","","","","","","3","","","","","","","","",""
"null","219602","SARL_v6","SARL_v6nt101pvk","629e241d171ec6698e05f149","fixation","","","img/fixation.png","null","","","test","","","","","","","","","","","","","","","","","","","",""
"390.90000009536743","219994","SARL_v6","SARL_v6nt101pvk","629e241d171ec6698e05f149","freq","","","img/blue_2bandit_b2.png","70","","70","test","1","","68","","","","circle","square","66","23","3","0.9545454545454546","","","","","","","",""
"null","220411","SARL_v6","SARL_v6nt101pvk","629e241d171ec6698e05f149","freq_resp","","","img/blue_2bandit_b.png","70","img/blue_2bandit_b.png","70","test","","","","","","","","","","","3","","","","","","","","",""
"null","220568","SARL_v6","SARL_v6nt101pvk","629e241d171ec6698e05f149","fixation","","","img/fixation.png","null","","","test","","","","","","","","","","","","","","","","","","","",""
"480.39999997615814","221050","SARL_v6","SARL_v6nt101pvk","629e241d171ec6698e05f149","infreq","","","img/orange_2bandit_b2.png","68","","68","test","1","","69","","","","circle","square","67","24","3","0.9552238805970149","","","","","","","",""
"null","221376","SARL_v6","SARL_v6nt101pvk","629e241d171ec6698e05f149","infreq_resp","","","img/orange_2bandit_b.png","68","img/orange_2bandit_b.png","68","test","","","","","","","","","","","3","","","","","","","","",""
"null","221534","SARL_v6","SARL_v6nt101pvk","629e241d171ec6698e05f149","fixation","","","img/fixation.png","null","","","test","","","","","","","","","","","","","","","","","","","",""
"427.10000002384186","221962","SARL_v6","SARL_v6nt101pvk","629e241d171ec6698e05f149","freq","","","img/blue_2bandit_b2.png","70","","70","test","1","","70","","","","circle","square","68","25","3","0.9558823529411765","","","","","","","",""
"null","222337","SARL_v6","SARL_v6nt101pvk","629e241d171ec6698e05f149","freq_resp","","","img/blue_2bandit_b.png","70","img/blue_2bandit_b.png","70","test","","","","","","","","","","","3","","","","","","","","",""
"null","222496","SARL_v6","SARL_v6nt101pvk","629e241d171ec6698e05f149","fixation","","","img/fixation.png","null","","","test","","","","","","","","","","","","","","","","","","","",""
"369.2000000476837","222866","SARL_v6","SARL_v6nt101pvk","629e241d171ec6698e05f149","freq","","","img/blue_2bandit_b2.png","70","","70","test","1","","71","","","","circle","square","69","26","3","0.9565217391304348","","","","","","","",""
"null","223306","SARL_v6","SARL_v6nt101pvk","629e241d171ec6698e05f149","freq_resp","","","img/blue_2bandit_b.png","70","img/blue_2bandit_b.png","70","test","","","","","","","","","","","3","","","","","","","","",""
"null","223464","SARL_v6","SARL_v6nt101pvk","629e241d171ec6698e05f149","fixation","","","img/fixation.png","null","","","test","","","","","","","","","","","","","","","","","","","",""
"833.1999999284744","224299","SARL_v6","SARL_v6nt101pvk","629e241d171ec6698e05f149","rl","","","img/black_2bandit_b2.png","74","","0","test","","","72","","","-4","circle","square","","0","3","","74","-4","-8","-4","-8","circle","3","0"
"null","225051","SARL_v6","SARL_v6nt101pvk","629e241d171ec6698e05f149","feedback","","","<div class=""verylowPoints""> -4 </div>","null","","na","test","","","NaN","","","","","","","","3","","74","","","","","","3",""
"550.8999999761581","225603","SARL_v6","SARL_v6nt101pvk","629e241d171ec6698e05f149","freq","","","img/blue_2bandit_b2.png","70","","70","test","1","","73","","","","circle","square","70","1","4","0.9571428571428572","","","","","","","",""
"null","225865","SARL_v6","SARL_v6nt101pvk","629e241d171ec6698e05f149","freq_resp","","","img/blue_2bandit_b.png","70","img/blue_2bandit_b.png","70","test","","","","","","","","","","","4","","","","","","","","",""
"null","226023","SARL_v6","SARL_v6nt101pvk","629e241d171ec6698e05f149","fixation","","","img/fixation.png","null","","","test","","","","","","","","","","","","","","","","","","","",""
"602.8999999761581","226627","SARL_v6","SARL_v6nt101pvk","629e241d171ec6698e05f149","infreq","","","img/orange_2bandit_b2.png","68","","68","test","1","","74","","","","circle","square","71","2","4","0.9577464788732394","","","","","","","",""
"null","226838","SARL_v6","SARL_v6nt101pvk","629e241d171ec6698e05f149","infreq_resp","","","img/orange_2bandit_b.png","68","img/orange_2bandit_b.png","68","test","","","","","","","","","","","4","","","","","","","","",""
"null","226998","SARL_v6","SARL_v6nt101pvk","629e241d171ec6698e05f149","fixation","","","img/fixation.png","null","","","test","","","","","","","","","","","","","","","","","","","",""
"443.60000002384186","227443","SARL_v6","SARL_v6nt101pvk","629e241d171ec6698e05f149","freq","","","img/blue_2bandit_b2.png","70","","70","test","1","","75","","","","circle","square","72","3","4","0.9583333333333334","","","","","","","",""
"null","227812","SARL_v6","SARL_v6nt101pvk","629e241d171ec6698e05f149","freq_resp","","","img/blue_2bandit_b.png","70","img/blue_2bandit_b.png","70","test","","","","","","","","","","","4","","","","","","","","",""
"null","227970","SARL_v6","SARL_v6nt101pvk","629e241d171ec6698e05f149","fixation","","","img/fixation.png","null","","","test","","","","","","","","","","","","","","","","","","","",""
"375.7999999523163","228347","SARL_v6","SARL_v6nt101pvk","629e241d171ec6698e05f149","freq","","","img/blue_2bandit_b2.png","70","","70","test","1","","76","","","","circle","square","73","4","4","0.958904109589041","","","","","","","",""
"null","228786","SARL_v6","SARL_v6nt101pvk","629e241d171ec6698e05f149","freq_resp","","","img/blue_2bandit_b.png","70","img/blue_2bandit_b.png","70","test","","","","","","","","","","","4","","","","","","","","",""
"null","228944","SARL_v6","SARL_v6nt101pvk","629e241d171ec6698e05f149","fixation","","","img/fixation.png","null","","","test","","","","","","","","","","","","","","","","","","","",""
"361.8000000715256","229307","SARL_v6","SARL_v6nt101pvk","629e241d171ec6698e05f149","freq","","","img/blue_2bandit_b2.png","70","","70","test","1","","77","","","","circle","square","74","5","4","0.9594594594594594","","","","","","","",""
"null","229758","SARL_v6","SARL_v6nt101pvk","629e241d171ec6698e05f149","freq_resp","","","img/blue_2bandit_b.png","70","img/blue_2bandit_b.png","70","test","","","","","","","","","","","4","","","","","","","","",""
"null","229918","SARL_v6","SARL_v6nt101pvk","629e241d171ec6698e05f149","fixation","","","img/fixation.png","null","","","test","","","","","","","","","","","","","","","","","","","",""
"420.09999990463257","230339","SARL_v6","SARL_v6nt101pvk","629e241d171ec6698e05f149","freq","","","img/blue_2bandit_b2.png","70","","70","test","1","","78","","","","circle","square","75","6","4","0.96","","","","","","","",""
"null","230724","SARL_v6","SARL_v6nt101pvk","629e241d171ec6698e05f149","freq_resp","","","img/blue_2bandit_b.png","70","img/blue_2bandit_b.png","70","test","","","","","","","","","","","4","","","","","","","","",""
"null","230884","SARL_v6","SARL_v6nt101pvk","629e241d171ec6698e05f149","fixation","","","img/fixation.png","null","","","test","","","","","","","","","","","","","","","","","","","",""
"350","231236","SARL_v6","SARL_v6nt101pvk","629e241d171ec6698e05f149","freq","","","img/blue_2bandit_b2.png","70","","70","test","1","","79","","","","circle","square","76","7","4","0.9605263157894737","","","","","","","",""
"null","231703","SARL_v6","SARL_v6nt101pvk","629e241d171ec6698e05f149","freq_resp","","","img/blue_2bandit_b.png","70","img/blue_2bandit_b.png","70","test","","","","","","","","","","","4","","","","","","","","",""
"null","231859","SARL_v6","SARL_v6nt101pvk","629e241d171ec6698e05f149","fixation","","","img/fixation.png","null","","","test","","","","","","","","","","","","","","","","","","","",""
"311","232172","SARL_v6","SARL_v6nt101pvk","629e241d171ec6698e05f149","freq","","","img/blue_2bandit_b2.png","70","","70","test","1","","80","","","","circle","square","77","8","4","0.961038961038961","","","","","","","",""
"null","232663","SARL_v6","SARL_v6nt101pvk","629e241d171ec6698e05f149","freq_resp","","","img/blue_2bandit_b.png","70","img/blue_2bandit_b.png","70","test","","","","","","","","","","","4","","","","","","","","",""
"null","232821","SARL_v6","SARL_v6nt101pvk","629e241d171ec6698e05f149","fixation","","","img/fixation.png","null","","","test","","","","","","","","","","","","","","","","","","","",""
"334","233156","SARL_v6","SARL_v6nt101pvk","629e241d171ec6698e05f149","freq","","","img/blue_2bandit_b2.png","70","","70","test","1","","81","","","","circle","square","78","9","4","0.9615384615384616","","","","","","","",""
"null","233627","SARL_v6","SARL_v6nt101pvk","629e241d171ec6698e05f149","freq_resp","","","img/blue_2bandit_b.png","70","img/blue_2bandit_b.png","70","test","","","","","","","","","","","4","","","","","","","","",""
"null","233785","SARL_v6","SARL_v6nt101pvk","629e241d171ec6698e05f149","fixation","","","img/fixation.png","null","","","test","","","","","","","","","","","","","","","","","","","",""
"330.2000000476837","234116","SARL_v6","SARL_v6nt101pvk","629e241d171ec6698e05f149","freq","","","img/blue_2bandit_b2.png","70","","70","test","1","","82","","","","circle","square","79","10","4","0.9620253164556962","","","","","","","",""
"null","234590","SARL_v6","SARL_v6nt101pvk","629e241d171ec6698e05f149","freq_resp","","","img/blue_2bandit_b.png","70","img/blue_2bandit_b.png","70","test","","","","","","","","","","","4","","","","","","","","",""
"null","234746","SARL_v6","SARL_v6nt101pvk","629e241d171ec6698e05f149","fixation","","","img/fixation.png","null","","","test","","","","","","","","","","","","","","","","","","","",""
"321.10000002384186","235068","SARL_v6","SARL_v6nt101pvk","629e241d171ec6698e05f149","freq","","","img/blue_2bandit_b2.png","70","","70","test","1","","83","","","","circle","square","80","11","4","0.9625","","","","","","","",""
"null","235557","SARL_v6","SARL_v6nt101pvk","629e241d171ec6698e05f149","freq_resp","","","img/blue_2bandit_b.png","70","img/blue_2bandit_b.png","70","test","","","","","","","","","","","4","","","","","","","","",""
"null","235718","SARL_v6","SARL_v6nt101pvk","629e241d171ec6698e05f149","fixation","","","img/fixation.png","null","","","test","","","","","","","","","","","","","","","","","","","",""
"308.89999997615814","236028","SARL_v6","SARL_v6nt101pvk","629e241d171ec6698e05f149","freq","","","img/blue_2bandit_b2.png","70","","70","test","1","","84","","","","circle","square","81","12","4","0.9629629629629629","","","","","","","",""
"null","236523","SARL_v6","SARL_v6nt101pvk","629e241d171ec6698e05f149","freq_resp","","","img/blue_2bandit_b.png","70","img/blue_2bandit_b.png","70","test","","","","","","","","","","","4","","","","","","","","",""
"null","236681","SARL_v6","SARL_v6nt101pvk","629e241d171ec6698e05f149","fixation","","","img/fixation.png","null","","","test","","","","","","","","","","","","","","","","","","","",""
"298","236980","SARL_v6","SARL_v6nt101pvk","629e241d171ec6698e05f149","freq","","","img/blue_2bandit_b2.png","70","","70","test","1","","85","","","","circle","square","82","13","4","0.9634146341463414","","","","","","","",""
"null","237491","SARL_v6","SARL_v6nt101pvk","629e241d171ec6698e05f149","freq_resp","","","img/blue_2bandit_b.png","70","img/blue_2bandit_b.png","70","test","","","","","","","","","","","4","","","","","","","","",""
"null","237649","SARL_v6","SARL_v6nt101pvk","629e241d171ec6698e05f149","fixation","","","img/fixation.png","null","","","test","","","","","","","","","","","","","","","","","","","",""
"314.39999997615814","237965","SARL_v6","SARL_v6nt101pvk","629e241d171ec6698e05f149","infreq","","","img/orange_2bandit_b2.png","70","","68","test","0","","86","","","","circle","square","83","14","4","0.9518072289156626","","","","","","","",""
"null","238459","SARL_v6","SARL_v6nt101pvk","629e241d171ec6698e05f149","infreq_resp","","","img/orange_2bandit_b.png","70","img/orange_2bandit_b.png","68","test","","","","","","","","","","","4","","","","","","","","",""
"null","238617","SARL_v6","SARL_v6nt101pvk","629e241d171ec6698e05f149","fixation","","","img/fixation.png","null","","","test","","","","","","","","","","","","","","","","","","","",""
"378.10000002384186","238997","SARL_v6","SARL_v6nt101pvk","629e241d171ec6698e05f149","freq","","","img/blue_2bandit_b2.png","70","","70","test","1","","87","","","","circle","square","84","15","4","0.9523809523809523","","","","","","","",""
"null","239422","SARL_v6","SARL_v6nt101pvk","629e241d171ec6698e05f149","freq_resp","","","img/blue_2bandit_b.png","70","img/blue_2bandit_b.png","70","test","","","","","","","","","","","4","","","","","","","","",""
"null","239581","SARL_v6","SARL_v6nt101pvk","629e241d171ec6698e05f149","fixation","","","img/fixation.png","null","","","test","","","","","","","","","","","","","","","","","","","",""
"382.2000000476837","239965","SARL_v6","SARL_v6nt101pvk","629e241d171ec6698e05f149","freq","","","img/blue_2bandit_b2.png","70","","70","test","1","","88","","","","circle","square","85","16","4","0.9529411764705882","","","","","","","",""
"null","240389","SARL_v6","SARL_v6nt101pvk","629e241d171ec6698e05f149","freq_resp","","","img/blue_2bandit_b.png","70","img/blue_2bandit_b.png","70","test","","","","","","","","","","","4","","","","","","","","",""
"null","240548","SARL_v6","SARL_v6nt101pvk","629e241d171ec6698e05f149","fixation","","","img/fixation.png","null","","","test","","","","","","","","","","","","","","","","","","","",""
"367.90000009536743","240917","SARL_v6","SARL_v6nt101pvk","629e241d171ec6698e05f149","freq","","","img/blue_2bandit_b2.png","70","","70","test","1","","89","","","","circle","square","86","17","4","0.9534883720930233","","","","","","","",""
"null","241352","SARL_v6","SARL_v6nt101pvk","629e241d171ec6698e05f149","freq_resp","","","img/blue_2bandit_b.png","70","img/blue_2bandit_b.png","70","test","","","","","","","","","","","4","","","","","","","","",""
"null","241511","SARL_v6","SARL_v6nt101pvk","629e241d171ec6698e05f149","fixation","","","img/fixation.png","null","","","test","","","","","","","","","","","","","","","","","","","",""
"348.7999999523163","241861","SARL_v6","SARL_v6nt101pvk","629e241d171ec6698e05f149","freq","","","img/blue_2bandit_b2.png","70","","70","test","1","","90","","","","circle","square","87","18","4","0.9540229885057471","","","","","","","",""
"null","242318","SARL_v6","SARL_v6nt101pvk","629e241d171ec6698e05f149","freq_resp","","","img/blue_2bandit_b.png","70","img/blue_2bandit_b.png","70","test","","","","","","","","","","","4","","","","","","","","",""
"null","242477","SARL_v6","SARL_v6nt101pvk","629e241d171ec6698e05f149","fixation","","","img/fixation.png","null","","","test","","","","","","","","","","","","","","","","","","","",""
"318.89999997615814","242798","SARL_v6","SARL_v6nt101pvk","629e241d171ec6698e05f149","freq","","","img/blue_2bandit_b2.png","70","","70","test","1","","91","","","","circle","square","88","19","4","0.9545454545454546","","","","","","","",""
"null","243289","SARL_v6","SARL_v6nt101pvk","629e241d171ec6698e05f149","freq_resp","","","img/blue_2bandit_b.png","70","img/blue_2bandit_b.png","70","test","","","","","","","","","","","4","","","","","","","","",""
"null","243449","SARL_v6","SARL_v6nt101pvk","629e241d171ec6698e05f149","fixation","","","img/fixation.png","null","","","test","","","","","","","","","","","","","","","","","","","",""
"322.8000000715256","243773","SARL_v6","SARL_v6nt101pvk","629e241d171ec6698e05f149","freq","","","img/blue_2bandit_b2.png","70","","70","test","1","","92","","","","circle","square","89","20","4","0.9550561797752809","","","","","","","",""
"null","244253","SARL_v6","SARL_v6nt101pvk","629e241d171ec6698e05f149","freq_resp","","","img/blue_2bandit_b.png","70","img/blue_2bandit_b.png","70","test","","","","","","","","","","","4","","","","","","","","",""
"null","244410","SARL_v6","SARL_v6nt101pvk","629e241d171ec6698e05f149","fixation","","","img/fixation.png","null","","","test","","","","","","","","","","","","","","","","","","","",""
"874.5","245286","SARL_v6","SARL_v6nt101pvk","629e241d171ec6698e05f149","rl","","","img/black_2bandit_b2.png","74","","0","test","","","93","","","0","circle","square","","0","4","","74","0","-12","0","-12","circle","4","0"
"null","246045","SARL_v6","SARL_v6nt101pvk","629e241d171ec6698e05f149","feedback","","","<div class=""verylowPoints""> 0 </div>","null","","na","test","","","NaN","","","","","","","","4","","74","","","","","","4",""
"583.7000000476837","246630","SARL_v6","SARL_v6nt101pvk","629e241d171ec6698e05f149","freq","","","img/blue_2bandit_b2.png","70","","70","test","1","","94","","","","circle","square","90","1","5","0.9555555555555556","","","","","","","",""
"null","246849","SARL_v6","SARL_v6nt101pvk","629e241d171ec6698e05f149","freq_resp","","","img/blue_2bandit_b.png","70","img/blue_2bandit_b.png","70","test","","","","","","","","","","","5","","","","","","","","",""
"null","247007","SARL_v6","SARL_v6nt101pvk","629e241d171ec6698e05f149","fixation","","","img/fixation.png","null","","","test","","","","","","","","","","","","","","","","","","","",""
"629.5","247638","SARL_v6","SARL_v6nt101pvk","629e241d171ec6698e05f149","freq","","","img/blue_2bandit_b2.png","70","","70","test","1","","95","","","","circle","square","91","2","5","0.9560439560439561","","","","","","","",""
"null","247818","SARL_v6","SARL_v6nt101pvk","629e241d171ec6698e05f149","freq_resp","","","img/blue_2bandit_b.png","70","img/blue_2bandit_b.png","70","test","","","","","","","","","","","5","","","","","","","","",""
"null","247976","SARL_v6","SARL_v6nt101pvk","629e241d171ec6698e05f149","fixation","","","img/fixation.png","null","","","test","","","","","","","","","","","","","","","","","","","",""
"404.5","248382","SARL_v6","SARL_v6nt101pvk","629e241d171ec6698e05f149","freq","","","img/blue_2bandit_b2.png","70","","70","test","1","","96","","","","circle","square","92","3","5","0.9565217391304348","","","","","","","",""
"null","248791","SARL_v6","SARL_v6nt101pvk","629e241d171ec6698e05f149","freq_resp","","","img/blue_2bandit_b.png","70","img/blue_2bandit_b.png","70","test","","","","","","","","","","","5","","","","","","","","",""
"null","248951","SARL_v6","SARL_v6nt101pvk","629e241d171ec6698e05f149","fixation","","","img/fixation.png","null","","","test","","","","","","","","","","","","","","","","","","","",""
"366.5","249318","SARL_v6","SARL_v6nt101pvk","629e241d171ec6698e05f149","freq","","","img/blue_2bandit_b2.png","70","","70","test","1","","97","","","","circle","square","93","4","5","0.956989247311828","","","","","","","",""
"null","249763","SARL_v6","SARL_v6nt101pvk","629e241d171ec6698e05f149","freq_resp","","","img/blue_2bandit_b.png","70","img/blue_2bandit_b.png","70","test","","","","","","","","","","","5","","","","","","","","",""
"null","249923","SARL_v6","SARL_v6nt101pvk","629e241d171ec6698e05f149","fixation","","","img/fixation.png","null","","","test","","","","","","","","","","","","","","","","","","","",""
"378.3000000715256","250302","SARL_v6","SARL_v6nt101pvk","629e241d171ec6698e05f149","freq","","","img/blue_2bandit_b2.png","70","","70","test","1","","98","","","","circle","square","94","5","5","0.9574468085106383","","","","","","","",""
"null","250733","SARL_v6","SARL_v6nt101pvk","629e241d171ec6698e05f149","freq_resp","","","img/blue_2bandit_b.png","70","img/blue_2bandit_b.png","70","test","","","","","","","","","","","5","","","","","","","","",""
"null","250893","SARL_v6","SARL_v6nt101pvk","629e241d171ec6698e05f149","fixation","","","img/fixation.png","null","","","test","","","","","","","","","","","","","","","","","","","",""
"440.09999990463257","251335","SARL_v6","SARL_v6nt101pvk","629e241d171ec6698e05f149","infreq","","","img/orange_2bandit_b2.png","68","","68","test","1","","99","","","","circle","square","95","6","5","0.9578947368421052","","","","","","","",""
"null","251696","SARL_v6","SARL_v6nt101pvk","629e241d171ec6698e05f149","infreq_resp","","","img/orange_2bandit_b.png","68","img/orange_2bandit_b.png","68","test","","","","","","","","","","","5","","","","","","","","",""
"null","251856","SARL_v6","SARL_v6nt101pvk","629e241d171ec6698e05f149","fixation","","","img/fixation.png","null","","","test","","","","","","","","","","","","","","","","","","","",""
"381","252239","SARL_v6","SARL_v6nt101pvk","629e241d171ec6698e05f149","freq","","","img/blue_2bandit_b2.png","70","","70","test","1","","100","","","","circle","square","96","7","5","0.9583333333333334","","","","","","","",""
"null","252667","SARL_v6","SARL_v6nt101pvk","629e241d171ec6698e05f149","freq_resp","","","img/blue_2bandit_b.png","70","img/blue_2bandit_b.png","70","test","","","","","","","","","","","5","","","","","","","","",""
"null","252826","SARL_v6","SARL_v6nt101pvk","629e241d171ec6698e05f149","fixation","","","img/fixation.png","null","","","test","","","","","","","","","","","","","","","","","","","",""
"331","253159","SARL_v6","SARL_v6nt101pvk","629e241d171ec6698e05f149","freq","","","img/blue_2bandit_b2.png","70","","70","test","1","","101","","","","circle","square","97","8","5","0.9587628865979382","","","","","","","",""
"null","253641","SARL_v6","SARL_v6nt101pvk","629e241d171ec6698e05f149","freq_resp","","","img/blue_2bandit_b.png","70","img/blue_2bandit_b.png","70","test","","","","","","","","","","","5","","","","","","","","",""
"null","253799","SARL_v6","SARL_v6nt101pvk","629e241d171ec6698e05f149","fixation","","","img/fixation.png","null","","","test","","","","","","","","","","","","","","","","","","","",""
"351","254151","SARL_v6","SARL_v6nt101pvk","629e241d171ec6698e05f149","freq","","","img/blue_2bandit_b2.png","70","","70","test","1","","102","","","","circle","square","98","9","5","0.9591836734693877","","","","","","","",""
"null","254607","SARL_v6","SARL_v6nt101pvk","629e241d171ec6698e05f149","freq_resp","","","img/blue_2bandit_b.png","70","img/blue_2bandit_b.png","70","test","","","","","","","","","","","5","","","","","","","","",""
"null","254763","SARL_v6","SARL_v6nt101pvk","629e241d171ec6698e05f149","fixation","","","img/fixation.png","null","","","test","","","","","","","","","","","","","","","","","","","",""
"427","255191","SARL_v6","SARL_v6nt101pvk","629e241d171ec6698e05f149","infreq","","","img/orange_2bandit_b2.png","68","","68","test","1","","103","","","","circle","square","99","10","5","0.9595959595959596","","","","","","","",""
"null","255571","SARL_v6","SARL_v6nt101pvk","629e241d171ec6698e05f149","infreq_resp","","","img/orange_2bandit_b.png","68","img/orange_2bandit_b.png","68","test","","","","","","","","","","","5","","","","","","","","",""
"null","255729","SARL_v6","SARL_v6nt101pvk","629e241d171ec6698e05f149","fixation","","","img/fixation.png","null","","","test","","","","","","","","","","","","","","","","","","","",""
"372.89999997615814","256104","SARL_v6","SARL_v6nt101pvk","629e241d171ec6698e05f149","freq","","","img/blue_2bandit_b2.png","70","","70","test","1","","104","","","","circle","square","100","11","5","0.96","","","","","","","",""
"null","256539","SARL_v6","SARL_v6nt101pvk","629e241d171ec6698e05f149","freq_resp","","","img/blue_2bandit_b.png","70","img/blue_2bandit_b.png","70","test","","","","","","","","","","","5","","","","","","","","",""
"null","256695","SARL_v6","SARL_v6nt101pvk","629e241d171ec6698e05f149","fixation","","","img/fixation.png","null","","","test","","","","","","","","","","","","","","","","","","","",""
"382.60000002384186","257079","SARL_v6","SARL_v6nt101pvk","629e241d171ec6698e05f149","freq","","","img/blue_2bandit_b2.png","70","","70","test","1","","105","","","","circle","square","101","12","5","0.9603960396039604","","","","","","","",""
"null","257501","SARL_v6","SARL_v6nt101pvk","629e241d171ec6698e05f149","freq_resp","","","img/blue_2bandit_b.png","70","img/blue_2bandit_b.png","70","test","","","","","","","","","","","5","","","","","","","","",""
"null","257662","SARL_v6","SARL_v6nt101pvk","629e241d171ec6698e05f149","fixation","","","img/fixation.png","null","","","test","","","","","","","","","","","","","","","","","","","",""
"320.60000002384186","257984","SARL_v6","SARL_v6nt101pvk","629e241d171ec6698e05f149","freq","","","img/blue_2bandit_b2.png","70","","70","test","1","","106","","","","circle","square","102","13","5","0.9607843137254902","","","","","","","",""
"null","258472","SARL_v6","SARL_v6nt101pvk","629e241d171ec6698e05f149","freq_resp","","","img/blue_2bandit_b.png","70","img/blue_2bandit_b.png","70","test","","","","","","","","","","","5","","","","","","","","",""
"null","258630","SARL_v6","SARL_v6nt101pvk","629e241d171ec6698e05f149","fixation","","","img/fixation.png","null","","","test","","","","","","","","","","","","","","","","","","","",""
"360.8000000715256","258992","SARL_v6","SARL_v6nt101pvk","629e241d171ec6698e05f149","freq","","","img/blue_2bandit_b2.png","70","","70","test","1","","107","","","","circle","square","103","14","5","0.9611650485436893","","","","","","","",""
"null","259442","SARL_v6","SARL_v6nt101pvk","629e241d171ec6698e05f149","freq_resp","","","img/blue_2bandit_b.png","70","img/blue_2bandit_b.png","70","test","","","","","","","","","","","5","","","","","","","","",""
"null","259598","SARL_v6","SARL_v6nt101pvk","629e241d171ec6698e05f149","fixation","","","img/fixation.png","null","","","test","","","","","","","","","","","","","","","","","","","",""
"416.5","260016","SARL_v6","SARL_v6nt101pvk","629e241d171ec6698e05f149","freq","","","img/blue_2bandit_b2.png","70","","70","test","1","","108","","","","circle","square","104","15","5","0.9615384615384616","","","","","","","",""
"null","260410","SARL_v6","SARL_v6nt101pvk","629e241d171ec6698e05f149","freq_resp","","","img/blue_2bandit_b.png","70","img/blue_2bandit_b.png","70","test","","","","","","","","","","","5","","","","","","","","",""
"null","260570","SARL_v6","SARL_v6nt101pvk","629e241d171ec6698e05f149","fixation","","","img/fixation.png","null","","","test","","","","","","","","","","","","","","","","","","","",""
"421","260993","SARL_v6","SARL_v6nt101pvk","629e241d171ec6698e05f149","freq","","","img/blue_2bandit_b2.png","70","","70","test","1","","109","","","","circle","square","105","16","5","0.9619047619047619","","","","","","","",""
"null","261377","SARL_v6","SARL_v6nt101pvk","629e241d171ec6698e05f149","freq_resp","","","img/blue_2bandit_b.png","70","img/blue_2bandit_b.png","70","test","","","","","","","","","","","5","","","","","","","","",""
"null","261532","SARL_v6","SARL_v6nt101pvk","629e241d171ec6698e05f149","fixation","","","img/fixation.png","null","","","test","","","","","","","","","","","","","","","","","","","",""
"530.6999999284744","262064","SARL_v6","SARL_v6nt101pvk","629e241d171ec6698e05f149","freq","","","img/blue_2bandit_b2.png","70","","70","test","1","","110","","","","circle","square","106","17","5","0.9622641509433962","","","","","","","",""
"null","262342","SARL_v6","SARL_v6nt101pvk","629e241d171ec6698e05f149","freq_resp","","","img/blue_2bandit_b.png","70","img/blue_2bandit_b.png","70","test","","","","","","","","","","","5","","","","","","","","",""
"null","262500","SARL_v6","SARL_v6nt101pvk","629e241d171ec6698e05f149","fixation","","","img/fixation.png","null","","","test","","","","","","","","","","","","","","","","","","","",""
"459.10000002384186","262961","SARL_v6","SARL_v6nt101pvk","629e241d171ec6698e05f149","infreq","","","img/orange_2bandit_b2.png","68","","68","test","1","","111","","","","circle","square","107","18","5","0.9626168224299065","","","","","","","",""
"null","263307","SARL_v6","SARL_v6nt101pvk","629e241d171ec6698e05f149","infreq_resp","","","img/orange_2bandit_b.png","68","img/orange_2bandit_b.png","68","test","","","","","","","","","","","5","","","","","","","","",""
"null","263466","SARL_v6","SARL_v6nt101pvk","629e241d171ec6698e05f149","fixation","","","img/fixation.png","null","","","test","","","","","","","","","","","","","","","","","","","",""
"413.39999997615814","263881","SARL_v6","SARL_v6nt101pvk","629e241d171ec6698e05f149","freq","","","img/blue_2bandit_b2.png","70","","70","test","1","","112","","","","circle","square","108","19","5","0.9629629629629629","","","","","","","",""
"null","264269","SARL_v6","SARL_v6nt101pvk","629e241d171ec6698e05f149","freq_resp","","","img/blue_2bandit_b.png","70","img/blue_2bandit_b.png","70","test","","","","","","","","","","","5","","","","","","","","",""
"null","264427","SARL_v6","SARL_v6nt101pvk","629e241d171ec6698e05f149","fixation","","","img/fixation.png","null","","","test","","","","","","","","","","","","","","","","","","","",""
"412.2000000476837","264840","SARL_v6","SARL_v6nt101pvk","629e241d171ec6698e05f149","freq","","","img/blue_2bandit_b2.png","70","","70","test","1","","113","","","","circle","square","109","20","5","0.963302752293578","","","","","","","",""
"null","265232","SARL_v6","SARL_v6nt101pvk","629e241d171ec6698e05f149","freq_resp","","","img/blue_2bandit_b.png","70","img/blue_2bandit_b.png","70","test","","","","","","","","","","","5","","","","","","","","",""
"null","265388","SARL_v6","SARL_v6nt101pvk","629e241d171ec6698e05f149","fixation","","","img/fixation.png","null","","","test","","","","","","","","","","","","","","","","","","","",""
"419.2999999523163","265809","SARL_v6","SARL_v6nt101pvk","629e241d171ec6698e05f149","freq","","","img/blue_2bandit_b2.png","70","","70","test","1","","114","","","","circle","square","110","21","5","0.9636363636363636","","","","","","","",""
"null","266196","SARL_v6","SARL_v6nt101pvk","629e241d171ec6698e05f149","freq_resp","","","img/blue_2bandit_b.png","70","img/blue_2bandit_b.png","70","test","","","","","","","","","","","5","","","","","","","","",""
"null","266353","SARL_v6","SARL_v6nt101pvk","629e241d171ec6698e05f149","fixation","","","img/fixation.png","null","","","test","","","","","","","","","","","","","","","","","","","",""
"406.2000000476837","266761","SARL_v6","SARL_v6nt101pvk","629e241d171ec6698e05f149","freq","","","img/blue_2bandit_b2.png","70","","70","test","1","","115","","","","circle","square","111","22","5","0.963963963963964","","","","","","","",""
"null","267162","SARL_v6","SARL_v6nt101pvk","629e241d171ec6698e05f149","freq_resp","","","img/blue_2bandit_b.png","70","img/blue_2bandit_b.png","70","test","","","","","","","","","","","5","","","","","","","","",""
"null","267322","SARL_v6","SARL_v6nt101pvk","629e241d171ec6698e05f149","fixation","","","img/fixation.png","null","","","test","","","","","","","","","","","","","","","","","","","",""
"406","267729","SARL_v6","SARL_v6nt101pvk","629e241d171ec6698e05f149","freq","","","img/blue_2bandit_b2.png","70","","70","test","1","","116","","","","circle","square","112","23","5","0.9642857142857143","","","","","","","",""
"null","268130","SARL_v6","SARL_v6nt101pvk","629e241d171ec6698e05f149","freq_resp","","","img/blue_2bandit_b.png","70","img/blue_2bandit_b.png","70","test","","","","","","","","","","","5","","","","","","","","",""
"null","268287","SARL_v6","SARL_v6nt101pvk","629e241d171ec6698e05f149","fixation","","","img/fixation.png","null","","","test","","","","","","","","","","","","","","","","","","","",""
"608.6999999284744","268897","SARL_v6","SARL_v6nt101pvk","629e241d171ec6698e05f149","rl","","","img/black_2bandit_b2.png","74","","0","test","","","117","","","4","circle","square","","0","5","","74","4","-7","4","-7","circle","5","0"
"null","269659","SARL_v6","SARL_v6nt101pvk","629e241d171ec6698e05f149","feedback","","","<div class=""veryhighPoints""> 4 </div>","null","","na","test","","","NaN","","","","","","","","5","","74","","","","","","5",""
"700.5","270361","SARL_v6","SARL_v6nt101pvk","629e241d171ec6698e05f149","freq","","","img/blue_2bandit_b2.png","70","","70","test","1","","118","","","","circle","square","113","1","6","0.9646017699115044","","","","","","","",""
"null","270470","SARL_v6","SARL_v6nt101pvk","629e241d171ec6698e05f149","freq_resp","","","img/blue_2bandit_b.png","70","img/blue_2bandit_b.png","70","test","","","","","","","","","","","6","","","","","","","","",""
"null","270628","SARL_v6","SARL_v6nt101pvk","629e241d171ec6698e05f149","fixation","","","img/fixation.png","null","","","test","","","","","","","","","","","","","","","","","","","",""
"588.4000000953674","271217","SARL_v6","SARL_v6nt101pvk","629e241d171ec6698e05f149","freq","","","img/blue_2bandit_b2.png","70","","70","test","1","","119","","","","circle","square","114","2","6","0.9649122807017544","","","","","","","",""
"null","271434","SARL_v6","SARL_v6nt101pvk","629e241d171ec6698e05f149","freq_resp","","","img/blue_2bandit_b.png","70","img/blue_2bandit_b.png","70","test","","","","","","","","","","","6","","","","","","","","",""
"null","271592","SARL_v6","SARL_v6nt101pvk","629e241d171ec6698e05f149","fixation","","","img/fixation.png","null","","","test","","","","","","","","","","","","","","","","","","","",""
"448.2999999523163","272041","SARL_v6","SARL_v6nt101pvk","629e241d171ec6698e05f149","freq","","","img/blue_2bandit_b2.png","70","","70","test","1","","120","","","","circle","square","115","3","6","0.9652173913043478","","","","","","","",""
"null","272400","SARL_v6","SARL_v6nt101pvk","629e241d171ec6698e05f149","freq_resp","","","img/blue_2bandit_b.png","70","img/blue_2bandit_b.png","70","test","","","","","","","","","","","6","","","","","","","","",""
"null","272558","SARL_v6","SARL_v6nt101pvk","629e241d171ec6698e05f149","fixation","","","img/fixation.png","null","","","test","","","","","","","","","","","","","","","","","","","",""
"450.10000002384186","273010","SARL_v6","SARL_v6nt101pvk","629e241d171ec6698e05f149","freq","","","img/blue_2bandit_b2.png","70","","70","test","1","","121","","","","circle","square","116","4","6","0.9655172413793104","","","","","","","",""
"null","273369","SARL_v6","SARL_v6nt101pvk","629e241d171ec6698e05f149","freq_resp","","","img/blue_2bandit_b.png","70","img/blue_2bandit_b.png","70","test","","","","","","","","","","","6","","","","","","","","",""
"null","273527","SARL_v6","SARL_v6nt101pvk","629e241d171ec6698e05f149","fixation","","","img/fixation.png","null","","","test","","","","","","","","","","","","","","","","","","","",""
"570","274098","SARL_v6","SARL_v6nt101pvk","629e241d171ec6698e05f149","infreq","","","img/orange_2bandit_b2.png","68","","68","test","1","","122","","","","circle","square","117","5","6","0.9658119658119658","","","","","","","",""
"null","274334","SARL_v6","SARL_v6nt101pvk","629e241d171ec6698e05f149","infreq_resp","","","img/orange_2bandit_b.png","68","img/orange_2bandit_b.png","68","test","","","","","","","","","","","6","","","","","","","","",""
"null","274490","SARL_v6","SARL_v6nt101pvk","629e241d171ec6698e05f149","fixation","","","img/fixation.png","null","","","test","","","","","","","","","","","","","","","","","","","",""
"445.6999999284744","274938","SARL_v6","SARL_v6nt101pvk","629e241d171ec6698e05f149","infreq","","","img/orange_2bandit_b2.png","68","","68","test","1","","123","","","","circle","square","118","6","6","0.9661016949152542","","","","","","","",""
"null","275299","SARL_v6","SARL_v6nt101pvk","629e241d171ec6698e05f149","infreq_resp","","","img/orange_2bandit_b.png","68","img/orange_2bandit_b.png","68","test","","","","","","","","","","","6","","","","","","","","",""
"null","275456","SARL_v6","SARL_v6nt101pvk","629e241d171ec6698e05f149","fixation","","","img/fixation.png","null","","","test","","","","","","","","","","","","","","","","","","","",""
"424.10000002384186","275882","SARL_v6","SARL_v6nt101pvk","629e241d171ec6698e05f149","freq","","","img/blue_2bandit_b2.png","70","","70","test","1","","124","","","","circle","square","119","7","6","0.9663865546218487","","","","","","","",""
"null","276272","SARL_v6","SARL_v6nt101pvk","629e241d171ec6698e05f149","freq_resp","","","img/blue_2bandit_b.png","70","img/blue_2bandit_b.png","70","test","","","","","","","","","","","6","","","","","","","","",""
"null","276432","SARL_v6","SARL_v6nt101pvk","629e241d171ec6698e05f149","fixation","","","img/fixation.png","null","","","test","","","","","","","","","","","","","","","","","","","",""
"392","276826","SARL_v6","SARL_v6nt101pvk","629e241d171ec6698e05f149","freq","","","img/blue_2bandit_b2.png","70","","70","test","1","","125","","","","circle","square","120","8","6","0.9666666666666667","","","","","","","",""
"null","277239","SARL_v6","SARL_v6nt101pvk","629e241d171ec6698e05f149","freq_resp","","","img/blue_2bandit_b.png","70","img/blue_2bandit_b.png","70","test","","","","","","","","","","","6","","","","","","","","",""
"null","277397","SARL_v6","SARL_v6nt101pvk","629e241d171ec6698e05f149","fixation","","","img/fixation.png","null","","","test","","","","","","","","","","","","","","","","","","","",""
"395.7000000476837","277794","SARL_v6","SARL_v6nt101pvk","629e241d171ec6698e05f149","freq","","","img/blue_2bandit_b2.png","70","","70","test","1","","126","","","","circle","square","121","9","6","0.9669421487603306","","","","","","","",""
"null","278207","SARL_v6","SARL_v6nt101pvk","629e241d171ec6698e05f149","freq_resp","","","img/blue_2bandit_b.png","70","img/blue_2bandit_b.png","70","test","","","","","","","","","","","6","","","","","","","","",""
"null","278363","SARL_v6","SARL_v6nt101pvk","629e241d171ec6698e05f149","fixation","","","img/fixation.png","null","","","test","","","","","","","","","","","","","","","","","","","",""
"357.1999999284744","278722","SARL_v6","SARL_v6nt101pvk","629e241d171ec6698e05f149","freq","","","img/blue_2bandit_b2.png","70","","70","test","1","","127","","","","circle","square","122","10","6","0.9672131147540983","","","","","","","",""
"null","279174","SARL_v6","SARL_v6nt101pvk","629e241d171ec6698e05f149","freq_resp","","","img/blue_2bandit_b.png","70","img/blue_2bandit_b.png","70","test","","","","","","","","","","","6","","","","","","","","",""
"null","279328","SARL_v6","SARL_v6nt101pvk","629e241d171ec6698e05f149","fixation","","","img/fixation.png","null","","","test","","","","","","","","","","","","","","","","","","","",""
"352.60000002384186","279682","SARL_v6","SARL_v6nt101pvk","629e241d171ec6698e05f149","freq","","","img/blue_2bandit_b2.png","70","","70","test","1","","128","","","","circle","square","123","11","6","0.967479674796748","","","","","","","",""
"null","280143","SARL_v6","SARL_v6nt101pvk","629e241d171ec6698e05f149","freq_resp","","","img/blue_2bandit_b.png","70","img/blue_2bandit_b.png","70","test","","","","","","","","","","","6","","","","","","","","",""
"null","280300","SARL_v6","SARL_v6nt101pvk","629e241d171ec6698e05f149","fixation","","","img/fixation.png","null","","","test","","","","","","","","","","","","","","","","","","","",""
"348.5","280650","SARL_v6","SARL_v6nt101pvk","629e241d171ec6698e05f149","freq","","","img/blue_2bandit_b2.png","70","","70","test","1","","129","","","","circle","square","124","12","6","0.967741935483871","","","","","","","",""
"null","281111","SARL_v6","SARL_v6nt101pvk","629e241d171ec6698e05f149","freq_resp","","","img/blue_2bandit_b.png","70","img/blue_2bandit_b.png","70","test","","","","","","","","","","","6","","","","","","","","",""
"null","281267","SARL_v6","SARL_v6nt101pvk","629e241d171ec6698e05f149","fixation","","","img/fixation.png","null","","","test","","","","","","","","","","","","","","","","","","","",""
"325.39999997615814","281594","SARL_v6","SARL_v6nt101pvk","629e241d171ec6698e05f149","freq","","","img/blue_2bandit_b2.png","70","","70","test","1","","130","","","","circle","square","125","13","6","0.968","","","","","","","",""
