"rt","time_elapsed","expId","subject","prolificID","trialType","rlType","attType","stimulus","key_press","stim","corrresp","phase","corr","pracCounter","trialNum","rewardOne","rewardTwo","reward","bandOne","bandTwo","attentionNum","attentionRunNum","blockNum","performance","bandChosen","circleVal","squareVal","bandOneVal","bandTwoVal","shapeChosen","rlNum","badFlag"
"22363","22371","SARL_v6","SARL_v6q4psehdq","6108cbdb1585c7084e0d110d","","","","","","","","","","","","","","","","","","","","","","","","","","","",""
"","26085","SARL_v6","SARL_v6q4psehdq","6108cbdb1585c7084e0d110d","fullscreen","fullscreen","fullscreen","","","","","","","","","","","","","","","","","","","","","","","","",""
"89552","115639","SARL_v6","SARL_v6q4psehdq","6108cbdb1585c7084e0d110d","","","","","","","","","","","","","","","","","","","","","","","","","","","",""
"null","116444","SARL_v6","SARL_v6q4psehdq","6108cbdb1585c7084e0d110d","freqPrac","","","img/orange_2bandit_b2.png","null","img/orange_2bandit_b2.png","70","prac","0","1","","","","","","","","","","","","","","","","","",""
"null","117450","SARL_v6","SARL_v6q4psehdq","6108cbdb1585c7084e0d110d","feedback","","","img/tooSlow.png","null","","na","prac","","","","","","","","","","","","","","","","","","","",""
"null","117605","SARL_v6","SARL_v6q4psehdq","6108cbdb1585c7084e0d110d","fixation","","","img/fixation.png","null","","","prac","","","","","","","","","","","","","","","","","","","",""
"617.9999999999854","118226","SARL_v6","SARL_v6q4psehdq","6108cbdb1585c7084e0d110d","infreqPrac","","","img/blue_2bandit_b2.png","68","img/blue_2bandit_b2.png","68","prac","1","1","","","","","","","","","","","","","","","","","",""
"617.9999999999854","118413","SARL_v6","SARL_v6q4psehdq","6108cbdb1585c7084e0d110d","infreqPrac_resp","","","img/blue_2bandit_b.png","68","img/blue_2bandit_b.png","68","prac","","","","","","","","","","","","","","","","","","","",""
"null","118568","SARL_v6","SARL_v6q4psehdq","6108cbdb1585c7084e0d110d","fixation","","","img/fixation.png","null","","","prac","","","","","","","","","","","","","","","","","","","",""
"582","119153","SARL_v6","SARL_v6q4psehdq","6108cbdb1585c7084e0d110d","freqPrac","","","img/orange_2bandit_b2.png","70","img/orange_2bandit_b2.png","70","prac","1","1","","","","","","","","","","","","","","","","","",""
"582","119376","SARL_v6","SARL_v6q4psehdq","6108cbdb1585c7084e0d110d","freqPrac_resp","","","img/orange_2bandit_b.png","70","img/orange_2bandit_b.png","70","prac","","","","","","","","","","","","","","","","","","","",""
"null","119530","SARL_v6","SARL_v6q4psehdq","6108cbdb1585c7084e0d110d","fixation","","","img/fixation.png","null","","","prac","","","","","","","","","","","","","","","","","","","",""
"529","120062","SARL_v6","SARL_v6q4psehdq","6108cbdb1585c7084e0d110d","infreqPrac","","","img/blue_2bandit_b2.png","68","img/blue_2bandit_b2.png","68","prac","1","1","","","","","","","","","","","","","","","","","",""
"529","120338","SARL_v6","SARL_v6q4psehdq","6108cbdb1585c7084e0d110d","infreqPrac_resp","","","img/blue_2bandit_b.png","68","img/blue_2bandit_b.png","68","prac","","","","","","","","","","","","","","","","","","","",""
"null","120492","SARL_v6","SARL_v6q4psehdq","6108cbdb1585c7084e0d110d","fixation","","","img/fixation.png","null","","","prac","","","","","","","","","","","","","","","","","","","",""
"395.99999999998545","120891","SARL_v6","SARL_v6q4psehdq","6108cbdb1585c7084e0d110d","infreqPrac","","","img/blue_2bandit_b2.png","68","img/blue_2bandit_b2.png","68","prac","1","1","","","","","","","","","","","","","","","","","",""
"395.99999999998545","121300","SARL_v6","SARL_v6q4psehdq","6108cbdb1585c7084e0d110d","infreqPrac_resp","","","img/blue_2bandit_b.png","68","img/blue_2bandit_b.png","68","prac","","","","","","","","","","","","","","","","","","","",""
"null","121455","SARL_v6","SARL_v6q4psehdq","6108cbdb1585c7084e0d110d","fixation","","","img/fixation.png","null","","","prac","","","","","","","","","","","","","","","","","","","",""
"360","121818","SARL_v6","SARL_v6q4psehdq","6108cbdb1585c7084e0d110d","infreqPrac","","","img/blue_2bandit_b2.png","68","img/blue_2bandit_b2.png","68","prac","1","1","","","","","","","","","","","","","","","","","",""
"360","122263","SARL_v6","SARL_v6q4psehdq","6108cbdb1585c7084e0d110d","infreqPrac_resp","","","img/blue_2bandit_b.png","68","img/blue_2bandit_b.png","68","prac","","","","","","","","","","","","","","","","","","","",""
"null","122416","SARL_v6","SARL_v6q4psehdq","6108cbdb1585c7084e0d110d","fixation","","","img/fixation.png","null","","","prac","","","","","","","","","","","","","","","","","","","",""
"442.00000000001455","122861","SARL_v6","SARL_v6q4psehdq","6108cbdb1585c7084e0d110d","freqPrac","","","img/orange_2bandit_b2.png","70","img/orange_2bandit_b2.png","70","prac","1","1","","","","","","","","","","","","","","","","","",""
"442.00000000001455","123222","SARL_v6","SARL_v6q4psehdq","6108cbdb1585c7084e0d110d","freqPrac_resp","","","img/orange_2bandit_b.png","70","img/orange_2bandit_b.png","70","prac","","","","","","","","","","","","","","","","","","","",""
"null","123377","SARL_v6","SARL_v6q4psehdq","6108cbdb1585c7084e0d110d","fixation","","","img/fixation.png","null","","","prac","","","","","","","","","","","","","","","","","","","",""
"367","123747","SARL_v6","SARL_v6q4psehdq","6108cbdb1585c7084e0d110d","infreqPrac","","","img/blue_2bandit_b2.png","68","img/blue_2bandit_b2.png","68","prac","1","1","","","","","","","","","","","","","","","","","",""
"367","124185","SARL_v6","SARL_v6q4psehdq","6108cbdb1585c7084e0d110d","infreqPrac_resp","","","img/blue_2bandit_b.png","68","img/blue_2bandit_b.png","68","prac","","","","","","","","","","","","","","","","","","","",""
"null","124340","SARL_v6","SARL_v6q4psehdq","6108cbdb1585c7084e0d110d","fixation","","","img/fixation.png","null","","","prac","","","","","","","","","","","","","","","","","","","",""
"348","124691","SARL_v6","SARL_v6q4psehdq","6108cbdb1585c7084e0d110d","freqPrac","","","img/orange_2bandit_b2.png","70","img/orange_2bandit_b2.png","70","prac","1","1","","","","","","","","","","","","","","","","","",""
"348","125148","SARL_v6","SARL_v6q4psehdq","6108cbdb1585c7084e0d110d","freqPrac_resp","","","img/orange_2bandit_b.png","70","img/orange_2bandit_b.png","70","prac","","","","","","","","","","","","","","","","","","","",""
"null","125302","SARL_v6","SARL_v6q4psehdq","6108cbdb1585c7084e0d110d","fixation","","","img/fixation.png","null","","","prac","","","","","","","","","","","","","","","","","","","",""
"167","125472","SARL_v6","SARL_v6q4psehdq","6108cbdb1585c7084e0d110d","freqPrac","","","img/orange_2bandit_b2.png","68","img/orange_2bandit_b2.png","70","prac","0","2","","","","","","","","","","","","","","","","","",""
"167","126110","SARL_v6","SARL_v6q4psehdq","6108cbdb1585c7084e0d110d","freqPrac_resp","","","img/orange_2bandit_b.png","68","img/orange_2bandit_b.png","70","prac","","","","","","","","","","","","","","","","","","","",""
"null","127115","SARL_v6","SARL_v6q4psehdq","6108cbdb1585c7084e0d110d","feedback","","","img/wrongKey.png","null","","na","prac","","","","","","","","","","","","","","","","","","","",""
"null","127270","SARL_v6","SARL_v6q4psehdq","6108cbdb1585c7084e0d110d","fixation","","","img/fixation.png","null","","","prac","","","","","","","","","","","","","","","","","","","",""
"41938.999999999985","169211","SARL_v6","SARL_v6q4psehdq","6108cbdb1585c7084e0d110d","","","","","","","","prac","","","","","","","","","","","","","","","","","","","",""
"1129","170343","SARL_v6","SARL_v6q4psehdq","6108cbdb1585c7084e0d110d","rlPractice","","","img/black_2bandit_b2.png","75","img/black_2bandit_b2.png","","prac","","","0","","","","","","","","","","","","","","","","",""
"null","171098","SARL_v6","SARL_v6q4psehdq","6108cbdb1585c7084e0d110d","feedback","","","<div class=""verylowPoints_sq""> -14 </div>","null","","na","prac","","","1","10","-14","10","","","","","","","","","","","","","",""
"null","171253","SARL_v6","SARL_v6q4psehdq","6108cbdb1585c7084e0d110d","fixation","","","img/fixation.png","null","","","prac","","","","","","","","","","","","","","","","","","","",""
"566","171822","SARL_v6","SARL_v6q4psehdq","6108cbdb1585c7084e0d110d","rlPractice","","","img/black_2bandit_b2.png","74","img/black_2bandit_b2.png","","prac","","","1","","","","","","","","","","","","","","","","",""
"null","172576","SARL_v6","SARL_v6q4psehdq","6108cbdb1585c7084e0d110d","feedback","","","<div class=""veryhighPoints""> 5 </div>","null","","na","prac","","","2","5","-5","5","","","","","","","","","","","","","",""
"null","172731","SARL_v6","SARL_v6q4psehdq","6108cbdb1585c7084e0d110d","fixation","","","img/fixation.png","null","","","prac","","","","","","","","","","","","","","","","","","","",""
"799","173533","SARL_v6","SARL_v6q4psehdq","6108cbdb1585c7084e0d110d","rlPractice","","","img/black_2bandit_b2.png","74","img/black_2bandit_b2.png","","prac","","","2","","","","","","","","","","","","","","","","",""
"null","174288","SARL_v6","SARL_v6q4psehdq","6108cbdb1585c7084e0d110d","feedback","","","<div class=""veryhighPoints""> 30 </div>","null","","na","prac","","","3","30","2","30","","","","","","","","","","","","","",""
"null","174443","SARL_v6","SARL_v6q4psehdq","6108cbdb1585c7084e0d110d","fixation","","","img/fixation.png","null","","","prac","","","","","","","","","","","","","","","","","","","",""
"811","175257","SARL_v6","SARL_v6q4psehdq","6108cbdb1585c7084e0d110d","rlPractice","","","img/black_2bandit_b2.png","74","img/black_2bandit_b2.png","","prac","","","3","","","","","","","","","","","","","","","","",""
"null","176012","SARL_v6","SARL_v6q4psehdq","6108cbdb1585c7084e0d110d","feedback","","","<div class=""verylowPoints""> -2 </div>","null","","na","prac","","","4","-2","20","-2","","","","","","","","","","","","","",""
"null","176166","SARL_v6","SARL_v6q4psehdq","6108cbdb1585c7084e0d110d","fixation","","","img/fixation.png","null","","","prac","","","","","","","","","","","","","","","","","","","",""
"24413","200582","SARL_v6","SARL_v6q4psehdq","6108cbdb1585c7084e0d110d","","","","","","","","prac","","","","","","","","","","","","","","","","","","","",""
"687","201272","SARL_v6","SARL_v6q4psehdq","6108cbdb1585c7084e0d110d","mixAttFreqPrac","","","img/orange_2bandit_b2.png","70","img/orange_2bandit_b2.png","70","prac","","","1","","","","","","","","","","","","","","","","",""
"687","201390","SARL_v6","SARL_v6q4psehdq","6108cbdb1585c7084e0d110d","freqPrac_resp","","","img/orange_2bandit_b.png","70","img/orange_2bandit_b.png","70","prac","","","1","","","","","","","","","","","","","","","","",""
"null","201545","SARL_v6","SARL_v6q4psehdq","6108cbdb1585c7084e0d110d","fixation","","","img/fixation.png","null","","","prac","","","","","","","","","","","","","","","","","","","",""
"573","202121","SARL_v6","SARL_v6q4psehdq","6108cbdb1585c7084e0d110d","mixAttInfreqPrac","","","img/blue_2bandit_b2.png","68","img/blue_2bandit_b2.png","68","prac","","","2","","","","","","","","","","","","","","","","",""
"573","202353","SARL_v6","SARL_v6q4psehdq","6108cbdb1585c7084e0d110d","infreqPrac_resp","","","img/blue_2bandit_b.png","68","img/orange_2bandit_b.png","68","prac","","","2","","","","","","","","","","","","","","","","",""
"null","202508","SARL_v6","SARL_v6q4psehdq","6108cbdb1585c7084e0d110d","fixation","","","img/fixation.png","null","","","prac","","","","","","","","","","","","","","","","","","","",""
"514","203024","SARL_v6","SARL_v6q4psehdq","6108cbdb1585c7084e0d110d","mixAttInfreqPrac","","","img/blue_2bandit_b2.png","68","img/blue_2bandit_b2.png","68","prac","","","3","","","","","","","","","","","","","","","","",""
"514","203315","SARL_v6","SARL_v6q4psehdq","6108cbdb1585c7084e0d110d","infreqPrac_resp","","","img/blue_2bandit_b.png","68","img/orange_2bandit_b.png","68","prac","","","3","","","","","","","","","","","","","","","","",""
"null","203470","SARL_v6","SARL_v6q4psehdq","6108cbdb1585c7084e0d110d","fixation","","","img/fixation.png","null","","","prac","","","","","","","","","","","","","","","","","","","",""
"483","203955","SARL_v6","SARL_v6q4psehdq","6108cbdb1585c7084e0d110d","mixAttInfreqPrac","","","img/blue_2bandit_b2.png","68","img/blue_2bandit_b2.png","68","prac","","","4","","","","","","","","","","","","","","","","",""
"483","204277","SARL_v6","SARL_v6q4psehdq","6108cbdb1585c7084e0d110d","infreqPrac_resp","","","img/blue_2bandit_b.png","68","img/orange_2bandit_b.png","68","prac","","","4","","","","","","","","","","","","","","","","",""
"null","204432","SARL_v6","SARL_v6q4psehdq","6108cbdb1585c7084e0d110d","fixation","","","img/fixation.png","null","","","prac","","","","","","","","","","","","","","","","","","","",""
"567.9999999999709","205002","SARL_v6","SARL_v6q4psehdq","6108cbdb1585c7084e0d110d","mixAttFreqPrac","","","img/orange_2bandit_b2.png","70","img/orange_2bandit_b2.png","70","prac","","","5","","","","","","","","","","","","","","","","",""
"567.9999999999709","205239","SARL_v6","SARL_v6q4psehdq","6108cbdb1585c7084e0d110d","freqPrac_resp","","","img/orange_2bandit_b.png","70","img/orange_2bandit_b.png","70","prac","","","5","","","","","","","","","","","","","","","","",""
"null","205394","SARL_v6","SARL_v6q4psehdq","6108cbdb1585c7084e0d110d","fixation","","","img/fixation.png","null","","","prac","","","","","","","","","","","","","","","","","","","",""
"649","206045","SARL_v6","SARL_v6q4psehdq","6108cbdb1585c7084e0d110d","mixRLPractice","","","img/black_2bandit_b2.png","75","img/black_2bandit_b2.png","","prac","","","5","","","","","","","","","","","","","","","","",""
"null","206800","SARL_v6","SARL_v6q4psehdq","6108cbdb1585c7084e0d110d","feedback","","","<div class=""veryhighPoints_sq""> 10 </div>","null","","na","prac","","","6","-14","10","-14","","","","","","","","","","","","","",""
"null","206954","SARL_v6","SARL_v6q4psehdq","6108cbdb1585c7084e0d110d","fixation","","","img/fixation.png","null","","","prac","","","","","","","","","","","","","","","","","","","",""
"770","207728","SARL_v6","SARL_v6q4psehdq","6108cbdb1585c7084e0d110d","mixAttFreqPrac","","","img/orange_2bandit_b2.png","70","img/orange_2bandit_b2.png","70","prac","","","7","","","","","","","","","","","","","","","","",""
"770","207762","SARL_v6","SARL_v6q4psehdq","6108cbdb1585c7084e0d110d","freqPrac_resp","","","img/orange_2bandit_b.png","70","img/orange_2bandit_b.png","70","prac","","","7","","","","","","","","","","","","","","","","",""
"null","207916","SARL_v6","SARL_v6q4psehdq","6108cbdb1585c7084e0d110d","fixation","","","img/fixation.png","null","","","prac","","","","","","","","","","","","","","","","","","","",""
"null","208720","SARL_v6","SARL_v6q4psehdq","6108cbdb1585c7084e0d110d","mixAttInfreqPrac","","","img/blue_2bandit_b2.png","null","img/blue_2bandit_b2.png","68","prac","","","8","","","","","","","","","","","","","","","","",""
"27","208875","SARL_v6","SARL_v6q4psehdq","6108cbdb1585c7084e0d110d","fixation","","","img/fixation.png","68","","","prac","","","","","","","","","","","","","","","","","","","",""
"628","209506","SARL_v6","SARL_v6q4psehdq","6108cbdb1585c7084e0d110d","mixAttFreqPrac","","","img/orange_2bandit_b2.png","70","img/orange_2bandit_b2.png","70","prac","","","9","","","","","","","","","","","","","","","","",""
"628","209682","SARL_v6","SARL_v6q4psehdq","6108cbdb1585c7084e0d110d","freqPrac_resp","","","img/orange_2bandit_b.png","70","img/orange_2bandit_b.png","70","prac","","","9","","","","","","","","","","","","","","","","",""
"null","209836","SARL_v6","SARL_v6q4psehdq","6108cbdb1585c7084e0d110d","fixation","","","img/fixation.png","null","","","prac","","","","","","","","","","","","","","","","","","","",""
"411.9999999999709","210251","SARL_v6","SARL_v6q4psehdq","6108cbdb1585c7084e0d110d","mixAttFreqPrac","","","img/orange_2bandit_b2.png","70","img/orange_2bandit_b2.png","70","prac","","","10","","","","","","","","","","","","","","","","",""
"411.9999999999709","210644","SARL_v6","SARL_v6q4psehdq","6108cbdb1585c7084e0d110d","freqPrac_resp","","","img/orange_2bandit_b.png","70","img/orange_2bandit_b.png","70","prac","","","10","","","","","","","","","","","","","","","","",""
"null","210798","SARL_v6","SARL_v6q4psehdq","6108cbdb1585c7084e0d110d","fixation","","","img/fixation.png","null","","","prac","","","","","","","","","","","","","","","","","","","",""
"596","211397","SARL_v6","SARL_v6q4psehdq","6108cbdb1585c7084e0d110d","mixAttInfreqPrac","","","img/blue_2bandit_b2.png","68","img/blue_2bandit_b2.png","68","prac","","","11","","","","","","","","","","","","","","","","",""
"596","211606","SARL_v6","SARL_v6q4psehdq","6108cbdb1585c7084e0d110d","infreqPrac_resp","","","img/blue_2bandit_b.png","68","img/orange_2bandit_b.png","68","prac","","","11","","","","","","","","","","","","","","","","",""
"null","211760","SARL_v6","SARL_v6q4psehdq","6108cbdb1585c7084e0d110d","fixation","","","img/fixation.png","null","","","prac","","","","","","","","","","","","","","","","","","","",""
"792","212555","SARL_v6","SARL_v6q4psehdq","6108cbdb1585c7084e0d110d","mixRLPractice","","","img/black_2bandit_b2.png","74","img/black_2bandit_b2.png","","prac","","","11","","","","","","","","","","","","","","","","",""
"null","213310","SARL_v6","SARL_v6q4psehdq","6108cbdb1585c7084e0d110d","feedback","","","<div class=""veryhighPoints""> 5 </div>","null","","na","prac","","","12","5","-5","5","","","","","","","","","","","","","",""
"null","213465","SARL_v6","SARL_v6q4psehdq","6108cbdb1585c7084e0d110d","fixation","","","img/fixation.png","null","","","prac","","","","","","","","","","","","","","","","","","","",""
"13198","226665","SARL_v6","SARL_v6q4psehdq","6108cbdb1585c7084e0d110d","","","","","","","","prac","","","","","","","","","","","","","","","","","","","",""
"701.0000000000291","227369","SARL_v6","SARL_v6q4psehdq","6108cbdb1585c7084e0d110d","freq","","","img/orange_2bandit_b2.png","70","","70","test","1","","1","","","","circle","square","1","1","1","1","","","","","","","",""
"null","227473","SARL_v6","SARL_v6q4psehdq","6108cbdb1585c7084e0d110d","freq_resp","","","img/orange_2bandit_b.png","70","img/orange_2bandit_b.png","70","test","","","","","","","","","","","1","","","","","","","","",""
"null","227626","SARL_v6","SARL_v6q4psehdq","6108cbdb1585c7084e0d110d","fixation","","","img/fixation.png","null","","","test","","","","","","","","","","","","","","","","","","","",""
"444","228074","SARL_v6","SARL_v6q4psehdq","6108cbdb1585c7084e0d110d","freq","","","img/orange_2bandit_b2.png","70","","70","test","1","","2","","","","circle","square","2","2","1","1","","","","","","","",""
"null","228434","SARL_v6","SARL_v6q4psehdq","6108cbdb1585c7084e0d110d","freq_resp","","","img/orange_2bandit_b.png","70","img/orange_2bandit_b.png","70","test","","","","","","","","","","","1","","","","","","","","",""
"null","228588","SARL_v6","SARL_v6q4psehdq","6108cbdb1585c7084e0d110d","fixation","","","img/fixation.png","null","","","test","","","","","","","","","","","","","","","","","","","",""
"405","228996","SARL_v6","SARL_v6q4psehdq","6108cbdb1585c7084e0d110d","freq","","","img/orange_2bandit_b2.png","70","","70","test","1","","3","","","","circle","square","3","3","1","1","","","","","","","",""
"null","229396","SARL_v6","SARL_v6q4psehdq","6108cbdb1585c7084e0d110d","freq_resp","","","img/orange_2bandit_b.png","70","img/orange_2bandit_b.png","70","test","","","","","","","","","","","1","","","","","","","","",""
"null","229550","SARL_v6","SARL_v6q4psehdq","6108cbdb1585c7084e0d110d","fixation","","","img/fixation.png","null","","","test","","","","","","","","","","","","","","","","","","","",""
"402.9999999999709","229957","SARL_v6","SARL_v6q4psehdq","6108cbdb1585c7084e0d110d","freq","","","img/orange_2bandit_b2.png","70","","70","test","1","","4","","","","circle","square","4","4","1","1","","","","","","","",""
"null","230358","SARL_v6","SARL_v6q4psehdq","6108cbdb1585c7084e0d110d","freq_resp","","","img/orange_2bandit_b.png","70","img/orange_2bandit_b.png","70","test","","","","","","","","","","","1","","","","","","","","",""
"null","230513","SARL_v6","SARL_v6q4psehdq","6108cbdb1585c7084e0d110d","fixation","","","img/fixation.png","null","","","test","","","","","","","","","","","","","","","","","","","",""
"392","230908","SARL_v6","SARL_v6q4psehdq","6108cbdb1585c7084e0d110d","freq","","","img/orange_2bandit_b2.png","70","","70","test","1","","5","","","","circle","square","5","5","1","1","","","","","","","",""
"null","231321","SARL_v6","SARL_v6q4psehdq","6108cbdb1585c7084e0d110d","freq_resp","","","img/orange_2bandit_b.png","70","img/orange_2bandit_b.png","70","test","","","","","","","","","","","1","","","","","","","","",""
"null","231476","SARL_v6","SARL_v6q4psehdq","6108cbdb1585c7084e0d110d","fixation","","","img/fixation.png","null","","","test","","","","","","","","","","","","","","","","","","","",""
"317","231795","SARL_v6","SARL_v6q4psehdq","6108cbdb1585c7084e0d110d","freq","","","img/orange_2bandit_b2.png","70","","70","test","1","","6","","","","circle","square","6","6","1","1","","","","","","","",""
"null","232283","SARL_v6","SARL_v6q4psehdq","6108cbdb1585c7084e0d110d","freq_resp","","","img/orange_2bandit_b.png","70","img/orange_2bandit_b.png","70","test","","","","","","","","","","","1","","","","","","","","",""
"null","232438","SARL_v6","SARL_v6q4psehdq","6108cbdb1585c7084e0d110d","fixation","","","img/fixation.png","null","","","test","","","","","","","","","","","","","","","","","","","",""
"286","232727","SARL_v6","SARL_v6q4psehdq","6108cbdb1585c7084e0d110d","freq","","","img/orange_2bandit_b2.png","70","","70","test","1","","7","","","","circle","square","7","7","1","1","","","","","","","",""
"null","233245","SARL_v6","SARL_v6q4psehdq","6108cbdb1585c7084e0d110d","freq_resp","","","img/orange_2bandit_b.png","70","img/orange_2bandit_b.png","70","test","","","","","","","","","","","1","","","","","","","","",""
"null","233399","SARL_v6","SARL_v6q4psehdq","6108cbdb1585c7084e0d110d","fixation","","","img/fixation.png","null","","","test","","","","","","","","","","","","","","","","","","","",""
"462","233864","SARL_v6","SARL_v6q4psehdq","6108cbdb1585c7084e0d110d","infreq","","","img/blue_2bandit_b2.png","68","","68","test","1","","8","","","","circle","square","8","8","1","1","","","","","","","",""
"null","234208","SARL_v6","SARL_v6q4psehdq","6108cbdb1585c7084e0d110d","infreq_resp","","","img/blue_2bandit_b.png","68","img/blue_2bandit_b.png","68","test","","","","","","","","","","","1","","","","","","","","",""
"null","234362","SARL_v6","SARL_v6q4psehdq","6108cbdb1585c7084e0d110d","fixation","","","img/fixation.png","null","","","test","","","","","","","","","","","","","","","","","","","",""
"648","235014","SARL_v6","SARL_v6q4psehdq","6108cbdb1585c7084e0d110d","freq","","","img/orange_2bandit_b2.png","70","","70","test","1","","9","","","","circle","square","9","9","1","1","","","","","","","",""
"null","235171","SARL_v6","SARL_v6q4psehdq","6108cbdb1585c7084e0d110d","freq_resp","","","img/orange_2bandit_b.png","70","img/orange_2bandit_b.png","70","test","","","","","","","","","","","1","","","","","","","","",""
"null","235326","SARL_v6","SARL_v6q4psehdq","6108cbdb1585c7084e0d110d","fixation","","","img/fixation.png","null","","","test","","","","","","","","","","","","","","","","","","","",""
"339","235667","SARL_v6","SARL_v6q4psehdq","6108cbdb1585c7084e0d110d","freq","","","img/orange_2bandit_b2.png","70","","70","test","1","","10","","","","circle","square","10","10","1","1","","","","","","","",""
"null","236134","SARL_v6","SARL_v6q4psehdq","6108cbdb1585c7084e0d110d","freq_resp","","","img/orange_2bandit_b.png","70","img/orange_2bandit_b.png","70","test","","","","","","","","","","","1","","","","","","","","",""
"null","236288","SARL_v6","SARL_v6q4psehdq","6108cbdb1585c7084e0d110d","fixation","","","img/fixation.png","null","","","test","","","","","","","","","","","","","","","","","","","",""
"143","236434","SARL_v6","SARL_v6q4psehdq","6108cbdb1585c7084e0d110d","freq","","","img/orange_2bandit_b2.png","70","","70","test","1","","11","","","","circle","square","11","11","1","1","","","","","","","",""
"null","237096","SARL_v6","SARL_v6q4psehdq","6108cbdb1585c7084e0d110d","freq_resp","","","img/orange_2bandit_b.png","70","img/orange_2bandit_b.png","70","test","","","","","","","","","","","1","","","","","","","","",""
"null","237251","SARL_v6","SARL_v6q4psehdq","6108cbdb1585c7084e0d110d","fixation","","","img/fixation.png","null","","","test","","","","","","","","","","","","","","","","","","","",""
"120","237374","SARL_v6","SARL_v6q4psehdq","6108cbdb1585c7084e0d110d","freq","","","img/orange_2bandit_b2.png","70","","70","test","1","","12","","","","circle","square","12","12","1","1","","","","","","","",""
"null","238059","SARL_v6","SARL_v6q4psehdq","6108cbdb1585c7084e0d110d","freq_resp","","","img/orange_2bandit_b.png","70","img/orange_2bandit_b.png","70","test","","","","","","","","","","","1","","","","","","","","",""
"null","238213","SARL_v6","SARL_v6q4psehdq","6108cbdb1585c7084e0d110d","fixation","","","img/fixation.png","null","","","test","","","","","","","","","","","","","","","","","","","",""
"137","238353","SARL_v6","SARL_v6q4psehdq","6108cbdb1585c7084e0d110d","freq","","","img/orange_2bandit_b2.png","70","","70","test","1","","13","","","","circle","square","13","13","1","1","","","","","","","",""
"null","239021","SARL_v6","SARL_v6q4psehdq","6108cbdb1585c7084e0d110d","freq_resp","","","img/orange_2bandit_b.png","70","img/orange_2bandit_b.png","70","test","","","","","","","","","","","1","","","","","","","","",""
"null","239175","SARL_v6","SARL_v6q4psehdq","6108cbdb1585c7084e0d110d","fixation","","","img/fixation.png","null","","","test","","","","","","","","","","","","","","","","","","","",""
"171.0000000000291","239349","SARL_v6","SARL_v6q4psehdq","6108cbdb1585c7084e0d110d","freq","","","img/orange_2bandit_b2.png","70","","70","test","1","","14","","","","circle","square","14","14","1","1","","","","","","","",""
"null","239983","SARL_v6","SARL_v6q4psehdq","6108cbdb1585c7084e0d110d","freq_resp","","","img/orange_2bandit_b.png","70","img/orange_2bandit_b.png","70","test","","","","","","","","","","","1","","","","","","","","",""
"null","240137","SARL_v6","SARL_v6q4psehdq","6108cbdb1585c7084e0d110d","fixation","","","img/fixation.png","null","","","test","","","","","","","","","","","","","","","","","","","",""
"545","240685","SARL_v6","SARL_v6q4psehdq","6108cbdb1585c7084e0d110d","infreq","","","img/blue_2bandit_b2.png","68","","68","test","1","","15","","","","circle","square","15","15","1","1","","","","","","","",""
"null","240945","SARL_v6","SARL_v6q4psehdq","6108cbdb1585c7084e0d110d","infreq_resp","","","img/blue_2bandit_b.png","68","img/blue_2bandit_b.png","68","test","","","","","","","","","","","1","","","","","","","","",""
"null","241100","SARL_v6","SARL_v6q4psehdq","6108cbdb1585c7084e0d110d","fixation","","","img/fixation.png","null","","","test","","","","","","","","","","","","","","","","","","","",""
"391.0000000000291","241494","SARL_v6","SARL_v6q4psehdq","6108cbdb1585c7084e0d110d","freq","","","img/orange_2bandit_b2.png","70","","70","test","1","","16","","","","circle","square","16","16","1","1","","","","","","","",""
"null","241907","SARL_v6","SARL_v6q4psehdq","6108cbdb1585c7084e0d110d","freq_resp","","","img/orange_2bandit_b.png","70","img/orange_2bandit_b.png","70","test","","","","","","","","","","","1","","","","","","","","",""
"null","242061","SARL_v6","SARL_v6q4psehdq","6108cbdb1585c7084e0d110d","fixation","","","img/fixation.png","null","","","test","","","","","","","","","","","","","","","","","","","",""
"470","242534","SARL_v6","SARL_v6q4psehdq","6108cbdb1585c7084e0d110d","freq","","","img/orange_2bandit_b2.png","70","","70","test","1","","17","","","","circle","square","17","17","1","1","","","","","","","",""
"null","242869","SARL_v6","SARL_v6q4psehdq","6108cbdb1585c7084e0d110d","freq_resp","","","img/orange_2bandit_b.png","70","img/orange_2bandit_b.png","70","test","","","","","","","","","","","1","","","","","","","","",""
"null","243024","SARL_v6","SARL_v6q4psehdq","6108cbdb1585c7084e0d110d","fixation","","","img/fixation.png","null","","","test","","","","","","","","","","","","","","","","","","","",""
"352","243379","SARL_v6","SARL_v6q4psehdq","6108cbdb1585c7084e0d110d","freq","","","img/orange_2bandit_b2.png","70","","70","test","1","","18","","","","circle","square","18","18","1","1","","","","","","","",""
"null","243832","SARL_v6","SARL_v6q4psehdq","6108cbdb1585c7084e0d110d","freq_resp","","","img/orange_2bandit_b.png","70","img/orange_2bandit_b.png","70","test","","","","","","","","","","","1","","","","","","","","",""
"null","243987","SARL_v6","SARL_v6q4psehdq","6108cbdb1585c7084e0d110d","fixation","","","img/fixation.png","null","","","test","","","","","","","","","","","","","","","","","","","",""
"431.9999999999709","244422","SARL_v6","SARL_v6q4psehdq","6108cbdb1585c7084e0d110d","freq","","","img/orange_2bandit_b2.png","70","","70","test","1","","19","","","","circle","square","19","19","1","1","","","","","","","",""
"null","244794","SARL_v6","SARL_v6q4psehdq","6108cbdb1585c7084e0d110d","freq_resp","","","img/orange_2bandit_b.png","70","img/orange_2bandit_b.png","70","test","","","","","","","","","","","1","","","","","","","","",""
"null","244949","SARL_v6","SARL_v6q4psehdq","6108cbdb1585c7084e0d110d","fixation","","","img/fixation.png","null","","","test","","","","","","","","","","","","","","","","","","","",""
"328","245280","SARL_v6","SARL_v6q4psehdq","6108cbdb1585c7084e0d110d","freq","","","img/orange_2bandit_b2.png","70","","70","test","1","","20","","","","circle","square","20","20","1","1","","","","","","","",""
"null","245757","SARL_v6","SARL_v6q4psehdq","6108cbdb1585c7084e0d110d","freq_resp","","","img/orange_2bandit_b.png","70","img/orange_2bandit_b.png","70","test","","","","","","","","","","","1","","","","","","","","",""
"null","245912","SARL_v6","SARL_v6q4psehdq","6108cbdb1585c7084e0d110d","fixation","","","img/fixation.png","null","","","test","","","","","","","","","","","","","","","","","","","",""
"328","246243","SARL_v6","SARL_v6q4psehdq","6108cbdb1585c7084e0d110d","freq","","","img/orange_2bandit_b2.png","70","","70","test","1","","21","","","","circle","square","21","21","1","1","","","","","","","",""
"null","246720","SARL_v6","SARL_v6q4psehdq","6108cbdb1585c7084e0d110d","freq_resp","","","img/orange_2bandit_b.png","70","img/orange_2bandit_b.png","70","test","","","","","","","","","","","1","","","","","","","","",""
"null","246874","SARL_v6","SARL_v6q4psehdq","6108cbdb1585c7084e0d110d","fixation","","","img/fixation.png","null","","","test","","","","","","","","","","","","","","","","","","","",""
"316.0000000000291","247193","SARL_v6","SARL_v6q4psehdq","6108cbdb1585c7084e0d110d","freq","","","img/orange_2bandit_b2.png","70","","70","test","1","","22","","","","circle","square","22","22","1","1","","","","","","","",""
"null","247681","SARL_v6","SARL_v6q4psehdq","6108cbdb1585c7084e0d110d","freq_resp","","","img/orange_2bandit_b.png","70","img/orange_2bandit_b.png","70","test","","","","","","","","","","","1","","","","","","","","",""
"null","247835","SARL_v6","SARL_v6q4psehdq","6108cbdb1585c7084e0d110d","fixation","","","img/fixation.png","null","","","test","","","","","","","","","","","","","","","","","","","",""
"824","248663","SARL_v6","SARL_v6q4psehdq","6108cbdb1585c7084e0d110d","rl","","","img/black_2bandit_b2.png","74","","0","test","","","23","","","-3","circle","square","","0","1","","74","-3","-3","-3","-3","circle","1","0"
"null","249418","SARL_v6","SARL_v6q4psehdq","6108cbdb1585c7084e0d110d","feedback","","","<div class=""verylowPoints""> -3 </div>","null","","na","test","","","NaN","","","","","","","","1","","74","","","","","","1",""
"null","250223","SARL_v6","SARL_v6q4psehdq","6108cbdb1585c7084e0d110d","freq","","","img/orange_2bandit_b2.png","null","","70","test","0","","24","","","","circle","square","23","1","2","0.9565217391304348","","","","","","","",""
"null","250378","SARL_v6","SARL_v6q4psehdq","6108cbdb1585c7084e0d110d","fixation","","","img/fixation.png","null","","","test","","","","","","","","","","","","","","","","","","","",""
"344","250726","SARL_v6","SARL_v6q4psehdq","6108cbdb1585c7084e0d110d","freq","","","img/orange_2bandit_b2.png","70","","70","test","1","","25","","","","circle","square","24","2","2","0.9583333333333334","","","","","","","",""
"null","251186","SARL_v6","SARL_v6q4psehdq","6108cbdb1585c7084e0d110d","freq_resp","","","img/orange_2bandit_b.png","70","img/orange_2bandit_b.png","70","test","","","","","","","","","","","2","","","","","","","","",""
"null","251340","SARL_v6","SARL_v6q4psehdq","6108cbdb1585c7084e0d110d","fixation","","","img/fixation.png","null","","","test","","","","","","","","","","","","","","","","","","","",""
"358.0000000000291","251701","SARL_v6","SARL_v6q4psehdq","6108cbdb1585c7084e0d110d","freq","","","img/orange_2bandit_b2.png","70","","70","test","1","","26","","","","circle","square","25","3","2","0.96","","","","","","","",""
"null","252146","SARL_v6","SARL_v6q4psehdq","6108cbdb1585c7084e0d110d","freq_resp","","","img/orange_2bandit_b.png","70","img/orange_2bandit_b.png","70","test","","","","","","","","","","","2","","","","","","","","",""
"null","252301","SARL_v6","SARL_v6q4psehdq","6108cbdb1585c7084e0d110d","fixation","","","img/fixation.png","null","","","test","","","","","","","","","","","","","","","","","","","",""
"310","252613","SARL_v6","SARL_v6q4psehdq","6108cbdb1585c7084e0d110d","freq","","","img/orange_2bandit_b2.png","70","","70","test","1","","27","","","","circle","square","26","4","2","0.9615384615384616","","","","","","","",""
"null","253108","SARL_v6","SARL_v6q4psehdq","6108cbdb1585c7084e0d110d","freq_resp","","","img/orange_2bandit_b.png","70","img/orange_2bandit_b.png","70","test","","","","","","","","","","","2","","","","","","","","",""
"null","253262","SARL_v6","SARL_v6q4psehdq","6108cbdb1585c7084e0d110d","fixation","","","img/fixation.png","null","","","test","","","","","","","","","","","","","","","","","","","",""
"352","253617","SARL_v6","SARL_v6q4psehdq","6108cbdb1585c7084e0d110d","freq","","","img/orange_2bandit_b2.png","70","","70","test","1","","28","","","","circle","square","27","5","2","0.9629629629629629","","","","","","","",""
"null","254070","SARL_v6","SARL_v6q4psehdq","6108cbdb1585c7084e0d110d","freq_resp","","","img/orange_2bandit_b.png","70","img/orange_2bandit_b.png","70","test","","","","","","","","","","","2","","","","","","","","",""
"null","254225","SARL_v6","SARL_v6q4psehdq","6108cbdb1585c7084e0d110d","fixation","","","img/fixation.png","null","","","test","","","","","","","","","","","","","","","","","","","",""
"328","254555","SARL_v6","SARL_v6q4psehdq","6108cbdb1585c7084e0d110d","freq","","","img/orange_2bandit_b2.png","70","","70","test","1","","29","","","","circle","square","28","6","2","0.9642857142857143","","","","","","","",""
"null","255032","SARL_v6","SARL_v6q4psehdq","6108cbdb1585c7084e0d110d","freq_resp","","","img/orange_2bandit_b.png","70","img/orange_2bandit_b.png","70","test","","","","","","","","","","","2","","","","","","","","",""
"null","255187","SARL_v6","SARL_v6q4psehdq","6108cbdb1585c7084e0d110d","fixation","","","img/fixation.png","null","","","test","","","","","","","","","","","","","","","","","","","",""
"250","255439","SARL_v6","SARL_v6q4psehdq","6108cbdb1585c7084e0d110d","freq","","","img/orange_2bandit_b2.png","70","","70","test","1","","30","","","","circle","square","29","7","2","0.9655172413793104","","","","","","","",""
"null","255994","SARL_v6","SARL_v6q4psehdq","6108cbdb1585c7084e0d110d","freq_resp","","","img/orange_2bandit_b.png","70","img/orange_2bandit_b.png","70","test","","","","","","","","","","","2","","","","","","","","",""
"null","256148","SARL_v6","SARL_v6q4psehdq","6108cbdb1585c7084e0d110d","fixation","","","img/fixation.png","null","","","test","","","","","","","","","","","","","","","","","","","",""
"281.9999999999709","256432","SARL_v6","SARL_v6q4psehdq","6108cbdb1585c7084e0d110d","freq","","","img/orange_2bandit_b2.png","70","","70","test","1","","31","","","","circle","square","30","8","2","0.9666666666666667","","","","","","","",""
"null","256955","SARL_v6","SARL_v6q4psehdq","6108cbdb1585c7084e0d110d","freq_resp","","","img/orange_2bandit_b.png","70","img/orange_2bandit_b.png","70","test","","","","","","","","","","","2","","","","","","","","",""
"null","257110","SARL_v6","SARL_v6q4psehdq","6108cbdb1585c7084e0d110d","fixation","","","img/fixation.png","null","","","test","","","","","","","","","","","","","","","","","","","",""
"408.0000000000291","257521","SARL_v6","SARL_v6q4psehdq","6108cbdb1585c7084e0d110d","freq","","","img/orange_2bandit_b2.png","70","","70","test","1","","32","","","","circle","square","31","9","2","0.967741935483871","","","","","","","",""
"null","257916","SARL_v6","SARL_v6q4psehdq","6108cbdb1585c7084e0d110d","freq_resp","","","img/orange_2bandit_b.png","70","img/orange_2bandit_b.png","70","test","","","","","","","","","","","2","","","","","","","","",""
"null","258071","SARL_v6","SARL_v6q4psehdq","6108cbdb1585c7084e0d110d","fixation","","","img/fixation.png","null","","","test","","","","","","","","","","","","","","","","","","","",""
"349","258424","SARL_v6","SARL_v6q4psehdq","6108cbdb1585c7084e0d110d","freq","","","img/orange_2bandit_b2.png","70","","70","test","1","","33","","","","circle","square","32","10","2","0.96875","","","","","","","",""
"null","258880","SARL_v6","SARL_v6q4psehdq","6108cbdb1585c7084e0d110d","freq_resp","","","img/orange_2bandit_b.png","70","img/orange_2bandit_b.png","70","test","","","","","","","","","","","2","","","","","","","","",""
"null","259034","SARL_v6","SARL_v6q4psehdq","6108cbdb1585c7084e0d110d","fixation","","","img/fixation.png","null","","","test","","","","","","","","","","","","","","","","","","","",""
"180.9999999999709","259219","SARL_v6","SARL_v6q4psehdq","6108cbdb1585c7084e0d110d","freq","","","img/orange_2bandit_b2.png","70","","70","test","1","","34","","","","circle","square","33","11","2","0.9696969696969697","","","","","","","",""
"null","259843","SARL_v6","SARL_v6q4psehdq","6108cbdb1585c7084e0d110d","freq_resp","","","img/orange_2bandit_b.png","70","img/orange_2bandit_b.png","70","test","","","","","","","","","","","2","","","","","","","","",""
"null","259997","SARL_v6","SARL_v6q4psehdq","6108cbdb1585c7084e0d110d","fixation","","","img/fixation.png","null","","","test","","","","","","","","","","","","","","","","","","","",""
"211","260211","SARL_v6","SARL_v6q4psehdq","6108cbdb1585c7084e0d110d","infreq","","","img/blue_2bandit_b2.png","70","","68","test","0","","35","","","","circle","square","34","12","2","0.9411764705882353","","","","","","","",""
"null","260805","SARL_v6","SARL_v6q4psehdq","6108cbdb1585c7084e0d110d","infreq_resp","","","img/blue_2bandit_b.png","70","img/blue_2bandit_b.png","68","test","","","","","","","","","","","2","","","","","","","","",""
"null","260960","SARL_v6","SARL_v6q4psehdq","6108cbdb1585c7084e0d110d","fixation","","","img/fixation.png","null","","","test","","","","","","","","","","","","","","","","","","","",""
"435","261398","SARL_v6","SARL_v6q4psehdq","6108cbdb1585c7084e0d110d","freq","","","img/orange_2bandit_b2.png","70","","70","test","1","","36","","","","circle","square","35","13","2","0.9428571428571428","","","","","","","",""
"null","261768","SARL_v6","SARL_v6q4psehdq","6108cbdb1585c7084e0d110d","freq_resp","","","img/orange_2bandit_b.png","70","img/orange_2bandit_b.png","70","test","","","","","","","","","","","2","","","","","","","","",""
"null","261922","SARL_v6","SARL_v6q4psehdq","6108cbdb1585c7084e0d110d","fixation","","","img/fixation.png","null","","","test","","","","","","","","","","","","","","","","","","","",""
"423","262348","SARL_v6","SARL_v6q4psehdq","6108cbdb1585c7084e0d110d","freq","","","img/orange_2bandit_b2.png","70","","70","test","1","","37","","","","circle","square","36","14","2","0.9444444444444444","","","","","","","",""
"null","262730","SARL_v6","SARL_v6q4psehdq","6108cbdb1585c7084e0d110d","freq_resp","","","img/orange_2bandit_b.png","70","img/orange_2bandit_b.png","70","test","","","","","","","","","","","2","","","","","","","","",""
"null","262885","SARL_v6","SARL_v6q4psehdq","6108cbdb1585c7084e0d110d","fixation","","","img/fixation.png","null","","","test","","","","","","","","","","","","","","","","","","","",""
"427","263314","SARL_v6","SARL_v6q4psehdq","6108cbdb1585c7084e0d110d","freq","","","img/orange_2bandit_b2.png","70","","70","test","1","","38","","","","circle","square","37","15","2","0.9459459459459459","","","","","","","",""
"null","263692","SARL_v6","SARL_v6q4psehdq","6108cbdb1585c7084e0d110d","freq_resp","","","img/orange_2bandit_b.png","70","img/orange_2bandit_b.png","70","test","","","","","","","","","","","2","","","","","","","","",""
"null","263847","SARL_v6","SARL_v6q4psehdq","6108cbdb1585c7084e0d110d","fixation","","","img/fixation.png","null","","","test","","","","","","","","","","","","","","","","","","","",""
"406.9999999999418","264257","SARL_v6","SARL_v6q4psehdq","6108cbdb1585c7084e0d110d","freq","","","img/orange_2bandit_b2.png","70","","70","test","1","","39","","","","circle","square","38","16","2","0.9473684210526315","","","","","","","",""
"null","264654","SARL_v6","SARL_v6q4psehdq","6108cbdb1585c7084e0d110d","freq_resp","","","img/orange_2bandit_b.png","70","img/orange_2bandit_b.png","70","test","","","","","","","","","","","2","","","","","","","","",""
"null","264809","SARL_v6","SARL_v6q4psehdq","6108cbdb1585c7084e0d110d","fixation","","","img/fixation.png","null","","","test","","","","","","","","","","","","","","","","","","","",""
"483","265295","SARL_v6","SARL_v6q4psehdq","6108cbdb1585c7084e0d110d","infreq","","","img/blue_2bandit_b2.png","68","","68","test","1","","40","","","","circle","square","39","17","2","0.9487179487179487","","","","","","","",""
"null","265616","SARL_v6","SARL_v6q4psehdq","6108cbdb1585c7084e0d110d","infreq_resp","","","img/blue_2bandit_b.png","68","img/blue_2bandit_b.png","68","test","","","","","","","","","","","2","","","","","","","","",""
"null","265769","SARL_v6","SARL_v6q4psehdq","6108cbdb1585c7084e0d110d","fixation","","","img/fixation.png","null","","","test","","","","","","","","","","","","","","","","","","","",""
"294","266066","SARL_v6","SARL_v6q4psehdq","6108cbdb1585c7084e0d110d","freq","","","img/orange_2bandit_b2.png","70","","70","test","1","","41","","","","circle","square","40","18","2","0.95","","","","","","","",""
"null","266576","SARL_v6","SARL_v6q4psehdq","6108cbdb1585c7084e0d110d","freq_resp","","","img/orange_2bandit_b.png","70","img/orange_2bandit_b.png","70","test","","","","","","","","","","","2","","","","","","","","",""
"null","266731","SARL_v6","SARL_v6q4psehdq","6108cbdb1585c7084e0d110d","fixation","","","img/fixation.png","null","","","test","","","","","","","","","","","","","","","","","","","",""
"622","267356","SARL_v6","SARL_v6q4psehdq","6108cbdb1585c7084e0d110d","freq","","","img/orange_2bandit_b2.png","70","","70","test","1","","42","","","","circle","square","41","19","2","0.9512195121951219","","","","","","","",""
"null","267538","SARL_v6","SARL_v6q4psehdq","6108cbdb1585c7084e0d110d","freq_resp","","","img/orange_2bandit_b.png","70","img/orange_2bandit_b.png","70","test","","","","","","","","","","","2","","","","","","","","",""
"null","267692","SARL_v6","SARL_v6q4psehdq","6108cbdb1585c7084e0d110d","fixation","","","img/fixation.png","null","","","test","","","","","","","","","","","","","","","","","","","",""
"428","268123","SARL_v6","SARL_v6q4psehdq","6108cbdb1585c7084e0d110d","freq","","","img/orange_2bandit_b2.png","70","","70","test","1","","43","","","","circle","square","42","20","2","0.9523809523809523","","","","","","","",""
"null","268500","SARL_v6","SARL_v6q4psehdq","6108cbdb1585c7084e0d110d","freq_resp","","","img/orange_2bandit_b.png","70","img/orange_2bandit_b.png","70","test","","","","","","","","","","","2","","","","","","","","",""
"null","268654","SARL_v6","SARL_v6q4psehdq","6108cbdb1585c7084e0d110d","fixation","","","img/fixation.png","null","","","test","","","","","","","","","","","","","","","","","","","",""
"736","269393","SARL_v6","SARL_v6q4psehdq","6108cbdb1585c7084e0d110d","rl","","","img/black_2bandit_b2.png","75","","0","test","","","44","","","-8","circle","square","","0","2","","75","-5","-8","-5","-8","square","2","0"
"null","270147","SARL_v6","SARL_v6q4psehdq","6108cbdb1585c7084e0d110d","feedback","","","<div class=""verylowPoints_sq""> -8 </div>","null","","na","test","","","NaN","","","","","","","","2","","75","","","","","","2",""
"null","270952","SARL_v6","SARL_v6q4psehdq","6108cbdb1585c7084e0d110d","freq","","","img/orange_2bandit_b2.png","null","","70","test","0","","45","","","","circle","square","43","1","3","0.9302325581395349","","","","","","","",""
"null","271107","SARL_v6","SARL_v6q4psehdq","6108cbdb1585c7084e0d110d","fixation","","","img/fixation.png","null","","","test","","","","","","","","","","","","","","","","","","","",""
"668","271777","SARL_v6","SARL_v6q4psehdq","6108cbdb1585c7084e0d110d","freq","","","img/orange_2bandit_b2.png","70","","70","test","1","","46","","","","circle","square","44","2","3","0.9318181818181818","","","","","","","",""
"null","271914","SARL_v6","SARL_v6q4psehdq","6108cbdb1585c7084e0d110d","freq_resp","","","img/orange_2bandit_b.png","70","img/orange_2bandit_b.png","70","test","","","","","","","","","","","3","","","","","","","","",""
"null","272068","SARL_v6","SARL_v6q4psehdq","6108cbdb1585c7084e0d110d","fixation","","","img/fixation.png","null","","","test","","","","","","","","","","","","","","","","","","","",""
"null","272873","SARL_v6","SARL_v6q4psehdq","6108cbdb1585c7084e0d110d","freq","","","img/orange_2bandit_b2.png","null","","70","test","0","","47","","","","circle","square","45","3","3","0.9111111111111111","","","","","","","",""
"null","273027","SARL_v6","SARL_v6q4psehdq","6108cbdb1585c7084e0d110d","fixation","","","img/fixation.png","null","","","test","","","","","","","","","","","","","","","","","","","",""
"null","273832","SARL_v6","SARL_v6q4psehdq","6108cbdb1585c7084e0d110d","freq","","","img/orange_2bandit_b2.png","null","","70","test","0","","48","","","","circle","square","46","4","3","0.8913043478260869","","","","","","","",""
"null","273986","SARL_v6","SARL_v6q4psehdq","6108cbdb1585c7084e0d110d","fixation","","","img/fixation.png","null","","","test","","","","","","","","","","","","","","","","","","","",""
"385","274374","SARL_v6","SARL_v6q4psehdq","6108cbdb1585c7084e0d110d","freq","","","img/orange_2bandit_b2.png","70","","70","test","1","","49","","","","circle","square","47","5","3","0.8936170212765957","","","","","","","",""
"null","274794","SARL_v6","SARL_v6q4psehdq","6108cbdb1585c7084e0d110d","freq_resp","","","img/orange_2bandit_b.png","70","img/orange_2bandit_b.png","70","test","","","","","","","","","","","3","","","","","","","","",""
"null","274948","SARL_v6","SARL_v6q4psehdq","6108cbdb1585c7084e0d110d","fixation","","","img/fixation.png","null","","","test","","","","","","","","","","","","","","","","","","","",""
"203","275154","SARL_v6","SARL_v6q4psehdq","6108cbdb1585c7084e0d110d","freq","","","img/orange_2bandit_b2.png","70","","70","test","1","","50","","","","circle","square","48","6","3","0.8958333333333334","","","","","","","",""
"null","275756","SARL_v6","SARL_v6q4psehdq","6108cbdb1585c7084e0d110d","freq_resp","","","img/orange_2bandit_b.png","70","img/orange_2bandit_b.png","70","test","","","","","","","","","","","3","","","","","","","","",""
"null","275910","SARL_v6","SARL_v6q4psehdq","6108cbdb1585c7084e0d110d","fixation","","","img/fixation.png","null","","","test","","","","","","","","","","","","","","","","","","","",""
"156","276069","SARL_v6","SARL_v6q4psehdq","6108cbdb1585c7084e0d110d","freq","","","img/orange_2bandit_b2.png","70","","70","test","1","","51","","","","circle","square","49","7","3","0.8979591836734694","","","","","","","",""
"null","276718","SARL_v6","SARL_v6q4psehdq","6108cbdb1585c7084e0d110d","freq_resp","","","img/orange_2bandit_b.png","70","img/orange_2bandit_b.png","70","test","","","","","","","","","","","3","","","","","","","","",""
"null","276873","SARL_v6","SARL_v6q4psehdq","6108cbdb1585c7084e0d110d","fixation","","","img/fixation.png","null","","","test","","","","","","","","","","","","","","","","","","","",""
"256","277132","SARL_v6","SARL_v6q4psehdq","6108cbdb1585c7084e0d110d","freq","","","img/orange_2bandit_b2.png","70","","70","test","1","","52","","","","circle","square","50","8","3","0.9","","","","","","","",""
"null","277681","SARL_v6","SARL_v6q4psehdq","6108cbdb1585c7084e0d110d","freq_resp","","","img/orange_2bandit_b.png","70","img/orange_2bandit_b.png","70","test","","","","","","","","","","","3","","","","","","","","",""
"null","277835","SARL_v6","SARL_v6q4psehdq","6108cbdb1585c7084e0d110d","fixation","","","img/fixation.png","null","","","test","","","","","","","","","","","","","","","","","","","",""
"176","278014","SARL_v6","SARL_v6q4psehdq","6108cbdb1585c7084e0d110d","infreq","","","img/blue_2bandit_b2.png","70","","68","test","0","","53","","","","circle","square","51","9","3","0.8823529411764706","","","","","","","",""
"null","278643","SARL_v6","SARL_v6q4psehdq","6108cbdb1585c7084e0d110d","infreq_resp","","","img/blue_2bandit_b.png","70","img/blue_2bandit_b.png","68","test","","","","","","","","","","","3","","","","","","","","",""
"null","278797","SARL_v6","SARL_v6q4psehdq","6108cbdb1585c7084e0d110d","fixation","","","img/fixation.png","null","","","test","","","","","","","","","","","","","","","","","","","",""
"522","279322","SARL_v6","SARL_v6q4psehdq","6108cbdb1585c7084e0d110d","freq","","","img/orange_2bandit_b2.png","70","","70","test","1","","54","","","","circle","square","52","10","3","0.8846153846153846","","","","","","","",""
"null","279605","SARL_v6","SARL_v6q4psehdq","6108cbdb1585c7084e0d110d","freq_resp","","","img/orange_2bandit_b.png","70","img/orange_2bandit_b.png","70","test","","","","","","","","","","","3","","","","","","","","",""
"null","279759","SARL_v6","SARL_v6q4psehdq","6108cbdb1585c7084e0d110d","fixation","","","img/fixation.png","null","","","test","","","","","","","","","","","","","","","","","","","",""
"486.9999999999418","280249","SARL_v6","SARL_v6q4psehdq","6108cbdb1585c7084e0d110d","freq","","","img/orange_2bandit_b2.png","70","","70","test","1","","55","","","","circle","square","53","11","3","0.8867924528301887","","","","","","","",""
"null","280567","SARL_v6","SARL_v6q4psehdq","6108cbdb1585c7084e0d110d","freq_resp","","","img/orange_2bandit_b.png","70","img/orange_2bandit_b.png","70","test","","","","","","","","","","","3","","","","","","","","",""
"null","280721","SARL_v6","SARL_v6q4psehdq","6108cbdb1585c7084e0d110d","fixation","","","img/fixation.png","null","","","test","","","","","","","","","","","","","","","","","","","",""
"368","281092","SARL_v6","SARL_v6q4psehdq","6108cbdb1585c7084e0d110d","infreq","","","img/blue_2bandit_b2.png","70","","68","test","0","","56","","","","circle","square","54","12","3","0.8703703703703703","","","","","","","",""
"null","281529","SARL_v6","SARL_v6q4psehdq","6108cbdb1585c7084e0d110d","infreq_resp","","","img/blue_2bandit_b.png","70","img/blue_2bandit_b.png","68","test","","","","","","","","","","","3","","","","","","","","",""
"null","281683","SARL_v6","SARL_v6q4psehdq","6108cbdb1585c7084e0d110d","fixation","","","img/fixation.png","null","","","test","","","","","","","","","","","","","","","","","","","",""
"501","282187","SARL_v6","SARL_v6q4psehdq","6108cbdb1585c7084e0d110d","freq","","","img/orange_2bandit_b2.png","70","","70","test","1","","57","","","","circle","square","55","13","3","0.8727272727272727","","","","","","","",""
"null","282491","SARL_v6","SARL_v6q4psehdq","6108cbdb1585c7084e0d110d","freq_resp","","","img/orange_2bandit_b.png","70","img/orange_2bandit_b.png","70","test","","","","","","","","","","","3","","","","","","","","",""
"null","282645","SARL_v6","SARL_v6q4psehdq","6108cbdb1585c7084e0d110d","fixation","","","img/fixation.png","null","","","test","","","","","","","","","","","","","","","","","","","",""
"404","283052","SARL_v6","SARL_v6q4psehdq","6108cbdb1585c7084e0d110d","freq","","","img/orange_2bandit_b2.png","70","","70","test","1","","58","","","","circle","square","56","14","3","0.875","","","","","","","",""
"null","283453","SARL_v6","SARL_v6q4psehdq","6108cbdb1585c7084e0d110d","freq_resp","","","img/orange_2bandit_b.png","70","img/orange_2bandit_b.png","70","test","","","","","","","","","","","3","","","","","","","","",""
"null","283608","SARL_v6","SARL_v6q4psehdq","6108cbdb1585c7084e0d110d","fixation","","","img/fixation.png","null","","","test","","","","","","","","","","","","","","","","","","","",""
"352","283962","SARL_v6","SARL_v6q4psehdq","6108cbdb1585c7084e0d110d","freq","","","img/orange_2bandit_b2.png","70","","70","test","1","","59","","","","circle","square","57","15","3","0.8771929824561403","","","","","","","",""
"null","284415","SARL_v6","SARL_v6q4psehdq","6108cbdb1585c7084e0d110d","freq_resp","","","img/orange_2bandit_b.png","70","img/orange_2bandit_b.png","70","test","","","","","","","","","","","3","","","","","","","","",""
"null","284569","SARL_v6","SARL_v6q4psehdq","6108cbdb1585c7084e0d110d","fixation","","","img/fixation.png","null","","","test","","","","","","","","","","","","","","","","","","","",""
"387","284960","SARL_v6","SARL_v6q4psehdq","6108cbdb1585c7084e0d110d","freq","","","img/orange_2bandit_b2.png","70","","70","test","1","","60","","","","circle","square","58","16","3","0.8793103448275862","","","","","","","",""
"null","285377","SARL_v6","SARL_v6q4psehdq","6108cbdb1585c7084e0d110d","freq_resp","","","img/orange_2bandit_b.png","70","img/orange_2bandit_b.png","70","test","","","","","","","","","","","3","","","","","","","","",""
"null","285532","SARL_v6","SARL_v6q4psehdq","6108cbdb1585c7084e0d110d","fixation","","","img/fixation.png","null","","","test","","","","","","","","","","","","","","","","","","","",""
"358","285892","SARL_v6","SARL_v6q4psehdq","6108cbdb1585c7084e0d110d","freq","","","img/orange_2bandit_b2.png","70","","70","test","1","","61","","","","circle","square","59","17","3","0.8813559322033898","","","","","","","",""
"null","286339","SARL_v6","SARL_v6q4psehdq","6108cbdb1585c7084e0d110d","freq_resp","","","img/orange_2bandit_b.png","70","img/orange_2bandit_b.png","70","test","","","","","","","","","","","3","","","","","","","","",""
"null","286493","SARL_v6","SARL_v6q4psehdq","6108cbdb1585c7084e0d110d","fixation","","","img/fixation.png","null","","","test","","","","","","","","","","","","","","","","","","","",""
"295.0000000000582","286791","SARL_v6","SARL_v6q4psehdq","6108cbdb1585c7084e0d110d","freq","","","img/orange_2bandit_b2.png","70","","70","test","1","","62","","","","circle","square","60","18","3","0.8833333333333333","","","","","","","",""
"null","287299","SARL_v6","SARL_v6q4psehdq","6108cbdb1585c7084e0d110d","freq_resp","","","img/orange_2bandit_b.png","70","img/orange_2bandit_b.png","70","test","","","","","","","","","","","3","","","","","","","","",""
"null","287453","SARL_v6","SARL_v6q4psehdq","6108cbdb1585c7084e0d110d","fixation","","","img/fixation.png","null","","","test","","","","","","","","","","","","","","","","","","","",""
"265","287722","SARL_v6","SARL_v6q4psehdq","6108cbdb1585c7084e0d110d","freq","","","img/orange_2bandit_b2.png","70","","70","test","1","","63","","","","circle","square","61","19","3","0.8852459016393442","","","","","","","",""
"null","288261","SARL_v6","SARL_v6q4psehdq","6108cbdb1585c7084e0d110d","freq_resp","","","img/orange_2bandit_b.png","70","img/orange_2bandit_b.png","70","test","","","","","","","","","","","3","","","","","","","","",""
"null","288416","SARL_v6","SARL_v6q4psehdq","6108cbdb1585c7084e0d110d","fixation","","","img/fixation.png","null","","","test","","","","","","","","","","","","","","","","","","","",""
"193","288611","SARL_v6","SARL_v6q4psehdq","6108cbdb1585c7084e0d110d","freq","","","img/orange_2bandit_b2.png","70","","70","test","1","","64","","","","circle","square","62","20","3","0.8870967741935484","","","","","","","",""
"null","289223","SARL_v6","SARL_v6q4psehdq","6108cbdb1585c7084e0d110d","freq_resp","","","img/orange_2bandit_b.png","70","img/orange_2bandit_b.png","70","test","","","","","","","","","","","3","","","","","","","","",""
"null","289377","SARL_v6","SARL_v6q4psehdq","6108cbdb1585c7084e0d110d","fixation","","","img/fixation.png","null","","","test","","","","","","","","","","","","","","","","","","","",""
"195","289576","SARL_v6","SARL_v6q4psehdq","6108cbdb1585c7084e0d110d","freq","","","img/orange_2bandit_b2.png","70","","70","test","1","","65","","","","circle","square","63","21","3","0.8888888888888888","","","","","","","",""
"null","290185","SARL_v6","SARL_v6q4psehdq","6108cbdb1585c7084e0d110d","freq_resp","","","img/orange_2bandit_b.png","70","img/orange_2bandit_b.png","70","test","","","","","","","","","","","3","","","","","","","","",""
"null","290340","SARL_v6","SARL_v6q4psehdq","6108cbdb1585c7084e0d110d","fixation","","","img/fixation.png","null","","","test","","","","","","","","","","","","","","","","","","","",""
"265","290608","SARL_v6","SARL_v6q4psehdq","6108cbdb1585c7084e0d110d","freq","","","img/orange_2bandit_b2.png","70","","70","test","1","","66","","","","circle","square","64","22","3","0.890625","","","","","","","",""
"null","291148","SARL_v6","SARL_v6q4psehdq","6108cbdb1585c7084e0d110d","freq_resp","","","img/orange_2bandit_b.png","70","img/orange_2bandit_b.png","70","test","","","","","","","","","","","3","","","","","","","","",""
"null","291302","SARL_v6","SARL_v6q4psehdq","6108cbdb1585c7084e0d110d","fixation","","","img/fixation.png","null","","","test","","","","","","","","","","","","","","","","","","","",""
"371","291677","SARL_v6","SARL_v6q4psehdq","6108cbdb1585c7084e0d110d","freq","","","img/orange_2bandit_b2.png","70","","70","test","1","","67","","","","circle","square","65","23","3","0.8923076923076924","","","","","","","",""
"null","292111","SARL_v6","SARL_v6q4psehdq","6108cbdb1585c7084e0d110d","freq_resp","","","img/orange_2bandit_b.png","70","img/orange_2bandit_b.png","70","test","","","","","","","","","","","3","","","","","","","","",""
"null","292265","SARL_v6","SARL_v6q4psehdq","6108cbdb1585c7084e0d110d","fixation","","","img/fixation.png","null","","","test","","","","","","","","","","","","","","","","","","","",""
"583.0000000000582","292852","SARL_v6","SARL_v6q4psehdq","6108cbdb1585c7084e0d110d","rl","","","img/black_2bandit_b2.png","75","","0","test","","","68","","","-8","circle","square","","0","3","","75","-4","-8","-4","-8","square","3","0"
"null","293607","SARL_v6","SARL_v6q4psehdq","6108cbdb1585c7084e0d110d","feedback","","","<div class=""verylowPoints_sq""> -8 </div>","null","","na","test","","","NaN","","","","","","","","3","","75","","","","","","3",""
"null","294411","SARL_v6","SARL_v6q4psehdq","6108cbdb1585c7084e0d110d","freq","","","img/orange_2bandit_b2.png","null","","70","test","0","","69","","","","circle","square","66","1","4","0.8787878787878788","","","","","","","",""
"null","294566","SARL_v6","SARL_v6q4psehdq","6108cbdb1585c7084e0d110d","fixation","","","img/fixation.png","null","","","test","","","","","","","","","","","","","","","","","","","",""
"100","294668","SARL_v6","SARL_v6q4psehdq","6108cbdb1585c7084e0d110d","freq","","","img/orange_2bandit_b2.png","70","","70","test","1","","70","","","","circle","square","67","2","4","0.8805970149253731","","","","","","","",""
"null","295373","SARL_v6","SARL_v6q4psehdq","6108cbdb1585c7084e0d110d","freq_resp","","","img/orange_2bandit_b.png","70","img/orange_2bandit_b.png","70","test","","","","","","","","","","","4","","","","","","","","",""
"null","295526","SARL_v6","SARL_v6q4psehdq","6108cbdb1585c7084e0d110d","fixation","","","img/fixation.png","null","","","test","","","","","","","","","","","","","","","","","","","",""
"271","295801","SARL_v6","SARL_v6q4psehdq","6108cbdb1585c7084e0d110d","freq","","","img/orange_2bandit_b2.png","70","","70","test","1","","71","","","","circle","square","68","3","4","0.8823529411764706","","","","","","","",""
"null","296335","SARL_v6","SARL_v6q4psehdq","6108cbdb1585c7084e0d110d","freq_resp","","","img/orange_2bandit_b.png","70","img/orange_2bandit_b.png","70","test","","","","","","","","","","","4","","","","","","","","",""
"null","296488","SARL_v6","SARL_v6q4psehdq","6108cbdb1585c7084e0d110d","fixation","","","img/fixation.png","null","","","test","","","","","","","","","","","","","","","","","","","",""
"278","296769","SARL_v6","SARL_v6q4psehdq","6108cbdb1585c7084e0d110d","infreq","","","img/blue_2bandit_b2.png","70","","68","test","0","","72","","","","circle","square","69","4","4","0.8695652173913043","","","","","","","",""
"null","297296","SARL_v6","SARL_v6q4psehdq","6108cbdb1585c7084e0d110d","infreq_resp","","","img/blue_2bandit_b.png","70","img/blue_2bandit_b.png","68","test","","","","","","","","","","","4","","","","","","","","",""
"null","297450","SARL_v6","SARL_v6q4psehdq","6108cbdb1585c7084e0d110d","fixation","","","img/fixation.png","null","","","test","","","","","","","","","","","","","","","","","","","",""
"483.9999999999418","297937","SARL_v6","SARL_v6q4psehdq","6108cbdb1585c7084e0d110d","freq","","","img/orange_2bandit_b2.png","70","","70","test","1","","73","","","","circle","square","70","5","4","0.8714285714285714","","","","","","","",""
"null","298257","SARL_v6","SARL_v6q4psehdq","6108cbdb1585c7084e0d110d","freq_resp","","","img/orange_2bandit_b.png","70","img/orange_2bandit_b.png","70","test","","","","","","","","","","","4","","","","","","","","",""
"null","298412","SARL_v6","SARL_v6q4psehdq","6108cbdb1585c7084e0d110d","fixation","","","img/fixation.png","null","","","test","","","","","","","","","","","","","","","","","","","",""
"479","298894","SARL_v6","SARL_v6q4psehdq","6108cbdb1585c7084e0d110d","freq","","","img/orange_2bandit_b2.png","70","","70","test","1","","74","","","","circle","square","71","6","4","0.8732394366197183","","","","","","","",""
"null","299220","SARL_v6","SARL_v6q4psehdq","6108cbdb1585c7084e0d110d","freq_resp","","","img/orange_2bandit_b.png","70","img/orange_2bandit_b.png","70","test","","","","","","","","","","","4","","","","","","","","",""
"null","299374","SARL_v6","SARL_v6q4psehdq","6108cbdb1585c7084e0d110d","fixation","","","img/fixation.png","null","","","test","","","","","","","","","","","","","","","","","","","",""
"491","299868","SARL_v6","SARL_v6q4psehdq","6108cbdb1585c7084e0d110d","freq","","","img/orange_2bandit_b2.png","70","","70","test","1","","75","","","","circle","square","72","7","4","0.875","","","","","","","",""
"null","300181","SARL_v6","SARL_v6q4psehdq","6108cbdb1585c7084e0d110d","freq_resp","","","img/orange_2bandit_b.png","70","img/orange_2bandit_b.png","70","test","","","","","","","","","","","4","","","","","","","","",""
"null","300336","SARL_v6","SARL_v6q4psehdq","6108cbdb1585c7084e0d110d","fixation","","","img/fixation.png","null","","","test","","","","","","","","","","","","","","","","","","","",""
"402","300741","SARL_v6","SARL_v6q4psehdq","6108cbdb1585c7084e0d110d","freq","","","img/orange_2bandit_b2.png","70","","70","test","1","","76","","","","circle","square","73","8","4","0.8767123287671232","","","","","","","",""
"null","301144","SARL_v6","SARL_v6q4psehdq","6108cbdb1585c7084e0d110d","freq_resp","","","img/orange_2bandit_b.png","70","img/orange_2bandit_b.png","70","test","","","","","","","","","","","4","","","","","","","","",""
"null","301298","SARL_v6","SARL_v6q4psehdq","6108cbdb1585c7084e0d110d","fixation","","","img/fixation.png","null","","","test","","","","","","","","","","","","","","","","","","","",""
"349.0000000000582","301650","SARL_v6","SARL_v6q4psehdq","6108cbdb1585c7084e0d110d","freq","","","img/orange_2bandit_b2.png","70","","70","test","1","","77","","","","circle","square","74","9","4","0.8783783783783784","","","","","","","",""
"null","302104","SARL_v6","SARL_v6q4psehdq","6108cbdb1585c7084e0d110d","freq_resp","","","img/orange_2bandit_b.png","70","img/orange_2bandit_b.png","70","test","","","","","","","","","","","4","","","","","","","","",""
"null","302259","SARL_v6","SARL_v6q4psehdq","6108cbdb1585c7084e0d110d","fixation","","","img/fixation.png","null","","","test","","","","","","","","","","","","","","","","","","","",""
"266","302528","SARL_v6","SARL_v6q4psehdq","6108cbdb1585c7084e0d110d","freq","","","img/orange_2bandit_b2.png","70","","70","test","1","","78","","","","circle","square","75","10","4","0.88","","","","","","","",""
"null","303066","SARL_v6","SARL_v6q4psehdq","6108cbdb1585c7084e0d110d","freq_resp","","","img/orange_2bandit_b.png","70","img/orange_2bandit_b.png","70","test","","","","","","","","","","","4","","","","","","","","",""
"null","303221","SARL_v6","SARL_v6q4psehdq","6108cbdb1585c7084e0d110d","fixation","","","img/fixation.png","null","","","test","","","","","","","","","","","","","","","","","","","",""
"190","303414","SARL_v6","SARL_v6q4psehdq","6108cbdb1585c7084e0d110d","freq","","","img/orange_2bandit_b2.png","70","","70","test","1","","79","","","","circle","square","76","11","4","0.881578947368421","","","","","","","",""
"null","304028","SARL_v6","SARL_v6q4psehdq","6108cbdb1585c7084e0d110d","freq_resp","","","img/orange_2bandit_b.png","70","img/orange_2bandit_b.png","70","test","","","","","","","","","","","4","","","","","","","","",""
"null","304181","SARL_v6","SARL_v6q4psehdq","6108cbdb1585c7084e0d110d","fixation","","","img/fixation.png","null","","","test","","","","","","","","","","","","","","","","","","","",""
"210","304394","SARL_v6","SARL_v6q4psehdq","6108cbdb1585c7084e0d110d","freq","","","img/orange_2bandit_b2.png","70","","70","test","1","","80","","","","circle","square","77","12","4","0.8831168831168831","","","","","","","",""
"null","304989","SARL_v6","SARL_v6q4psehdq","6108cbdb1585c7084e0d110d","freq_resp","","","img/orange_2bandit_b.png","70","img/orange_2bandit_b.png","70","test","","","","","","","","","","","4","","","","","","","","",""
"null","305143","SARL_v6","SARL_v6q4psehdq","6108cbdb1585c7084e0d110d","fixation","","","img/fixation.png","null","","","test","","","","","","","","","","","","","","","","","","","",""
"431","305577","SARL_v6","SARL_v6q4psehdq","6108cbdb1585c7084e0d110d","freq","","","img/orange_2bandit_b2.png","70","","70","test","1","","81","","","","circle","square","78","13","4","0.8846153846153846","","","","","","","",""
"null","305950","SARL_v6","SARL_v6q4psehdq","6108cbdb1585c7084e0d110d","freq_resp","","","img/orange_2bandit_b.png","70","img/orange_2bandit_b.png","70","test","","","","","","","","","","","4","","","","","","","","",""
"null","306104","SARL_v6","SARL_v6q4psehdq","6108cbdb1585c7084e0d110d","fixation","","","img/fixation.png","null","","","test","","","","","","","","","","","","","","","","","","","",""
"323","306430","SARL_v6","SARL_v6q4psehdq","6108cbdb1585c7084e0d110d","freq","","","img/orange_2bandit_b2.png","70","","70","test","1","","82","","","","circle","square","79","14","4","0.8860759493670886","","","","","","","",""
"null","306912","SARL_v6","SARL_v6q4psehdq","6108cbdb1585c7084e0d110d","freq_resp","","","img/orange_2bandit_b.png","70","img/orange_2bandit_b.png","70","test","","","","","","","","","","","4","","","","","","","","",""
"null","307066","SARL_v6","SARL_v6q4psehdq","6108cbdb1585c7084e0d110d","fixation","","","img/fixation.png","null","","","test","","","","","","","","","","","","","","","","","","","",""
"308","307377","SARL_v6","SARL_v6q4psehdq","6108cbdb1585c7084e0d110d","freq","","","img/orange_2bandit_b2.png","70","","70","test","1","","83","","","","circle","square","80","15","4","0.8875","","","","","","","",""
"null","307874","SARL_v6","SARL_v6q4psehdq","6108cbdb1585c7084e0d110d","freq_resp","","","img/orange_2bandit_b.png","70","img/orange_2bandit_b.png","70","test","","","","","","","","","","","4","","","","","","","","",""
"null","308028","SARL_v6","SARL_v6q4psehdq","6108cbdb1585c7084e0d110d","fixation","","","img/fixation.png","null","","","test","","","","","","","","","","","","","","","","","","","",""
"180","308211","SARL_v6","SARL_v6q4psehdq","6108cbdb1585c7084e0d110d","freq","","","img/orange_2bandit_b2.png","70","","70","test","1","","84","","","","circle","square","81","16","4","0.8888888888888888","","","","","","","",""
"null","308836","SARL_v6","SARL_v6q4psehdq","6108cbdb1585c7084e0d110d","freq_resp","","","img/orange_2bandit_b.png","70","img/orange_2bandit_b.png","70","test","","","","","","","","","","","4","","","","","","","","",""
"null","308991","SARL_v6","SARL_v6q4psehdq","6108cbdb1585c7084e0d110d","fixation","","","img/fixation.png","null","","","test","","","","","","","","","","","","","","","","","","","",""
"204","309198","SARL_v6","SARL_v6q4psehdq","6108cbdb1585c7084e0d110d","infreq","","","img/blue_2bandit_b2.png","70","","68","test","0","","85","","","","circle","square","82","17","4","0.8780487804878049","","","","","","","",""
"null","309799","SARL_v6","SARL_v6q4psehdq","6108cbdb1585c7084e0d110d","infreq_resp","","","img/blue_2bandit_b.png","70","img/blue_2bandit_b.png","68","test","","","","","","","","","","","4","","","","","","","","",""
"null","309953","SARL_v6","SARL_v6q4psehdq","6108cbdb1585c7084e0d110d","fixation","","","img/fixation.png","null","","","test","","","","","","","","","","","","","","","","","","","",""
"649","310605","SARL_v6","SARL_v6q4psehdq","6108cbdb1585c7084e0d110d","freq","","","img/orange_2bandit_b2.png","70","","70","test","1","","86","","","","circle","square","83","18","4","0.8795180722891566","","","","","","","",""
"null","310761","SARL_v6","SARL_v6q4psehdq","6108cbdb1585c7084e0d110d","freq_resp","","","img/orange_2bandit_b.png","70","img/orange_2bandit_b.png","70","test","","","","","","","","","","","4","","","","","","","","",""
"null","310915","SARL_v6","SARL_v6q4psehdq","6108cbdb1585c7084e0d110d","fixation","","","img/fixation.png","null","","","test","","","","","","","","","","","","","","","","","","","",""
"578","311496","SARL_v6","SARL_v6q4psehdq","6108cbdb1585c7084e0d110d","freq","","","img/orange_2bandit_b2.png","70","","70","test","1","","87","","","","circle","square","84","19","4","0.8809523809523809","","","","","","","",""
"null","311722","SARL_v6","SARL_v6q4psehdq","6108cbdb1585c7084e0d110d","freq_resp","","","img/orange_2bandit_b.png","70","img/orange_2bandit_b.png","70","test","","","","","","","","","","","4","","","","","","","","",""
"null","311876","SARL_v6","SARL_v6q4psehdq","6108cbdb1585c7084e0d110d","fixation","","","img/fixation.png","null","","","test","","","","","","","","","","","","","","","","","","","",""
"461.0000000000582","312340","SARL_v6","SARL_v6q4psehdq","6108cbdb1585c7084e0d110d","freq","","","img/orange_2bandit_b2.png","70","","70","test","1","","88","","","","circle","square","85","20","4","0.8823529411764706","","","","","","","",""
"null","312681","SARL_v6","SARL_v6q4psehdq","6108cbdb1585c7084e0d110d","freq_resp","","","img/orange_2bandit_b.png","70","img/orange_2bandit_b.png","70","test","","","","","","","","","","","4","","","","","","","","",""
"null","312835","SARL_v6","SARL_v6q4psehdq","6108cbdb1585c7084e0d110d","fixation","","","img/fixation.png","null","","","test","","","","","","","","","","","","","","","","","","","",""
"263","313101","SARL_v6","SARL_v6q4psehdq","6108cbdb1585c7084e0d110d","freq","","","img/orange_2bandit_b2.png","70","","70","test","1","","89","","","","circle","square","86","21","4","0.8837209302325582","","","","","","","",""
"null","313642","SARL_v6","SARL_v6q4psehdq","6108cbdb1585c7084e0d110d","freq_resp","","","img/orange_2bandit_b.png","70","img/orange_2bandit_b.png","70","test","","","","","","","","","","","4","","","","","","","","",""
"null","313797","SARL_v6","SARL_v6q4psehdq","6108cbdb1585c7084e0d110d","fixation","","","img/fixation.png","null","","","test","","","","","","","","","","","","","","","","","","","",""
"380","314179","SARL_v6","SARL_v6q4psehdq","6108cbdb1585c7084e0d110d","freq","","","img/orange_2bandit_b2.png","70","","70","test","1","","90","","","","circle","square","87","22","4","0.8850574712643678","","","","","","","",""
"null","314603","SARL_v6","SARL_v6q4psehdq","6108cbdb1585c7084e0d110d","freq_resp","","","img/orange_2bandit_b.png","70","img/orange_2bandit_b.png","70","test","","","","","","","","","","","4","","","","","","","","",""
"null","314758","SARL_v6","SARL_v6q4psehdq","6108cbdb1585c7084e0d110d","fixation","","","img/fixation.png","null","","","test","","","","","","","","","","","","","","","","","","","",""
"654","315415","SARL_v6","SARL_v6q4psehdq","6108cbdb1585c7084e0d110d","rl","","","img/black_2bandit_b2.png","75","","0","test","","","91","","","-12","circle","square","","0","4","","75","0","-12","0","-12","square","4","0"
"null","316170","SARL_v6","SARL_v6q4psehdq","6108cbdb1585c7084e0d110d","feedback","","","<div class=""verylowPoints_sq""> -12 </div>","null","","na","test","","","NaN","","","","","","","","4","","75","","","","","","4",""
"null","316973","SARL_v6","SARL_v6q4psehdq","6108cbdb1585c7084e0d110d","freq","","","img/orange_2bandit_b2.png","null","","70","test","0","","92","","","","circle","square","88","1","5","0.875","","","","","","","",""
"null","317128","SARL_v6","SARL_v6q4psehdq","6108cbdb1585c7084e0d110d","fixation","","","img/fixation.png","null","","","test","","","","","","","","","","","","","","","","","","","",""
"97","317229","SARL_v6","SARL_v6q4psehdq","6108cbdb1585c7084e0d110d","freq","","","img/orange_2bandit_b2.png","68","","70","test","0","","93","","","","circle","square","89","2","5","0.8651685393258427","","","","","","","",""
"null","317936","SARL_v6","SARL_v6q4psehdq","6108cbdb1585c7084e0d110d","freq_resp","","","img/orange_2bandit_b.png","68","img/orange_2bandit_b.png","70","test","","","","","","","","","","","5","","","","","","","","",""
"null","318090","SARL_v6","SARL_v6q4psehdq","6108cbdb1585c7084e0d110d","fixation","","","img/fixation.png","null","","","test","","","","","","","","","","","","","","","","","","","",""
"439","318532","SARL_v6","SARL_v6q4psehdq","6108cbdb1585c7084e0d110d","freq","","","img/orange_2bandit_b2.png","70","","70","test","1","","94","","","","circle","square","90","3","5","0.8666666666666667","","","","","","","",""
"null","318898","SARL_v6","SARL_v6q4psehdq","6108cbdb1585c7084e0d110d","freq_resp","","","img/orange_2bandit_b.png","70","img/orange_2bandit_b.png","70","test","","","","","","","","","","","5","","","","","","","","",""
"null","319051","SARL_v6","SARL_v6q4psehdq","6108cbdb1585c7084e0d110d","fixation","","","img/fixation.png","null","","","test","","","","","","","","","","","","","","","","","","","",""
"618","319671","SARL_v6","SARL_v6q4psehdq","6108cbdb1585c7084e0d110d","freq","","","img/orange_2bandit_b2.png","70","","70","test","1","","95","","","","circle","square","91","4","5","0.8681318681318682","","","","","","","",""
"null","319858","SARL_v6","SARL_v6q4psehdq","6108cbdb1585c7084e0d110d","freq_resp","","","img/orange_2bandit_b.png","70","img/orange_2bandit_b.png","70","test","","","","","","","","","","","5","","","","","","","","",""
"null","320013","SARL_v6","SARL_v6q4psehdq","6108cbdb1585c7084e0d110d","fixation","","","img/fixation.png","null","","","test","","","","","","","","","","","","","","","","","","","",""
"null","320817","SARL_v6","SARL_v6q4psehdq","6108cbdb1585c7084e0d110d","freq","","","img/orange_2bandit_b2.png","null","","70","test","0","","96","","","","circle","square","92","5","5","0.8586956521739131","","","","","","","",""
"null","320971","SARL_v6","SARL_v6q4psehdq","6108cbdb1585c7084e0d110d","fixation","","","img/fixation.png","null","","","test","","","","","","","","","","","","","","","","","","","",""
"6","320980","SARL_v6","SARL_v6q4psehdq","6108cbdb1585c7084e0d110d","freq","","","img/orange_2bandit_b2.png","70","","70","test","1","","97","","","","circle","square","93","6","5","0.8602150537634409","","","","","","","",""
"null","321779","SARL_v6","SARL_v6q4psehdq","6108cbdb1585c7084e0d110d","freq_resp","","","img/orange_2bandit_b.png","70","img/orange_2bandit_b.png","70","test","","","","","","","","","","","5","","","","","","","","",""
"null","321932","SARL_v6","SARL_v6q4psehdq","6108cbdb1585c7084e0d110d","fixation","","","img/fixation.png","null","","","test","","","","","","","","","","","","","","","","","","","",""
"138","322073","SARL_v6","SARL_v6q4psehdq","6108cbdb1585c7084e0d110d","freq","","","img/orange_2bandit_b2.png","70","","70","test","1","","98","","","","circle","square","94","7","5","0.8617021276595744","","","","","","","",""
"null","322740","SARL_v6","SARL_v6q4psehdq","6108cbdb1585c7084e0d110d","freq_resp","","","img/orange_2bandit_b.png","70","img/orange_2bandit_b.png","70","test","","","","","","","","","","","5","","","","","","","","",""
"null","322894","SARL_v6","SARL_v6q4psehdq","6108cbdb1585c7084e0d110d","fixation","","","img/fixation.png","null","","","test","","","","","","","","","","","","","","","","","","","",""
"192","323089","SARL_v6","SARL_v6q4psehdq","6108cbdb1585c7084e0d110d","freq","","","img/orange_2bandit_b2.png","70","","70","test","1","","99","","","","circle","square","95","8","5","0.8631578947368421","","","","","","","",""
"null","323702","SARL_v6","SARL_v6q4psehdq","6108cbdb1585c7084e0d110d","freq_resp","","","img/orange_2bandit_b.png","70","img/orange_2bandit_b.png","70","test","","","","","","","","","","","5","","","","","","","","",""
"null","323856","SARL_v6","SARL_v6q4psehdq","6108cbdb1585c7084e0d110d","fixation","","","img/fixation.png","null","","","test","","","","","","","","","","","","","","","","","","","",""
"109","323967","SARL_v6","SARL_v6q4psehdq","6108cbdb1585c7084e0d110d","freq","","","img/orange_2bandit_b2.png","70","","70","test","1","","100","","","","circle","square","96","9","5","0.8645833333333334","","","","","","","",""
"null","324662","SARL_v6","SARL_v6q4psehdq","6108cbdb1585c7084e0d110d","freq_resp","","","img/orange_2bandit_b.png","70","img/orange_2bandit_b.png","70","test","","","","","","","","","","","5","","","","","","","","",""
"null","324817","SARL_v6","SARL_v6q4psehdq","6108cbdb1585c7084e0d110d","fixation","","","img/fixation.png","null","","","test","","","","","","","","","","","","","","","","","","","",""
"132","324951","SARL_v6","SARL_v6q4psehdq","6108cbdb1585c7084e0d110d","freq","","","img/orange_2bandit_b2.png","70","","70","test","1","","101","","","","circle","square","97","10","5","0.865979381443299","","","","","","","",""
"null","325624","SARL_v6","SARL_v6q4psehdq","6108cbdb1585c7084e0d110d","freq_resp","","","img/orange_2bandit_b.png","70","img/orange_2bandit_b.png","70","test","","","","","","","","","","","5","","","","","","","","",""
"null","325778","SARL_v6","SARL_v6q4psehdq","6108cbdb1585c7084e0d110d","fixation","","","img/fixation.png","null","","","test","","","","","","","","","","","","","","","","","","","",""
"150","325930","SARL_v6","SARL_v6q4psehdq","6108cbdb1585c7084e0d110d","freq","","","img/orange_2bandit_b2.png","70","","70","test","1","","102","","","","circle","square","98","11","5","0.8673469387755102","","","","","","","",""
"null","326585","SARL_v6","SARL_v6q4psehdq","6108cbdb1585c7084e0d110d","freq_resp","","","img/orange_2bandit_b.png","70","img/orange_2bandit_b.png","70","test","","","","","","","","","","","5","","","","","","","","",""
"null","326739","SARL_v6","SARL_v6q4psehdq","6108cbdb1585c7084e0d110d","fixation","","","img/fixation.png","null","","","test","","","","","","","","","","","","","","","","","","","",""
"238","326980","SARL_v6","SARL_v6q4psehdq","6108cbdb1585c7084e0d110d","freq","","","img/orange_2bandit_b2.png","70","","70","test","1","","103","","","","circle","square","99","12","5","0.8686868686868687","","","","","","","",""
"null","327547","SARL_v6","SARL_v6q4psehdq","6108cbdb1585c7084e0d110d","freq_resp","","","img/orange_2bandit_b.png","70","img/orange_2bandit_b.png","70","test","","","","","","","","","","","5","","","","","","","","",""
"null","327701","SARL_v6","SARL_v6q4psehdq","6108cbdb1585c7084e0d110d","fixation","","","img/fixation.png","null","","","test","","","","","","","","","","","","","","","","","","","",""
"186.9999999999418","327890","SARL_v6","SARL_v6q4psehdq","6108cbdb1585c7084e0d110d","freq","","","img/orange_2bandit_b2.png","70","","70","test","1","","104","","","","circle","square","100","13","5","0.87","","","","","","","",""
"null","328507","SARL_v6","SARL_v6q4psehdq","6108cbdb1585c7084e0d110d","freq_resp","","","img/orange_2bandit_b.png","70","img/orange_2bandit_b.png","70","test","","","","","","","","","","","5","","","","","","","","",""
"null","328661","SARL_v6","SARL_v6q4psehdq","6108cbdb1585c7084e0d110d","fixation","","","img/fixation.png","null","","","test","","","","","","","","","","","","","","","","","","","",""
"245","328909","SARL_v6","SARL_v6q4psehdq","6108cbdb1585c7084e0d110d","freq","","","img/orange_2bandit_b2.png","70","","70","test","1","","105","","","","circle","square","101","14","5","0.8712871287128713","","","","","","","",""
"null","329469","SARL_v6","SARL_v6q4psehdq","6108cbdb1585c7084e0d110d","freq_resp","","","img/orange_2bandit_b.png","70","img/orange_2bandit_b.png","70","test","","","","","","","","","","","5","","","","","","","","",""
"null","329624","SARL_v6","SARL_v6q4psehdq","6108cbdb1585c7084e0d110d","fixation","","","img/fixation.png","null","","","test","","","","","","","","","","","","","","","","","","","",""
"209.9999999999418","329837","SARL_v6","SARL_v6q4psehdq","6108cbdb1585c7084e0d110d","freq","","","img/orange_2bandit_b2.png","70","","70","test","1","","106","","","","circle","square","102","15","5","0.8725490196078431","","","","","","","",""
"null","330432","SARL_v6","SARL_v6q4psehdq","6108cbdb1585c7084e0d110d","freq_resp","","","img/orange_2bandit_b.png","70","img/orange_2bandit_b.png","70","test","","","","","","","","","","","5","","","","","","","","",""
"null","330586","SARL_v6","SARL_v6q4psehdq","6108cbdb1585c7084e0d110d","fixation","","","img/fixation.png","null","","","test","","","","","","","","","","","","","","","","","","","",""
"198.0000000000582","330787","SARL_v6","SARL_v6q4psehdq","6108cbdb1585c7084e0d110d","freq","","","img/orange_2bandit_b2.png","70","","70","test","1","","107","","","","circle","square","103","16","5","0.8737864077669902","","","","","","","",""
"null","331393","SARL_v6","SARL_v6q4psehdq","6108cbdb1585c7084e0d110d","freq_resp","","","img/orange_2bandit_b.png","70","img/orange_2bandit_b.png","70","test","","","","","","","","","","","5","","","","","","","","",""
"null","331548","SARL_v6","SARL_v6q4psehdq","6108cbdb1585c7084e0d110d","fixation","","","img/fixation.png","null","","","test","","","","","","","","","","","","","","","","","","","",""
"216","331766","SARL_v6","SARL_v6q4psehdq","6108cbdb1585c7084e0d110d","infreq","","","img/blue_2bandit_b2.png","70","","68","test","0","","108","","","","circle","square","104","17","5","0.8653846153846154","","","","","","","",""
"null","332355","SARL_v6","SARL_v6q4psehdq","6108cbdb1585c7084e0d110d","infreq_resp","","","img/blue_2bandit_b.png","70","img/blue_2bandit_b.png","68","test","","","","","","","","","","","5","","","","","","","","",""
"null","332510","SARL_v6","SARL_v6q4psehdq","6108cbdb1585c7084e0d110d","fixation","","","img/fixation.png","null","","","test","","","","","","","","","","","","","","","","","","","",""
"606","333118","SARL_v6","SARL_v6q4psehdq","6108cbdb1585c7084e0d110d","infreq","","","img/blue_2bandit_b2.png","68","","68","test","1","","109","","","","circle","square","105","18","5","0.8666666666666667","","","","","","","",""
"null","333317","SARL_v6","SARL_v6q4psehdq","6108cbdb1585c7084e0d110d","infreq_resp","","","img/blue_2bandit_b.png","68","img/blue_2bandit_b.png","68","test","","","","","","","","","","","5","","","","","","","","",""
"null","333471","SARL_v6","SARL_v6q4psehdq","6108cbdb1585c7084e0d110d","fixation","","","img/fixation.png","null","","","test","","","","","","","","","","","","","","","","","","","",""
"593","334068","SARL_v6","SARL_v6q4psehdq","6108cbdb1585c7084e0d110d","freq","","","img/orange_2bandit_b2.png","70","","70","test","1","","110","","","","circle","square","106","19","5","0.8679245283018868","","","","","","","",""
"null","334279","SARL_v6","SARL_v6q4psehdq","6108cbdb1585c7084e0d110d","freq_resp","","","img/orange_2bandit_b.png","70","img/orange_2bandit_b.png","70","test","","","","","","","","","","","5","","","","","","","","",""
"null","334434","SARL_v6","SARL_v6q4psehdq","6108cbdb1585c7084e0d110d","fixation","","","img/fixation.png","null","","","test","","","","","","","","","","","","","","","","","","","",""
"581","335018","SARL_v6","SARL_v6q4psehdq","6108cbdb1585c7084e0d110d","infreq","","","img/blue_2bandit_b2.png","68","","68","test","1","","111","","","","circle","square","107","20","5","0.8691588785046729","","","","","","","",""
"null","335242","SARL_v6","SARL_v6q4psehdq","6108cbdb1585c7084e0d110d","infreq_resp","","","img/blue_2bandit_b.png","68","img/blue_2bandit_b.png","68","test","","","","","","","","","","","5","","","","","","","","",""
"null","335396","SARL_v6","SARL_v6q4psehdq","6108cbdb1585c7084e0d110d","fixation","","","img/fixation.png","null","","","test","","","","","","","","","","","","","","","","","","","",""
"624","336024","SARL_v6","SARL_v6q4psehdq","6108cbdb1585c7084e0d110d","freq","","","img/orange_2bandit_b2.png","70","","70","test","1","","112","","","","circle","square","108","21","5","0.8703703703703703","","","","","","","",""
"null","336204","SARL_v6","SARL_v6q4psehdq","6108cbdb1585c7084e0d110d","freq_resp","","","img/orange_2bandit_b.png","70","img/orange_2bandit_b.png","70","test","","","","","","","","","","","5","","","","","","","","",""
"null","336358","SARL_v6","SARL_v6q4psehdq","6108cbdb1585c7084e0d110d","fixation","","","img/fixation.png","null","","","test","","","","","","","","","","","","","","","","","","","",""
"576.0000000000582","336936","SARL_v6","SARL_v6q4psehdq","6108cbdb1585c7084e0d110d","freq","","","img/orange_2bandit_b2.png","70","","70","test","1","","113","","","","circle","square","109","22","5","0.8715596330275229","","","","","","","",""
"null","337162","SARL_v6","SARL_v6q4psehdq","6108cbdb1585c7084e0d110d","freq_resp","","","img/orange_2bandit_b.png","70","img/orange_2bandit_b.png","70","test","","","","","","","","","","","5","","","","","","","","",""
"null","337316","SARL_v6","SARL_v6q4psehdq","6108cbdb1585c7084e0d110d","fixation","","","img/fixation.png","null","","","test","","","","","","","","","","","","","","","","","","","",""
"552","337870","SARL_v6","SARL_v6q4psehdq","6108cbdb1585c7084e0d110d","freq","","","img/orange_2bandit_b2.png","70","","70","test","1","","114","","","","circle","square","110","23","5","0.8727272727272727","","","","","","","",""
"null","338122","SARL_v6","SARL_v6q4psehdq","6108cbdb1585c7084e0d110d","freq_resp","","","img/orange_2bandit_b.png","70","img/orange_2bandit_b.png","70","test","","","","","","","","","","","5","","","","","","","","",""
"null","338277","SARL_v6","SARL_v6q4psehdq","6108cbdb1585c7084e0d110d","fixation","","","img/fixation.png","null","","","test","","","","","","","","","","","","","","","","","","","",""
"462","338741","SARL_v6","SARL_v6q4psehdq","6108cbdb1585c7084e0d110d","freq","","","img/orange_2bandit_b2.png","70","","70","test","1","","115","","","","circle","square","111","24","5","0.8738738738738738","","","","","","","",""
"null","339084","SARL_v6","SARL_v6q4psehdq","6108cbdb1585c7084e0d110d","freq_resp","","","img/orange_2bandit_b.png","70","img/orange_2bandit_b.png","70","test","","","","","","","","","","","5","","","","","","","","",""
"null","339238","SARL_v6","SARL_v6q4psehdq","6108cbdb1585c7084e0d110d","fixation","","","img/fixation.png","null","","","test","","","","","","","","","","","","","","","","","","","",""
"481","339721","SARL_v6","SARL_v6q4psehdq","6108cbdb1585c7084e0d110d","freq","","","img/orange_2bandit_b2.png","70","","70","test","1","","116","","","","circle","square","112","25","5","0.875","","","","","","","",""
"null","340045","SARL_v6","SARL_v6q4psehdq","6108cbdb1585c7084e0d110d","freq_resp","","","img/orange_2bandit_b.png","70","img/orange_2bandit_b.png","70","test","","","","","","","","","","","5","","","","","","","","",""
"null","340199","SARL_v6","SARL_v6q4psehdq","6108cbdb1585c7084e0d110d","fixation","","","img/fixation.png","null","","","test","","","","","","","","","","","","","","","","","","","",""
"753","340956","SARL_v6","SARL_v6q4psehdq","6108cbdb1585c7084e0d110d","rl","","","img/black_2bandit_b2.png","74","","0","test","","","117","","","4","circle","square","","0","5","","74","4","-7","4","-7","circle","5","0"
"null","341710","SARL_v6","SARL_v6q4psehdq","6108cbdb1585c7084e0d110d","feedback","","","<div class=""veryhighPoints""> 4 </div>","null","","na","test","","","NaN","","","","","","","","5","","74","","","","","","5",""
"null","342515","SARL_v6","SARL_v6q4psehdq","6108cbdb1585c7084e0d110d","freq","","","img/orange_2bandit_b2.png","null","","70","test","0","","118","","","","circle","square","113","1","6","0.8672566371681416","","","","","","","",""
"null","342670","SARL_v6","SARL_v6q4psehdq","6108cbdb1585c7084e0d110d","fixation","","","img/fixation.png","null","","","test","","","","","","","","","","","","","","","","","","","",""
"728.0000000000582","343401","SARL_v6","SARL_v6q4psehdq","6108cbdb1585c7084e0d110d","freq","","","img/orange_2bandit_b2.png","70","","70","test","1","","119","","","","circle","square","114","2","6","0.868421052631579","","","","","","","",""
"null","343477","SARL_v6","SARL_v6q4psehdq","6108cbdb1585c7084e0d110d","freq_resp","","","img/orange_2bandit_b.png","70","img/orange_2bandit_b.png","70","test","","","","","","","","","","","6","","","","","","","","",""
"null","343631","SARL_v6","SARL_v6q4psehdq","6108cbdb1585c7084e0d110d","fixation","","","img/fixation.png","null","","","test","","","","","","","","","","","","","","","","","","","",""
"499","344133","SARL_v6","SARL_v6q4psehdq","6108cbdb1585c7084e0d110d","freq","","","img/orange_2bandit_b2.png","70","","70","test","1","","120","","","","circle","square","115","3","6","0.8695652173913043","","","","","","","",""
"null","344439","SARL_v6","SARL_v6q4psehdq","6108cbdb1585c7084e0d110d","freq_resp","","","img/orange_2bandit_b.png","70","img/orange_2bandit_b.png","70","test","","","","","","","","","","","6","","","","","","","","",""
"null","344594","SARL_v6","SARL_v6q4psehdq","6108cbdb1585c7084e0d110d","fixation","","","img/fixation.png","null","","","test","","","","","","","","","","","","","","","","","","","",""
"672","345269","SARL_v6","SARL_v6q4psehdq","6108cbdb1585c7084e0d110d","freq","","","img/orange_2bandit_b2.png","70","","70","test","1","","121","","","","circle","square","116","4","6","0.8706896551724138","","","","","","","",""
"null","345401","SARL_v6","SARL_v6q4psehdq","6108cbdb1585c7084e0d110d","freq_resp","","","img/orange_2bandit_b.png","70","img/orange_2bandit_b.png","70","test","","","","","","","","","","","6","","","","","","","","",""
"null","345555","SARL_v6","SARL_v6q4psehdq","6108cbdb1585c7084e0d110d","fixation","","","img/fixation.png","null","","","test","","","","","","","","","","","","","","","","","","","",""
"360.0000000000582","345918","SARL_v6","SARL_v6q4psehdq","6108cbdb1585c7084e0d110d","freq","","","img/orange_2bandit_b2.png","70","","70","test","1","","122","","","","circle","square","117","5","6","0.8717948717948718","","","","","","","",""
"null","346361","SARL_v6","SARL_v6q4psehdq","6108cbdb1585c7084e0d110d","freq_resp","","","img/orange_2bandit_b.png","70","img/orange_2bandit_b.png","70","test","","","","","","","","","","","6","","","","","","","","",""
"null","346515","SARL_v6","SARL_v6q4psehdq","6108cbdb1585c7084e0d110d","fixation","","","img/fixation.png","null","","","test","","","","","","","","","","","","","","","","","","","",""
"243","346762","SARL_v6","SARL_v6q4psehdq","6108cbdb1585c7084e0d110d","freq","","","img/orange_2bandit_b2.png","70","","70","test","1","","123","","","","circle","square","118","6","6","0.8728813559322034","","","","","","","",""
"null","347324","SARL_v6","SARL_v6q4psehdq","6108cbdb1585c7084e0d110d","freq_resp","","","img/orange_2bandit_b.png","70","img/orange_2bandit_b.png","70","test","","","","","","","","","","","6","","","","","","","","",""
"null","347479","SARL_v6","SARL_v6q4psehdq","6108cbdb1585c7084e0d110d","fixation","","","img/fixation.png","null","","","test","","","","","","","","","","","","","","","","","","","",""
"180","347662","SARL_v6","SARL_v6q4psehdq","6108cbdb1585c7084e0d110d","freq","","","img/orange_2bandit_b2.png","70","","70","test","1","","124","","","","circle","square","119","7","6","0.8739495798319328","","","","","","","",""
"null","348286","SARL_v6","SARL_v6q4psehdq","6108cbdb1585c7084e0d110d","freq_resp","","","img/orange_2bandit_b.png","70","img/orange_2bandit_b.png","70","test","","","","","","","","","","","6","","","","","","","","",""
"null","348441","SARL_v6","SARL_v6q4psehdq","6108cbdb1585c7084e0d110d","fixation","","","img/fixation.png","null","","","test","","","","","","","","","","","","","","","","","","","",""
"200","348644","SARL_v6","SARL_v6q4psehdq","6108cbdb1585c7084e0d110d","freq","","","img/orange_2bandit_b2.png","70","","70","test","1","","125","","","","circle","square","120","8","6","0.875","","","","","","","",""
"null","349248","SARL_v6","SARL_v6q4psehdq","6108cbdb1585c7084e0d110d","freq_resp","","","img/orange_2bandit_b.png","70","img/orange_2bandit_b.png","70","test","","","","","","","","","","","6","","","","","","","","",""
"null","349403","SARL_v6","SARL_v6q4psehdq","6108cbdb1585c7084e0d110d","fixation","","","img/fixation.png","null","","","test","","","","","","","","","","","","","","","","","","","",""
"166","349572","SARL_v6","SARL_v6q4psehdq","6108cbdb1585c7084e0d110d","freq","","","img/orange_2bandit_b2.png","70","","70","test","1","","126","","","","circle","square","121","9","6","0.8760330578512396","","","","","","","",""
"null","350211","SARL_v6","SARL_v6q4psehdq","6108cbdb1585c7084e0d110d","freq_resp","","","img/orange_2bandit_b.png","70","img/orange_2bandit_b.png","70","test","","","","","","","","","","","6","","","","","","","","",""
"null","350365","SARL_v6","SARL_v6q4psehdq","6108cbdb1585c7084e0d110d","fixation","","","img/fixation.png","null","","","test","","","","","","","","","","","","","","","","","","","",""
"150","350519","SARL_v6","SARL_v6q4psehdq","6108cbdb1585c7084e0d110d","freq","","","img/orange_2bandit_b2.png","70","","70","test","1","","127","","","","circle","square","122","10","6","0.8770491803278688","","","","","","","",""
"null","351172","SARL_v6","SARL_v6q4psehdq","6108cbdb1585c7084e0d110d","freq_resp","","","img/orange_2bandit_b.png","70","img/orange_2bandit_b.png","70","test","","","","","","","","","","","6","","","","","","","","",""
"null","351325","SARL_v6","SARL_v6q4psehdq","6108cbdb1585c7084e0d110d","fixation","","","img/fixation.png","null","","","test","","","","","","","","","","","","","","","","","","","",""
"271","351599","SARL_v6","SARL_v6q4psehdq","6108cbdb1585c7084e0d110d","freq","","","img/orange_2bandit_b2.png","70","","70","test","1","","128","","","","circle","square","123","11","6","0.8780487804878049","","","","","","","",""
"null","352132","SARL_v6","SARL_v6q4psehdq","6108cbdb1585c7084e0d110d","freq_resp","","","img/orange_2bandit_b.png","70","img/orange_2bandit_b.png","70","test","","","","","","","","","","","6","","","","","","","","",""
"null","352287","SARL_v6","SARL_v6q4psehdq","6108cbdb1585c7084e0d110d","fixation","","","img/fixation.png","null","","","test","","","","","","","","","","","","","","","","","","","",""
"248.0000000000582","352538","SARL_v6","SARL_v6q4psehdq","6108cbdb1585c7084e0d110d","freq","","","img/orange_2bandit_b2.png","70","","70","test","1","","129","","","","circle","square","124","12","6","0.8790322580645161","","","","","","","",""
"null","353093","SARL_v6","SARL_v6q4psehdq","6108cbdb1585c7084e0d110d","freq_resp","","","img/orange_2bandit_b.png","70","img/orange_2bandit_b.png","70","test","","","","","","","","","","","6","","","","","","","","",""
"null","353247","SARL_v6","SARL_v6q4psehdq","6108cbdb1585c7084e0d110d","fixation","","","img/fixation.png","null","","","test","","","","","","","","","","","","","","","","","","","",""
"136","353387","SARL_v6","SARL_v6q4psehdq","6108cbdb1585c7084e0d110d","freq","","","img/orange_2bandit_b2.png","70","","70","test","1","","130","","","","circle","square","125","13","6","0.88","","","","","","","",""
"null","354055","SARL_v6","SARL_v6q4psehdq","6108cbdb1585c7084e0d110d","freq_resp","","","img/orange_2bandit_b.png","70","img/orange_2bandit_b.png","70","test","","","","","","","","","","","6","","","","","","","","",""
"null","354210","SARL_v6","SARL_v6q4psehdq","6108cbdb1585c7084e0d110d","fixation","","","img/fixation.png","null","","","test","","","","","","","","","","","","","","","","","","","",""
"220","354433","SARL_v6","SARL_v6q4psehdq","6108cbdb1585c7084e0d110d","infreq","","","img/blue_2bandit_b2.png","70","","68","test","0","","131","","","","circle","square","126","14","6","0.873015873015873","","","","","","","",""
"null","355018","SARL_v6","SARL_v6q4psehdq","6108cbdb1585c7084e0d110d","infreq_resp","","","img/blue_2bandit_b.png","70","img/blue_2bandit_b.png","68","test","","","","","","","","","","","6","","","","","","","","",""
"null","355172","SARL_v6","SARL_v6q4psehdq","6108cbdb1585c7084e0d110d","fixation","","","img/fixation.png","null","","","test","","","","","","","","","","","","","","","","","","","",""
"568.9999999999418","355744","SARL_v6","SARL_v6q4psehdq","6108cbdb1585c7084e0d110d","freq","","","img/orange_2bandit_b2.png","70","","70","test","1","","132","","","","circle","square","127","15","6","0.8740157480314961","","","","","","","",""
"null","355979","SARL_v6","SARL_v6q4psehdq","6108cbdb1585c7084e0d110d","freq_resp","","","img/orange_2bandit_b.png","70","img/orange_2bandit_b.png","70","test","","","","","","","","","","","6","","","","","","","","",""
"null","356134","SARL_v6","SARL_v6q4psehdq","6108cbdb1585c7084e0d110d","fixation","","","img/fixation.png","null","","","test","","","","","","","","","","","","","","","","","","","",""
"454.0000000000582","356590","SARL_v6","SARL_v6q4psehdq","6108cbdb1585c7084e0d110d","freq","","","img/orange_2bandit_b2.png","70","","70","test","1","","133","","","","circle","square","128","16","6","0.875","","","","","","","",""
"null","356940","SARL_v6","SARL_v6q4psehdq","6108cbdb1585c7084e0d110d","freq_resp","","","img/orange_2bandit_b.png","70","img/orange_2bandit_b.png","70","test","","","","","","","","","","","6","","","","","","","","",""
"null","357094","SARL_v6","SARL_v6q4psehdq","6108cbdb1585c7084e0d110d","fixation","","","img/fixation.png","null","","","test","","","","","","","","","","","","","","","","","","","",""
"442","357538","SARL_v6","SARL_v6q4psehdq","6108cbdb1585c7084e0d110d","freq","","","img/orange_2bandit_b2.png","70","","70","test","1","","134","","","","circle","square","129","17","6","0.875968992248062","","","","","","","",""
