"rt","time_elapsed","expId","subject","prolificID","trialType","rlType","attType","stimulus","key_press","stim","corrresp","phase","corr","pracCounter","trialNum","rewardOne","rewardTwo","reward","bandOne","bandTwo","attentionNum","attentionRunNum","blockNum","performance","bandChosen","circleVal","squareVal","bandOneVal","bandTwoVal","shapeChosen","rlNum","badFlag"
"16661","16676","SARL_v6","SARL_v6p6dvsebe","632ff41f3631baf749984e3e","","","","","","","","","","","","","","","","","","","","","","","","","","","",""
"","21018","SARL_v6","SARL_v6p6dvsebe","632ff41f3631baf749984e3e","fullscreen","fullscreen","fullscreen","","","","","","","","","","","","","","","","","","","","","","","","",""
"64393.90000009537","85420","SARL_v6","SARL_v6p6dvsebe","632ff41f3631baf749984e3e","","","","","","","","","","","","","","","","","","","","","","","","","","","",""
"null","86235","SARL_v6","SARL_v6p6dvsebe","632ff41f3631baf749984e3e","freqPrac","","","img/blue_2bandit_b2.png","null","img/blue_2bandit_b2.png","70","prac","0","1","","","","","","","","","","","","","","","","","",""
"null","87244","SARL_v6","SARL_v6p6dvsebe","632ff41f3631baf749984e3e","feedback","","","img/tooSlow.png","null","","na","prac","","","","","","","","","","","","","","","","","","","",""
"null","87410","SARL_v6","SARL_v6p6dvsebe","632ff41f3631baf749984e3e","fixation","","","img/fixation.png","null","","","prac","","","","","","","","","","","","","","","","","","","",""
"315.90000009536743","87735","SARL_v6","SARL_v6p6dvsebe","632ff41f3631baf749984e3e","infreqPrac","","","img/orange_2bandit_b2.png","68","img/orange_2bandit_b2.png","68","prac","1","1","","","","","","","","","","","","","","","","","",""
"315.90000009536743","88235","SARL_v6","SARL_v6p6dvsebe","632ff41f3631baf749984e3e","infreqPrac_resp","","","img/orange_2bandit_b.png","68","img/orange_2bandit_b.png","68","prac","","","","","","","","","","","","","","","","","","","",""
"null","88396","SARL_v6","SARL_v6p6dvsebe","632ff41f3631baf749984e3e","fixation","","","img/fixation.png","null","","","prac","","","","","","","","","","","","","","","","","","","",""
"347","88751","SARL_v6","SARL_v6p6dvsebe","632ff41f3631baf749984e3e","freqPrac","","","img/blue_2bandit_b2.png","70","img/blue_2bandit_b2.png","70","prac","1","1","","","","","","","","","","","","","","","","","",""
"347","89216","SARL_v6","SARL_v6p6dvsebe","632ff41f3631baf749984e3e","freqPrac_resp","","","img/blue_2bandit_b.png","70","img/blue_2bandit_b.png","70","prac","","","","","","","","","","","","","","","","","","","",""
"null","89377","SARL_v6","SARL_v6p6dvsebe","632ff41f3631baf749984e3e","fixation","","","img/fixation.png","null","","","prac","","","","","","","","","","","","","","","","","","","",""
"453.2999999523163","89838","SARL_v6","SARL_v6p6dvsebe","632ff41f3631baf749984e3e","infreqPrac","","","img/orange_2bandit_b2.png","68","img/orange_2bandit_b2.png","68","prac","1","1","","","","","","","","","","","","","","","","","",""
"453.2999999523163","90198","SARL_v6","SARL_v6p6dvsebe","632ff41f3631baf749984e3e","infreqPrac_resp","","","img/orange_2bandit_b.png","68","img/orange_2bandit_b.png","68","prac","","","","","","","","","","","","","","","","","","","",""
"null","90371","SARL_v6","SARL_v6p6dvsebe","632ff41f3631baf749984e3e","fixation","","","img/fixation.png","null","","","prac","","","","","","","","","","","","","","","","","","","",""
"373.10000014305115","90752","SARL_v6","SARL_v6p6dvsebe","632ff41f3631baf749984e3e","infreqPrac","","","img/orange_2bandit_b2.png","68","img/orange_2bandit_b2.png","68","prac","1","1","","","","","","","","","","","","","","","","","",""
"373.10000014305115","91200","SARL_v6","SARL_v6p6dvsebe","632ff41f3631baf749984e3e","infreqPrac_resp","","","img/orange_2bandit_b.png","68","img/orange_2bandit_b.png","68","prac","","","","","","","","","","","","","","","","","","","",""
"null","91365","SARL_v6","SARL_v6p6dvsebe","632ff41f3631baf749984e3e","fixation","","","img/fixation.png","null","","","prac","","","","","","","","","","","","","","","","","","","",""
"305.2000000476837","91678","SARL_v6","SARL_v6p6dvsebe","632ff41f3631baf749984e3e","infreqPrac","","","img/orange_2bandit_b2.png","68","img/orange_2bandit_b2.png","68","prac","1","1","","","","","","","","","","","","","","","","","",""
"305.2000000476837","92189","SARL_v6","SARL_v6p6dvsebe","632ff41f3631baf749984e3e","infreqPrac_resp","","","img/orange_2bandit_b.png","68","img/orange_2bandit_b.png","68","prac","","","","","","","","","","","","","","","","","","","",""
"null","92357","SARL_v6","SARL_v6p6dvsebe","632ff41f3631baf749984e3e","fixation","","","img/fixation.png","null","","","prac","","","","","","","","","","","","","","","","","","","",""
"407.40000009536743","92773","SARL_v6","SARL_v6p6dvsebe","632ff41f3631baf749984e3e","freqPrac","","","img/blue_2bandit_b2.png","70","img/blue_2bandit_b2.png","70","prac","1","1","","","","","","","","","","","","","","","","","",""
"407.40000009536743","93186","SARL_v6","SARL_v6p6dvsebe","632ff41f3631baf749984e3e","freqPrac_resp","","","img/blue_2bandit_b.png","70","img/blue_2bandit_b.png","70","prac","","","","","","","","","","","","","","","","","","","",""
"null","93354","SARL_v6","SARL_v6p6dvsebe","632ff41f3631baf749984e3e","fixation","","","img/fixation.png","null","","","prac","","","","","","","","","","","","","","","","","","","",""
"327.60000014305115","93689","SARL_v6","SARL_v6p6dvsebe","632ff41f3631baf749984e3e","infreqPrac","","","img/orange_2bandit_b2.png","68","img/orange_2bandit_b2.png","68","prac","1","1","","","","","","","","","","","","","","","","","",""
"327.60000014305115","94177","SARL_v6","SARL_v6p6dvsebe","632ff41f3631baf749984e3e","infreqPrac_resp","","","img/orange_2bandit_b.png","68","img/orange_2bandit_b.png","68","prac","","","","","","","","","","","","","","","","","","","",""
"null","94337","SARL_v6","SARL_v6p6dvsebe","632ff41f3631baf749984e3e","fixation","","","img/fixation.png","null","","","prac","","","","","","","","","","","","","","","","","","","",""
"310.7000000476837","94656","SARL_v6","SARL_v6p6dvsebe","632ff41f3631baf749984e3e","freqPrac","","","img/blue_2bandit_b2.png","68","img/blue_2bandit_b2.png","70","prac","0","2","","","","","","","","","","","","","","","","","",""
"310.7000000476837","95169","SARL_v6","SARL_v6p6dvsebe","632ff41f3631baf749984e3e","freqPrac_resp","","","img/blue_2bandit_b.png","68","img/blue_2bandit_b.png","70","prac","","","","","","","","","","","","","","","","","","","",""
"null","96188","SARL_v6","SARL_v6p6dvsebe","632ff41f3631baf749984e3e","feedback","","","img/wrongKey.png","null","","na","prac","","","","","","","","","","","","","","","","","","","",""
"null","96357","SARL_v6","SARL_v6p6dvsebe","632ff41f3631baf749984e3e","fixation","","","img/fixation.png","null","","","prac","","","","","","","","","","","","","","","","","","","",""
"457.39999985694885","96822","SARL_v6","SARL_v6p6dvsebe","632ff41f3631baf749984e3e","freqPrac","","","img/blue_2bandit_b2.png","70","img/blue_2bandit_b2.png","70","prac","1","2","","","","","","","","","","","","","","","","","",""
"457.39999985694885","97188","SARL_v6","SARL_v6p6dvsebe","632ff41f3631baf749984e3e","freqPrac_resp","","","img/blue_2bandit_b.png","70","img/blue_2bandit_b.png","70","prac","","","","","","","","","","","","","","","","","","","",""
"null","97361","SARL_v6","SARL_v6p6dvsebe","632ff41f3631baf749984e3e","fixation","","","img/fixation.png","null","","","prac","","","","","","","","","","","","","","","","","","","",""
"27832.700000047684","125201","SARL_v6","SARL_v6p6dvsebe","632ff41f3631baf749984e3e","","","","","","","","prac","","","","","","","","","","","","","","","","","","","",""
"479","125689","SARL_v6","SARL_v6p6dvsebe","632ff41f3631baf749984e3e","rlPractice","","","img/black_2bandit_b2.png","75","img/black_2bandit_b2.png","","prac","","","0","","","","","","","","","","","","","","","","",""
"null","126467","SARL_v6","SARL_v6p6dvsebe","632ff41f3631baf749984e3e","feedback","","","<div class=""verylowPoints_sq""> -14 </div>","null","","na","prac","","","1","10","-14","10","","","","","","","","","","","","","",""
"null","126636","SARL_v6","SARL_v6p6dvsebe","632ff41f3631baf749984e3e","fixation","","","img/fixation.png","null","","","prac","","","","","","","","","","","","","","","","","","","",""
"337.2999999523163","126984","SARL_v6","SARL_v6p6dvsebe","632ff41f3631baf749984e3e","rlPractice","","","img/black_2bandit_b2.png","74","img/black_2bandit_b2.png","","prac","","","1","","","","","","","","","","","","","","","","",""
"null","127755","SARL_v6","SARL_v6p6dvsebe","632ff41f3631baf749984e3e","feedback","","","<div class=""veryhighPoints""> 5 </div>","null","","na","prac","","","2","5","-5","5","","","","","","","","","","","","","",""
"null","127925","SARL_v6","SARL_v6p6dvsebe","632ff41f3631baf749984e3e","fixation","","","img/fixation.png","null","","","prac","","","","","","","","","","","","","","","","","","","",""
"273.10000014305115","128207","SARL_v6","SARL_v6p6dvsebe","632ff41f3631baf749984e3e","rlPractice","","","img/black_2bandit_b2.png","74","img/black_2bandit_b2.png","","prac","","","2","","","","","","","","","","","","","","","","",""
"null","128977","SARL_v6","SARL_v6p6dvsebe","632ff41f3631baf749984e3e","feedback","","","<div class=""veryhighPoints""> 30 </div>","null","","na","prac","","","3","30","2","30","","","","","","","","","","","","","",""
"null","129140","SARL_v6","SARL_v6p6dvsebe","632ff41f3631baf749984e3e","fixation","","","img/fixation.png","null","","","prac","","","","","","","","","","","","","","","","","","","",""
"241.29999995231628","129390","SARL_v6","SARL_v6p6dvsebe","632ff41f3631baf749984e3e","rlPractice","","","img/black_2bandit_b2.png","74","img/black_2bandit_b2.png","","prac","","","3","","","","","","","","","","","","","","","","",""
"null","130154","SARL_v6","SARL_v6p6dvsebe","632ff41f3631baf749984e3e","feedback","","","<div class=""verylowPoints""> -2 </div>","null","","na","prac","","","4","-2","20","-2","","","","","","","","","","","","","",""
"null","130326","SARL_v6","SARL_v6p6dvsebe","632ff41f3631baf749984e3e","fixation","","","img/fixation.png","null","","","prac","","","","","","","","","","","","","","","","","","","",""
"8455.100000143051","138788","SARL_v6","SARL_v6p6dvsebe","632ff41f3631baf749984e3e","","","","","","","","prac","","","","","","","","","","","","","","","","","","","",""
"null","139598","SARL_v6","SARL_v6p6dvsebe","632ff41f3631baf749984e3e","mixAttFreqPrac","","","img/blue_2bandit_b2.png","null","img/blue_2bandit_b2.png","70","prac","","","1","","","","","","","","","","","","","","","","",""
"null","139761","SARL_v6","SARL_v6p6dvsebe","632ff41f3631baf749984e3e","fixation","","","img/fixation.png","null","","","prac","","","","","","","","","","","","","","","","","","","",""
"null","140579","SARL_v6","SARL_v6p6dvsebe","632ff41f3631baf749984e3e","mixAttInfreqPrac","","","img/orange_2bandit_b2.png","null","img/orange_2bandit_b2.png","68","prac","","","2","","","","","","","","","","","","","","","","",""
"null","140737","SARL_v6","SARL_v6p6dvsebe","632ff41f3631baf749984e3e","fixation","","","img/fixation.png","null","","","prac","","","","","","","","","","","","","","","","","","","",""
"null","141559","SARL_v6","SARL_v6p6dvsebe","632ff41f3631baf749984e3e","mixAttInfreqPrac","","","img/orange_2bandit_b2.png","null","img/orange_2bandit_b2.png","68","prac","","","3","","","","","","","","","","","","","","","","",""
"null","141717","SARL_v6","SARL_v6p6dvsebe","632ff41f3631baf749984e3e","fixation","","","img/fixation.png","null","","","prac","","","","","","","","","","","","","","","","","","","",""
"597.5999999046326","142323","SARL_v6","SARL_v6p6dvsebe","632ff41f3631baf749984e3e","mixAttInfreqPrac","","","img/orange_2bandit_b2.png","68","img/orange_2bandit_b2.png","68","prac","","","4","","","","","","","","","","","","","","","","",""
"597.5999999046326","142544","SARL_v6","SARL_v6p6dvsebe","632ff41f3631baf749984e3e","infreqPrac_resp","","","img/orange_2bandit_b.png","68","img/blue_2bandit_b.png","68","prac","","","4","","","","","","","","","","","","","","","","",""
"34.700000047683716","142714","SARL_v6","SARL_v6p6dvsebe","632ff41f3631baf749984e3e","fixation","","","img/fixation.png","70","","","prac","","","","","","","","","","","","","","","","","","","",""
"699.6000001430511","143422","SARL_v6","SARL_v6p6dvsebe","632ff41f3631baf749984e3e","mixAttFreqPrac","","","img/blue_2bandit_b2.png","68","img/blue_2bandit_b2.png","70","prac","","","5","","","","","","","","","","","","","","","","",""
"699.6000001430511","143536","SARL_v6","SARL_v6p6dvsebe","632ff41f3631baf749984e3e","freqPrac_resp","","","img/blue_2bandit_b.png","68","img/blue_2bandit_b.png","70","prac","","","5","","","","","","","","","","","","","","","","",""
"null","143697","SARL_v6","SARL_v6p6dvsebe","632ff41f3631baf749984e3e","fixation","","","img/fixation.png","null","","","prac","","","","","","","","","","","","","","","","","","","",""
"1093.3000001907349","144799","SARL_v6","SARL_v6p6dvsebe","632ff41f3631baf749984e3e","mixRLPractice","","","img/black_2bandit_b2.png","75","img/black_2bandit_b2.png","","prac","","","5","","","","","","","","","","","","","","","","",""
"null","145571","SARL_v6","SARL_v6p6dvsebe","632ff41f3631baf749984e3e","feedback","","","<div class=""veryhighPoints_sq""> 10 </div>","null","","na","prac","","","6","-14","10","-14","","","","","","","","","","","","","",""
"null","145733","SARL_v6","SARL_v6p6dvsebe","632ff41f3631baf749984e3e","fixation","","","img/fixation.png","null","","","prac","","","","","","","","","","","","","","","","","","","",""
"null","146545","SARL_v6","SARL_v6p6dvsebe","632ff41f3631baf749984e3e","mixAttFreqPrac","","","img/blue_2bandit_b2.png","null","img/blue_2bandit_b2.png","70","prac","","","7","","","","","","","","","","","","","","","","",""
"65.90000009536743","146706","SARL_v6","SARL_v6p6dvsebe","632ff41f3631baf749984e3e","fixation","","","img/fixation.png","68","","","prac","","","","","","","","","","","","","","","","","","","",""
"453.59999990463257","147168","SARL_v6","SARL_v6p6dvsebe","632ff41f3631baf749984e3e","mixAttInfreqPrac","","","img/orange_2bandit_b2.png","70","img/orange_2bandit_b2.png","68","prac","","","8","","","","","","","","","","","","","","","","",""
"453.59999990463257","147526","SARL_v6","SARL_v6p6dvsebe","632ff41f3631baf749984e3e","infreqPrac_resp","","","img/orange_2bandit_b.png","70","img/blue_2bandit_b.png","68","prac","","","8","","","","","","","","","","","","","","","","",""
"null","147697","SARL_v6","SARL_v6p6dvsebe","632ff41f3631baf749984e3e","fixation","","","img/fixation.png","null","","","prac","","","","","","","","","","","","","","","","","","","",""
"373.7999999523163","148078","SARL_v6","SARL_v6p6dvsebe","632ff41f3631baf749984e3e","mixAttFreqPrac","","","img/blue_2bandit_b2.png","68","img/blue_2bandit_b2.png","70","prac","","","9","","","","","","","","","","","","","","","","",""
"373.7999999523163","148520","SARL_v6","SARL_v6p6dvsebe","632ff41f3631baf749984e3e","freqPrac_resp","","","img/blue_2bandit_b.png","68","img/blue_2bandit_b.png","70","prac","","","9","","","","","","","","","","","","","","","","",""
"null","148691","SARL_v6","SARL_v6p6dvsebe","632ff41f3631baf749984e3e","fixation","","","img/fixation.png","null","","","prac","","","","","","","","","","","","","","","","","","","",""
"348.5","149048","SARL_v6","SARL_v6p6dvsebe","632ff41f3631baf749984e3e","mixAttFreqPrac","","","img/blue_2bandit_b2.png","68","img/blue_2bandit_b2.png","70","prac","","","10","","","","","","","","","","","","","","","","",""
"348.5","149516","SARL_v6","SARL_v6p6dvsebe","632ff41f3631baf749984e3e","freqPrac_resp","","","img/blue_2bandit_b.png","68","img/blue_2bandit_b.png","70","prac","","","10","","","","","","","","","","","","","","","","",""
"null","149684","SARL_v6","SARL_v6p6dvsebe","632ff41f3631baf749984e3e","fixation","","","img/fixation.png","null","","","prac","","","","","","","","","","","","","","","","","","","",""
"374.2999999523163","150066","SARL_v6","SARL_v6p6dvsebe","632ff41f3631baf749984e3e","mixAttInfreqPrac","","","img/orange_2bandit_b2.png","70","img/orange_2bandit_b2.png","68","prac","","","11","","","","","","","","","","","","","","","","",""
"374.2999999523163","150506","SARL_v6","SARL_v6p6dvsebe","632ff41f3631baf749984e3e","infreqPrac_resp","","","img/orange_2bandit_b.png","70","img/blue_2bandit_b.png","68","prac","","","11","","","","","","","","","","","","","","","","",""
"null","150680","SARL_v6","SARL_v6p6dvsebe","632ff41f3631baf749984e3e","fixation","","","img/fixation.png","null","","","prac","","","","","","","","","","","","","","","","","","","",""
"264.5","150952","SARL_v6","SARL_v6p6dvsebe","632ff41f3631baf749984e3e","mixRLPractice","","","img/black_2bandit_b2.png","75","img/black_2bandit_b2.png","","prac","","","11","","","","","","","","","","","","","","","","",""
"null","151727","SARL_v6","SARL_v6p6dvsebe","632ff41f3631baf749984e3e","feedback","","","<div class=""verylowPoints_sq""> -5 </div>","null","","na","prac","","","12","5","-5","5","","","","","","","","","","","","","",""
"null","151897","SARL_v6","SARL_v6p6dvsebe","632ff41f3631baf749984e3e","fixation","","","img/fixation.png","null","","","prac","","","","","","","","","","","","","","","","","","","",""
"20271.699999809265","172176","SARL_v6","SARL_v6p6dvsebe","632ff41f3631baf749984e3e","","","","","","","","prac","","","","","","","","","","","","","","","","","","","",""
"481","172666","SARL_v6","SARL_v6p6dvsebe","632ff41f3631baf749984e3e","freq","","","img/blue_2bandit_b2.png","70","","70","test","1","","1","","","","circle","square","1","1","1","1","","","","","","","",""
"null","173005","SARL_v6","SARL_v6p6dvsebe","632ff41f3631baf749984e3e","freq_resp","","","img/blue_2bandit_b.png","70","img/blue_2bandit_b.png","70","test","","","","","","","","","","","1","","","","","","","","",""
"null","173165","SARL_v6","SARL_v6p6dvsebe","632ff41f3631baf749984e3e","fixation","","","img/fixation.png","null","","","test","","","","","","","","","","","","","","","","","","","",""
"312.09999990463257","173485","SARL_v6","SARL_v6p6dvsebe","632ff41f3631baf749984e3e","freq","","","img/blue_2bandit_b2.png","70","","70","test","1","","2","","","","circle","square","2","2","1","1","","","","","","","",""
"null","173984","SARL_v6","SARL_v6p6dvsebe","632ff41f3631baf749984e3e","freq_resp","","","img/blue_2bandit_b.png","70","img/blue_2bandit_b.png","70","test","","","","","","","","","","","1","","","","","","","","",""
"null","174143","SARL_v6","SARL_v6p6dvsebe","632ff41f3631baf749984e3e","fixation","","","img/fixation.png","null","","","test","","","","","","","","","","","","","","","","","","","",""
"283.2000000476837","174435","SARL_v6","SARL_v6p6dvsebe","632ff41f3631baf749984e3e","freq","","","img/blue_2bandit_b2.png","70","","70","test","1","","3","","","","circle","square","3","3","1","1","","","","","","","",""
"null","174972","SARL_v6","SARL_v6p6dvsebe","632ff41f3631baf749984e3e","freq_resp","","","img/blue_2bandit_b.png","70","img/blue_2bandit_b.png","70","test","","","","","","","","","","","1","","","","","","","","",""
"null","175131","SARL_v6","SARL_v6p6dvsebe","632ff41f3631baf749984e3e","fixation","","","img/fixation.png","null","","","test","","","","","","","","","","","","","","","","","","","",""
"244.60000014305115","175384","SARL_v6","SARL_v6p6dvsebe","632ff41f3631baf749984e3e","infreq","","","img/orange_2bandit_b2.png","68","","68","test","1","","4","","","","circle","square","4","4","1","1","","","","","","","",""
"null","175955","SARL_v6","SARL_v6p6dvsebe","632ff41f3631baf749984e3e","infreq_resp","","","img/orange_2bandit_b.png","68","img/orange_2bandit_b.png","68","test","","","","","","","","","","","1","","","","","","","","",""
"null","176123","SARL_v6","SARL_v6p6dvsebe","632ff41f3631baf749984e3e","fixation","","","img/fixation.png","null","","","test","","","","","","","","","","","","","","","","","","","",""
"313.90000009536743","176445","SARL_v6","SARL_v6p6dvsebe","632ff41f3631baf749984e3e","freq","","","img/blue_2bandit_b2.png","70","","70","test","1","","5","","","","circle","square","5","5","1","1","","","","","","","",""
"null","176942","SARL_v6","SARL_v6p6dvsebe","632ff41f3631baf749984e3e","freq_resp","","","img/blue_2bandit_b.png","70","img/blue_2bandit_b.png","70","test","","","","","","","","","","","1","","","","","","","","",""
"null","177101","SARL_v6","SARL_v6p6dvsebe","632ff41f3631baf749984e3e","fixation","","","img/fixation.png","null","","","test","","","","","","","","","","","","","","","","","","","",""
"307.10000014305115","177416","SARL_v6","SARL_v6p6dvsebe","632ff41f3631baf749984e3e","freq","","","img/blue_2bandit_b2.png","70","","70","test","1","","6","","","","circle","square","6","6","1","1","","","","","","","",""
"null","177927","SARL_v6","SARL_v6p6dvsebe","632ff41f3631baf749984e3e","freq_resp","","","img/blue_2bandit_b.png","70","img/blue_2bandit_b.png","70","test","","","","","","","","","","","1","","","","","","","","",""
"null","178091","SARL_v6","SARL_v6p6dvsebe","632ff41f3631baf749984e3e","fixation","","","img/fixation.png","null","","","test","","","","","","","","","","","","","","","","","","","",""
"322.60000014305115","178422","SARL_v6","SARL_v6p6dvsebe","632ff41f3631baf749984e3e","infreq","","","img/orange_2bandit_b2.png","70","","68","test","0","","7","","","","circle","square","7","7","1","0.8571428571428571","","","","","","","",""
"null","178915","SARL_v6","SARL_v6p6dvsebe","632ff41f3631baf749984e3e","infreq_resp","","","img/orange_2bandit_b.png","70","img/orange_2bandit_b.png","68","test","","","","","","","","","","","1","","","","","","","","",""
"null","179080","SARL_v6","SARL_v6p6dvsebe","632ff41f3631baf749984e3e","fixation","","","img/fixation.png","null","","","test","","","","","","","","","","","","","","","","","","","",""
"352.5","179442","SARL_v6","SARL_v6p6dvsebe","632ff41f3631baf749984e3e","freq","","","img/blue_2bandit_b2.png","70","","70","test","1","","8","","","","circle","square","8","8","1","0.875","","","","","","","",""
"null","179911","SARL_v6","SARL_v6p6dvsebe","632ff41f3631baf749984e3e","freq_resp","","","img/blue_2bandit_b.png","70","img/blue_2bandit_b.png","70","test","","","","","","","","","","","1","","","","","","","","",""
"null","180075","SARL_v6","SARL_v6p6dvsebe","632ff41f3631baf749984e3e","fixation","","","img/fixation.png","null","","","test","","","","","","","","","","","","","","","","","","","",""
"327.7000000476837","180411","SARL_v6","SARL_v6p6dvsebe","632ff41f3631baf749984e3e","freq","","","img/blue_2bandit_b2.png","70","","70","test","1","","9","","","","circle","square","9","9","1","0.8888888888888888","","","","","","","",""
"null","180896","SARL_v6","SARL_v6p6dvsebe","632ff41f3631baf749984e3e","freq_resp","","","img/blue_2bandit_b.png","70","img/blue_2bandit_b.png","70","test","","","","","","","","","","","1","","","","","","","","",""
"null","181060","SARL_v6","SARL_v6p6dvsebe","632ff41f3631baf749984e3e","fixation","","","img/fixation.png","null","","","test","","","","","","","","","","","","","","","","","","","",""
"303.40000009536743","181372","SARL_v6","SARL_v6p6dvsebe","632ff41f3631baf749984e3e","freq","","","img/blue_2bandit_b2.png","70","","70","test","1","","10","","","","circle","square","10","10","1","0.9","","","","","","","",""
"null","181880","SARL_v6","SARL_v6p6dvsebe","632ff41f3631baf749984e3e","freq_resp","","","img/blue_2bandit_b.png","70","img/blue_2bandit_b.png","70","test","","","","","","","","","","","1","","","","","","","","",""
"null","182048","SARL_v6","SARL_v6p6dvsebe","632ff41f3631baf749984e3e","fixation","","","img/fixation.png","null","","","test","","","","","","","","","","","","","","","","","","","",""
"309.39999985694885","182365","SARL_v6","SARL_v6p6dvsebe","632ff41f3631baf749984e3e","freq","","","img/blue_2bandit_b2.png","70","","70","test","1","","11","","","","circle","square","11","11","1","0.9090909090909091","","","","","","","",""
"null","182867","SARL_v6","SARL_v6p6dvsebe","632ff41f3631baf749984e3e","freq_resp","","","img/blue_2bandit_b.png","70","img/blue_2bandit_b.png","70","test","","","","","","","","","","","1","","","","","","","","",""
"null","183031","SARL_v6","SARL_v6p6dvsebe","632ff41f3631baf749984e3e","fixation","","","img/fixation.png","null","","","test","","","","","","","","","","","","","","","","","","","",""
"281","183321","SARL_v6","SARL_v6p6dvsebe","632ff41f3631baf749984e3e","freq","","","img/blue_2bandit_b2.png","70","","70","test","1","","12","","","","circle","square","12","12","1","0.9166666666666666","","","","","","","",""
"null","183857","SARL_v6","SARL_v6p6dvsebe","632ff41f3631baf749984e3e","freq_resp","","","img/blue_2bandit_b.png","70","img/blue_2bandit_b.png","70","test","","","","","","","","","","","1","","","","","","","","",""
"null","184018","SARL_v6","SARL_v6p6dvsebe","632ff41f3631baf749984e3e","fixation","","","img/fixation.png","null","","","test","","","","","","","","","","","","","","","","","","","",""
"282.09999990463257","184309","SARL_v6","SARL_v6p6dvsebe","632ff41f3631baf749984e3e","freq","","","img/blue_2bandit_b2.png","70","","70","test","1","","13","","","","circle","square","13","13","1","0.9230769230769231","","","","","","","",""
"null","184847","SARL_v6","SARL_v6p6dvsebe","632ff41f3631baf749984e3e","freq_resp","","","img/blue_2bandit_b.png","70","img/blue_2bandit_b.png","70","test","","","","","","","","","","","1","","","","","","","","",""
"null","185013","SARL_v6","SARL_v6p6dvsebe","632ff41f3631baf749984e3e","fixation","","","img/fixation.png","null","","","test","","","","","","","","","","","","","","","","","","","",""
"290","185311","SARL_v6","SARL_v6p6dvsebe","632ff41f3631baf749984e3e","freq","","","img/blue_2bandit_b2.png","70","","70","test","1","","14","","","","circle","square","14","14","1","0.9285714285714286","","","","","","","",""
"null","185837","SARL_v6","SARL_v6p6dvsebe","632ff41f3631baf749984e3e","freq_resp","","","img/blue_2bandit_b.png","70","img/blue_2bandit_b.png","70","test","","","","","","","","","","","1","","","","","","","","",""
"null","185995","SARL_v6","SARL_v6p6dvsebe","632ff41f3631baf749984e3e","fixation","","","img/fixation.png","null","","","test","","","","","","","","","","","","","","","","","","","",""
"271.5","186275","SARL_v6","SARL_v6p6dvsebe","632ff41f3631baf749984e3e","freq","","","img/blue_2bandit_b2.png","70","","70","test","1","","15","","","","circle","square","15","15","1","0.9333333333333333","","","","","","","",""
"null","186812","SARL_v6","SARL_v6p6dvsebe","632ff41f3631baf749984e3e","freq_resp","","","img/blue_2bandit_b.png","70","img/blue_2bandit_b.png","70","test","","","","","","","","","","","1","","","","","","","","",""
"null","186986","SARL_v6","SARL_v6p6dvsebe","632ff41f3631baf749984e3e","fixation","","","img/fixation.png","null","","","test","","","","","","","","","","","","","","","","","","","",""
"302.60000014305115","187297","SARL_v6","SARL_v6p6dvsebe","632ff41f3631baf749984e3e","infreq","","","img/orange_2bandit_b2.png","68","","68","test","1","","16","","","","circle","square","16","16","1","0.9375","","","","","","","",""
"null","187814","SARL_v6","SARL_v6p6dvsebe","632ff41f3631baf749984e3e","infreq_resp","","","img/orange_2bandit_b.png","68","img/orange_2bandit_b.png","68","test","","","","","","","","","","","1","","","","","","","","",""
"null","187981","SARL_v6","SARL_v6p6dvsebe","632ff41f3631baf749984e3e","fixation","","","img/fixation.png","null","","","test","","","","","","","","","","","","","","","","","","","",""
"302","188292","SARL_v6","SARL_v6p6dvsebe","632ff41f3631baf749984e3e","freq","","","img/blue_2bandit_b2.png","70","","70","test","1","","17","","","","circle","square","17","17","1","0.9411764705882353","","","","","","","",""
"null","188814","SARL_v6","SARL_v6p6dvsebe","632ff41f3631baf749984e3e","freq_resp","","","img/blue_2bandit_b.png","70","img/blue_2bandit_b.png","70","test","","","","","","","","","","","1","","","","","","","","",""
"null","188974","SARL_v6","SARL_v6p6dvsebe","632ff41f3631baf749984e3e","fixation","","","img/fixation.png","null","","","test","","","","","","","","","","","","","","","","","","","",""
"395.09999990463257","189378","SARL_v6","SARL_v6p6dvsebe","632ff41f3631baf749984e3e","freq","","","img/blue_2bandit_b2.png","70","","70","test","1","","18","","","","circle","square","18","18","1","0.9444444444444444","","","","","","","",""
"null","189797","SARL_v6","SARL_v6p6dvsebe","632ff41f3631baf749984e3e","freq_resp","","","img/blue_2bandit_b.png","70","img/blue_2bandit_b.png","70","test","","","","","","","","","","","1","","","","","","","","",""
"null","189958","SARL_v6","SARL_v6p6dvsebe","632ff41f3631baf749984e3e","fixation","","","img/fixation.png","null","","","test","","","","","","","","","","","","","","","","","","","",""
"290.7000000476837","190256","SARL_v6","SARL_v6p6dvsebe","632ff41f3631baf749984e3e","freq","","","img/blue_2bandit_b2.png","70","","70","test","1","","19","","","","circle","square","19","19","1","0.9473684210526315","","","","","","","",""
"null","190780","SARL_v6","SARL_v6p6dvsebe","632ff41f3631baf749984e3e","freq_resp","","","img/blue_2bandit_b.png","70","img/blue_2bandit_b.png","70","test","","","","","","","","","","","1","","","","","","","","",""
"null","190940","SARL_v6","SARL_v6p6dvsebe","632ff41f3631baf749984e3e","fixation","","","img/fixation.png","null","","","test","","","","","","","","","","","","","","","","","","","",""
"323","191272","SARL_v6","SARL_v6p6dvsebe","632ff41f3631baf749984e3e","freq","","","img/blue_2bandit_b2.png","70","","70","test","1","","20","","","","circle","square","20","20","1","0.95","","","","","","","",""
"null","191761","SARL_v6","SARL_v6p6dvsebe","632ff41f3631baf749984e3e","freq_resp","","","img/blue_2bandit_b.png","70","img/blue_2bandit_b.png","70","test","","","","","","","","","","","1","","","","","","","","",""
"null","191924","SARL_v6","SARL_v6p6dvsebe","632ff41f3631baf749984e3e","fixation","","","img/fixation.png","null","","","test","","","","","","","","","","","","","","","","","","","",""
"645.3999998569489","192578","SARL_v6","SARL_v6p6dvsebe","632ff41f3631baf749984e3e","rl","","","img/black_2bandit_b2.png","75","","0","test","","","21","","","-3","circle","square","","0","1","","75","-3","-3","-3","-3","square","1","0"
"null","193347","SARL_v6","SARL_v6p6dvsebe","632ff41f3631baf749984e3e","feedback","","","<div class=""verylowPoints_sq""> -3 </div>","null","","na","test","","","NaN","","","","","","","","1","","75","","","","","","1",""
"432.90000009536743","193789","SARL_v6","SARL_v6p6dvsebe","632ff41f3631baf749984e3e","freq","","","img/blue_2bandit_b2.png","70","","70","test","1","","22","","","","circle","square","21","1","2","0.9523809523809523","","","","","","","",""
"null","194170","SARL_v6","SARL_v6p6dvsebe","632ff41f3631baf749984e3e","freq_resp","","","img/blue_2bandit_b.png","70","img/blue_2bandit_b.png","70","test","","","","","","","","","","","2","","","","","","","","",""
"null","194331","SARL_v6","SARL_v6p6dvsebe","632ff41f3631baf749984e3e","fixation","","","img/fixation.png","null","","","test","","","","","","","","","","","","","","","","","","","",""
"336.7000000476837","194676","SARL_v6","SARL_v6p6dvsebe","632ff41f3631baf749984e3e","freq","","","img/blue_2bandit_b2.png","70","","70","test","1","","23","","","","circle","square","22","2","2","0.9545454545454546","","","","","","","",""
"null","195155","SARL_v6","SARL_v6p6dvsebe","632ff41f3631baf749984e3e","freq_resp","","","img/blue_2bandit_b.png","70","img/blue_2bandit_b.png","70","test","","","","","","","","","","","2","","","","","","","","",""
"null","195314","SARL_v6","SARL_v6p6dvsebe","632ff41f3631baf749984e3e","fixation","","","img/fixation.png","null","","","test","","","","","","","","","","","","","","","","","","","",""
"302.7999999523163","195625","SARL_v6","SARL_v6p6dvsebe","632ff41f3631baf749984e3e","freq","","","img/blue_2bandit_b2.png","70","","70","test","1","","24","","","","circle","square","23","3","2","0.9565217391304348","","","","","","","",""
"null","196134","SARL_v6","SARL_v6p6dvsebe","632ff41f3631baf749984e3e","freq_resp","","","img/blue_2bandit_b.png","70","img/blue_2bandit_b.png","70","test","","","","","","","","","","","2","","","","","","","","",""
"null","196293","SARL_v6","SARL_v6p6dvsebe","632ff41f3631baf749984e3e","fixation","","","img/fixation.png","null","","","test","","","","","","","","","","","","","","","","","","","",""
"289.59999990463257","196591","SARL_v6","SARL_v6p6dvsebe","632ff41f3631baf749984e3e","freq","","","img/blue_2bandit_b2.png","70","","70","test","1","","25","","","","circle","square","24","4","2","0.9583333333333334","","","","","","","",""
"null","197121","SARL_v6","SARL_v6p6dvsebe","632ff41f3631baf749984e3e","freq_resp","","","img/blue_2bandit_b.png","70","img/blue_2bandit_b.png","70","test","","","","","","","","","","","2","","","","","","","","",""
"null","197294","SARL_v6","SARL_v6p6dvsebe","632ff41f3631baf749984e3e","fixation","","","img/fixation.png","null","","","test","","","","","","","","","","","","","","","","","","","",""
"282.89999985694885","197586","SARL_v6","SARL_v6p6dvsebe","632ff41f3631baf749984e3e","freq","","","img/blue_2bandit_b2.png","70","","70","test","1","","26","","","","circle","square","25","5","2","0.96","","","","","","","",""
"null","198121","SARL_v6","SARL_v6p6dvsebe","632ff41f3631baf749984e3e","freq_resp","","","img/blue_2bandit_b.png","70","img/blue_2bandit_b.png","70","test","","","","","","","","","","","2","","","","","","","","",""
"null","198290","SARL_v6","SARL_v6p6dvsebe","632ff41f3631baf749984e3e","fixation","","","img/fixation.png","null","","","test","","","","","","","","","","","","","","","","","","","",""
"260","198559","SARL_v6","SARL_v6p6dvsebe","632ff41f3631baf749984e3e","freq","","","img/blue_2bandit_b2.png","70","","70","test","1","","27","","","","circle","square","26","6","2","0.9615384615384616","","","","","","","",""
"null","199123","SARL_v6","SARL_v6p6dvsebe","632ff41f3631baf749984e3e","freq_resp","","","img/blue_2bandit_b.png","70","img/blue_2bandit_b.png","70","test","","","","","","","","","","","2","","","","","","","","",""
"null","199288","SARL_v6","SARL_v6p6dvsebe","632ff41f3631baf749984e3e","fixation","","","img/fixation.png","null","","","test","","","","","","","","","","","","","","","","","","","",""
"253.40000009536743","199550","SARL_v6","SARL_v6p6dvsebe","632ff41f3631baf749984e3e","freq","","","img/blue_2bandit_b2.png","70","","70","test","1","","28","","","","circle","square","27","7","2","0.9629629629629629","","","","","","","",""
"null","200119","SARL_v6","SARL_v6p6dvsebe","632ff41f3631baf749984e3e","freq_resp","","","img/blue_2bandit_b.png","70","img/blue_2bandit_b.png","70","test","","","","","","","","","","","2","","","","","","","","",""
"null","200284","SARL_v6","SARL_v6p6dvsebe","632ff41f3631baf749984e3e","fixation","","","img/fixation.png","null","","","test","","","","","","","","","","","","","","","","","","","",""
"232.89999985694885","200527","SARL_v6","SARL_v6p6dvsebe","632ff41f3631baf749984e3e","freq","","","img/blue_2bandit_b2.png","70","","70","test","1","","29","","","","circle","square","28","8","2","0.9642857142857143","","","","","","","",""
"null","201106","SARL_v6","SARL_v6p6dvsebe","632ff41f3631baf749984e3e","freq_resp","","","img/blue_2bandit_b.png","70","img/blue_2bandit_b.png","70","test","","","","","","","","","","","2","","","","","","","","",""
"null","201266","SARL_v6","SARL_v6p6dvsebe","632ff41f3631baf749984e3e","fixation","","","img/fixation.png","null","","","test","","","","","","","","","","","","","","","","","","","",""
"227.70000004768372","201503","SARL_v6","SARL_v6p6dvsebe","632ff41f3631baf749984e3e","freq","","","img/blue_2bandit_b2.png","70","","70","test","1","","30","","","","circle","square","29","9","2","0.9655172413793104","","","","","","","",""
"null","202090","SARL_v6","SARL_v6p6dvsebe","632ff41f3631baf749984e3e","freq_resp","","","img/blue_2bandit_b.png","70","img/blue_2bandit_b.png","70","test","","","","","","","","","","","2","","","","","","","","",""
"null","202258","SARL_v6","SARL_v6p6dvsebe","632ff41f3631baf749984e3e","fixation","","","img/fixation.png","null","","","test","","","","","","","","","","","","","","","","","","","",""
"80.09999990463257","202347","SARL_v6","SARL_v6p6dvsebe","632ff41f3631baf749984e3e","freq","","","img/blue_2bandit_b2.png","70","","70","test","1","","31","","","","circle","square","30","10","2","0.9666666666666667","","","","","","","",""
"null","203078","SARL_v6","SARL_v6p6dvsebe","632ff41f3631baf749984e3e","freq_resp","","","img/blue_2bandit_b.png","70","img/blue_2bandit_b.png","70","test","","","","","","","","","","","2","","","","","","","","",""
"null","203239","SARL_v6","SARL_v6p6dvsebe","632ff41f3631baf749984e3e","fixation","","","img/fixation.png","null","","","test","","","","","","","","","","","","","","","","","","","",""
"267.40000009536743","203515","SARL_v6","SARL_v6p6dvsebe","632ff41f3631baf749984e3e","freq","","","img/blue_2bandit_b2.png","70","","70","test","1","","32","","","","circle","square","31","11","2","0.967741935483871","","","","","","","",""
"null","204068","SARL_v6","SARL_v6p6dvsebe","632ff41f3631baf749984e3e","freq_resp","","","img/blue_2bandit_b.png","70","img/blue_2bandit_b.png","70","test","","","","","","","","","","","2","","","","","","","","",""
"null","204227","SARL_v6","SARL_v6p6dvsebe","632ff41f3631baf749984e3e","fixation","","","img/fixation.png","null","","","test","","","","","","","","","","","","","","","","","","","",""
"292.5","204528","SARL_v6","SARL_v6p6dvsebe","632ff41f3631baf749984e3e","freq","","","img/blue_2bandit_b2.png","70","","70","test","1","","33","","","","circle","square","32","12","2","0.96875","","","","","","","",""
"null","205055","SARL_v6","SARL_v6p6dvsebe","632ff41f3631baf749984e3e","freq_resp","","","img/blue_2bandit_b.png","70","img/blue_2bandit_b.png","70","test","","","","","","","","","","","2","","","","","","","","",""
"null","205214","SARL_v6","SARL_v6p6dvsebe","632ff41f3631baf749984e3e","fixation","","","img/fixation.png","null","","","test","","","","","","","","","","","","","","","","","","","",""
"250.19999980926514","205473","SARL_v6","SARL_v6p6dvsebe","632ff41f3631baf749984e3e","freq","","","img/blue_2bandit_b2.png","70","","70","test","1","","34","","","","circle","square","33","13","2","0.9696969696969697","","","","","","","",""
"null","206039","SARL_v6","SARL_v6p6dvsebe","632ff41f3631baf749984e3e","freq_resp","","","img/blue_2bandit_b.png","70","img/blue_2bandit_b.png","70","test","","","","","","","","","","","2","","","","","","","","",""
"null","206200","SARL_v6","SARL_v6p6dvsebe","632ff41f3631baf749984e3e","fixation","","","img/fixation.png","null","","","test","","","","","","","","","","","","","","","","","","","",""
"290","206498","SARL_v6","SARL_v6p6dvsebe","632ff41f3631baf749984e3e","freq","","","img/blue_2bandit_b2.png","70","","70","test","1","","35","","","","circle","square","34","14","2","0.9705882352941176","","","","","","","",""
"null","207024","SARL_v6","SARL_v6p6dvsebe","632ff41f3631baf749984e3e","freq_resp","","","img/blue_2bandit_b.png","70","img/blue_2bandit_b.png","70","test","","","","","","","","","","","2","","","","","","","","",""
"null","207189","SARL_v6","SARL_v6p6dvsebe","632ff41f3631baf749984e3e","fixation","","","img/fixation.png","null","","","test","","","","","","","","","","","","","","","","","","","",""
"260.40000009536743","207458","SARL_v6","SARL_v6p6dvsebe","632ff41f3631baf749984e3e","freq","","","img/blue_2bandit_b2.png","70","","70","test","1","","36","","","","circle","square","35","15","2","0.9714285714285714","","","","","","","",""
"null","208019","SARL_v6","SARL_v6p6dvsebe","632ff41f3631baf749984e3e","freq_resp","","","img/blue_2bandit_b.png","70","img/blue_2bandit_b.png","70","test","","","","","","","","","","","2","","","","","","","","",""
"null","208185","SARL_v6","SARL_v6p6dvsebe","632ff41f3631baf749984e3e","fixation","","","img/fixation.png","null","","","test","","","","","","","","","","","","","","","","","","","",""
"226.80000019073486","208420","SARL_v6","SARL_v6p6dvsebe","632ff41f3631baf749984e3e","freq","","","img/blue_2bandit_b2.png","70","","70","test","1","","37","","","","circle","square","36","16","2","0.9722222222222222","","","","","","","",""
"null","209002","SARL_v6","SARL_v6p6dvsebe","632ff41f3631baf749984e3e","freq_resp","","","img/blue_2bandit_b.png","70","img/blue_2bandit_b.png","70","test","","","","","","","","","","","2","","","","","","","","",""
"null","209171","SARL_v6","SARL_v6p6dvsebe","632ff41f3631baf749984e3e","fixation","","","img/fixation.png","null","","","test","","","","","","","","","","","","","","","","","","","",""
"337.5","209517","SARL_v6","SARL_v6p6dvsebe","632ff41f3631baf749984e3e","infreq","","","img/orange_2bandit_b2.png","68","","68","test","1","","38","","","","circle","square","37","17","2","0.972972972972973","","","","","","","",""
"null","209993","SARL_v6","SARL_v6p6dvsebe","632ff41f3631baf749984e3e","infreq_resp","","","img/orange_2bandit_b.png","68","img/orange_2bandit_b.png","68","test","","","","","","","","","","","2","","","","","","","","",""
"null","210166","SARL_v6","SARL_v6p6dvsebe","632ff41f3631baf749984e3e","fixation","","","img/fixation.png","null","","","test","","","","","","","","","","","","","","","","","","","",""
"328.90000009536743","210503","SARL_v6","SARL_v6p6dvsebe","632ff41f3631baf749984e3e","freq","","","img/blue_2bandit_b2.png","70","","70","test","1","","39","","","","circle","square","38","18","2","0.9736842105263158","","","","","","","",""
"null","210994","SARL_v6","SARL_v6p6dvsebe","632ff41f3631baf749984e3e","freq_resp","","","img/blue_2bandit_b.png","70","img/blue_2bandit_b.png","70","test","","","","","","","","","","","2","","","","","","","","",""
"null","211155","SARL_v6","SARL_v6p6dvsebe","632ff41f3631baf749984e3e","fixation","","","img/fixation.png","null","","","test","","","","","","","","","","","","","","","","","","","",""
"295.59999990463257","211459","SARL_v6","SARL_v6p6dvsebe","632ff41f3631baf749984e3e","freq","","","img/blue_2bandit_b2.png","70","","70","test","1","","40","","","","circle","square","39","19","2","0.9743589743589743","","","","","","","",""
"null","211988","SARL_v6","SARL_v6p6dvsebe","632ff41f3631baf749984e3e","freq_resp","","","img/blue_2bandit_b.png","70","img/blue_2bandit_b.png","70","test","","","","","","","","","","","2","","","","","","","","",""
"null","212148","SARL_v6","SARL_v6p6dvsebe","632ff41f3631baf749984e3e","fixation","","","img/fixation.png","null","","","test","","","","","","","","","","","","","","","","","","","",""
"298.7999999523163","212456","SARL_v6","SARL_v6p6dvsebe","632ff41f3631baf749984e3e","freq","","","img/blue_2bandit_b2.png","70","","70","test","1","","41","","","","circle","square","40","20","2","0.975","","","","","","","",""
"null","212980","SARL_v6","SARL_v6p6dvsebe","632ff41f3631baf749984e3e","freq_resp","","","img/blue_2bandit_b.png","70","img/blue_2bandit_b.png","70","test","","","","","","","","","","","2","","","","","","","","",""
"null","213138","SARL_v6","SARL_v6p6dvsebe","632ff41f3631baf749984e3e","fixation","","","img/fixation.png","null","","","test","","","","","","","","","","","","","","","","","","","",""
"214","213360","SARL_v6","SARL_v6p6dvsebe","632ff41f3631baf749984e3e","freq","","","img/blue_2bandit_b2.png","70","","70","test","1","","42","","","","circle","square","41","21","2","0.975609756097561","","","","","","","",""
"null","213970","SARL_v6","SARL_v6p6dvsebe","632ff41f3631baf749984e3e","freq_resp","","","img/blue_2bandit_b.png","70","img/blue_2bandit_b.png","70","test","","","","","","","","","","","2","","","","","","","","",""
"null","214132","SARL_v6","SARL_v6p6dvsebe","632ff41f3631baf749984e3e","fixation","","","img/fixation.png","null","","","test","","","","","","","","","","","","","","","","","","","",""
"202","214342","SARL_v6","SARL_v6p6dvsebe","632ff41f3631baf749984e3e","freq","","","img/blue_2bandit_b2.png","70","","70","test","1","","43","","","","circle","square","42","22","2","0.9761904761904762","","","","","","","",""
"null","214952","SARL_v6","SARL_v6p6dvsebe","632ff41f3631baf749984e3e","freq_resp","","","img/blue_2bandit_b.png","70","img/blue_2bandit_b.png","70","test","","","","","","","","","","","2","","","","","","","","",""
"null","215116","SARL_v6","SARL_v6p6dvsebe","632ff41f3631baf749984e3e","fixation","","","img/fixation.png","null","","","test","","","","","","","","","","","","","","","","","","","",""
"250.59999990463257","215376","SARL_v6","SARL_v6p6dvsebe","632ff41f3631baf749984e3e","freq","","","img/blue_2bandit_b2.png","70","","70","test","1","","44","","","","circle","square","43","23","2","0.9767441860465116","","","","","","","",""
"null","215937","SARL_v6","SARL_v6p6dvsebe","632ff41f3631baf749984e3e","freq_resp","","","img/blue_2bandit_b.png","70","img/blue_2bandit_b.png","70","test","","","","","","","","","","","2","","","","","","","","",""
"null","216097","SARL_v6","SARL_v6p6dvsebe","632ff41f3631baf749984e3e","fixation","","","img/fixation.png","null","","","test","","","","","","","","","","","","","","","","","","","",""
"207.30000019073486","216313","SARL_v6","SARL_v6p6dvsebe","632ff41f3631baf749984e3e","freq","","","img/blue_2bandit_b2.png","70","","70","test","1","","45","","","","circle","square","44","24","2","0.9772727272727273","","","","","","","",""
"null","216925","SARL_v6","SARL_v6p6dvsebe","632ff41f3631baf749984e3e","freq_resp","","","img/blue_2bandit_b.png","70","img/blue_2bandit_b.png","70","test","","","","","","","","","","","2","","","","","","","","",""
"null","217099","SARL_v6","SARL_v6p6dvsebe","632ff41f3631baf749984e3e","fixation","","","img/fixation.png","null","","","test","","","","","","","","","","","","","","","","","","","",""
"190.60000014305115","217298","SARL_v6","SARL_v6p6dvsebe","632ff41f3631baf749984e3e","infreq","","","img/orange_2bandit_b2.png","70","","68","test","0","","46","","","","circle","square","45","25","2","0.9555555555555556","","","","","","","",""
"null","217922","SARL_v6","SARL_v6p6dvsebe","632ff41f3631baf749984e3e","infreq_resp","","","img/orange_2bandit_b.png","70","img/orange_2bandit_b.png","68","test","","","","","","","","","","","2","","","","","","","","",""
"null","218088","SARL_v6","SARL_v6p6dvsebe","632ff41f3631baf749984e3e","fixation","","","img/fixation.png","null","","","test","","","","","","","","","","","","","","","","","","","",""
"421.19999980926514","218517","SARL_v6","SARL_v6p6dvsebe","632ff41f3631baf749984e3e","freq","","","img/blue_2bandit_b2.png","70","","70","test","1","","47","","","","circle","square","46","26","2","0.9565217391304348","","","","","","","",""
"null","218911","SARL_v6","SARL_v6p6dvsebe","632ff41f3631baf749984e3e","freq_resp","","","img/blue_2bandit_b.png","70","img/blue_2bandit_b.png","70","test","","","","","","","","","","","2","","","","","","","","",""
"null","219079","SARL_v6","SARL_v6p6dvsebe","632ff41f3631baf749984e3e","fixation","","","img/fixation.png","null","","","test","","","","","","","","","","","","","","","","","","","",""
"366.2000000476837","219455","SARL_v6","SARL_v6p6dvsebe","632ff41f3631baf749984e3e","rl","","","img/black_2bandit_b2.png","75","","0","test","","","48","","","-5","circle","square","","0","2","","75","-8","-5","-8","-5","square","2","0"
"null","220221","SARL_v6","SARL_v6p6dvsebe","632ff41f3631baf749984e3e","feedback","","","<div class=""verylowPoints_sq""> -5 </div>","null","","na","test","","","NaN","","","","","","","","2","","75","","","","","","2",""
"560.9000000953674","220790","SARL_v6","SARL_v6p6dvsebe","632ff41f3631baf749984e3e","freq","","","img/blue_2bandit_b2.png","70","","70","test","1","","49","","","","circle","square","47","1","3","0.9574468085106383","","","","","","","",""
"null","221048","SARL_v6","SARL_v6p6dvsebe","632ff41f3631baf749984e3e","freq_resp","","","img/blue_2bandit_b.png","70","img/blue_2bandit_b.png","70","test","","","","","","","","","","","3","","","","","","","","",""
"null","221211","SARL_v6","SARL_v6p6dvsebe","632ff41f3631baf749984e3e","fixation","","","img/fixation.png","null","","","test","","","","","","","","","","","","","","","","","","","",""
"378.90000009536743","221599","SARL_v6","SARL_v6p6dvsebe","632ff41f3631baf749984e3e","freq","","","img/blue_2bandit_b2.png","70","","70","test","1","","50","","","","circle","square","48","2","3","0.9583333333333334","","","","","","","",""
"null","222034","SARL_v6","SARL_v6p6dvsebe","632ff41f3631baf749984e3e","freq_resp","","","img/blue_2bandit_b.png","70","img/blue_2bandit_b.png","70","test","","","","","","","","","","","3","","","","","","","","",""
"null","222203","SARL_v6","SARL_v6p6dvsebe","632ff41f3631baf749984e3e","fixation","","","img/fixation.png","null","","","test","","","","","","","","","","","","","","","","","","","",""
"327.7000000476837","222540","SARL_v6","SARL_v6p6dvsebe","632ff41f3631baf749984e3e","freq","","","img/blue_2bandit_b2.png","70","","70","test","1","","51","","","","circle","square","49","3","3","0.9591836734693877","","","","","","","",""
"null","223022","SARL_v6","SARL_v6p6dvsebe","632ff41f3631baf749984e3e","freq_resp","","","img/blue_2bandit_b.png","70","img/blue_2bandit_b.png","70","test","","","","","","","","","","","3","","","","","","","","",""
"null","223186","SARL_v6","SARL_v6p6dvsebe","632ff41f3631baf749984e3e","fixation","","","img/fixation.png","null","","","test","","","","","","","","","","","","","","","","","","","",""
"339.69999980926514","223535","SARL_v6","SARL_v6p6dvsebe","632ff41f3631baf749984e3e","freq","","","img/blue_2bandit_b2.png","70","","70","test","1","","52","","","","circle","square","50","4","3","0.96","","","","","","","",""
"null","224015","SARL_v6","SARL_v6p6dvsebe","632ff41f3631baf749984e3e","freq_resp","","","img/blue_2bandit_b.png","70","img/blue_2bandit_b.png","70","test","","","","","","","","","","","3","","","","","","","","",""
"null","224175","SARL_v6","SARL_v6p6dvsebe","632ff41f3631baf749984e3e","fixation","","","img/fixation.png","null","","","test","","","","","","","","","","","","","","","","","","","",""
"358.7999999523163","224542","SARL_v6","SARL_v6p6dvsebe","632ff41f3631baf749984e3e","freq","","","img/blue_2bandit_b2.png","70","","70","test","1","","53","","","","circle","square","51","5","3","0.9607843137254902","","","","","","","",""
"null","225003","SARL_v6","SARL_v6p6dvsebe","632ff41f3631baf749984e3e","freq_resp","","","img/blue_2bandit_b.png","70","img/blue_2bandit_b.png","70","test","","","","","","","","","","","3","","","","","","","","",""
"null","225170","SARL_v6","SARL_v6p6dvsebe","632ff41f3631baf749984e3e","fixation","","","img/fixation.png","null","","","test","","","","","","","","","","","","","","","","","","","",""
"442.2000000476837","225621","SARL_v6","SARL_v6p6dvsebe","632ff41f3631baf749984e3e","freq","","","img/blue_2bandit_b2.png","70","","70","test","1","","54","","","","circle","square","52","6","3","0.9615384615384616","","","","","","","",""
"null","225991","SARL_v6","SARL_v6p6dvsebe","632ff41f3631baf749984e3e","freq_resp","","","img/blue_2bandit_b.png","70","img/blue_2bandit_b.png","70","test","","","","","","","","","","","3","","","","","","","","",""
"null","226155","SARL_v6","SARL_v6p6dvsebe","632ff41f3631baf749984e3e","fixation","","","img/fixation.png","null","","","test","","","","","","","","","","","","","","","","","","","",""
"514.2999999523163","226678","SARL_v6","SARL_v6p6dvsebe","632ff41f3631baf749984e3e","freq","","","img/blue_2bandit_b2.png","70","","70","test","1","","55","","","","circle","square","53","7","3","0.9622641509433962","","","","","","","",""
"null","226982","SARL_v6","SARL_v6p6dvsebe","632ff41f3631baf749984e3e","freq_resp","","","img/blue_2bandit_b.png","70","img/blue_2bandit_b.png","70","test","","","","","","","","","","","3","","","","","","","","",""
"null","227151","SARL_v6","SARL_v6p6dvsebe","632ff41f3631baf749984e3e","fixation","","","img/fixation.png","null","","","test","","","","","","","","","","","","","","","","","","","",""
"464.39999985694885","227624","SARL_v6","SARL_v6p6dvsebe","632ff41f3631baf749984e3e","infreq","","","img/orange_2bandit_b2.png","68","","68","test","1","","56","","","","circle","square","54","8","3","0.9629629629629629","","","","","","","",""
"null","227974","SARL_v6","SARL_v6p6dvsebe","632ff41f3631baf749984e3e","infreq_resp","","","img/orange_2bandit_b.png","68","img/orange_2bandit_b.png","68","test","","","","","","","","","","","3","","","","","","","","",""
"null","228142","SARL_v6","SARL_v6p6dvsebe","632ff41f3631baf749984e3e","fixation","","","img/fixation.png","null","","","test","","","","","","","","","","","","","","","","","","","",""
"342.39999985694885","228493","SARL_v6","SARL_v6p6dvsebe","632ff41f3631baf749984e3e","freq","","","img/blue_2bandit_b2.png","70","","70","test","1","","57","","","","circle","square","55","9","3","0.9636363636363636","","","","","","","",""
"null","228960","SARL_v6","SARL_v6p6dvsebe","632ff41f3631baf749984e3e","freq_resp","","","img/blue_2bandit_b.png","70","img/blue_2bandit_b.png","70","test","","","","","","","","","","","3","","","","","","","","",""
"null","229120","SARL_v6","SARL_v6p6dvsebe","632ff41f3631baf749984e3e","fixation","","","img/fixation.png","null","","","test","","","","","","","","","","","","","","","","","","","",""
"353.2000000476837","229482","SARL_v6","SARL_v6p6dvsebe","632ff41f3631baf749984e3e","freq","","","img/blue_2bandit_b2.png","70","","70","test","1","","58","","","","circle","square","56","10","3","0.9642857142857143","","","","","","","",""
"null","229947","SARL_v6","SARL_v6p6dvsebe","632ff41f3631baf749984e3e","freq_resp","","","img/blue_2bandit_b.png","70","img/blue_2bandit_b.png","70","test","","","","","","","","","","","3","","","","","","","","",""
"null","230111","SARL_v6","SARL_v6p6dvsebe","632ff41f3631baf749984e3e","fixation","","","img/fixation.png","null","","","test","","","","","","","","","","","","","","","","","","","",""
"384.7999999523163","230504","SARL_v6","SARL_v6p6dvsebe","632ff41f3631baf749984e3e","freq","","","img/blue_2bandit_b2.png","70","","70","test","1","","59","","","","circle","square","57","11","3","0.9649122807017544","","","","","","","",""
"null","230930","SARL_v6","SARL_v6p6dvsebe","632ff41f3631baf749984e3e","freq_resp","","","img/blue_2bandit_b.png","70","img/blue_2bandit_b.png","70","test","","","","","","","","","","","3","","","","","","","","",""
"null","231097","SARL_v6","SARL_v6p6dvsebe","632ff41f3631baf749984e3e","fixation","","","img/fixation.png","null","","","test","","","","","","","","","","","","","","","","","","","",""
"367","231472","SARL_v6","SARL_v6p6dvsebe","632ff41f3631baf749984e3e","freq","","","img/blue_2bandit_b2.png","70","","70","test","1","","60","","","","circle","square","58","12","3","0.9655172413793104","","","","","","","",""
"null","231926","SARL_v6","SARL_v6p6dvsebe","632ff41f3631baf749984e3e","freq_resp","","","img/blue_2bandit_b.png","70","img/blue_2bandit_b.png","70","test","","","","","","","","","","","3","","","","","","","","",""
"null","232090","SARL_v6","SARL_v6p6dvsebe","632ff41f3631baf749984e3e","fixation","","","img/fixation.png","null","","","test","","","","","","","","","","","","","","","","","","","",""
"316.59999990463257","232416","SARL_v6","SARL_v6p6dvsebe","632ff41f3631baf749984e3e","freq","","","img/blue_2bandit_b2.png","70","","70","test","1","","61","","","","circle","square","59","13","3","0.9661016949152542","","","","","","","",""
"null","232908","SARL_v6","SARL_v6p6dvsebe","632ff41f3631baf749984e3e","freq_resp","","","img/blue_2bandit_b.png","70","img/blue_2bandit_b.png","70","test","","","","","","","","","","","3","","","","","","","","",""
"null","233070","SARL_v6","SARL_v6p6dvsebe","632ff41f3631baf749984e3e","fixation","","","img/fixation.png","null","","","test","","","","","","","","","","","","","","","","","","","",""
"288.2000000476837","233367","SARL_v6","SARL_v6p6dvsebe","632ff41f3631baf749984e3e","freq","","","img/blue_2bandit_b2.png","70","","70","test","1","","62","","","","circle","square","60","14","3","0.9666666666666667","","","","","","","",""
"null","233897","SARL_v6","SARL_v6p6dvsebe","632ff41f3631baf749984e3e","freq_resp","","","img/blue_2bandit_b.png","70","img/blue_2bandit_b.png","70","test","","","","","","","","","","","3","","","","","","","","",""
"null","234056","SARL_v6","SARL_v6p6dvsebe","632ff41f3631baf749984e3e","fixation","","","img/fixation.png","null","","","test","","","","","","","","","","","","","","","","","","","",""
"281","234345","SARL_v6","SARL_v6p6dvsebe","632ff41f3631baf749984e3e","freq","","","img/blue_2bandit_b2.png","70","","70","test","1","","63","","","","circle","square","61","15","3","0.9672131147540983","","","","","","","",""
"null","234885","SARL_v6","SARL_v6p6dvsebe","632ff41f3631baf749984e3e","freq_resp","","","img/blue_2bandit_b.png","70","img/blue_2bandit_b.png","70","test","","","","","","","","","","","3","","","","","","","","",""
"null","235045","SARL_v6","SARL_v6p6dvsebe","632ff41f3631baf749984e3e","fixation","","","img/fixation.png","null","","","test","","","","","","","","","","","","","","","","","","","",""
"257.7000000476837","235311","SARL_v6","SARL_v6p6dvsebe","632ff41f3631baf749984e3e","freq","","","img/blue_2bandit_b2.png","70","","70","test","1","","64","","","","circle","square","62","16","3","0.967741935483871","","","","","","","",""
"null","235865","SARL_v6","SARL_v6p6dvsebe","632ff41f3631baf749984e3e","freq_resp","","","img/blue_2bandit_b.png","70","img/blue_2bandit_b.png","70","test","","","","","","","","","","","3","","","","","","","","",""
"null","236027","SARL_v6","SARL_v6p6dvsebe","632ff41f3631baf749984e3e","fixation","","","img/fixation.png","null","","","test","","","","","","","","","","","","","","","","","","","",""
"212.29999995231628","236248","SARL_v6","SARL_v6p6dvsebe","632ff41f3631baf749984e3e","freq","","","img/blue_2bandit_b2.png","70","","70","test","1","","65","","","","circle","square","63","17","3","0.9682539682539683","","","","","","","",""
"null","236847","SARL_v6","SARL_v6p6dvsebe","632ff41f3631baf749984e3e","freq_resp","","","img/blue_2bandit_b.png","70","img/blue_2bandit_b.png","70","test","","","","","","","","","","","3","","","","","","","","",""
"null","237006","SARL_v6","SARL_v6p6dvsebe","632ff41f3631baf749984e3e","fixation","","","img/fixation.png","null","","","test","","","","","","","","","","","","","","","","","","","",""
"298.30000019073486","237314","SARL_v6","SARL_v6p6dvsebe","632ff41f3631baf749984e3e","freq","","","img/blue_2bandit_b2.png","70","","70","test","1","","66","","","","circle","square","64","18","3","0.96875","","","","","","","",""
"null","237830","SARL_v6","SARL_v6p6dvsebe","632ff41f3631baf749984e3e","freq_resp","","","img/blue_2bandit_b.png","70","img/blue_2bandit_b.png","70","test","","","","","","","","","","","3","","","","","","","","",""
"null","237992","SARL_v6","SARL_v6p6dvsebe","632ff41f3631baf749984e3e","fixation","","","img/fixation.png","null","","","test","","","","","","","","","","","","","","","","","","","",""
"281.5","238282","SARL_v6","SARL_v6p6dvsebe","632ff41f3631baf749984e3e","freq","","","img/blue_2bandit_b2.png","70","","70","test","1","","67","","","","circle","square","65","19","3","0.9692307692307692","","","","","","","",""
"null","238811","SARL_v6","SARL_v6p6dvsebe","632ff41f3631baf749984e3e","freq_resp","","","img/blue_2bandit_b.png","70","img/blue_2bandit_b.png","70","test","","","","","","","","","","","3","","","","","","","","",""
"null","238972","SARL_v6","SARL_v6p6dvsebe","632ff41f3631baf749984e3e","fixation","","","img/fixation.png","null","","","test","","","","","","","","","","","","","","","","","","","",""
"293.60000014305115","239273","SARL_v6","SARL_v6p6dvsebe","632ff41f3631baf749984e3e","freq","","","img/blue_2bandit_b2.png","70","","70","test","1","","68","","","","circle","square","66","20","3","0.9696969696969697","","","","","","","",""
"null","239802","SARL_v6","SARL_v6p6dvsebe","632ff41f3631baf749984e3e","freq_resp","","","img/blue_2bandit_b.png","70","img/blue_2bandit_b.png","70","test","","","","","","","","","","","3","","","","","","","","",""
"null","239963","SARL_v6","SARL_v6p6dvsebe","632ff41f3631baf749984e3e","fixation","","","img/fixation.png","null","","","test","","","","","","","","","","","","","","","","","","","",""
"356.5","240327","SARL_v6","SARL_v6p6dvsebe","632ff41f3631baf749984e3e","infreq","","","img/orange_2bandit_b2.png","68","","68","test","1","","69","","","","circle","square","67","21","3","0.9701492537313433","","","","","","","",""
"null","240797","SARL_v6","SARL_v6p6dvsebe","632ff41f3631baf749984e3e","infreq_resp","","","img/orange_2bandit_b.png","68","img/orange_2bandit_b.png","68","test","","","","","","","","","","","3","","","","","","","","",""
"null","240956","SARL_v6","SARL_v6p6dvsebe","632ff41f3631baf749984e3e","fixation","","","img/fixation.png","null","","","test","","","","","","","","","","","","","","","","","","","",""
"350.30000019073486","241315","SARL_v6","SARL_v6p6dvsebe","632ff41f3631baf749984e3e","freq","","","img/blue_2bandit_b2.png","70","","70","test","1","","70","","","","circle","square","68","22","3","0.9705882352941176","","","","","","","",""
"null","241781","SARL_v6","SARL_v6p6dvsebe","632ff41f3631baf749984e3e","freq_resp","","","img/blue_2bandit_b.png","70","img/blue_2bandit_b.png","70","test","","","","","","","","","","","3","","","","","","","","",""
"null","241951","SARL_v6","SARL_v6p6dvsebe","632ff41f3631baf749984e3e","fixation","","","img/fixation.png","null","","","test","","","","","","","","","","","","","","","","","","","",""
"288.09999990463257","242249","SARL_v6","SARL_v6p6dvsebe","632ff41f3631baf749984e3e","freq","","","img/blue_2bandit_b2.png","70","","70","test","1","","71","","","","circle","square","69","23","3","0.9710144927536232","","","","","","","",""
"null","242779","SARL_v6","SARL_v6p6dvsebe","632ff41f3631baf749984e3e","freq_resp","","","img/blue_2bandit_b.png","70","img/blue_2bandit_b.png","70","test","","","","","","","","","","","3","","","","","","","","",""
"null","242939","SARL_v6","SARL_v6p6dvsebe","632ff41f3631baf749984e3e","fixation","","","img/fixation.png","null","","","test","","","","","","","","","","","","","","","","","","","",""
"417.10000014305115","243364","SARL_v6","SARL_v6p6dvsebe","632ff41f3631baf749984e3e","rl","","","img/black_2bandit_b2.png","74","","0","test","","","72","","","-8","circle","square","","0","3","","74","-8","-4","-8","-4","circle","3","0"
"null","244138","SARL_v6","SARL_v6p6dvsebe","632ff41f3631baf749984e3e","feedback","","","<div class=""verylowPoints""> -8 </div>","null","","na","test","","","NaN","","","","","","","","3","","74","","","","","","3",""
"310.90000009536743","244458","SARL_v6","SARL_v6p6dvsebe","632ff41f3631baf749984e3e","freq","","","img/blue_2bandit_b2.png","70","","70","test","1","","73","","","","circle","square","70","1","4","0.9714285714285714","","","","","","","",""
"null","244969","SARL_v6","SARL_v6p6dvsebe","632ff41f3631baf749984e3e","freq_resp","","","img/blue_2bandit_b.png","70","img/blue_2bandit_b.png","70","test","","","","","","","","","","","4","","","","","","","","",""
"null","245139","SARL_v6","SARL_v6p6dvsebe","632ff41f3631baf749984e3e","fixation","","","img/fixation.png","null","","","test","","","","","","","","","","","","","","","","","","","",""
"310.5","245458","SARL_v6","SARL_v6p6dvsebe","632ff41f3631baf749984e3e","freq","","","img/blue_2bandit_b2.png","70","","70","test","1","","74","","","","circle","square","71","2","4","0.971830985915493","","","","","","","",""
"null","245971","SARL_v6","SARL_v6p6dvsebe","632ff41f3631baf749984e3e","freq_resp","","","img/blue_2bandit_b.png","70","img/blue_2bandit_b.png","70","test","","","","","","","","","","","4","","","","","","","","",""
"null","246137","SARL_v6","SARL_v6p6dvsebe","632ff41f3631baf749984e3e","fixation","","","img/fixation.png","null","","","test","","","","","","","","","","","","","","","","","","","",""
"261.2000000476837","246406","SARL_v6","SARL_v6p6dvsebe","632ff41f3631baf749984e3e","freq","","","img/blue_2bandit_b2.png","70","","70","test","1","","75","","","","circle","square","72","3","4","0.9722222222222222","","","","","","","",""
"null","246966","SARL_v6","SARL_v6p6dvsebe","632ff41f3631baf749984e3e","freq_resp","","","img/blue_2bandit_b.png","70","img/blue_2bandit_b.png","70","test","","","","","","","","","","","4","","","","","","","","",""
"null","247127","SARL_v6","SARL_v6p6dvsebe","632ff41f3631baf749984e3e","fixation","","","img/fixation.png","null","","","test","","","","","","","","","","","","","","","","","","","",""
"226.89999985694885","247363","SARL_v6","SARL_v6p6dvsebe","632ff41f3631baf749984e3e","freq","","","img/blue_2bandit_b2.png","70","","70","test","1","","76","","","","circle","square","73","4","4","0.9726027397260274","","","","","","","",""
"null","247951","SARL_v6","SARL_v6p6dvsebe","632ff41f3631baf749984e3e","freq_resp","","","img/blue_2bandit_b.png","70","img/blue_2bandit_b.png","70","test","","","","","","","","","","","4","","","","","","","","",""
"null","248111","SARL_v6","SARL_v6p6dvsebe","632ff41f3631baf749984e3e","fixation","","","img/fixation.png","null","","","test","","","","","","","","","","","","","","","","","","","",""
"259.40000009536743","248378","SARL_v6","SARL_v6p6dvsebe","632ff41f3631baf749984e3e","freq","","","img/blue_2bandit_b2.png","70","","70","test","1","","77","","","","circle","square","74","5","4","0.972972972972973","","","","","","","",""
"null","248935","SARL_v6","SARL_v6p6dvsebe","632ff41f3631baf749984e3e","freq_resp","","","img/blue_2bandit_b.png","70","img/blue_2bandit_b.png","70","test","","","","","","","","","","","4","","","","","","","","",""
"null","249094","SARL_v6","SARL_v6p6dvsebe","632ff41f3631baf749984e3e","fixation","","","img/fixation.png","null","","","test","","","","","","","","","","","","","","","","","","","",""
"233.40000009536743","249336","SARL_v6","SARL_v6p6dvsebe","632ff41f3631baf749984e3e","freq","","","img/blue_2bandit_b2.png","70","","70","test","1","","78","","","","circle","square","75","6","4","0.9733333333333334","","","","","","","",""
"null","249917","SARL_v6","SARL_v6p6dvsebe","632ff41f3631baf749984e3e","freq_resp","","","img/blue_2bandit_b.png","70","img/blue_2bandit_b.png","70","test","","","","","","","","","","","4","","","","","","","","",""
"null","250078","SARL_v6","SARL_v6p6dvsebe","632ff41f3631baf749984e3e","fixation","","","img/fixation.png","null","","","test","","","","","","","","","","","","","","","","","","","",""
"259.89999985694885","250346","SARL_v6","SARL_v6p6dvsebe","632ff41f3631baf749984e3e","freq","","","img/blue_2bandit_b2.png","70","","70","test","1","","79","","","","circle","square","76","7","4","0.9736842105263158","","","","","","","",""
"null","250908","SARL_v6","SARL_v6p6dvsebe","632ff41f3631baf749984e3e","freq_resp","","","img/blue_2bandit_b.png","70","img/blue_2bandit_b.png","70","test","","","","","","","","","","","4","","","","","","","","",""
"null","251068","SARL_v6","SARL_v6p6dvsebe","632ff41f3631baf749984e3e","fixation","","","img/fixation.png","null","","","test","","","","","","","","","","","","","","","","","","","",""
"331.7999999523163","251409","SARL_v6","SARL_v6p6dvsebe","632ff41f3631baf749984e3e","infreq","","","img/orange_2bandit_b2.png","68","","68","test","1","","80","","","","circle","square","77","8","4","0.974025974025974","","","","","","","",""
"null","251896","SARL_v6","SARL_v6p6dvsebe","632ff41f3631baf749984e3e","infreq_resp","","","img/orange_2bandit_b.png","68","img/orange_2bandit_b.png","68","test","","","","","","","","","","","4","","","","","","","","",""
"null","252056","SARL_v6","SARL_v6p6dvsebe","632ff41f3631baf749984e3e","fixation","","","img/fixation.png","null","","","test","","","","","","","","","","","","","","","","","","","",""
"307.5","252372","SARL_v6","SARL_v6p6dvsebe","632ff41f3631baf749984e3e","freq","","","img/blue_2bandit_b2.png","70","","70","test","1","","81","","","","circle","square","78","9","4","0.9743589743589743","","","","","","","",""
"null","252885","SARL_v6","SARL_v6p6dvsebe","632ff41f3631baf749984e3e","freq_resp","","","img/blue_2bandit_b.png","70","img/blue_2bandit_b.png","70","test","","","","","","","","","","","4","","","","","","","","",""
"null","253045","SARL_v6","SARL_v6p6dvsebe","632ff41f3631baf749984e3e","fixation","","","img/fixation.png","null","","","test","","","","","","","","","","","","","","","","","","","",""
"322.90000009536743","253377","SARL_v6","SARL_v6p6dvsebe","632ff41f3631baf749984e3e","freq","","","img/blue_2bandit_b2.png","70","","70","test","1","","82","","","","circle","square","79","10","4","0.9746835443037974","","","","","","","",""
"null","253865","SARL_v6","SARL_v6p6dvsebe","632ff41f3631baf749984e3e","freq_resp","","","img/blue_2bandit_b.png","70","img/blue_2bandit_b.png","70","test","","","","","","","","","","","4","","","","","","","","",""
"null","254029","SARL_v6","SARL_v6p6dvsebe","632ff41f3631baf749984e3e","fixation","","","img/fixation.png","null","","","test","","","","","","","","","","","","","","","","","","","",""
"305.10000014305115","254343","SARL_v6","SARL_v6p6dvsebe","632ff41f3631baf749984e3e","freq","","","img/blue_2bandit_b2.png","70","","70","test","1","","83","","","","circle","square","80","11","4","0.975","","","","","","","",""
"null","254859","SARL_v6","SARL_v6p6dvsebe","632ff41f3631baf749984e3e","freq_resp","","","img/blue_2bandit_b.png","70","img/blue_2bandit_b.png","70","test","","","","","","","","","","","4","","","","","","","","",""
"null","255026","SARL_v6","SARL_v6p6dvsebe","632ff41f3631baf749984e3e","fixation","","","img/fixation.png","null","","","test","","","","","","","","","","","","","","","","","","","",""
"274.5","255309","SARL_v6","SARL_v6p6dvsebe","632ff41f3631baf749984e3e","freq","","","img/blue_2bandit_b2.png","70","","70","test","1","","84","","","","circle","square","81","12","4","0.9753086419753086","","","","","","","",""
"null","255854","SARL_v6","SARL_v6p6dvsebe","632ff41f3631baf749984e3e","freq_resp","","","img/blue_2bandit_b.png","70","img/blue_2bandit_b.png","70","test","","","","","","","","","","","4","","","","","","","","",""
"null","256028","SARL_v6","SARL_v6p6dvsebe","632ff41f3631baf749984e3e","fixation","","","img/fixation.png","null","","","test","","","","","","","","","","","","","","","","","","","",""
"255.09999990463257","256291","SARL_v6","SARL_v6p6dvsebe","632ff41f3631baf749984e3e","freq","","","img/blue_2bandit_b2.png","70","","70","test","1","","85","","","","circle","square","82","13","4","0.975609756097561","","","","","","","",""
"null","256849","SARL_v6","SARL_v6p6dvsebe","632ff41f3631baf749984e3e","freq_resp","","","img/blue_2bandit_b.png","70","img/blue_2bandit_b.png","70","test","","","","","","","","","","","4","","","","","","","","",""
"null","257008","SARL_v6","SARL_v6p6dvsebe","632ff41f3631baf749984e3e","fixation","","","img/fixation.png","null","","","test","","","","","","","","","","","","","","","","","","","",""
"289.7999999523163","257307","SARL_v6","SARL_v6p6dvsebe","632ff41f3631baf749984e3e","freq","","","img/blue_2bandit_b2.png","70","","70","test","1","","86","","","","circle","square","83","14","4","0.9759036144578314","","","","","","","",""
"null","257839","SARL_v6","SARL_v6p6dvsebe","632ff41f3631baf749984e3e","freq_resp","","","img/blue_2bandit_b.png","70","img/blue_2bandit_b.png","70","test","","","","","","","","","","","4","","","","","","","","",""
"null","257999","SARL_v6","SARL_v6p6dvsebe","632ff41f3631baf749984e3e","fixation","","","img/fixation.png","null","","","test","","","","","","","","","","","","","","","","","","","",""
"267.59999990463257","258275","SARL_v6","SARL_v6p6dvsebe","632ff41f3631baf749984e3e","freq","","","img/blue_2bandit_b2.png","70","","70","test","1","","87","","","","circle","square","84","15","4","0.9761904761904762","","","","","","","",""
"null","258819","SARL_v6","SARL_v6p6dvsebe","632ff41f3631baf749984e3e","freq_resp","","","img/blue_2bandit_b.png","70","img/blue_2bandit_b.png","70","test","","","","","","","","","","","4","","","","","","","","",""
"null","258988","SARL_v6","SARL_v6p6dvsebe","632ff41f3631baf749984e3e","fixation","","","img/fixation.png","null","","","test","","","","","","","","","","","","","","","","","","","",""
"237.60000014305115","259234","SARL_v6","SARL_v6p6dvsebe","632ff41f3631baf749984e3e","infreq","","","img/orange_2bandit_b2.png","70","","68","test","0","","88","","","","circle","square","85","16","4","0.9647058823529412","","","","","","","",""
"null","259813","SARL_v6","SARL_v6p6dvsebe","632ff41f3631baf749984e3e","infreq_resp","","","img/orange_2bandit_b.png","70","img/orange_2bandit_b.png","68","test","","","","","","","","","","","4","","","","","","","","",""
"null","259976","SARL_v6","SARL_v6p6dvsebe","632ff41f3631baf749984e3e","fixation","","","img/fixation.png","null","","","test","","","","","","","","","","","","","","","","","","","",""
"433.09999990463257","260418","SARL_v6","SARL_v6p6dvsebe","632ff41f3631baf749984e3e","freq","","","img/blue_2bandit_b2.png","70","","70","test","1","","89","","","","circle","square","86","17","4","0.9651162790697675","","","","","","","",""
"null","260797","SARL_v6","SARL_v6p6dvsebe","632ff41f3631baf749984e3e","freq_resp","","","img/blue_2bandit_b.png","70","img/blue_2bandit_b.png","70","test","","","","","","","","","","","4","","","","","","","","",""
"null","260959","SARL_v6","SARL_v6p6dvsebe","632ff41f3631baf749984e3e","fixation","","","img/fixation.png","null","","","test","","","","","","","","","","","","","","","","","","","",""
"432.5","261400","SARL_v6","SARL_v6p6dvsebe","632ff41f3631baf749984e3e","freq","","","img/blue_2bandit_b2.png","70","","70","test","1","","90","","","","circle","square","87","18","4","0.9655172413793104","","","","","","","",""
"null","261784","SARL_v6","SARL_v6p6dvsebe","632ff41f3631baf749984e3e","freq_resp","","","img/blue_2bandit_b.png","70","img/blue_2bandit_b.png","70","test","","","","","","","","","","","4","","","","","","","","",""
"null","261943","SARL_v6","SARL_v6p6dvsebe","632ff41f3631baf749984e3e","fixation","","","img/fixation.png","null","","","test","","","","","","","","","","","","","","","","","","","",""
"375.2999999523163","262327","SARL_v6","SARL_v6p6dvsebe","632ff41f3631baf749984e3e","freq","","","img/blue_2bandit_b2.png","70","","70","test","1","","91","","","","circle","square","88","19","4","0.9659090909090909","","","","","","","",""
"null","262769","SARL_v6","SARL_v6p6dvsebe","632ff41f3631baf749984e3e","freq_resp","","","img/blue_2bandit_b.png","70","img/blue_2bandit_b.png","70","test","","","","","","","","","","","4","","","","","","","","",""
"null","262928","SARL_v6","SARL_v6p6dvsebe","632ff41f3631baf749984e3e","fixation","","","img/fixation.png","null","","","test","","","","","","","","","","","","","","","","","","","",""
"337.40000009536743","263274","SARL_v6","SARL_v6p6dvsebe","632ff41f3631baf749984e3e","freq","","","img/blue_2bandit_b2.png","70","","70","test","1","","92","","","","circle","square","89","20","4","0.9662921348314607","","","","","","","",""
"null","263751","SARL_v6","SARL_v6p6dvsebe","632ff41f3631baf749984e3e","freq_resp","","","img/blue_2bandit_b.png","70","img/blue_2bandit_b.png","70","test","","","","","","","","","","","4","","","","","","","","",""
"null","263912","SARL_v6","SARL_v6p6dvsebe","632ff41f3631baf749984e3e","fixation","","","img/fixation.png","null","","","test","","","","","","","","","","","","","","","","","","","",""
"777","264698","SARL_v6","SARL_v6p6dvsebe","632ff41f3631baf749984e3e","rl","","","img/black_2bandit_b2.png","74","","0","test","","","93","","","-12","circle","square","","0","4","","74","-12","0","-12","0","circle","4","0"
"null","265470","SARL_v6","SARL_v6p6dvsebe","632ff41f3631baf749984e3e","feedback","","","<div class=""verylowPoints""> -12 </div>","null","","na","test","","","NaN","","","","","","","","4","","74","","","","","","4",""
"596.0999999046326","266075","SARL_v6","SARL_v6p6dvsebe","632ff41f3631baf749984e3e","freq","","","img/blue_2bandit_b2.png","70","","70","test","1","","94","","","","circle","square","90","1","5","0.9666666666666667","","","","","","","",""
"null","266297","SARL_v6","SARL_v6p6dvsebe","632ff41f3631baf749984e3e","freq_resp","","","img/blue_2bandit_b.png","70","img/blue_2bandit_b.png","70","test","","","","","","","","","","","5","","","","","","","","",""
"null","266463","SARL_v6","SARL_v6p6dvsebe","632ff41f3631baf749984e3e","fixation","","","img/fixation.png","null","","","test","","","","","","","","","","","","","","","","","","","",""
"349","266821","SARL_v6","SARL_v6p6dvsebe","632ff41f3631baf749984e3e","freq","","","img/blue_2bandit_b2.png","70","","70","test","1","","95","","","","circle","square","91","2","5","0.967032967032967","","","","","","","",""
"null","267286","SARL_v6","SARL_v6p6dvsebe","632ff41f3631baf749984e3e","freq_resp","","","img/blue_2bandit_b.png","70","img/blue_2bandit_b.png","70","test","","","","","","","","","","","5","","","","","","","","",""
"null","267459","SARL_v6","SARL_v6p6dvsebe","632ff41f3631baf749984e3e","fixation","","","img/fixation.png","null","","","test","","","","","","","","","","","","","","","","","","","",""
"343.39999985694885","267810","SARL_v6","SARL_v6p6dvsebe","632ff41f3631baf749984e3e","freq","","","img/blue_2bandit_b2.png","70","","70","test","1","","96","","","","circle","square","92","3","5","0.967391304347826","","","","","","","",""
"null","268276","SARL_v6","SARL_v6p6dvsebe","632ff41f3631baf749984e3e","freq_resp","","","img/blue_2bandit_b.png","70","img/blue_2bandit_b.png","70","test","","","","","","","","","","","5","","","","","","","","",""
"null","268440","SARL_v6","SARL_v6p6dvsebe","632ff41f3631baf749984e3e","fixation","","","img/fixation.png","null","","","test","","","","","","","","","","","","","","","","","","","",""
"305.40000009536743","268754","SARL_v6","SARL_v6p6dvsebe","632ff41f3631baf749984e3e","freq","","","img/blue_2bandit_b2.png","70","","70","test","1","","97","","","","circle","square","93","4","5","0.967741935483871","","","","","","","",""
"null","269260","SARL_v6","SARL_v6p6dvsebe","632ff41f3631baf749984e3e","freq_resp","","","img/blue_2bandit_b.png","70","img/blue_2bandit_b.png","70","test","","","","","","","","","","","5","","","","","","","","",""
"null","269421","SARL_v6","SARL_v6p6dvsebe","632ff41f3631baf749984e3e","fixation","","","img/fixation.png","null","","","test","","","","","","","","","","","","","","","","","","","",""
"304","269733","SARL_v6","SARL_v6p6dvsebe","632ff41f3631baf749984e3e","freq","","","img/blue_2bandit_b2.png","70","","70","test","1","","98","","","","circle","square","94","5","5","0.9680851063829787","","","","","","","",""
"null","270245","SARL_v6","SARL_v6p6dvsebe","632ff41f3631baf749984e3e","freq_resp","","","img/blue_2bandit_b.png","70","img/blue_2bandit_b.png","70","test","","","","","","","","","","","5","","","","","","","","",""
"null","270405","SARL_v6","SARL_v6p6dvsebe","632ff41f3631baf749984e3e","fixation","","","img/fixation.png","null","","","test","","","","","","","","","","","","","","","","","","","",""
"291.09999990463257","270704","SARL_v6","SARL_v6p6dvsebe","632ff41f3631baf749984e3e","freq","","","img/blue_2bandit_b2.png","70","","70","test","1","","99","","","","circle","square","95","6","5","0.968421052631579","","","","","","","",""
"null","271235","SARL_v6","SARL_v6p6dvsebe","632ff41f3631baf749984e3e","freq_resp","","","img/blue_2bandit_b.png","70","img/blue_2bandit_b.png","70","test","","","","","","","","","","","5","","","","","","","","",""
"null","271404","SARL_v6","SARL_v6p6dvsebe","632ff41f3631baf749984e3e","fixation","","","img/fixation.png","null","","","test","","","","","","","","","","","","","","","","","","","",""
"300.19999980926514","271713","SARL_v6","SARL_v6p6dvsebe","632ff41f3631baf749984e3e","freq","","","img/blue_2bandit_b2.png","70","","70","test","1","","100","","","","circle","square","96","7","5","0.96875","","","","","","","",""
"null","272227","SARL_v6","SARL_v6p6dvsebe","632ff41f3631baf749984e3e","freq_resp","","","img/blue_2bandit_b.png","70","img/blue_2bandit_b.png","70","test","","","","","","","","","","","5","","","","","","","","",""
"null","272389","SARL_v6","SARL_v6p6dvsebe","632ff41f3631baf749984e3e","fixation","","","img/fixation.png","null","","","test","","","","","","","","","","","","","","","","","","","",""
"338.69999980926514","272737","SARL_v6","SARL_v6p6dvsebe","632ff41f3631baf749984e3e","freq","","","img/blue_2bandit_b2.png","70","","70","test","1","","101","","","","circle","square","97","8","5","0.9690721649484536","","","","","","","",""
"null","273219","SARL_v6","SARL_v6p6dvsebe","632ff41f3631baf749984e3e","freq_resp","","","img/blue_2bandit_b.png","70","img/blue_2bandit_b.png","70","test","","","","","","","","","","","5","","","","","","","","",""
"null","273380","SARL_v6","SARL_v6p6dvsebe","632ff41f3631baf749984e3e","fixation","","","img/fixation.png","null","","","test","","","","","","","","","","","","","","","","","","","",""
"300.09999990463257","273689","SARL_v6","SARL_v6p6dvsebe","632ff41f3631baf749984e3e","freq","","","img/blue_2bandit_b2.png","70","","70","test","1","","102","","","","circle","square","98","9","5","0.9693877551020408","","","","","","","",""
"null","274203","SARL_v6","SARL_v6p6dvsebe","632ff41f3631baf749984e3e","freq_resp","","","img/blue_2bandit_b.png","70","img/blue_2bandit_b.png","70","test","","","","","","","","","","","5","","","","","","","","",""
"null","274366","SARL_v6","SARL_v6p6dvsebe","632ff41f3631baf749984e3e","fixation","","","img/fixation.png","null","","","test","","","","","","","","","","","","","","","","","","","",""
"281.5","274655","SARL_v6","SARL_v6p6dvsebe","632ff41f3631baf749984e3e","freq","","","img/blue_2bandit_b2.png","70","","70","test","1","","103","","","","circle","square","99","10","5","0.9696969696969697","","","","","","","",""
"null","275183","SARL_v6","SARL_v6p6dvsebe","632ff41f3631baf749984e3e","freq_resp","","","img/blue_2bandit_b.png","70","img/blue_2bandit_b.png","70","test","","","","","","","","","","","5","","","","","","","","",""
"null","275345","SARL_v6","SARL_v6p6dvsebe","632ff41f3631baf749984e3e","fixation","","","img/fixation.png","null","","","test","","","","","","","","","","","","","","","","","","","",""
"279.90000009536743","275633","SARL_v6","SARL_v6p6dvsebe","632ff41f3631baf749984e3e","freq","","","img/blue_2bandit_b2.png","70","","70","test","1","","104","","","","circle","square","100","11","5","0.97","","","","","","","",""
"null","276169","SARL_v6","SARL_v6p6dvsebe","632ff41f3631baf749984e3e","freq_resp","","","img/blue_2bandit_b.png","70","img/blue_2bandit_b.png","70","test","","","","","","","","","","","5","","","","","","","","",""
"null","276331","SARL_v6","SARL_v6p6dvsebe","632ff41f3631baf749984e3e","fixation","","","img/fixation.png","null","","","test","","","","","","","","","","","","","","","","","","","",""
"327.2999999523163","276667","SARL_v6","SARL_v6p6dvsebe","632ff41f3631baf749984e3e","freq","","","img/blue_2bandit_b2.png","70","","70","test","1","","105","","","","circle","square","101","12","5","0.9702970297029703","","","","","","","",""
"null","277163","SARL_v6","SARL_v6p6dvsebe","632ff41f3631baf749984e3e","freq_resp","","","img/blue_2bandit_b.png","70","img/blue_2bandit_b.png","70","test","","","","","","","","","","","5","","","","","","","","",""
"null","277325","SARL_v6","SARL_v6p6dvsebe","632ff41f3631baf749984e3e","fixation","","","img/fixation.png","null","","","test","","","","","","","","","","","","","","","","","","","",""
"294.19999980926514","277628","SARL_v6","SARL_v6p6dvsebe","632ff41f3631baf749984e3e","freq","","","img/blue_2bandit_b2.png","70","","70","test","1","","106","","","","circle","square","102","13","5","0.9705882352941176","","","","","","","",""
"null","278148","SARL_v6","SARL_v6p6dvsebe","632ff41f3631baf749984e3e","freq_resp","","","img/blue_2bandit_b.png","70","img/blue_2bandit_b.png","70","test","","","","","","","","","","","5","","","","","","","","",""
"null","278312","SARL_v6","SARL_v6p6dvsebe","632ff41f3631baf749984e3e","fixation","","","img/fixation.png","null","","","test","","","","","","","","","","","","","","","","","","","",""
"280.09999990463257","278601","SARL_v6","SARL_v6p6dvsebe","632ff41f3631baf749984e3e","freq","","","img/blue_2bandit_b2.png","70","","70","test","1","","107","","","","circle","square","103","14","5","0.970873786407767","","","","","","","",""
"null","279139","SARL_v6","SARL_v6p6dvsebe","632ff41f3631baf749984e3e","freq_resp","","","img/blue_2bandit_b.png","70","img/blue_2bandit_b.png","70","test","","","","","","","","","","","5","","","","","","","","",""
"null","279308","SARL_v6","SARL_v6p6dvsebe","632ff41f3631baf749984e3e","fixation","","","img/fixation.png","null","","","test","","","","","","","","","","","","","","","","","","","",""
"314.7000000476837","279632","SARL_v6","SARL_v6p6dvsebe","632ff41f3631baf749984e3e","freq","","","img/blue_2bandit_b2.png","70","","70","test","1","","108","","","","circle","square","104","15","5","0.9711538461538461","","","","","","","",""
"null","280134","SARL_v6","SARL_v6p6dvsebe","632ff41f3631baf749984e3e","freq_resp","","","img/blue_2bandit_b.png","70","img/blue_2bandit_b.png","70","test","","","","","","","","","","","5","","","","","","","","",""
"null","280298","SARL_v6","SARL_v6p6dvsebe","632ff41f3631baf749984e3e","fixation","","","img/fixation.png","null","","","test","","","","","","","","","","","","","","","","","","","",""
"384.7000000476837","280691","SARL_v6","SARL_v6p6dvsebe","632ff41f3631baf749984e3e","freq","","","img/blue_2bandit_b2.png","70","","70","test","1","","109","","","","circle","square","105","16","5","0.9714285714285714","","","","","","","",""
"null","281119","SARL_v6","SARL_v6p6dvsebe","632ff41f3631baf749984e3e","freq_resp","","","img/blue_2bandit_b.png","70","img/blue_2bandit_b.png","70","test","","","","","","","","","","","5","","","","","","","","",""
"null","281294","SARL_v6","SARL_v6p6dvsebe","632ff41f3631baf749984e3e","fixation","","","img/fixation.png","null","","","test","","","","","","","","","","","","","","","","","","","",""
"307.2000000476837","281610","SARL_v6","SARL_v6p6dvsebe","632ff41f3631baf749984e3e","freq","","","img/blue_2bandit_b2.png","70","","70","test","1","","110","","","","circle","square","106","17","5","0.9716981132075472","","","","","","","",""
"null","282114","SARL_v6","SARL_v6p6dvsebe","632ff41f3631baf749984e3e","freq_resp","","","img/blue_2bandit_b.png","70","img/blue_2bandit_b.png","70","test","","","","","","","","","","","5","","","","","","","","",""
"null","282274","SARL_v6","SARL_v6p6dvsebe","632ff41f3631baf749984e3e","fixation","","","img/fixation.png","null","","","test","","","","","","","","","","","","","","","","","","","",""
"398.40000009536743","282681","SARL_v6","SARL_v6p6dvsebe","632ff41f3631baf749984e3e","freq","","","img/blue_2bandit_b2.png","70","","70","test","1","","111","","","","circle","square","107","18","5","0.9719626168224299","","","","","","","",""
"null","283096","SARL_v6","SARL_v6p6dvsebe","632ff41f3631baf749984e3e","freq_resp","","","img/blue_2bandit_b.png","70","img/blue_2bandit_b.png","70","test","","","","","","","","","","","5","","","","","","","","",""
"null","283265","SARL_v6","SARL_v6p6dvsebe","632ff41f3631baf749984e3e","fixation","","","img/fixation.png","null","","","test","","","","","","","","","","","","","","","","","","","",""
"395.09999990463257","283669","SARL_v6","SARL_v6p6dvsebe","632ff41f3631baf749984e3e","infreq","","","img/orange_2bandit_b2.png","68","","68","test","1","","112","","","","circle","square","108","19","5","0.9722222222222222","","","","","","","",""
"null","284087","SARL_v6","SARL_v6p6dvsebe","632ff41f3631baf749984e3e","infreq_resp","","","img/orange_2bandit_b.png","68","img/orange_2bandit_b.png","68","test","","","","","","","","","","","5","","","","","","","","",""
"null","284248","SARL_v6","SARL_v6p6dvsebe","632ff41f3631baf749984e3e","fixation","","","img/fixation.png","null","","","test","","","","","","","","","","","","","","","","","","","",""
"458.2000000476837","284714","SARL_v6","SARL_v6p6dvsebe","632ff41f3631baf749984e3e","infreq","","","img/orange_2bandit_b2.png","68","","68","test","1","","113","","","","circle","square","109","20","5","0.9724770642201835","","","","","","","",""
"null","285068","SARL_v6","SARL_v6p6dvsebe","632ff41f3631baf749984e3e","infreq_resp","","","img/orange_2bandit_b.png","68","img/orange_2bandit_b.png","68","test","","","","","","","","","","","5","","","","","","","","",""
"null","285241","SARL_v6","SARL_v6p6dvsebe","632ff41f3631baf749984e3e","fixation","","","img/fixation.png","null","","","test","","","","","","","","","","","","","","","","","","","",""
"340.30000019073486","285591","SARL_v6","SARL_v6p6dvsebe","632ff41f3631baf749984e3e","freq","","","img/blue_2bandit_b2.png","70","","70","test","1","","114","","","","circle","square","110","21","5","0.9727272727272728","","","","","","","",""
"null","286074","SARL_v6","SARL_v6p6dvsebe","632ff41f3631baf749984e3e","freq_resp","","","img/blue_2bandit_b.png","70","img/blue_2bandit_b.png","70","test","","","","","","","","","","","5","","","","","","","","",""
"null","286237","SARL_v6","SARL_v6p6dvsebe","632ff41f3631baf749984e3e","fixation","","","img/fixation.png","null","","","test","","","","","","","","","","","","","","","","","","","",""
"362.10000014305115","286608","SARL_v6","SARL_v6p6dvsebe","632ff41f3631baf749984e3e","freq","","","img/blue_2bandit_b2.png","70","","70","test","1","","115","","","","circle","square","111","22","5","0.972972972972973","","","","","","","",""
"null","287068","SARL_v6","SARL_v6p6dvsebe","632ff41f3631baf749984e3e","freq_resp","","","img/blue_2bandit_b.png","70","img/blue_2bandit_b.png","70","test","","","","","","","","","","","5","","","","","","","","",""
"null","287230","SARL_v6","SARL_v6p6dvsebe","632ff41f3631baf749984e3e","fixation","","","img/fixation.png","null","","","test","","","","","","","","","","","","","","","","","","","",""
"377.7000000476837","287616","SARL_v6","SARL_v6p6dvsebe","632ff41f3631baf749984e3e","freq","","","img/blue_2bandit_b2.png","70","","70","test","1","","116","","","","circle","square","112","23","5","0.9732142857142857","","","","","","","",""
"null","288057","SARL_v6","SARL_v6p6dvsebe","632ff41f3631baf749984e3e","freq_resp","","","img/blue_2bandit_b.png","70","img/blue_2bandit_b.png","70","test","","","","","","","","","","","5","","","","","","","","",""
"null","288229","SARL_v6","SARL_v6p6dvsebe","632ff41f3631baf749984e3e","fixation","","","img/fixation.png","null","","","test","","","","","","","","","","","","","","","","","","","",""
"322.5","288561","SARL_v6","SARL_v6p6dvsebe","632ff41f3631baf749984e3e","freq","","","img/blue_2bandit_b2.png","70","","70","test","1","","117","","","","circle","square","113","24","5","0.9734513274336283","","","","","","","",""
"null","289062","SARL_v6","SARL_v6p6dvsebe","632ff41f3631baf749984e3e","freq_resp","","","img/blue_2bandit_b.png","70","img/blue_2bandit_b.png","70","test","","","","","","","","","","","5","","","","","","","","",""
"null","289222","SARL_v6","SARL_v6p6dvsebe","632ff41f3631baf749984e3e","fixation","","","img/fixation.png","null","","","test","","","","","","","","","","","","","","","","","","","",""
"483.30000019073486","289715","SARL_v6","SARL_v6p6dvsebe","632ff41f3631baf749984e3e","rl","","","img/black_2bandit_b2.png","74","","0","test","","","118","","","-7","circle","square","","0","5","","74","-7","4","-7","4","circle","5","0"
"null","290483","SARL_v6","SARL_v6p6dvsebe","632ff41f3631baf749984e3e","feedback","","","<div class=""verylowPoints""> -7 </div>","null","","na","test","","","NaN","","","","","","","","5","","74","","","","","","5",""
"null","291307","SARL_v6","SARL_v6p6dvsebe","632ff41f3631baf749984e3e","freq","","","img/blue_2bandit_b2.png","null","","70","test","0","","119","","","","circle","square","114","1","6","0.9649122807017544","","","","","","","",""
"null","291471","SARL_v6","SARL_v6p6dvsebe","632ff41f3631baf749984e3e","fixation","","","img/fixation.png","null","","","test","","","","","","","","","","","","","","","","","","","",""
"224","291704","SARL_v6","SARL_v6p6dvsebe","632ff41f3631baf749984e3e","infreq","","","img/orange_2bandit_b2.png","70","","68","test","0","","120","","","","circle","square","115","2","6","0.9565217391304348","","","","","","","",""
"null","292296","SARL_v6","SARL_v6p6dvsebe","632ff41f3631baf749984e3e","infreq_resp","","","img/orange_2bandit_b.png","70","img/orange_2bandit_b.png","68","test","","","","","","","","","","","6","","","","","","","","",""
"null","292456","SARL_v6","SARL_v6p6dvsebe","632ff41f3631baf749984e3e","fixation","","","img/fixation.png","null","","","test","","","","","","","","","","","","","","","","","","","",""
"325.10000014305115","292790","SARL_v6","SARL_v6p6dvsebe","632ff41f3631baf749984e3e","infreq","","","img/orange_2bandit_b2.png","68","","68","test","1","","121","","","","circle","square","116","3","6","0.9568965517241379","","","","","","","",""
"null","293283","SARL_v6","SARL_v6p6dvsebe","632ff41f3631baf749984e3e","infreq_resp","","","img/orange_2bandit_b.png","68","img/orange_2bandit_b.png","68","test","","","","","","","","","","","6","","","","","","","","",""
"null","293455","SARL_v6","SARL_v6p6dvsebe","632ff41f3631baf749984e3e","fixation","","","img/fixation.png","null","","","test","","","","","","","","","","","","","","","","","","","",""
"354","293818","SARL_v6","SARL_v6p6dvsebe","632ff41f3631baf749984e3e","freq","","","img/blue_2bandit_b2.png","70","","70","test","1","","122","","","","circle","square","117","4","6","0.9572649572649573","","","","","","","",""
"null","294280","SARL_v6","SARL_v6p6dvsebe","632ff41f3631baf749984e3e","freq_resp","","","img/blue_2bandit_b.png","70","img/blue_2bandit_b.png","70","test","","","","","","","","","","","6","","","","","","","","",""
"null","294443","SARL_v6","SARL_v6p6dvsebe","632ff41f3631baf749984e3e","fixation","","","img/fixation.png","null","","","test","","","","","","","","","","","","","","","","","","","",""
"322.2999999523163","294774","SARL_v6","SARL_v6p6dvsebe","632ff41f3631baf749984e3e","freq","","","img/blue_2bandit_b2.png","70","","70","test","1","","123","","","","circle","square","118","5","6","0.9576271186440678","","","","","","","",""
"null","295267","SARL_v6","SARL_v6p6dvsebe","632ff41f3631baf749984e3e","freq_resp","","","img/blue_2bandit_b.png","70","img/blue_2bandit_b.png","70","test","","","","","","","","","","","6","","","","","","","","",""
"null","295440","SARL_v6","SARL_v6p6dvsebe","632ff41f3631baf749984e3e","fixation","","","img/fixation.png","null","","","test","","","","","","","","","","","","","","","","","","","",""
"338.7000000476837","295787","SARL_v6","SARL_v6p6dvsebe","632ff41f3631baf749984e3e","freq","","","img/blue_2bandit_b2.png","70","","70","test","1","","124","","","","circle","square","119","6","6","0.957983193277311","","","","","","","",""
"null","296260","SARL_v6","SARL_v6p6dvsebe","632ff41f3631baf749984e3e","freq_resp","","","img/blue_2bandit_b.png","70","img/blue_2bandit_b.png","70","test","","","","","","","","","","","6","","","","","","","","",""
"null","296421","SARL_v6","SARL_v6p6dvsebe","632ff41f3631baf749984e3e","fixation","","","img/fixation.png","null","","","test","","","","","","","","","","","","","","","","","","","",""
"320.2000000476837","296749","SARL_v6","SARL_v6p6dvsebe","632ff41f3631baf749984e3e","freq","","","img/blue_2bandit_b2.png","70","","70","test","1","","125","","","","circle","square","120","7","6","0.9583333333333334","","","","","","","",""
"null","297246","SARL_v6","SARL_v6p6dvsebe","632ff41f3631baf749984e3e","freq_resp","","","img/blue_2bandit_b.png","70","img/blue_2bandit_b.png","70","test","","","","","","","","","","","6","","","","","","","","",""
"null","297406","SARL_v6","SARL_v6p6dvsebe","632ff41f3631baf749984e3e","fixation","","","img/fixation.png","null","","","test","","","","","","","","","","","","","","","","","","","",""
"284.09999990463257","297699","SARL_v6","SARL_v6p6dvsebe","632ff41f3631baf749984e3e","freq","","","img/blue_2bandit_b2.png","70","","70","test","1","","126","","","","circle","square","121","8","6","0.9586776859504132","","","","","","","",""
"null","298229","SARL_v6","SARL_v6p6dvsebe","632ff41f3631baf749984e3e","freq_resp","","","img/blue_2bandit_b.png","70","img/blue_2bandit_b.png","70","test","","","","","","","","","","","6","","","","","","","","",""
"null","298392","SARL_v6","SARL_v6p6dvsebe","632ff41f3631baf749984e3e","fixation","","","img/fixation.png","null","","","test","","","","","","","","","","","","","","","","","","","",""
"229.20000004768372","298630","SARL_v6","SARL_v6p6dvsebe","632ff41f3631baf749984e3e","freq","","","img/blue_2bandit_b2.png","70","","70","test","1","","127","","","","circle","square","122","9","6","0.9590163934426229","","","","","","","",""
"null","299221","SARL_v6","SARL_v6p6dvsebe","632ff41f3631baf749984e3e","freq_resp","","","img/blue_2bandit_b.png","70","img/blue_2bandit_b.png","70","test","","","","","","","","","","","6","","","","","","","","",""
"null","299384","SARL_v6","SARL_v6p6dvsebe","632ff41f3631baf749984e3e","fixation","","","img/fixation.png","null","","","test","","","","","","","","","","","","","","","","","","","",""
"323.09999990463257","299715","SARL_v6","SARL_v6p6dvsebe","632ff41f3631baf749984e3e","freq","","","img/blue_2bandit_b2.png","70","","70","test","1","","128","","","","circle","square","123","10","6","0.959349593495935","","","","","","","",""
"null","300212","SARL_v6","SARL_v6p6dvsebe","632ff41f3631baf749984e3e","freq_resp","","","img/blue_2bandit_b.png","70","img/blue_2bandit_b.png","70","test","","","","","","","","","","","6","","","","","","","","",""
"null","300375","SARL_v6","SARL_v6p6dvsebe","632ff41f3631baf749984e3e","fixation","","","img/fixation.png","null","","","test","","","","","","","","","","","","","","","","","","","",""
"332.80000019073486","300716","SARL_v6","SARL_v6p6dvsebe","632ff41f3631baf749984e3e","freq","","","img/blue_2bandit_b2.png","70","","70","test","1","","129","","","","circle","square","124","11","6","0.9596774193548387","","","","","","","",""
"null","301204","SARL_v6","SARL_v6p6dvsebe","632ff41f3631baf749984e3e","freq_resp","","","img/blue_2bandit_b.png","70","img/blue_2bandit_b.png","70","test","","","","","","","","","","","6","","","","","","","","",""
"null","301363","SARL_v6","SARL_v6p6dvsebe","632ff41f3631baf749984e3e","fixation","","","img/fixation.png","null","","","test","","","","","","","","","","","","","","","","","","","",""
"309.2000000476837","301681","SARL_v6","SARL_v6p6dvsebe","632ff41f3631baf749984e3e","freq","","","img/blue_2bandit_b2.png","70","","70","test","1","","130","","","","circle","square","125","12","6","0.96","","","","","","","",""
"null","302193","SARL_v6","SARL_v6p6dvsebe","632ff41f3631baf749984e3e","freq_resp","","","img/blue_2bandit_b.png","70","img/blue_2bandit_b.png","70","test","","","","","","","","","","","6","","","","","","","","",""
"null","302357","SARL_v6","SARL_v6p6dvsebe","632ff41f3631baf749984e3e","fixation","","","img/fixation.png","null","","","test","","","","","","","","","","","","","","","","","","","",""
"330.10000014305115","302696","SARL_v6","SARL_v6p6dvsebe","632ff41f3631baf749984e3e","freq","","","img/blue_2bandit_b2.png","70","","70","test","1","","131","","","","circle","square","126","13","6","0.9603174603174603","","","","","","","",""
