"rt","time_elapsed","expId","subject","prolificID","trialType","rlType","attType","stimulus","key_press","stim","corrresp","phase","corr","pracCounter","trialNum","rewardOne","rewardTwo","reward","bandOne","bandTwo","attentionNum","attentionRunNum","blockNum","performance","bandChosen","circleVal","squareVal","bandOneVal","bandTwoVal","shapeChosen","rlNum","badFlag"
"18715","18723","SARL_v6","SARL_v6dnjr3x75","63f77b9ca8439f6e1620c1cd","","","","","","","","","","","","","","","","","","","","","","","","","","","",""
"","21878","SARL_v6","SARL_v6dnjr3x75","63f77b9ca8439f6e1620c1cd","fullscreen","fullscreen","fullscreen","","","","","","","","","","","","","","","","","","","","","","","","",""
"88813","110700","SARL_v6","SARL_v6dnjr3x75","63f77b9ca8439f6e1620c1cd","","","","","","","","","","","","","","","","","","","","","","","","","","","",""
"null","111509","SARL_v6","SARL_v6dnjr3x75","63f77b9ca8439f6e1620c1cd","freqPrac","","","img/blue_2bandit_a2.png","null","img/blue_2bandit_a2.png","70","prac","0","1","","","","","","","","","","","","","","","","","",""
"null","112525","SARL_v6","SARL_v6dnjr3x75","63f77b9ca8439f6e1620c1cd","feedback","","","img/tooSlow.png","null","","na","prac","","","","","","","","","","","","","","","","","","","",""
"null","112678","SARL_v6","SARL_v6dnjr3x75","63f77b9ca8439f6e1620c1cd","fixation","","","img/fixation.png","null","","","prac","","","","","","","","","","","","","","","","","","","",""
"null","113494","SARL_v6","SARL_v6dnjr3x75","63f77b9ca8439f6e1620c1cd","infreqPrac","","","img/orange_2bandit_a2.png","null","img/orange_2bandit_a2.png","68","prac","0","2","","","","","","","","","","","","","","","","","",""
"null","114504","SARL_v6","SARL_v6dnjr3x75","63f77b9ca8439f6e1620c1cd","feedback","","","img/tooSlow.png","null","","na","prac","","","","","","","","","","","","","","","","","","","",""
"null","114664","SARL_v6","SARL_v6dnjr3x75","63f77b9ca8439f6e1620c1cd","fixation","","","img/fixation.png","null","","","prac","","","","","","","","","","","","","","","","","","","",""
"null","115478","SARL_v6","SARL_v6dnjr3x75","63f77b9ca8439f6e1620c1cd","freqPrac","","","img/blue_2bandit_a2.png","null","img/blue_2bandit_a2.png","70","prac","0","3","","","","","","","","","","","","","","","","","",""
"null","116486","SARL_v6","SARL_v6dnjr3x75","63f77b9ca8439f6e1620c1cd","feedback","","","img/tooSlow.png","null","","na","prac","","","","","","","","","","","","","","","","","","","",""
"null","116643","SARL_v6","SARL_v6dnjr3x75","63f77b9ca8439f6e1620c1cd","fixation","","","img/fixation.png","null","","","prac","","","","","","","","","","","","","","","","","","","",""
"413","117058","SARL_v6","SARL_v6dnjr3x75","63f77b9ca8439f6e1620c1cd","infreqPrac","","","img/orange_2bandit_a2.png","70","img/orange_2bandit_a2.png","68","prac","0","4","","","","","","","","","","","","","","","","","",""
"413","117464","SARL_v6","SARL_v6dnjr3x75","63f77b9ca8439f6e1620c1cd","infreqPrac_resp","","","img/orange_2bandit_a.png","70","img/orange_2bandit_a.png","68","prac","","","","","","","","","","","","","","","","","","","",""
"null","118473","SARL_v6","SARL_v6dnjr3x75","63f77b9ca8439f6e1620c1cd","feedback","","","img/wrongKey.png","null","","na","prac","","","","","","","","","","","","","","","","","","","",""
"null","118627","SARL_v6","SARL_v6dnjr3x75","63f77b9ca8439f6e1620c1cd","fixation","","","img/fixation.png","null","","","prac","","","","","","","","","","","","","","","","","","","",""
"509","119138","SARL_v6","SARL_v6dnjr3x75","63f77b9ca8439f6e1620c1cd","infreqPrac","","","img/orange_2bandit_a2.png","68","img/orange_2bandit_a2.png","68","prac","1","4","","","","","","","","","","","","","","","","","",""
"509","119434","SARL_v6","SARL_v6dnjr3x75","63f77b9ca8439f6e1620c1cd","infreqPrac_resp","","","img/orange_2bandit_a.png","68","img/orange_2bandit_a.png","68","prac","","","","","","","","","","","","","","","","","","","",""
"null","119601","SARL_v6","SARL_v6dnjr3x75","63f77b9ca8439f6e1620c1cd","fixation","","","img/fixation.png","null","","","prac","","","","","","","","","","","","","","","","","","","",""
"644","120247","SARL_v6","SARL_v6dnjr3x75","63f77b9ca8439f6e1620c1cd","infreqPrac","","","img/orange_2bandit_a2.png","68","img/orange_2bandit_a2.png","68","prac","1","4","","","","","","","","","","","","","","","","","",""
"644","120410","SARL_v6","SARL_v6dnjr3x75","63f77b9ca8439f6e1620c1cd","infreqPrac_resp","","","img/orange_2bandit_a.png","68","img/orange_2bandit_a.png","68","prac","","","","","","","","","","","","","","","","","","","",""
"null","120566","SARL_v6","SARL_v6dnjr3x75","63f77b9ca8439f6e1620c1cd","fixation","","","img/fixation.png","null","","","prac","","","","","","","","","","","","","","","","","","","",""
"526","121094","SARL_v6","SARL_v6dnjr3x75","63f77b9ca8439f6e1620c1cd","freqPrac","","","img/blue_2bandit_a2.png","70","img/blue_2bandit_a2.png","70","prac","1","4","","","","","","","","","","","","","","","","","",""
"526","121387","SARL_v6","SARL_v6dnjr3x75","63f77b9ca8439f6e1620c1cd","freqPrac_resp","","","img/blue_2bandit_a.png","70","img/blue_2bandit_a.png","70","prac","","","","","","","","","","","","","","","","","","","",""
"null","121545","SARL_v6","SARL_v6dnjr3x75","63f77b9ca8439f6e1620c1cd","fixation","","","img/fixation.png","null","","","prac","","","","","","","","","","","","","","","","","","","",""
"423","121971","SARL_v6","SARL_v6dnjr3x75","63f77b9ca8439f6e1620c1cd","infreqPrac","","","img/orange_2bandit_a2.png","68","img/orange_2bandit_a2.png","68","prac","1","4","","","","","","","","","","","","","","","","","",""
"423","122366","SARL_v6","SARL_v6dnjr3x75","63f77b9ca8439f6e1620c1cd","infreqPrac_resp","","","img/orange_2bandit_a.png","68","img/orange_2bandit_a.png","68","prac","","","","","","","","","","","","","","","","","","","",""
"null","122525","SARL_v6","SARL_v6dnjr3x75","63f77b9ca8439f6e1620c1cd","fixation","","","img/fixation.png","null","","","prac","","","","","","","","","","","","","","","","","","","",""
"459","122986","SARL_v6","SARL_v6dnjr3x75","63f77b9ca8439f6e1620c1cd","freqPrac","","","img/blue_2bandit_a2.png","70","img/blue_2bandit_a2.png","70","prac","1","4","","","","","","","","","","","","","","","","","",""
"459","123334","SARL_v6","SARL_v6dnjr3x75","63f77b9ca8439f6e1620c1cd","freqPrac_resp","","","img/blue_2bandit_a.png","70","img/blue_2bandit_a.png","70","prac","","","","","","","","","","","","","","","","","","","",""
"null","123501","SARL_v6","SARL_v6dnjr3x75","63f77b9ca8439f6e1620c1cd","fixation","","","img/fixation.png","null","","","prac","","","","","","","","","","","","","","","","","","","",""
"505","124008","SARL_v6","SARL_v6dnjr3x75","63f77b9ca8439f6e1620c1cd","freqPrac","","","img/blue_2bandit_a2.png","70","img/blue_2bandit_a2.png","70","prac","1","4","","","","","","","","","","","","","","","","","",""
"505","124316","SARL_v6","SARL_v6dnjr3x75","63f77b9ca8439f6e1620c1cd","freqPrac_resp","","","img/blue_2bandit_a.png","70","img/blue_2bandit_a.png","70","prac","","","","","","","","","","","","","","","","","","","",""
"null","124484","SARL_v6","SARL_v6dnjr3x75","63f77b9ca8439f6e1620c1cd","fixation","","","img/fixation.png","null","","","prac","","","","","","","","","","","","","","","","","","","",""
"44855","169341","SARL_v6","SARL_v6dnjr3x75","63f77b9ca8439f6e1620c1cd","","","","","","","","prac","","","","","","","","","","","","","","","","","","","",""
"1308","170650","SARL_v6","SARL_v6dnjr3x75","63f77b9ca8439f6e1620c1cd","rlPractice","","","img/black_2bandit_a2.png","75","img/black_2bandit_a2.png","","prac","","","0","","","","","","","","","","","","","","","","",""
"null","171417","SARL_v6","SARL_v6dnjr3x75","63f77b9ca8439f6e1620c1cd","feedback","","","<div class=""veryhighPoints""> 10 </div>","null","","na","prac","","","1","10","-14","10","","","","","","","","","","","","","",""
"null","171576","SARL_v6","SARL_v6dnjr3x75","63f77b9ca8439f6e1620c1cd","fixation","","","img/fixation.png","null","","","prac","","","","","","","","","","","","","","","","","","","",""
"588","172166","SARL_v6","SARL_v6dnjr3x75","63f77b9ca8439f6e1620c1cd","rlPractice","","","img/black_2bandit_a2.png","75","img/black_2bandit_a2.png","","prac","","","1","","","","","","","","","","","","","","","","",""
"null","172921","SARL_v6","SARL_v6dnjr3x75","63f77b9ca8439f6e1620c1cd","feedback","","","<div class=""veryhighPoints""> 5 </div>","null","","na","prac","","","2","5","-5","5","","","","","","","","","","","","","",""
"null","173085","SARL_v6","SARL_v6dnjr3x75","63f77b9ca8439f6e1620c1cd","fixation","","","img/fixation.png","null","","","prac","","","","","","","","","","","","","","","","","","","",""
"815","173902","SARL_v6","SARL_v6dnjr3x75","63f77b9ca8439f6e1620c1cd","rlPractice","","","img/black_2bandit_a2.png","75","img/black_2bandit_a2.png","","prac","","","2","","","","","","","","","","","","","","","","",""
"null","174666","SARL_v6","SARL_v6dnjr3x75","63f77b9ca8439f6e1620c1cd","feedback","","","<div class=""veryhighPoints""> 30 </div>","null","","na","prac","","","3","30","2","30","","","","","","","","","","","","","",""
"null","174821","SARL_v6","SARL_v6dnjr3x75","63f77b9ca8439f6e1620c1cd","fixation","","","img/fixation.png","null","","","prac","","","","","","","","","","","","","","","","","","","",""
"453","175276","SARL_v6","SARL_v6dnjr3x75","63f77b9ca8439f6e1620c1cd","rlPractice","","","img/black_2bandit_a2.png","74","img/black_2bandit_a2.png","","prac","","","3","","","","","","","","","","","","","","","","",""
"null","176032","SARL_v6","SARL_v6dnjr3x75","63f77b9ca8439f6e1620c1cd","feedback","","","<div class=""veryhighPoints_sq""> 20 </div>","null","","na","prac","","","4","-2","20","-2","","","","","","","","","","","","","",""
"null","176197","SARL_v6","SARL_v6dnjr3x75","63f77b9ca8439f6e1620c1cd","fixation","","","img/fixation.png","null","","","prac","","","","","","","","","","","","","","","","","","","",""
"84369","260569","SARL_v6","SARL_v6dnjr3x75","63f77b9ca8439f6e1620c1cd","","","","","","","","prac","","","","","","","","","","","","","","","","","","","",""
"null","261379","SARL_v6","SARL_v6dnjr3x75","63f77b9ca8439f6e1620c1cd","mixAttFreqPrac","","","img/blue_2bandit_a2.png","null","img/blue_2bandit_a2.png","70","prac","","","1","","","","","","","","","","","","","","","","",""
"null","261538","SARL_v6","SARL_v6dnjr3x75","63f77b9ca8439f6e1620c1cd","fixation","","","img/fixation.png","null","","","prac","","","","","","","","","","","","","","","","","","","",""
"null","262350","SARL_v6","SARL_v6dnjr3x75","63f77b9ca8439f6e1620c1cd","mixAttInfreqPrac","","","img/orange_2bandit_a2.png","null","img/orange_2bandit_a2.png","68","prac","","","2","","","","","","","","","","","","","","","","",""
"null","262511","SARL_v6","SARL_v6dnjr3x75","63f77b9ca8439f6e1620c1cd","fixation","","","img/fixation.png","null","","","prac","","","","","","","","","","","","","","","","","","","",""
"null","263324","SARL_v6","SARL_v6dnjr3x75","63f77b9ca8439f6e1620c1cd","mixAttInfreqPrac","","","img/orange_2bandit_a2.png","null","img/orange_2bandit_a2.png","68","prac","","","3","","","","","","","","","","","","","","","","",""
"null","263491","SARL_v6","SARL_v6dnjr3x75","63f77b9ca8439f6e1620c1cd","fixation","","","img/fixation.png","null","","","prac","","","","","","","","","","","","","","","","","","","",""
"null","264300","SARL_v6","SARL_v6dnjr3x75","63f77b9ca8439f6e1620c1cd","mixAttInfreqPrac","","","img/orange_2bandit_a2.png","null","img/orange_2bandit_a2.png","68","prac","","","4","","","","","","","","","","","","","","","","",""
"null","264466","SARL_v6","SARL_v6dnjr3x75","63f77b9ca8439f6e1620c1cd","fixation","","","img/fixation.png","null","","","prac","","","","","","","","","","","","","","","","","","","",""
"695","265164","SARL_v6","SARL_v6dnjr3x75","63f77b9ca8439f6e1620c1cd","mixAttFreqPrac","","","img/blue_2bandit_a2.png","70","img/blue_2bandit_a2.png","70","prac","","","5","","","","","","","","","","","","","","","","",""
"695","265278","SARL_v6","SARL_v6dnjr3x75","63f77b9ca8439f6e1620c1cd","freqPrac_resp","","","img/blue_2bandit_a.png","70","img/blue_2bandit_a.png","70","prac","","","5","","","","","","","","","","","","","","","","",""
"null","265441","SARL_v6","SARL_v6dnjr3x75","63f77b9ca8439f6e1620c1cd","fixation","","","img/fixation.png","null","","","prac","","","","","","","","","","","","","","","","","","","",""
"null","266950","SARL_v6","SARL_v6dnjr3x75","63f77b9ca8439f6e1620c1cd","mixRLPractice","","","img/black_2bandit_a2.png","null","img/black_2bandit_a2.png","","prac","","","5","","","","","","","","","","","","","","","","",""
"null","267709","SARL_v6","SARL_v6dnjr3x75","63f77b9ca8439f6e1620c1cd","feedback","","","<div font size = 80> TOO SLOW  </div>","null","","na","prac","","","6","-14","10","-14","","","","","","","","","","","","","",""
"null","267867","SARL_v6","SARL_v6dnjr3x75","63f77b9ca8439f6e1620c1cd","fixation","","","img/fixation.png","null","","","prac","","","","","","","","","","","","","","","","","","","",""
"null","268677","SARL_v6","SARL_v6dnjr3x75","63f77b9ca8439f6e1620c1cd","mixAttFreqPrac","","","img/blue_2bandit_a2.png","null","img/blue_2bandit_a2.png","70","prac","","","7","","","","","","","","","","","","","","","","",""
"null","268833","SARL_v6","SARL_v6dnjr3x75","63f77b9ca8439f6e1620c1cd","fixation","","","img/fixation.png","null","","","prac","","","","","","","","","","","","","","","","","","","",""
"null","269646","SARL_v6","SARL_v6dnjr3x75","63f77b9ca8439f6e1620c1cd","mixAttInfreqPrac","","","img/orange_2bandit_a2.png","null","img/orange_2bandit_a2.png","68","prac","","","8","","","","","","","","","","","","","","","","",""
"null","269807","SARL_v6","SARL_v6dnjr3x75","63f77b9ca8439f6e1620c1cd","fixation","","","img/fixation.png","null","","","prac","","","","","","","","","","","","","","","","","","","",""
"670","270480","SARL_v6","SARL_v6dnjr3x75","63f77b9ca8439f6e1620c1cd","mixAttFreqPrac","","","img/blue_2bandit_a2.png","68","img/blue_2bandit_a2.png","70","prac","","","9","","","","","","","","","","","","","","","","",""
"670","270618","SARL_v6","SARL_v6dnjr3x75","63f77b9ca8439f6e1620c1cd","freqPrac_resp","","","img/blue_2bandit_a.png","68","img/blue_2bandit_a.png","70","prac","","","9","","","","","","","","","","","","","","","","",""
"null","270774","SARL_v6","SARL_v6dnjr3x75","63f77b9ca8439f6e1620c1cd","fixation","","","img/fixation.png","null","","","prac","","","","","","","","","","","","","","","","","","","",""
"651","271428","SARL_v6","SARL_v6dnjr3x75","63f77b9ca8439f6e1620c1cd","mixAttFreqPrac","","","img/blue_2bandit_a2.png","68","img/blue_2bandit_a2.png","70","prac","","","10","","","","","","","","","","","","","","","","",""
"651","271592","SARL_v6","SARL_v6dnjr3x75","63f77b9ca8439f6e1620c1cd","freqPrac_resp","","","img/blue_2bandit_a.png","68","img/blue_2bandit_a.png","70","prac","","","10","","","","","","","","","","","","","","","","",""
"null","271749","SARL_v6","SARL_v6dnjr3x75","63f77b9ca8439f6e1620c1cd","fixation","","","img/fixation.png","null","","","prac","","","","","","","","","","","","","","","","","","","",""
"null","272568","SARL_v6","SARL_v6dnjr3x75","63f77b9ca8439f6e1620c1cd","mixAttInfreqPrac","","","img/orange_2bandit_a2.png","null","img/orange_2bandit_a2.png","68","prac","","","11","","","","","","","","","","","","","","","","",""
"null","272730","SARL_v6","SARL_v6dnjr3x75","63f77b9ca8439f6e1620c1cd","fixation","","","img/fixation.png","null","","","prac","","","","","","","","","","","","","","","","","","","",""
"null","274238","SARL_v6","SARL_v6dnjr3x75","63f77b9ca8439f6e1620c1cd","mixRLPractice","","","img/black_2bandit_a2.png","null","img/black_2bandit_a2.png","","prac","","","11","","","","","","","","","","","","","","","","",""
"null","275006","SARL_v6","SARL_v6dnjr3x75","63f77b9ca8439f6e1620c1cd","feedback","","","<div font size = 80> TOO SLOW  </div>","null","","na","prac","","","12","5","-5","5","","","","","","","","","","","","","",""
"null","275164","SARL_v6","SARL_v6dnjr3x75","63f77b9ca8439f6e1620c1cd","fixation","","","img/fixation.png","null","","","prac","","","","","","","","","","","","","","","","","","","",""
"49555","324720","SARL_v6","SARL_v6dnjr3x75","63f77b9ca8439f6e1620c1cd","","","","","","","","prac","","","","","","","","","","","","","","","","","","","",""
"null","325528","SARL_v6","SARL_v6dnjr3x75","63f77b9ca8439f6e1620c1cd","freq","","","img/blue_2bandit_a2.png","null","","70","test","0","","1","","","","square","circle","1","1","1","0","","","","","","","",""
"null","325692","SARL_v6","SARL_v6dnjr3x75","63f77b9ca8439f6e1620c1cd","fixation","","","img/fixation.png","null","","","test","","","","","","","","","","","","","","","","","","","",""
"563","326258","SARL_v6","SARL_v6dnjr3x75","63f77b9ca8439f6e1620c1cd","freq","","","img/blue_2bandit_a2.png","70","","70","test","1","","2","","","","square","circle","2","2","1","0.5","","","","","","","",""
"null","326513","SARL_v6","SARL_v6dnjr3x75","63f77b9ca8439f6e1620c1cd","freq_resp","","","img/blue_2bandit_a.png","70","img/blue_2bandit_a.png","70","test","","","","","","","","","","","1","","","","","","","","",""
"null","326682","SARL_v6","SARL_v6dnjr3x75","63f77b9ca8439f6e1620c1cd","fixation","","","img/fixation.png","null","","","test","","","","","","","","","","","","","","","","","","","",""
"360","327045","SARL_v6","SARL_v6dnjr3x75","63f77b9ca8439f6e1620c1cd","freq","","","img/blue_2bandit_a2.png","70","","70","test","1","","3","","","","square","circle","3","3","1","0.6666666666666666","","","","","","","",""
"null","327492","SARL_v6","SARL_v6dnjr3x75","63f77b9ca8439f6e1620c1cd","freq_resp","","","img/blue_2bandit_a.png","70","img/blue_2bandit_a.png","70","test","","","","","","","","","","","1","","","","","","","","",""
"null","327653","SARL_v6","SARL_v6dnjr3x75","63f77b9ca8439f6e1620c1cd","fixation","","","img/fixation.png","null","","","test","","","","","","","","","","","","","","","","","","","",""
"323","327979","SARL_v6","SARL_v6dnjr3x75","63f77b9ca8439f6e1620c1cd","freq","","","img/blue_2bandit_a2.png","70","","70","test","1","","4","","","","square","circle","4","4","1","0.75","","","","","","","",""
"null","328463","SARL_v6","SARL_v6dnjr3x75","63f77b9ca8439f6e1620c1cd","freq_resp","","","img/blue_2bandit_a.png","70","img/blue_2bandit_a.png","70","test","","","","","","","","","","","1","","","","","","","","",""
"null","328623","SARL_v6","SARL_v6dnjr3x75","63f77b9ca8439f6e1620c1cd","fixation","","","img/fixation.png","null","","","test","","","","","","","","","","","","","","","","","","","",""
"325","328951","SARL_v6","SARL_v6dnjr3x75","63f77b9ca8439f6e1620c1cd","freq","","","img/blue_2bandit_a2.png","70","","70","test","1","","5","","","","square","circle","5","5","1","0.8","","","","","","","",""
"null","329433","SARL_v6","SARL_v6dnjr3x75","63f77b9ca8439f6e1620c1cd","freq_resp","","","img/blue_2bandit_a.png","70","img/blue_2bandit_a.png","70","test","","","","","","","","","","","1","","","","","","","","",""
"null","329590","SARL_v6","SARL_v6dnjr3x75","63f77b9ca8439f6e1620c1cd","fixation","","","img/fixation.png","null","","","test","","","","","","","","","","","","","","","","","","","",""
"317","329910","SARL_v6","SARL_v6dnjr3x75","63f77b9ca8439f6e1620c1cd","freq","","","img/blue_2bandit_a2.png","70","","70","test","1","","6","","","","square","circle","6","6","1","0.8333333333333334","","","","","","","",""
"null","330401","SARL_v6","SARL_v6dnjr3x75","63f77b9ca8439f6e1620c1cd","freq_resp","","","img/blue_2bandit_a.png","70","img/blue_2bandit_a.png","70","test","","","","","","","","","","","1","","","","","","","","",""
"null","330557","SARL_v6","SARL_v6dnjr3x75","63f77b9ca8439f6e1620c1cd","fixation","","","img/fixation.png","null","","","test","","","","","","","","","","","","","","","","","","","",""
"448","331008","SARL_v6","SARL_v6dnjr3x75","63f77b9ca8439f6e1620c1cd","freq","","","img/blue_2bandit_a2.png","70","","70","test","1","","7","","","","square","circle","7","7","1","0.8571428571428571","","","","","","","",""
"null","331367","SARL_v6","SARL_v6dnjr3x75","63f77b9ca8439f6e1620c1cd","freq_resp","","","img/blue_2bandit_a.png","70","img/blue_2bandit_a.png","70","test","","","","","","","","","","","1","","","","","","","","",""
"null","331521","SARL_v6","SARL_v6dnjr3x75","63f77b9ca8439f6e1620c1cd","fixation","","","img/fixation.png","null","","","test","","","","","","","","","","","","","","","","","","","",""
"356","331881","SARL_v6","SARL_v6dnjr3x75","63f77b9ca8439f6e1620c1cd","freq","","","img/blue_2bandit_a2.png","70","","70","test","1","","8","","","","square","circle","8","8","1","0.875","","","","","","","",""
"null","332329","SARL_v6","SARL_v6dnjr3x75","63f77b9ca8439f6e1620c1cd","freq_resp","","","img/blue_2bandit_a.png","70","img/blue_2bandit_a.png","70","test","","","","","","","","","","","1","","","","","","","","",""
"null","332497","SARL_v6","SARL_v6dnjr3x75","63f77b9ca8439f6e1620c1cd","fixation","","","img/fixation.png","null","","","test","","","","","","","","","","","","","","","","","","","",""
"254","332754","SARL_v6","SARL_v6dnjr3x75","63f77b9ca8439f6e1620c1cd","freq","","","img/blue_2bandit_a2.png","70","","70","test","1","","9","","","","square","circle","9","9","1","0.8888888888888888","","","","","","","",""
"null","333311","SARL_v6","SARL_v6dnjr3x75","63f77b9ca8439f6e1620c1cd","freq_resp","","","img/blue_2bandit_a.png","70","img/blue_2bandit_a.png","70","test","","","","","","","","","","","1","","","","","","","","",""
"null","333474","SARL_v6","SARL_v6dnjr3x75","63f77b9ca8439f6e1620c1cd","fixation","","","img/fixation.png","null","","","test","","","","","","","","","","","","","","","","","","","",""
"481","333958","SARL_v6","SARL_v6dnjr3x75","63f77b9ca8439f6e1620c1cd","infreq","","","img/orange_2bandit_a2.png","68","","68","test","1","","10","","","","square","circle","10","10","1","0.9","","","","","","","",""
"null","334282","SARL_v6","SARL_v6dnjr3x75","63f77b9ca8439f6e1620c1cd","infreq_resp","","","img/orange_2bandit_a.png","68","img/orange_2bandit_a.png","68","test","","","","","","","","","","","1","","","","","","","","",""
"null","334443","SARL_v6","SARL_v6dnjr3x75","63f77b9ca8439f6e1620c1cd","fixation","","","img/fixation.png","null","","","test","","","","","","","","","","","","","","","","","","","",""
"404","334851","SARL_v6","SARL_v6dnjr3x75","63f77b9ca8439f6e1620c1cd","freq","","","img/blue_2bandit_a2.png","70","","70","test","1","","11","","","","square","circle","11","11","1","0.9090909090909091","","","","","","","",""
"null","335250","SARL_v6","SARL_v6dnjr3x75","63f77b9ca8439f6e1620c1cd","freq_resp","","","img/blue_2bandit_a.png","70","img/blue_2bandit_a.png","70","test","","","","","","","","","","","1","","","","","","","","",""
"null","335406","SARL_v6","SARL_v6dnjr3x75","63f77b9ca8439f6e1620c1cd","fixation","","","img/fixation.png","null","","","test","","","","","","","","","","","","","","","","","","","",""
"365","335774","SARL_v6","SARL_v6dnjr3x75","63f77b9ca8439f6e1620c1cd","freq","","","img/blue_2bandit_a2.png","70","","70","test","1","","12","","","","square","circle","12","12","1","0.9166666666666666","","","","","","","",""
"null","336216","SARL_v6","SARL_v6dnjr3x75","63f77b9ca8439f6e1620c1cd","freq_resp","","","img/blue_2bandit_a.png","70","img/blue_2bandit_a.png","70","test","","","","","","","","","","","1","","","","","","","","",""
"null","336377","SARL_v6","SARL_v6dnjr3x75","63f77b9ca8439f6e1620c1cd","fixation","","","img/fixation.png","null","","","test","","","","","","","","","","","","","","","","","","","",""
"287","336666","SARL_v6","SARL_v6dnjr3x75","63f77b9ca8439f6e1620c1cd","freq","","","img/blue_2bandit_a2.png","70","","70","test","1","","13","","","","square","circle","13","13","1","0.9230769230769231","","","","","","","",""
"null","337196","SARL_v6","SARL_v6dnjr3x75","63f77b9ca8439f6e1620c1cd","freq_resp","","","img/blue_2bandit_a.png","70","img/blue_2bandit_a.png","70","test","","","","","","","","","","","1","","","","","","","","",""
"null","337363","SARL_v6","SARL_v6dnjr3x75","63f77b9ca8439f6e1620c1cd","fixation","","","img/fixation.png","null","","","test","","","","","","","","","","","","","","","","","","","",""
"533","337900","SARL_v6","SARL_v6dnjr3x75","63f77b9ca8439f6e1620c1cd","infreq","","","img/orange_2bandit_a2.png","68","","68","test","1","","14","","","","square","circle","14","14","1","0.9285714285714286","","","","","","","",""
"null","338182","SARL_v6","SARL_v6dnjr3x75","63f77b9ca8439f6e1620c1cd","infreq_resp","","","img/orange_2bandit_a.png","68","img/orange_2bandit_a.png","68","test","","","","","","","","","","","1","","","","","","","","",""
"null","338339","SARL_v6","SARL_v6dnjr3x75","63f77b9ca8439f6e1620c1cd","fixation","","","img/fixation.png","null","","","test","","","","","","","","","","","","","","","","","","","",""
"486","338828","SARL_v6","SARL_v6dnjr3x75","63f77b9ca8439f6e1620c1cd","freq","","","img/blue_2bandit_a2.png","70","","70","test","1","","15","","","","square","circle","15","15","1","0.9333333333333333","","","","","","","",""
"null","339153","SARL_v6","SARL_v6dnjr3x75","63f77b9ca8439f6e1620c1cd","freq_resp","","","img/blue_2bandit_a.png","70","img/blue_2bandit_a.png","70","test","","","","","","","","","","","1","","","","","","","","",""
"null","339314","SARL_v6","SARL_v6dnjr3x75","63f77b9ca8439f6e1620c1cd","fixation","","","img/fixation.png","null","","","test","","","","","","","","","","","","","","","","","","","",""
"415","339731","SARL_v6","SARL_v6dnjr3x75","63f77b9ca8439f6e1620c1cd","freq","","","img/blue_2bandit_a2.png","70","","70","test","1","","16","","","","square","circle","16","16","1","0.9375","","","","","","","",""
"null","340132","SARL_v6","SARL_v6dnjr3x75","63f77b9ca8439f6e1620c1cd","freq_resp","","","img/blue_2bandit_a.png","70","img/blue_2bandit_a.png","70","test","","","","","","","","","","","1","","","","","","","","",""
"null","340297","SARL_v6","SARL_v6dnjr3x75","63f77b9ca8439f6e1620c1cd","fixation","","","img/fixation.png","null","","","test","","","","","","","","","","","","","","","","","","","",""
"375","340679","SARL_v6","SARL_v6dnjr3x75","63f77b9ca8439f6e1620c1cd","freq","","","img/blue_2bandit_a2.png","70","","70","test","1","","17","","","","square","circle","17","17","1","0.9411764705882353","","","","","","","",""
"null","341108","SARL_v6","SARL_v6dnjr3x75","63f77b9ca8439f6e1620c1cd","freq_resp","","","img/blue_2bandit_a.png","70","img/blue_2bandit_a.png","70","test","","","","","","","","","","","1","","","","","","","","",""
"null","341264","SARL_v6","SARL_v6dnjr3x75","63f77b9ca8439f6e1620c1cd","fixation","","","img/fixation.png","null","","","test","","","","","","","","","","","","","","","","","","","",""
"306","341573","SARL_v6","SARL_v6dnjr3x75","63f77b9ca8439f6e1620c1cd","freq","","","img/blue_2bandit_a2.png","70","","70","test","1","","18","","","","square","circle","18","18","1","0.9444444444444444","","","","","","","",""
"null","342079","SARL_v6","SARL_v6dnjr3x75","63f77b9ca8439f6e1620c1cd","freq_resp","","","img/blue_2bandit_a.png","70","img/blue_2bandit_a.png","70","test","","","","","","","","","","","1","","","","","","","","",""
"null","342246","SARL_v6","SARL_v6dnjr3x75","63f77b9ca8439f6e1620c1cd","fixation","","","img/fixation.png","null","","","test","","","","","","","","","","","","","","","","","","","",""
"298","342546","SARL_v6","SARL_v6dnjr3x75","63f77b9ca8439f6e1620c1cd","freq","","","img/blue_2bandit_a2.png","70","","70","test","1","","19","","","","square","circle","19","19","1","0.9473684210526315","","","","","","","",""
"null","343058","SARL_v6","SARL_v6dnjr3x75","63f77b9ca8439f6e1620c1cd","freq_resp","","","img/blue_2bandit_a.png","70","img/blue_2bandit_a.png","70","test","","","","","","","","","","","1","","","","","","","","",""
"null","343214","SARL_v6","SARL_v6dnjr3x75","63f77b9ca8439f6e1620c1cd","fixation","","","img/fixation.png","null","","","test","","","","","","","","","","","","","","","","","","","",""
"291","343508","SARL_v6","SARL_v6dnjr3x75","63f77b9ca8439f6e1620c1cd","freq","","","img/blue_2bandit_a2.png","70","","70","test","1","","20","","","","square","circle","20","20","1","0.95","","","","","","","",""
"null","344024","SARL_v6","SARL_v6dnjr3x75","63f77b9ca8439f6e1620c1cd","freq_resp","","","img/blue_2bandit_a.png","70","img/blue_2bandit_a.png","70","test","","","","","","","","","","","1","","","","","","","","",""
"null","344177","SARL_v6","SARL_v6dnjr3x75","63f77b9ca8439f6e1620c1cd","fixation","","","img/fixation.png","null","","","test","","","","","","","","","","","","","","","","","","","",""
"191","344371","SARL_v6","SARL_v6dnjr3x75","63f77b9ca8439f6e1620c1cd","freq","","","img/blue_2bandit_a2.png","70","","70","test","1","","21","","","","square","circle","21","21","1","0.9523809523809523","","","","","","","",""
"null","344995","SARL_v6","SARL_v6dnjr3x75","63f77b9ca8439f6e1620c1cd","freq_resp","","","img/blue_2bandit_a.png","70","img/blue_2bandit_a.png","70","test","","","","","","","","","","","1","","","","","","","","",""
"null","345154","SARL_v6","SARL_v6dnjr3x75","63f77b9ca8439f6e1620c1cd","fixation","","","img/fixation.png","null","","","test","","","","","","","","","","","","","","","","","","","",""
"182","345339","SARL_v6","SARL_v6dnjr3x75","63f77b9ca8439f6e1620c1cd","freq","","","img/blue_2bandit_a2.png","70","","70","test","1","","22","","","","square","circle","22","22","1","0.9545454545454546","","","","","","","",""
"null","345967","SARL_v6","SARL_v6dnjr3x75","63f77b9ca8439f6e1620c1cd","freq_resp","","","img/blue_2bandit_a.png","70","img/blue_2bandit_a.png","70","test","","","","","","","","","","","1","","","","","","","","",""
"null","346121","SARL_v6","SARL_v6dnjr3x75","63f77b9ca8439f6e1620c1cd","fixation","","","img/fixation.png","null","","","test","","","","","","","","","","","","","","","","","","","",""
"null","347626","SARL_v6","SARL_v6dnjr3x75","63f77b9ca8439f6e1620c1cd","rl","","","img/black_2bandit_a2.png","null","","0","test","","","23","","","0","square","circle","","0","1","","null","-3","-3","-3","-3","too slow","1","0"
"null","348394","SARL_v6","SARL_v6dnjr3x75","63f77b9ca8439f6e1620c1cd","feedback","","","<div font size = 80> TOO SLOW  </div>","null","","na","test","","","NaN","","","","","","","","1","","null","","","","","","1",""
"724","349120","SARL_v6","SARL_v6dnjr3x75","63f77b9ca8439f6e1620c1cd","freq","","","img/blue_2bandit_a2.png","70","","70","test","1","","24","","","","square","circle","23","1","2","0.9565217391304348","","","","","","","",""
"null","349208","SARL_v6","SARL_v6dnjr3x75","63f77b9ca8439f6e1620c1cd","freq_resp","","","img/blue_2bandit_a.png","70","img/blue_2bandit_a.png","70","test","","","","","","","","","","","2","","","","","","","","",""
"null","349363","SARL_v6","SARL_v6dnjr3x75","63f77b9ca8439f6e1620c1cd","fixation","","","img/fixation.png","null","","","test","","","","","","","","","","","","","","","","","","","",""
"633","349999","SARL_v6","SARL_v6dnjr3x75","63f77b9ca8439f6e1620c1cd","freq","","","img/blue_2bandit_a2.png","70","","70","test","1","","25","","","","square","circle","24","2","2","0.9583333333333334","","","","","","","",""
"null","350177","SARL_v6","SARL_v6dnjr3x75","63f77b9ca8439f6e1620c1cd","freq_resp","","","img/blue_2bandit_a.png","70","img/blue_2bandit_a.png","70","test","","","","","","","","","","","2","","","","","","","","",""
"null","350337","SARL_v6","SARL_v6dnjr3x75","63f77b9ca8439f6e1620c1cd","fixation","","","img/fixation.png","null","","","test","","","","","","","","","","","","","","","","","","","",""
"462","350801","SARL_v6","SARL_v6dnjr3x75","63f77b9ca8439f6e1620c1cd","infreq","","","img/orange_2bandit_a2.png","68","","68","test","1","","26","","","","square","circle","25","3","2","0.96","","","","","","","",""
"null","351157","SARL_v6","SARL_v6dnjr3x75","63f77b9ca8439f6e1620c1cd","infreq_resp","","","img/orange_2bandit_a.png","68","img/orange_2bandit_a.png","68","test","","","","","","","","","","","2","","","","","","","","",""
"null","351323","SARL_v6","SARL_v6dnjr3x75","63f77b9ca8439f6e1620c1cd","fixation","","","img/fixation.png","null","","","test","","","","","","","","","","","","","","","","","","","",""
"399","351724","SARL_v6","SARL_v6dnjr3x75","63f77b9ca8439f6e1620c1cd","freq","","","img/blue_2bandit_a2.png","68","","70","test","0","","27","","","","square","circle","26","4","2","0.9230769230769231","","","","","","","",""
"null","352135","SARL_v6","SARL_v6dnjr3x75","63f77b9ca8439f6e1620c1cd","freq_resp","","","img/blue_2bandit_a.png","68","img/blue_2bandit_a.png","70","test","","","","","","","","","","","2","","","","","","","","",""
"null","352303","SARL_v6","SARL_v6dnjr3x75","63f77b9ca8439f6e1620c1cd","fixation","","","img/fixation.png","null","","","test","","","","","","","","","","","","","","","","","","","",""
"497","352802","SARL_v6","SARL_v6dnjr3x75","63f77b9ca8439f6e1620c1cd","freq","","","img/blue_2bandit_a2.png","70","","70","test","1","","28","","","","square","circle","27","5","2","0.9259259259259259","","","","","","","",""
"null","353113","SARL_v6","SARL_v6dnjr3x75","63f77b9ca8439f6e1620c1cd","freq_resp","","","img/blue_2bandit_a.png","70","img/blue_2bandit_a.png","70","test","","","","","","","","","","","2","","","","","","","","",""
"null","353282","SARL_v6","SARL_v6dnjr3x75","63f77b9ca8439f6e1620c1cd","fixation","","","img/fixation.png","null","","","test","","","","","","","","","","","","","","","","","","","",""
"280","353565","SARL_v6","SARL_v6dnjr3x75","63f77b9ca8439f6e1620c1cd","freq","","","img/blue_2bandit_a2.png","70","","70","test","1","","29","","","","square","circle","28","6","2","0.9285714285714286","","","","","","","",""
"null","354091","SARL_v6","SARL_v6dnjr3x75","63f77b9ca8439f6e1620c1cd","freq_resp","","","img/blue_2bandit_a.png","70","img/blue_2bandit_a.png","70","test","","","","","","","","","","","2","","","","","","","","",""
"null","354256","SARL_v6","SARL_v6dnjr3x75","63f77b9ca8439f6e1620c1cd","fixation","","","img/fixation.png","null","","","test","","","","","","","","","","","","","","","","","","","",""
"305","354563","SARL_v6","SARL_v6dnjr3x75","63f77b9ca8439f6e1620c1cd","freq","","","img/blue_2bandit_a2.png","70","","70","test","1","","30","","","","square","circle","29","7","2","0.9310344827586207","","","","","","","",""
"null","355066","SARL_v6","SARL_v6dnjr3x75","63f77b9ca8439f6e1620c1cd","freq_resp","","","img/blue_2bandit_a.png","70","img/blue_2bandit_a.png","70","test","","","","","","","","","","","2","","","","","","","","",""
"null","355227","SARL_v6","SARL_v6dnjr3x75","63f77b9ca8439f6e1620c1cd","fixation","","","img/fixation.png","null","","","test","","","","","","","","","","","","","","","","","","","",""
"448","355678","SARL_v6","SARL_v6dnjr3x75","63f77b9ca8439f6e1620c1cd","infreq","","","img/orange_2bandit_a2.png","68","","68","test","1","","31","","","","square","circle","30","8","2","0.9333333333333333","","","","","","","",""
"null","356042","SARL_v6","SARL_v6dnjr3x75","63f77b9ca8439f6e1620c1cd","infreq_resp","","","img/orange_2bandit_a.png","68","img/orange_2bandit_a.png","68","test","","","","","","","","","","","2","","","","","","","","",""
"null","356196","SARL_v6","SARL_v6dnjr3x75","63f77b9ca8439f6e1620c1cd","fixation","","","img/fixation.png","null","","","test","","","","","","","","","","","","","","","","","","","",""
"306","356504","SARL_v6","SARL_v6dnjr3x75","63f77b9ca8439f6e1620c1cd","freq","","","img/blue_2bandit_a2.png","70","","70","test","1","","32","","","","square","circle","31","9","2","0.9354838709677419","","","","","","","",""
"null","357007","SARL_v6","SARL_v6dnjr3x75","63f77b9ca8439f6e1620c1cd","freq_resp","","","img/blue_2bandit_a.png","70","img/blue_2bandit_a.png","70","test","","","","","","","","","","","2","","","","","","","","",""
"null","357161","SARL_v6","SARL_v6dnjr3x75","63f77b9ca8439f6e1620c1cd","fixation","","","img/fixation.png","null","","","test","","","","","","","","","","","","","","","","","","","",""
"263","357427","SARL_v6","SARL_v6dnjr3x75","63f77b9ca8439f6e1620c1cd","freq","","","img/blue_2bandit_a2.png","70","","70","test","1","","33","","","","square","circle","32","10","2","0.9375","","","","","","","",""
"null","357977","SARL_v6","SARL_v6dnjr3x75","63f77b9ca8439f6e1620c1cd","freq_resp","","","img/blue_2bandit_a.png","70","img/blue_2bandit_a.png","70","test","","","","","","","","","","","2","","","","","","","","",""
"null","358136","SARL_v6","SARL_v6dnjr3x75","63f77b9ca8439f6e1620c1cd","fixation","","","img/fixation.png","null","","","test","","","","","","","","","","","","","","","","","","","",""
"277","358416","SARL_v6","SARL_v6dnjr3x75","63f77b9ca8439f6e1620c1cd","freq","","","img/blue_2bandit_a2.png","70","","70","test","1","","34","","","","square","circle","33","11","2","0.9393939393939394","","","","","","","",""
"null","358951","SARL_v6","SARL_v6dnjr3x75","63f77b9ca8439f6e1620c1cd","freq_resp","","","img/blue_2bandit_a.png","70","img/blue_2bandit_a.png","70","test","","","","","","","","","","","2","","","","","","","","",""
"null","359118","SARL_v6","SARL_v6dnjr3x75","63f77b9ca8439f6e1620c1cd","fixation","","","img/fixation.png","null","","","test","","","","","","","","","","","","","","","","","","","",""
"282","359403","SARL_v6","SARL_v6dnjr3x75","63f77b9ca8439f6e1620c1cd","freq","","","img/blue_2bandit_a2.png","70","","70","test","1","","35","","","","square","circle","34","12","2","0.9411764705882353","","","","","","","",""
"null","359933","SARL_v6","SARL_v6dnjr3x75","63f77b9ca8439f6e1620c1cd","freq_resp","","","img/blue_2bandit_a.png","70","img/blue_2bandit_a.png","70","test","","","","","","","","","","","2","","","","","","","","",""
"null","360094","SARL_v6","SARL_v6dnjr3x75","63f77b9ca8439f6e1620c1cd","fixation","","","img/fixation.png","null","","","test","","","","","","","","","","","","","","","","","","","",""
"235","360332","SARL_v6","SARL_v6dnjr3x75","63f77b9ca8439f6e1620c1cd","freq","","","img/blue_2bandit_a2.png","70","","70","test","1","","36","","","","square","circle","35","13","2","0.9428571428571428","","","","","","","",""
"null","360911","SARL_v6","SARL_v6dnjr3x75","63f77b9ca8439f6e1620c1cd","freq_resp","","","img/blue_2bandit_a.png","70","img/blue_2bandit_a.png","70","test","","","","","","","","","","","2","","","","","","","","",""
"null","361077","SARL_v6","SARL_v6dnjr3x75","63f77b9ca8439f6e1620c1cd","fixation","","","img/fixation.png","null","","","test","","","","","","","","","","","","","","","","","","","",""
"260","361340","SARL_v6","SARL_v6dnjr3x75","63f77b9ca8439f6e1620c1cd","freq","","","img/blue_2bandit_a2.png","70","","70","test","1","","37","","","","square","circle","36","14","2","0.9444444444444444","","","","","","","",""
"null","361886","SARL_v6","SARL_v6dnjr3x75","63f77b9ca8439f6e1620c1cd","freq_resp","","","img/blue_2bandit_a.png","70","img/blue_2bandit_a.png","70","test","","","","","","","","","","","2","","","","","","","","",""
"null","362044","SARL_v6","SARL_v6dnjr3x75","63f77b9ca8439f6e1620c1cd","fixation","","","img/fixation.png","null","","","test","","","","","","","","","","","","","","","","","","","",""
"255","362302","SARL_v6","SARL_v6dnjr3x75","63f77b9ca8439f6e1620c1cd","freq","","","img/blue_2bandit_a2.png","70","","70","test","1","","38","","","","square","circle","37","15","2","0.9459459459459459","","","","","","","",""
"null","362865","SARL_v6","SARL_v6dnjr3x75","63f77b9ca8439f6e1620c1cd","freq_resp","","","img/blue_2bandit_a.png","70","img/blue_2bandit_a.png","70","test","","","","","","","","","","","2","","","","","","","","",""
"null","363026","SARL_v6","SARL_v6dnjr3x75","63f77b9ca8439f6e1620c1cd","fixation","","","img/fixation.png","null","","","test","","","","","","","","","","","","","","","","","","","",""
"237","363266","SARL_v6","SARL_v6dnjr3x75","63f77b9ca8439f6e1620c1cd","freq","","","img/blue_2bandit_a2.png","70","","70","test","1","","39","","","","square","circle","38","16","2","0.9473684210526315","","","","","","","",""
"null","363845","SARL_v6","SARL_v6dnjr3x75","63f77b9ca8439f6e1620c1cd","freq_resp","","","img/blue_2bandit_a.png","70","img/blue_2bandit_a.png","70","test","","","","","","","","","","","2","","","","","","","","",""
"null","364007","SARL_v6","SARL_v6dnjr3x75","63f77b9ca8439f6e1620c1cd","fixation","","","img/fixation.png","null","","","test","","","","","","","","","","","","","","","","","","","",""
"293","364302","SARL_v6","SARL_v6dnjr3x75","63f77b9ca8439f6e1620c1cd","freq","","","img/blue_2bandit_a2.png","70","","70","test","1","","40","","","","square","circle","39","17","2","0.9487179487179487","","","","","","","",""
"null","364820","SARL_v6","SARL_v6dnjr3x75","63f77b9ca8439f6e1620c1cd","freq_resp","","","img/blue_2bandit_a.png","70","img/blue_2bandit_a.png","70","test","","","","","","","","","","","2","","","","","","","","",""
"null","364981","SARL_v6","SARL_v6dnjr3x75","63f77b9ca8439f6e1620c1cd","fixation","","","img/fixation.png","null","","","test","","","","","","","","","","","","","","","","","","","",""
"343","365327","SARL_v6","SARL_v6dnjr3x75","63f77b9ca8439f6e1620c1cd","freq","","","img/blue_2bandit_a2.png","70","","70","test","1","","41","","","","square","circle","40","18","2","0.95","","","","","","","",""
"null","365790","SARL_v6","SARL_v6dnjr3x75","63f77b9ca8439f6e1620c1cd","freq_resp","","","img/blue_2bandit_a.png","70","img/blue_2bandit_a.png","70","test","","","","","","","","","","","2","","","","","","","","",""
"null","365946","SARL_v6","SARL_v6dnjr3x75","63f77b9ca8439f6e1620c1cd","fixation","","","img/fixation.png","null","","","test","","","","","","","","","","","","","","","","","","","",""
"317","366266","SARL_v6","SARL_v6dnjr3x75","63f77b9ca8439f6e1620c1cd","freq","","","img/blue_2bandit_a2.png","70","","70","test","1","","42","","","","square","circle","41","19","2","0.9512195121951219","","","","","","","",""
"null","366763","SARL_v6","SARL_v6dnjr3x75","63f77b9ca8439f6e1620c1cd","freq_resp","","","img/blue_2bandit_a.png","70","img/blue_2bandit_a.png","70","test","","","","","","","","","","","2","","","","","","","","",""
"null","366918","SARL_v6","SARL_v6dnjr3x75","63f77b9ca8439f6e1620c1cd","fixation","","","img/fixation.png","null","","","test","","","","","","","","","","","","","","","","","","","",""
"292","367214","SARL_v6","SARL_v6dnjr3x75","63f77b9ca8439f6e1620c1cd","freq","","","img/blue_2bandit_a2.png","70","","70","test","1","","43","","","","square","circle","42","20","2","0.9523809523809523","","","","","","","",""
"null","367730","SARL_v6","SARL_v6dnjr3x75","63f77b9ca8439f6e1620c1cd","freq_resp","","","img/blue_2bandit_a.png","70","img/blue_2bandit_a.png","70","test","","","","","","","","","","","2","","","","","","","","",""
"null","367885","SARL_v6","SARL_v6dnjr3x75","63f77b9ca8439f6e1620c1cd","fixation","","","img/fixation.png","null","","","test","","","","","","","","","","","","","","","","","","","",""
"269","368157","SARL_v6","SARL_v6dnjr3x75","63f77b9ca8439f6e1620c1cd","freq","","","img/blue_2bandit_a2.png","70","","70","test","1","","44","","","","square","circle","43","21","2","0.9534883720930233","","","","","","","",""
"null","368703","SARL_v6","SARL_v6dnjr3x75","63f77b9ca8439f6e1620c1cd","freq_resp","","","img/blue_2bandit_a.png","70","img/blue_2bandit_a.png","70","test","","","","","","","","","","","2","","","","","","","","",""
"null","368869","SARL_v6","SARL_v6dnjr3x75","63f77b9ca8439f6e1620c1cd","fixation","","","img/fixation.png","null","","","test","","","","","","","","","","","","","","","","","","","",""
"844","369717","SARL_v6","SARL_v6dnjr3x75","63f77b9ca8439f6e1620c1cd","rl","","","img/black_2bandit_a2.png","75","","0","test","","","45","","","-8","square","circle","","0","2","","75","-8","-5","-5","-8","circle","2","0"
"null","370477","SARL_v6","SARL_v6dnjr3x75","63f77b9ca8439f6e1620c1cd","feedback","","","<div class=""verylowPoints""> -8 </div>","null","","na","test","","","NaN","","","","","","","","2","","75","","","","","","2",""
"null","371288","SARL_v6","SARL_v6dnjr3x75","63f77b9ca8439f6e1620c1cd","freq","","","img/blue_2bandit_a2.png","null","","70","test","0","","46","","","","square","circle","44","1","3","0.9318181818181818","","","","","","","",""
"null","371443","SARL_v6","SARL_v6dnjr3x75","63f77b9ca8439f6e1620c1cd","fixation","","","img/fixation.png","null","","","test","","","","","","","","","","","","","","","","","","","",""
"null","372247","SARL_v6","SARL_v6dnjr3x75","63f77b9ca8439f6e1620c1cd","freq","","","img/blue_2bandit_a2.png","null","","70","test","0","","47","","","","square","circle","45","2","3","0.9111111111111111","","","","","","","",""
"null","372408","SARL_v6","SARL_v6dnjr3x75","63f77b9ca8439f6e1620c1cd","fixation","","","img/fixation.png","null","","","test","","","","","","","","","","","","","","","","","","","",""
"657","373067","SARL_v6","SARL_v6dnjr3x75","63f77b9ca8439f6e1620c1cd","freq","","","img/blue_2bandit_a2.png","70","","70","test","1","","48","","","","square","circle","46","3","3","0.9130434782608695","","","","","","","",""
"null","373223","SARL_v6","SARL_v6dnjr3x75","63f77b9ca8439f6e1620c1cd","freq_resp","","","img/blue_2bandit_a.png","70","img/blue_2bandit_a.png","70","test","","","","","","","","","","","3","","","","","","","","",""
"null","373377","SARL_v6","SARL_v6dnjr3x75","63f77b9ca8439f6e1620c1cd","fixation","","","img/fixation.png","null","","","test","","","","","","","","","","","","","","","","","","","",""
"384","373764","SARL_v6","SARL_v6dnjr3x75","63f77b9ca8439f6e1620c1cd","freq","","","img/blue_2bandit_a2.png","70","","70","test","1","","49","","","","square","circle","47","4","3","0.9148936170212766","","","","","","","",""
"null","374184","SARL_v6","SARL_v6dnjr3x75","63f77b9ca8439f6e1620c1cd","freq_resp","","","img/blue_2bandit_a.png","70","img/blue_2bandit_a.png","70","test","","","","","","","","","","","3","","","","","","","","",""
"null","374350","SARL_v6","SARL_v6dnjr3x75","63f77b9ca8439f6e1620c1cd","fixation","","","img/fixation.png","null","","","test","","","","","","","","","","","","","","","","","","","",""
"361","374713","SARL_v6","SARL_v6dnjr3x75","63f77b9ca8439f6e1620c1cd","freq","","","img/blue_2bandit_a2.png","70","","70","test","1","","50","","","","square","circle","48","5","3","0.9166666666666666","","","","","","","",""
"null","375164","SARL_v6","SARL_v6dnjr3x75","63f77b9ca8439f6e1620c1cd","freq_resp","","","img/blue_2bandit_a.png","70","img/blue_2bandit_a.png","70","test","","","","","","","","","","","3","","","","","","","","",""
"null","375326","SARL_v6","SARL_v6dnjr3x75","63f77b9ca8439f6e1620c1cd","fixation","","","img/fixation.png","null","","","test","","","","","","","","","","","","","","","","","","","",""
"306","375635","SARL_v6","SARL_v6dnjr3x75","63f77b9ca8439f6e1620c1cd","freq","","","img/blue_2bandit_a2.png","70","","70","test","1","","51","","","","square","circle","49","6","3","0.9183673469387755","","","","","","","",""
"null","376133","SARL_v6","SARL_v6dnjr3x75","63f77b9ca8439f6e1620c1cd","freq_resp","","","img/blue_2bandit_a.png","70","img/blue_2bandit_a.png","70","test","","","","","","","","","","","3","","","","","","","","",""
"null","376294","SARL_v6","SARL_v6dnjr3x75","63f77b9ca8439f6e1620c1cd","fixation","","","img/fixation.png","null","","","test","","","","","","","","","","","","","","","","","","","",""
"316","376614","SARL_v6","SARL_v6dnjr3x75","63f77b9ca8439f6e1620c1cd","freq","","","img/blue_2bandit_a2.png","70","","70","test","1","","52","","","","square","circle","50","7","3","0.92","","","","","","","",""
"null","377111","SARL_v6","SARL_v6dnjr3x75","63f77b9ca8439f6e1620c1cd","freq_resp","","","img/blue_2bandit_a.png","70","img/blue_2bandit_a.png","70","test","","","","","","","","","","","3","","","","","","","","",""
"null","377268","SARL_v6","SARL_v6dnjr3x75","63f77b9ca8439f6e1620c1cd","fixation","","","img/fixation.png","null","","","test","","","","","","","","","","","","","","","","","","","",""
"325","377596","SARL_v6","SARL_v6dnjr3x75","63f77b9ca8439f6e1620c1cd","freq","","","img/blue_2bandit_a2.png","70","","70","test","1","","53","","","","square","circle","51","8","3","0.9215686274509803","","","","","","","",""
"null","378087","SARL_v6","SARL_v6dnjr3x75","63f77b9ca8439f6e1620c1cd","freq_resp","","","img/blue_2bandit_a.png","70","img/blue_2bandit_a.png","70","test","","","","","","","","","","","3","","","","","","","","",""
"null","378252","SARL_v6","SARL_v6dnjr3x75","63f77b9ca8439f6e1620c1cd","fixation","","","img/fixation.png","null","","","test","","","","","","","","","","","","","","","","","","","",""
"300","378555","SARL_v6","SARL_v6dnjr3x75","63f77b9ca8439f6e1620c1cd","freq","","","img/blue_2bandit_a2.png","70","","70","test","1","","54","","","","square","circle","52","9","3","0.9230769230769231","","","","","","","",""
"null","379064","SARL_v6","SARL_v6dnjr3x75","63f77b9ca8439f6e1620c1cd","freq_resp","","","img/blue_2bandit_a.png","70","img/blue_2bandit_a.png","70","test","","","","","","","","","","","3","","","","","","","","",""
"null","379221","SARL_v6","SARL_v6dnjr3x75","63f77b9ca8439f6e1620c1cd","fixation","","","img/fixation.png","null","","","test","","","","","","","","","","","","","","","","","","","",""
"274","379498","SARL_v6","SARL_v6dnjr3x75","63f77b9ca8439f6e1620c1cd","freq","","","img/blue_2bandit_a2.png","70","","70","test","1","","55","","","","square","circle","53","10","3","0.9245283018867925","","","","","","","",""
"null","380042","SARL_v6","SARL_v6dnjr3x75","63f77b9ca8439f6e1620c1cd","freq_resp","","","img/blue_2bandit_a.png","70","img/blue_2bandit_a.png","70","test","","","","","","","","","","","3","","","","","","","","",""
"null","380208","SARL_v6","SARL_v6dnjr3x75","63f77b9ca8439f6e1620c1cd","fixation","","","img/fixation.png","null","","","test","","","","","","","","","","","","","","","","","","","",""
"285","380496","SARL_v6","SARL_v6dnjr3x75","63f77b9ca8439f6e1620c1cd","freq","","","img/blue_2bandit_a2.png","70","","70","test","1","","56","","","","square","circle","54","11","3","0.9259259259259259","","","","","","","",""
"null","381026","SARL_v6","SARL_v6dnjr3x75","63f77b9ca8439f6e1620c1cd","freq_resp","","","img/blue_2bandit_a.png","70","img/blue_2bandit_a.png","70","test","","","","","","","","","","","3","","","","","","","","",""
"null","381193","SARL_v6","SARL_v6dnjr3x75","63f77b9ca8439f6e1620c1cd","fixation","","","img/fixation.png","null","","","test","","","","","","","","","","","","","","","","","","","",""
"298","381494","SARL_v6","SARL_v6dnjr3x75","63f77b9ca8439f6e1620c1cd","freq","","","img/blue_2bandit_a2.png","70","","70","test","1","","57","","","","square","circle","55","12","3","0.9272727272727272","","","","","","","",""
"null","382009","SARL_v6","SARL_v6dnjr3x75","63f77b9ca8439f6e1620c1cd","freq_resp","","","img/blue_2bandit_a.png","70","img/blue_2bandit_a.png","70","test","","","","","","","","","","","3","","","","","","","","",""
"null","382175","SARL_v6","SARL_v6dnjr3x75","63f77b9ca8439f6e1620c1cd","fixation","","","img/fixation.png","null","","","test","","","","","","","","","","","","","","","","","","","",""
"285","382462","SARL_v6","SARL_v6dnjr3x75","63f77b9ca8439f6e1620c1cd","freq","","","img/blue_2bandit_a2.png","70","","70","test","1","","58","","","","square","circle","56","13","3","0.9285714285714286","","","","","","","",""
"null","382982","SARL_v6","SARL_v6dnjr3x75","63f77b9ca8439f6e1620c1cd","freq_resp","","","img/blue_2bandit_a.png","70","img/blue_2bandit_a.png","70","test","","","","","","","","","","","3","","","","","","","","",""
"null","383146","SARL_v6","SARL_v6dnjr3x75","63f77b9ca8439f6e1620c1cd","fixation","","","img/fixation.png","null","","","test","","","","","","","","","","","","","","","","","","","",""
"397","383546","SARL_v6","SARL_v6dnjr3x75","63f77b9ca8439f6e1620c1cd","infreq","","","img/orange_2bandit_a2.png","68","","68","test","1","","59","","","","square","circle","57","14","3","0.9298245614035088","","","","","","","",""
"null","383953","SARL_v6","SARL_v6dnjr3x75","63f77b9ca8439f6e1620c1cd","infreq_resp","","","img/orange_2bandit_a.png","68","img/orange_2bandit_a.png","68","test","","","","","","","","","","","3","","","","","","","","",""
"null","384122","SARL_v6","SARL_v6dnjr3x75","63f77b9ca8439f6e1620c1cd","fixation","","","img/fixation.png","null","","","test","","","","","","","","","","","","","","","","","","","",""
"353","384479","SARL_v6","SARL_v6dnjr3x75","63f77b9ca8439f6e1620c1cd","freq","","","img/blue_2bandit_a2.png","70","","70","test","1","","60","","","","square","circle","58","15","3","0.9310344827586207","","","","","","","",""
"null","384942","SARL_v6","SARL_v6dnjr3x75","63f77b9ca8439f6e1620c1cd","freq_resp","","","img/blue_2bandit_a.png","70","img/blue_2bandit_a.png","70","test","","","","","","","","","","","3","","","","","","","","",""
"null","385095","SARL_v6","SARL_v6dnjr3x75","63f77b9ca8439f6e1620c1cd","fixation","","","img/fixation.png","null","","","test","","","","","","","","","","","","","","","","","","","",""
"455","385553","SARL_v6","SARL_v6dnjr3x75","63f77b9ca8439f6e1620c1cd","freq","","","img/blue_2bandit_a2.png","70","","70","test","1","","61","","","","square","circle","59","16","3","0.9322033898305084","","","","","","","",""
"null","385914","SARL_v6","SARL_v6dnjr3x75","63f77b9ca8439f6e1620c1cd","freq_resp","","","img/blue_2bandit_a.png","70","img/blue_2bandit_a.png","70","test","","","","","","","","","","","3","","","","","","","","",""
"null","386074","SARL_v6","SARL_v6dnjr3x75","63f77b9ca8439f6e1620c1cd","fixation","","","img/fixation.png","null","","","test","","","","","","","","","","","","","","","","","","","",""
"313","386390","SARL_v6","SARL_v6dnjr3x75","63f77b9ca8439f6e1620c1cd","freq","","","img/blue_2bandit_a2.png","70","","70","test","1","","62","","","","square","circle","60","17","3","0.9333333333333333","","","","","","","",""
"null","386887","SARL_v6","SARL_v6dnjr3x75","63f77b9ca8439f6e1620c1cd","freq_resp","","","img/blue_2bandit_a.png","70","img/blue_2bandit_a.png","70","test","","","","","","","","","","","3","","","","","","","","",""
"null","387043","SARL_v6","SARL_v6dnjr3x75","63f77b9ca8439f6e1620c1cd","fixation","","","img/fixation.png","null","","","test","","","","","","","","","","","","","","","","","","","",""
"283","387328","SARL_v6","SARL_v6dnjr3x75","63f77b9ca8439f6e1620c1cd","freq","","","img/blue_2bandit_a2.png","70","","70","test","1","","63","","","","square","circle","61","18","3","0.9344262295081968","","","","","","","",""
"null","387850","SARL_v6","SARL_v6dnjr3x75","63f77b9ca8439f6e1620c1cd","freq_resp","","","img/blue_2bandit_a.png","70","img/blue_2bandit_a.png","70","test","","","","","","","","","","","3","","","","","","","","",""
"null","388009","SARL_v6","SARL_v6dnjr3x75","63f77b9ca8439f6e1620c1cd","fixation","","","img/fixation.png","null","","","test","","","","","","","","","","","","","","","","","","","",""
"290","388302","SARL_v6","SARL_v6dnjr3x75","63f77b9ca8439f6e1620c1cd","freq","","","img/blue_2bandit_a2.png","70","","70","test","1","","64","","","","square","circle","62","19","3","0.9354838709677419","","","","","","","",""
"null","388820","SARL_v6","SARL_v6dnjr3x75","63f77b9ca8439f6e1620c1cd","freq_resp","","","img/blue_2bandit_a.png","70","img/blue_2bandit_a.png","70","test","","","","","","","","","","","3","","","","","","","","",""
"null","388987","SARL_v6","SARL_v6dnjr3x75","63f77b9ca8439f6e1620c1cd","fixation","","","img/fixation.png","null","","","test","","","","","","","","","","","","","","","","","","","",""
"265","389254","SARL_v6","SARL_v6dnjr3x75","63f77b9ca8439f6e1620c1cd","freq","","","img/blue_2bandit_a2.png","70","","70","test","1","","65","","","","square","circle","63","20","3","0.9365079365079365","","","","","","","",""
"null","389803","SARL_v6","SARL_v6dnjr3x75","63f77b9ca8439f6e1620c1cd","freq_resp","","","img/blue_2bandit_a.png","70","img/blue_2bandit_a.png","70","test","","","","","","","","","","","3","","","","","","","","",""
"null","389958","SARL_v6","SARL_v6dnjr3x75","63f77b9ca8439f6e1620c1cd","fixation","","","img/fixation.png","null","","","test","","","","","","","","","","","","","","","","","","","",""
"662","390624","SARL_v6","SARL_v6dnjr3x75","63f77b9ca8439f6e1620c1cd","infreq","","","img/orange_2bandit_a2.png","68","","68","test","1","","66","","","","square","circle","64","21","3","0.9375","","","","","","","",""
"null","390767","SARL_v6","SARL_v6dnjr3x75","63f77b9ca8439f6e1620c1cd","infreq_resp","","","img/orange_2bandit_a.png","68","img/orange_2bandit_a.png","68","test","","","","","","","","","","","3","","","","","","","","",""
"null","390933","SARL_v6","SARL_v6dnjr3x75","63f77b9ca8439f6e1620c1cd","fixation","","","img/fixation.png","null","","","test","","","","","","","","","","","","","","","","","","","",""
"460","391397","SARL_v6","SARL_v6dnjr3x75","63f77b9ca8439f6e1620c1cd","freq","","","img/blue_2bandit_a2.png","70","","70","test","1","","67","","","","square","circle","65","22","3","0.9384615384615385","","","","","","","",""
"null","391746","SARL_v6","SARL_v6dnjr3x75","63f77b9ca8439f6e1620c1cd","freq_resp","","","img/blue_2bandit_a.png","70","img/blue_2bandit_a.png","70","test","","","","","","","","","","","3","","","","","","","","",""
"null","391907","SARL_v6","SARL_v6dnjr3x75","63f77b9ca8439f6e1620c1cd","fixation","","","img/fixation.png","null","","","test","","","","","","","","","","","","","","","","","","","",""
"1006","392916","SARL_v6","SARL_v6dnjr3x75","63f77b9ca8439f6e1620c1cd","rl","","","img/black_2bandit_a2.png","75","","0","test","","","68","","","-8","square","circle","","0","3","","75","-8","-4","-4","-8","circle","3","0"
"null","393677","SARL_v6","SARL_v6dnjr3x75","63f77b9ca8439f6e1620c1cd","feedback","","","<div class=""verylowPoints""> -8 </div>","null","","na","test","","","NaN","","","","","","","","3","","75","","","","","","3",""
"null","394489","SARL_v6","SARL_v6dnjr3x75","63f77b9ca8439f6e1620c1cd","freq","","","img/blue_2bandit_a2.png","null","","70","test","0","","69","","","","square","circle","66","1","4","0.9242424242424242","","","","","","","",""
"null","394648","SARL_v6","SARL_v6dnjr3x75","63f77b9ca8439f6e1620c1cd","fixation","","","img/fixation.png","null","","","test","","","","","","","","","","","","","","","","","","","",""
"null","395467","SARL_v6","SARL_v6dnjr3x75","63f77b9ca8439f6e1620c1cd","freq","","","img/blue_2bandit_a2.png","null","","70","test","0","","70","","","","square","circle","67","2","4","0.9104477611940298","","","","","","","",""
"null","395621","SARL_v6","SARL_v6dnjr3x75","63f77b9ca8439f6e1620c1cd","fixation","","","img/fixation.png","null","","","test","","","","","","","","","","","","","","","","","","","",""
"137","395759","SARL_v6","SARL_v6dnjr3x75","63f77b9ca8439f6e1620c1cd","freq","","","img/blue_2bandit_a2.png","70","","70","test","1","","71","","","","square","circle","68","3","4","0.9117647058823529","","","","","","","",""
"null","396426","SARL_v6","SARL_v6dnjr3x75","63f77b9ca8439f6e1620c1cd","freq_resp","","","img/blue_2bandit_a.png","70","img/blue_2bandit_a.png","70","test","","","","","","","","","","","4","","","","","","","","",""
"null","396587","SARL_v6","SARL_v6dnjr3x75","63f77b9ca8439f6e1620c1cd","fixation","","","img/fixation.png","null","","","test","","","","","","","","","","","","","","","","","","","",""
"293","396883","SARL_v6","SARL_v6dnjr3x75","63f77b9ca8439f6e1620c1cd","freq","","","img/blue_2bandit_a2.png","70","","70","test","1","","72","","","","square","circle","69","4","4","0.9130434782608695","","","","","","","",""
"null","397409","SARL_v6","SARL_v6dnjr3x75","63f77b9ca8439f6e1620c1cd","freq_resp","","","img/blue_2bandit_a.png","70","img/blue_2bandit_a.png","70","test","","","","","","","","","","","4","","","","","","","","",""
"null","397567","SARL_v6","SARL_v6dnjr3x75","63f77b9ca8439f6e1620c1cd","fixation","","","img/fixation.png","null","","","test","","","","","","","","","","","","","","","","","","","",""
"327","397897","SARL_v6","SARL_v6dnjr3x75","63f77b9ca8439f6e1620c1cd","freq","","","img/blue_2bandit_a2.png","70","","70","test","1","","73","","","","square","circle","70","5","4","0.9142857142857143","","","","","","","",""
"null","398379","SARL_v6","SARL_v6dnjr3x75","63f77b9ca8439f6e1620c1cd","freq_resp","","","img/blue_2bandit_a.png","70","img/blue_2bandit_a.png","70","test","","","","","","","","","","","4","","","","","","","","",""
"null","398543","SARL_v6","SARL_v6dnjr3x75","63f77b9ca8439f6e1620c1cd","fixation","","","img/fixation.png","null","","","test","","","","","","","","","","","","","","","","","","","",""
"450","398995","SARL_v6","SARL_v6dnjr3x75","63f77b9ca8439f6e1620c1cd","freq","","","img/blue_2bandit_a2.png","70","","70","test","1","","74","","","","square","circle","71","6","4","0.9154929577464789","","","","","","","",""
"null","399350","SARL_v6","SARL_v6dnjr3x75","63f77b9ca8439f6e1620c1cd","freq_resp","","","img/blue_2bandit_a.png","70","img/blue_2bandit_a.png","70","test","","","","","","","","","","","4","","","","","","","","",""
"null","399508","SARL_v6","SARL_v6dnjr3x75","63f77b9ca8439f6e1620c1cd","fixation","","","img/fixation.png","null","","","test","","","","","","","","","","","","","","","","","","","",""
"368","399880","SARL_v6","SARL_v6dnjr3x75","63f77b9ca8439f6e1620c1cd","freq","","","img/blue_2bandit_a2.png","70","","70","test","1","","75","","","","square","circle","72","7","4","0.9166666666666666","","","","","","","",""
"null","400320","SARL_v6","SARL_v6dnjr3x75","63f77b9ca8439f6e1620c1cd","freq_resp","","","img/blue_2bandit_a.png","70","img/blue_2bandit_a.png","70","test","","","","","","","","","","","4","","","","","","","","",""
"null","400482","SARL_v6","SARL_v6dnjr3x75","63f77b9ca8439f6e1620c1cd","fixation","","","img/fixation.png","null","","","test","","","","","","","","","","","","","","","","","","","",""
"427","400911","SARL_v6","SARL_v6dnjr3x75","63f77b9ca8439f6e1620c1cd","freq","","","img/blue_2bandit_a2.png","70","","70","test","1","","76","","","","square","circle","73","8","4","0.9178082191780822","","","","","","","",""
"null","401293","SARL_v6","SARL_v6dnjr3x75","63f77b9ca8439f6e1620c1cd","freq_resp","","","img/blue_2bandit_a.png","70","img/blue_2bandit_a.png","70","test","","","","","","","","","","","4","","","","","","","","",""
"null","401455","SARL_v6","SARL_v6dnjr3x75","63f77b9ca8439f6e1620c1cd","fixation","","","img/fixation.png","null","","","test","","","","","","","","","","","","","","","","","","","",""
"null","402260","SARL_v6","SARL_v6dnjr3x75","63f77b9ca8439f6e1620c1cd","freq","","","img/blue_2bandit_a2.png","null","","70","test","0","","77","","","","square","circle","74","9","4","0.9054054054054054","","","","","","","",""
"null","402414","SARL_v6","SARL_v6dnjr3x75","63f77b9ca8439f6e1620c1cd","fixation","","","img/fixation.png","null","","","test","","","","","","","","","","","","","","","","","","","",""
"661","403078","SARL_v6","SARL_v6dnjr3x75","63f77b9ca8439f6e1620c1cd","freq","","","img/blue_2bandit_a2.png","70","","70","test","1","","78","","","","square","circle","75","10","4","0.9066666666666666","","","","","","","",""
"null","403224","SARL_v6","SARL_v6dnjr3x75","63f77b9ca8439f6e1620c1cd","freq_resp","","","img/blue_2bandit_a.png","70","img/blue_2bandit_a.png","70","test","","","","","","","","","","","4","","","","","","","","",""
"null","403389","SARL_v6","SARL_v6dnjr3x75","63f77b9ca8439f6e1620c1cd","fixation","","","img/fixation.png","null","","","test","","","","","","","","","","","","","","","","","","","",""
"359","403751","SARL_v6","SARL_v6dnjr3x75","63f77b9ca8439f6e1620c1cd","freq","","","img/blue_2bandit_a2.png","70","","70","test","1","","79","","","","square","circle","76","11","4","0.9078947368421053","","","","","","","",""
"null","404195","SARL_v6","SARL_v6dnjr3x75","63f77b9ca8439f6e1620c1cd","freq_resp","","","img/blue_2bandit_a.png","70","img/blue_2bandit_a.png","70","test","","","","","","","","","","","4","","","","","","","","",""
"null","404348","SARL_v6","SARL_v6dnjr3x75","63f77b9ca8439f6e1620c1cd","fixation","","","img/fixation.png","null","","","test","","","","","","","","","","","","","","","","","","","",""
"332","404683","SARL_v6","SARL_v6dnjr3x75","63f77b9ca8439f6e1620c1cd","freq","","","img/blue_2bandit_a2.png","70","","70","test","1","","80","","","","square","circle","77","12","4","0.9090909090909091","","","","","","","",""
"null","405157","SARL_v6","SARL_v6dnjr3x75","63f77b9ca8439f6e1620c1cd","freq_resp","","","img/blue_2bandit_a.png","70","img/blue_2bandit_a.png","70","test","","","","","","","","","","","4","","","","","","","","",""
"null","405323","SARL_v6","SARL_v6dnjr3x75","63f77b9ca8439f6e1620c1cd","fixation","","","img/fixation.png","null","","","test","","","","","","","","","","","","","","","","","","","",""
"279","405605","SARL_v6","SARL_v6dnjr3x75","63f77b9ca8439f6e1620c1cd","freq","","","img/blue_2bandit_a2.png","70","","70","test","1","","81","","","","square","circle","78","13","4","0.9102564102564102","","","","","","","",""
"null","406137","SARL_v6","SARL_v6dnjr3x75","63f77b9ca8439f6e1620c1cd","freq_resp","","","img/blue_2bandit_a.png","70","img/blue_2bandit_a.png","70","test","","","","","","","","","","","4","","","","","","","","",""
"null","406303","SARL_v6","SARL_v6dnjr3x75","63f77b9ca8439f6e1620c1cd","fixation","","","img/fixation.png","null","","","test","","","","","","","","","","","","","","","","","","","",""
"274","406580","SARL_v6","SARL_v6dnjr3x75","63f77b9ca8439f6e1620c1cd","freq","","","img/blue_2bandit_a2.png","70","","70","test","1","","82","","","","square","circle","79","14","4","0.9113924050632911","","","","","","","",""
"null","407111","SARL_v6","SARL_v6dnjr3x75","63f77b9ca8439f6e1620c1cd","freq_resp","","","img/blue_2bandit_a.png","70","img/blue_2bandit_a.png","70","test","","","","","","","","","","","4","","","","","","","","",""
"null","407273","SARL_v6","SARL_v6dnjr3x75","63f77b9ca8439f6e1620c1cd","fixation","","","img/fixation.png","null","","","test","","","","","","","","","","","","","","","","","","","",""
"308","407582","SARL_v6","SARL_v6dnjr3x75","63f77b9ca8439f6e1620c1cd","freq","","","img/blue_2bandit_a2.png","70","","70","test","1","","83","","","","square","circle","80","15","4","0.9125","","","","","","","",""
"null","408084","SARL_v6","SARL_v6dnjr3x75","63f77b9ca8439f6e1620c1cd","freq_resp","","","img/blue_2bandit_a.png","70","img/blue_2bandit_a.png","70","test","","","","","","","","","","","4","","","","","","","","",""
"null","408252","SARL_v6","SARL_v6dnjr3x75","63f77b9ca8439f6e1620c1cd","fixation","","","img/fixation.png","null","","","test","","","","","","","","","","","","","","","","","","","",""
"316","408571","SARL_v6","SARL_v6dnjr3x75","63f77b9ca8439f6e1620c1cd","freq","","","img/blue_2bandit_a2.png","70","","70","test","1","","84","","","","square","circle","81","16","4","0.9135802469135802","","","","","","","",""
"null","409062","SARL_v6","SARL_v6dnjr3x75","63f77b9ca8439f6e1620c1cd","freq_resp","","","img/blue_2bandit_a.png","70","img/blue_2bandit_a.png","70","test","","","","","","","","","","","4","","","","","","","","",""
"null","409221","SARL_v6","SARL_v6dnjr3x75","63f77b9ca8439f6e1620c1cd","fixation","","","img/fixation.png","null","","","test","","","","","","","","","","","","","","","","","","","",""
"299","409522","SARL_v6","SARL_v6dnjr3x75","63f77b9ca8439f6e1620c1cd","freq","","","img/blue_2bandit_a2.png","70","","70","test","1","","85","","","","square","circle","82","17","4","0.9146341463414634","","","","","","","",""
"null","410034","SARL_v6","SARL_v6dnjr3x75","63f77b9ca8439f6e1620c1cd","freq_resp","","","img/blue_2bandit_a.png","70","img/blue_2bandit_a.png","70","test","","","","","","","","","","","4","","","","","","","","",""
"null","410201","SARL_v6","SARL_v6dnjr3x75","63f77b9ca8439f6e1620c1cd","fixation","","","img/fixation.png","null","","","test","","","","","","","","","","","","","","","","","","","",""
"369","410572","SARL_v6","SARL_v6dnjr3x75","63f77b9ca8439f6e1620c1cd","freq","","","img/blue_2bandit_a2.png","70","","70","test","1","","86","","","","square","circle","83","18","4","0.9156626506024096","","","","","","","",""
"null","411019","SARL_v6","SARL_v6dnjr3x75","63f77b9ca8439f6e1620c1cd","freq_resp","","","img/blue_2bandit_a.png","70","img/blue_2bandit_a.png","70","test","","","","","","","","","","","4","","","","","","","","",""
"null","411182","SARL_v6","SARL_v6dnjr3x75","63f77b9ca8439f6e1620c1cd","fixation","","","img/fixation.png","null","","","test","","","","","","","","","","","","","","","","","","","",""
"390","411575","SARL_v6","SARL_v6dnjr3x75","63f77b9ca8439f6e1620c1cd","freq","","","img/blue_2bandit_a2.png","70","","70","test","1","","87","","","","square","circle","84","19","4","0.9166666666666666","","","","","","","",""
"null","411989","SARL_v6","SARL_v6dnjr3x75","63f77b9ca8439f6e1620c1cd","freq_resp","","","img/blue_2bandit_a.png","70","img/blue_2bandit_a.png","70","test","","","","","","","","","","","4","","","","","","","","",""
"null","412146","SARL_v6","SARL_v6dnjr3x75","63f77b9ca8439f6e1620c1cd","fixation","","","img/fixation.png","null","","","test","","","","","","","","","","","","","","","","","","","",""
"335","412483","SARL_v6","SARL_v6dnjr3x75","63f77b9ca8439f6e1620c1cd","freq","","","img/blue_2bandit_a2.png","70","","70","test","1","","88","","","","square","circle","85","20","4","0.9176470588235294","","","","","","","",""
"null","412952","SARL_v6","SARL_v6dnjr3x75","63f77b9ca8439f6e1620c1cd","freq_resp","","","img/blue_2bandit_a.png","70","img/blue_2bandit_a.png","70","test","","","","","","","","","","","4","","","","","","","","",""
"null","413114","SARL_v6","SARL_v6dnjr3x75","63f77b9ca8439f6e1620c1cd","fixation","","","img/fixation.png","null","","","test","","","","","","","","","","","","","","","","","","","",""
"449","413566","SARL_v6","SARL_v6dnjr3x75","63f77b9ca8439f6e1620c1cd","infreq","","","img/orange_2bandit_a2.png","68","","68","test","1","","89","","","","square","circle","86","21","4","0.9186046511627907","","","","","","","",""
"null","413927","SARL_v6","SARL_v6dnjr3x75","63f77b9ca8439f6e1620c1cd","infreq_resp","","","img/orange_2bandit_a.png","68","img/orange_2bandit_a.png","68","test","","","","","","","","","","","4","","","","","","","","",""
"null","414083","SARL_v6","SARL_v6dnjr3x75","63f77b9ca8439f6e1620c1cd","fixation","","","img/fixation.png","null","","","test","","","","","","","","","","","","","","","","","","","",""
"419","414504","SARL_v6","SARL_v6dnjr3x75","63f77b9ca8439f6e1620c1cd","freq","","","img/blue_2bandit_a2.png","70","","70","test","1","","90","","","","square","circle","87","22","4","0.9195402298850575","","","","","","","",""
"null","414900","SARL_v6","SARL_v6dnjr3x75","63f77b9ca8439f6e1620c1cd","freq_resp","","","img/blue_2bandit_a.png","70","img/blue_2bandit_a.png","70","test","","","","","","","","","","","4","","","","","","","","",""
"null","415055","SARL_v6","SARL_v6dnjr3x75","63f77b9ca8439f6e1620c1cd","fixation","","","img/fixation.png","null","","","test","","","","","","","","","","","","","","","","","","","",""
"781","415840","SARL_v6","SARL_v6dnjr3x75","63f77b9ca8439f6e1620c1cd","infreq","","","img/orange_2bandit_a2.png","68","","68","test","1","","91","","","","square","circle","88","23","4","0.9204545454545454","","","","","","","",""
"null","415865","SARL_v6","SARL_v6dnjr3x75","63f77b9ca8439f6e1620c1cd","infreq_resp","","","img/orange_2bandit_a.png","68","img/orange_2bandit_a.png","68","test","","","","","","","","","","","4","","","","","","","","",""
"null","416021","SARL_v6","SARL_v6dnjr3x75","63f77b9ca8439f6e1620c1cd","fixation","","","img/fixation.png","null","","","test","","","","","","","","","","","","","","","","","","","",""
"472","416496","SARL_v6","SARL_v6dnjr3x75","63f77b9ca8439f6e1620c1cd","freq","","","img/blue_2bandit_a2.png","70","","70","test","1","","92","","","","square","circle","89","24","4","0.9213483146067416","","","","","","","",""
"null","416835","SARL_v6","SARL_v6dnjr3x75","63f77b9ca8439f6e1620c1cd","freq_resp","","","img/blue_2bandit_a.png","70","img/blue_2bandit_a.png","70","test","","","","","","","","","","","4","","","","","","","","",""
"null","416989","SARL_v6","SARL_v6dnjr3x75","63f77b9ca8439f6e1620c1cd","fixation","","","img/fixation.png","null","","","test","","","","","","","","","","","","","","","","","","","",""
"361","417353","SARL_v6","SARL_v6dnjr3x75","63f77b9ca8439f6e1620c1cd","freq","","","img/blue_2bandit_a2.png","70","","70","test","1","","93","","","","square","circle","90","25","4","0.9222222222222223","","","","","","","",""
"null","417809","SARL_v6","SARL_v6dnjr3x75","63f77b9ca8439f6e1620c1cd","freq_resp","","","img/blue_2bandit_a.png","70","img/blue_2bandit_a.png","70","test","","","","","","","","","","","4","","","","","","","","",""
"null","417963","SARL_v6","SARL_v6dnjr3x75","63f77b9ca8439f6e1620c1cd","fixation","","","img/fixation.png","null","","","test","","","","","","","","","","","","","","","","","","","",""
"563","418528","SARL_v6","SARL_v6dnjr3x75","63f77b9ca8439f6e1620c1cd","rl","","","img/black_2bandit_a2.png","74","","0","test","","","94","","","0","square","circle","","0","4","","74","-12","0","0","-12","square","4","0"
"null","419287","SARL_v6","SARL_v6dnjr3x75","63f77b9ca8439f6e1620c1cd","feedback","","","<div class=""verylowPoints_sq""> 0 </div>","null","","na","test","","","NaN","","","","","","","","4","","74","","","","","","4",""
"646","419937","SARL_v6","SARL_v6dnjr3x75","63f77b9ca8439f6e1620c1cd","freq","","","img/blue_2bandit_a2.png","70","","70","test","1","","95","","","","square","circle","91","1","5","0.9230769230769231","","","","","","","",""
"null","420096","SARL_v6","SARL_v6dnjr3x75","63f77b9ca8439f6e1620c1cd","freq_resp","","","img/blue_2bandit_a.png","70","img/blue_2bandit_a.png","70","test","","","","","","","","","","","5","","","","","","","","",""
"null","420256","SARL_v6","SARL_v6dnjr3x75","63f77b9ca8439f6e1620c1cd","fixation","","","img/fixation.png","null","","","test","","","","","","","","","","","","","","","","","","","",""
"712","420970","SARL_v6","SARL_v6dnjr3x75","63f77b9ca8439f6e1620c1cd","freq","","","img/blue_2bandit_a2.png","70","","70","test","1","","96","","","","square","circle","92","2","5","0.9239130434782609","","","","","","","",""
"null","421070","SARL_v6","SARL_v6dnjr3x75","63f77b9ca8439f6e1620c1cd","freq_resp","","","img/blue_2bandit_a.png","70","img/blue_2bandit_a.png","70","test","","","","","","","","","","","5","","","","","","","","",""
"null","421234","SARL_v6","SARL_v6dnjr3x75","63f77b9ca8439f6e1620c1cd","fixation","","","img/fixation.png","null","","","test","","","","","","","","","","","","","","","","","","","",""
"486","421723","SARL_v6","SARL_v6dnjr3x75","63f77b9ca8439f6e1620c1cd","freq","","","img/blue_2bandit_a2.png","70","","70","test","1","","97","","","","square","circle","93","3","5","0.9247311827956989","","","","","","","",""
"null","422052","SARL_v6","SARL_v6dnjr3x75","63f77b9ca8439f6e1620c1cd","freq_resp","","","img/blue_2bandit_a.png","70","img/blue_2bandit_a.png","70","test","","","","","","","","","","","5","","","","","","","","",""
"null","422220","SARL_v6","SARL_v6dnjr3x75","63f77b9ca8439f6e1620c1cd","fixation","","","img/fixation.png","null","","","test","","","","","","","","","","","","","","","","","","","",""
"453","422676","SARL_v6","SARL_v6dnjr3x75","63f77b9ca8439f6e1620c1cd","freq","","","img/blue_2bandit_a2.png","70","","70","test","1","","98","","","","square","circle","94","4","5","0.925531914893617","","","","","","","",""
"null","423036","SARL_v6","SARL_v6dnjr3x75","63f77b9ca8439f6e1620c1cd","freq_resp","","","img/blue_2bandit_a.png","70","img/blue_2bandit_a.png","70","test","","","","","","","","","","","5","","","","","","","","",""
"null","423199","SARL_v6","SARL_v6dnjr3x75","63f77b9ca8439f6e1620c1cd","fixation","","","img/fixation.png","null","","","test","","","","","","","","","","","","","","","","","","","",""
"366","423569","SARL_v6","SARL_v6dnjr3x75","63f77b9ca8439f6e1620c1cd","freq","","","img/blue_2bandit_a2.png","70","","70","test","1","","99","","","","square","circle","95","5","5","0.9263157894736842","","","","","","","",""
"null","424012","SARL_v6","SARL_v6dnjr3x75","63f77b9ca8439f6e1620c1cd","freq_resp","","","img/blue_2bandit_a.png","70","img/blue_2bandit_a.png","70","test","","","","","","","","","","","5","","","","","","","","",""
"null","424170","SARL_v6","SARL_v6dnjr3x75","63f77b9ca8439f6e1620c1cd","fixation","","","img/fixation.png","null","","","test","","","","","","","","","","","","","","","","","","","",""
"310","424482","SARL_v6","SARL_v6dnjr3x75","63f77b9ca8439f6e1620c1cd","freq","","","img/blue_2bandit_a2.png","70","","70","test","1","","100","","","","square","circle","96","6","5","0.9270833333333334","","","","","","","",""
"null","424979","SARL_v6","SARL_v6dnjr3x75","63f77b9ca8439f6e1620c1cd","freq_resp","","","img/blue_2bandit_a.png","70","img/blue_2bandit_a.png","70","test","","","","","","","","","","","5","","","","","","","","",""
"null","425140","SARL_v6","SARL_v6dnjr3x75","63f77b9ca8439f6e1620c1cd","fixation","","","img/fixation.png","null","","","test","","","","","","","","","","","","","","","","","","","",""
"291","425435","SARL_v6","SARL_v6dnjr3x75","63f77b9ca8439f6e1620c1cd","freq","","","img/blue_2bandit_a2.png","70","","70","test","1","","101","","","","square","circle","97","7","5","0.9278350515463918","","","","","","","",""
"null","425948","SARL_v6","SARL_v6dnjr3x75","63f77b9ca8439f6e1620c1cd","freq_resp","","","img/blue_2bandit_a.png","70","img/blue_2bandit_a.png","70","test","","","","","","","","","","","5","","","","","","","","",""
"null","426100","SARL_v6","SARL_v6dnjr3x75","63f77b9ca8439f6e1620c1cd","fixation","","","img/fixation.png","null","","","test","","","","","","","","","","","","","","","","","","","",""
"299","426402","SARL_v6","SARL_v6dnjr3x75","63f77b9ca8439f6e1620c1cd","freq","","","img/blue_2bandit_a2.png","70","","70","test","1","","102","","","","square","circle","98","8","5","0.9285714285714286","","","","","","","",""
"null","426906","SARL_v6","SARL_v6dnjr3x75","63f77b9ca8439f6e1620c1cd","freq_resp","","","img/blue_2bandit_a.png","70","img/blue_2bandit_a.png","70","test","","","","","","","","","","","5","","","","","","","","",""
"null","427072","SARL_v6","SARL_v6dnjr3x75","63f77b9ca8439f6e1620c1cd","fixation","","","img/fixation.png","null","","","test","","","","","","","","","","","","","","","","","","","",""
"330","427406","SARL_v6","SARL_v6dnjr3x75","63f77b9ca8439f6e1620c1cd","freq","","","img/blue_2bandit_a2.png","70","","70","test","1","","103","","","","square","circle","99","9","5","0.9292929292929293","","","","","","","",""
"null","427891","SARL_v6","SARL_v6dnjr3x75","63f77b9ca8439f6e1620c1cd","freq_resp","","","img/blue_2bandit_a.png","70","img/blue_2bandit_a.png","70","test","","","","","","","","","","","5","","","","","","","","",""
"null","428059","SARL_v6","SARL_v6dnjr3x75","63f77b9ca8439f6e1620c1cd","fixation","","","img/fixation.png","null","","","test","","","","","","","","","","","","","","","","","","","",""
"302","428364","SARL_v6","SARL_v6dnjr3x75","63f77b9ca8439f6e1620c1cd","freq","","","img/blue_2bandit_a2.png","70","","70","test","1","","104","","","","square","circle","100","10","5","0.93","","","","","","","",""
"null","428872","SARL_v6","SARL_v6dnjr3x75","63f77b9ca8439f6e1620c1cd","freq_resp","","","img/blue_2bandit_a.png","70","img/blue_2bandit_a.png","70","test","","","","","","","","","","","5","","","","","","","","",""
"null","429037","SARL_v6","SARL_v6dnjr3x75","63f77b9ca8439f6e1620c1cd","fixation","","","img/fixation.png","null","","","test","","","","","","","","","","","","","","","","","","","",""
"435","429474","SARL_v6","SARL_v6dnjr3x75","63f77b9ca8439f6e1620c1cd","freq","","","img/blue_2bandit_a2.png","70","","70","test","1","","105","","","","square","circle","101","11","5","0.9306930693069307","","","","","","","",""
"null","429854","SARL_v6","SARL_v6dnjr3x75","63f77b9ca8439f6e1620c1cd","freq_resp","","","img/blue_2bandit_a.png","70","img/blue_2bandit_a.png","70","test","","","","","","","","","","","5","","","","","","","","",""
"null","430011","SARL_v6","SARL_v6dnjr3x75","63f77b9ca8439f6e1620c1cd","fixation","","","img/fixation.png","null","","","test","","","","","","","","","","","","","","","","","","","",""
"332","430346","SARL_v6","SARL_v6dnjr3x75","63f77b9ca8439f6e1620c1cd","freq","","","img/blue_2bandit_a2.png","70","","70","test","1","","106","","","","square","circle","102","12","5","0.9313725490196079","","","","","","","",""
"null","430825","SARL_v6","SARL_v6dnjr3x75","63f77b9ca8439f6e1620c1cd","freq_resp","","","img/blue_2bandit_a.png","70","img/blue_2bandit_a.png","70","test","","","","","","","","","","","5","","","","","","","","",""
"null","430978","SARL_v6","SARL_v6dnjr3x75","63f77b9ca8439f6e1620c1cd","fixation","","","img/fixation.png","null","","","test","","","","","","","","","","","","","","","","","","","",""
"287","431268","SARL_v6","SARL_v6dnjr3x75","63f77b9ca8439f6e1620c1cd","freq","","","img/blue_2bandit_a2.png","70","","70","test","1","","107","","","","square","circle","103","13","5","0.9320388349514563","","","","","","","",""
"null","431790","SARL_v6","SARL_v6dnjr3x75","63f77b9ca8439f6e1620c1cd","freq_resp","","","img/blue_2bandit_a.png","70","img/blue_2bandit_a.png","70","test","","","","","","","","","","","5","","","","","","","","",""
"null","431947","SARL_v6","SARL_v6dnjr3x75","63f77b9ca8439f6e1620c1cd","fixation","","","img/fixation.png","null","","","test","","","","","","","","","","","","","","","","","","","",""
"306","432256","SARL_v6","SARL_v6dnjr3x75","63f77b9ca8439f6e1620c1cd","freq","","","img/blue_2bandit_a2.png","70","","70","test","1","","108","","","","square","circle","104","14","5","0.9326923076923077","","","","","","","",""
"null","432760","SARL_v6","SARL_v6dnjr3x75","63f77b9ca8439f6e1620c1cd","freq_resp","","","img/blue_2bandit_a.png","70","img/blue_2bandit_a.png","70","test","","","","","","","","","","","5","","","","","","","","",""
"null","432913","SARL_v6","SARL_v6dnjr3x75","63f77b9ca8439f6e1620c1cd","fixation","","","img/fixation.png","null","","","test","","","","","","","","","","","","","","","","","","","",""
"248","433164","SARL_v6","SARL_v6dnjr3x75","63f77b9ca8439f6e1620c1cd","freq","","","img/blue_2bandit_a2.png","70","","70","test","1","","109","","","","square","circle","105","15","5","0.9333333333333333","","","","","","","",""
"null","433730","SARL_v6","SARL_v6dnjr3x75","63f77b9ca8439f6e1620c1cd","freq_resp","","","img/blue_2bandit_a.png","70","img/blue_2bandit_a.png","70","test","","","","","","","","","","","5","","","","","","","","",""
"null","433894","SARL_v6","SARL_v6dnjr3x75","63f77b9ca8439f6e1620c1cd","fixation","","","img/fixation.png","null","","","test","","","","","","","","","","","","","","","","","","","",""
"271","434168","SARL_v6","SARL_v6dnjr3x75","63f77b9ca8439f6e1620c1cd","freq","","","img/blue_2bandit_a2.png","70","","70","test","1","","110","","","","square","circle","106","16","5","0.9339622641509434","","","","","","","",""
"null","434702","SARL_v6","SARL_v6dnjr3x75","63f77b9ca8439f6e1620c1cd","freq_resp","","","img/blue_2bandit_a.png","70","img/blue_2bandit_a.png","70","test","","","","","","","","","","","5","","","","","","","","",""
"null","434855","SARL_v6","SARL_v6dnjr3x75","63f77b9ca8439f6e1620c1cd","fixation","","","img/fixation.png","null","","","test","","","","","","","","","","","","","","","","","","","",""
"261","435121","SARL_v6","SARL_v6dnjr3x75","63f77b9ca8439f6e1620c1cd","freq","","","img/blue_2bandit_a2.png","70","","70","test","1","","111","","","","square","circle","107","17","5","0.9345794392523364","","","","","","","",""
"null","435668","SARL_v6","SARL_v6dnjr3x75","63f77b9ca8439f6e1620c1cd","freq_resp","","","img/blue_2bandit_a.png","70","img/blue_2bandit_a.png","70","test","","","","","","","","","","","5","","","","","","","","",""
"null","435835","SARL_v6","SARL_v6dnjr3x75","63f77b9ca8439f6e1620c1cd","fixation","","","img/fixation.png","null","","","test","","","","","","","","","","","","","","","","","","","",""
"335","436172","SARL_v6","SARL_v6dnjr3x75","63f77b9ca8439f6e1620c1cd","freq","","","img/blue_2bandit_a2.png","70","","70","test","1","","112","","","","square","circle","108","18","5","0.9351851851851852","","","","","","","",""
"null","436641","SARL_v6","SARL_v6dnjr3x75","63f77b9ca8439f6e1620c1cd","freq_resp","","","img/blue_2bandit_a.png","70","img/blue_2bandit_a.png","70","test","","","","","","","","","","","5","","","","","","","","",""
"null","436795","SARL_v6","SARL_v6dnjr3x75","63f77b9ca8439f6e1620c1cd","fixation","","","img/fixation.png","null","","","test","","","","","","","","","","","","","","","","","","","",""
"320","437117","SARL_v6","SARL_v6dnjr3x75","63f77b9ca8439f6e1620c1cd","freq","","","img/blue_2bandit_a2.png","70","","70","test","1","","113","","","","square","circle","109","19","5","0.9357798165137615","","","","","","","",""
"null","437601","SARL_v6","SARL_v6dnjr3x75","63f77b9ca8439f6e1620c1cd","freq_resp","","","img/blue_2bandit_a.png","70","img/blue_2bandit_a.png","70","test","","","","","","","","","","","5","","","","","","","","",""
"null","437762","SARL_v6","SARL_v6dnjr3x75","63f77b9ca8439f6e1620c1cd","fixation","","","img/fixation.png","null","","","test","","","","","","","","","","","","","","","","","","","",""
"259","438025","SARL_v6","SARL_v6dnjr3x75","63f77b9ca8439f6e1620c1cd","freq","","","img/blue_2bandit_a2.png","70","","70","test","1","","114","","","","square","circle","110","20","5","0.9363636363636364","","","","","","","",""
"null","438577","SARL_v6","SARL_v6dnjr3x75","63f77b9ca8439f6e1620c1cd","freq_resp","","","img/blue_2bandit_a.png","70","img/blue_2bandit_a.png","70","test","","","","","","","","","","","5","","","","","","","","",""
"null","438733","SARL_v6","SARL_v6dnjr3x75","63f77b9ca8439f6e1620c1cd","fixation","","","img/fixation.png","null","","","test","","","","","","","","","","","","","","","","","","","",""
"462","439199","SARL_v6","SARL_v6dnjr3x75","63f77b9ca8439f6e1620c1cd","infreq","","","img/orange_2bandit_a2.png","68","","68","test","1","","115","","","","square","circle","111","21","5","0.9369369369369369","","","","","","","",""
"null","439550","SARL_v6","SARL_v6dnjr3x75","63f77b9ca8439f6e1620c1cd","infreq_resp","","","img/orange_2bandit_a.png","68","img/orange_2bandit_a.png","68","test","","","","","","","","","","","5","","","","","","","","",""
"null","439716","SARL_v6","SARL_v6dnjr3x75","63f77b9ca8439f6e1620c1cd","fixation","","","img/fixation.png","null","","","test","","","","","","","","","","","","","","","","","","","",""
"411","440132","SARL_v6","SARL_v6dnjr3x75","63f77b9ca8439f6e1620c1cd","infreq","","","img/orange_2bandit_a2.png","68","","68","test","1","","116","","","","square","circle","112","22","5","0.9375","","","","","","","",""
"null","440533","SARL_v6","SARL_v6dnjr3x75","63f77b9ca8439f6e1620c1cd","infreq_resp","","","img/orange_2bandit_a.png","68","img/orange_2bandit_a.png","68","test","","","","","","","","","","","5","","","","","","","","",""
"null","440700","SARL_v6","SARL_v6dnjr3x75","63f77b9ca8439f6e1620c1cd","fixation","","","img/fixation.png","null","","","test","","","","","","","","","","","","","","","","","","","",""
"372","441075","SARL_v6","SARL_v6dnjr3x75","63f77b9ca8439f6e1620c1cd","freq","","","img/blue_2bandit_a2.png","70","","70","test","1","","117","","","","square","circle","113","23","5","0.9380530973451328","","","","","","","",""
"null","441512","SARL_v6","SARL_v6dnjr3x75","63f77b9ca8439f6e1620c1cd","freq_resp","","","img/blue_2bandit_a.png","70","img/blue_2bandit_a.png","70","test","","","","","","","","","","","5","","","","","","","","",""
"null","441666","SARL_v6","SARL_v6dnjr3x75","63f77b9ca8439f6e1620c1cd","fixation","","","img/fixation.png","null","","","test","","","","","","","","","","","","","","","","","","","",""
"353","442023","SARL_v6","SARL_v6dnjr3x75","63f77b9ca8439f6e1620c1cd","freq","","","img/blue_2bandit_a2.png","68","","70","test","0","","118","","","","square","circle","114","24","5","0.9298245614035088","","","","","","","",""
"null","442482","SARL_v6","SARL_v6dnjr3x75","63f77b9ca8439f6e1620c1cd","freq_resp","","","img/blue_2bandit_a.png","68","img/blue_2bandit_a.png","70","test","","","","","","","","","","","5","","","","","","","","",""
"null","442643","SARL_v6","SARL_v6dnjr3x75","63f77b9ca8439f6e1620c1cd","fixation","","","img/fixation.png","null","","","test","","","","","","","","","","","","","","","","","","","",""
"605","443251","SARL_v6","SARL_v6dnjr3x75","63f77b9ca8439f6e1620c1cd","rl","","","img/black_2bandit_a2.png","75","","0","test","","","119","","","-7","square","circle","","0","5","","75","-7","4","4","-7","circle","5","0"
"null","444016","SARL_v6","SARL_v6dnjr3x75","63f77b9ca8439f6e1620c1cd","feedback","","","<div class=""verylowPoints""> -7 </div>","null","","na","test","","","NaN","","","","","","","","5","","75","","","","","","5",""
"null","444823","SARL_v6","SARL_v6dnjr3x75","63f77b9ca8439f6e1620c1cd","freq","","","img/blue_2bandit_a2.png","null","","70","test","0","","120","","","","square","circle","115","1","6","0.9217391304347826","","","","","","","",""
"null","444977","SARL_v6","SARL_v6dnjr3x75","63f77b9ca8439f6e1620c1cd","fixation","","","img/fixation.png","null","","","test","","","","","","","","","","","","","","","","","","","",""
"618","445599","SARL_v6","SARL_v6dnjr3x75","63f77b9ca8439f6e1620c1cd","freq","","","img/blue_2bandit_a2.png","70","","70","test","1","","121","","","","square","circle","116","2","6","0.9224137931034483","","","","","","","",""
"null","445785","SARL_v6","SARL_v6dnjr3x75","63f77b9ca8439f6e1620c1cd","freq_resp","","","img/blue_2bandit_a.png","70","img/blue_2bandit_a.png","70","test","","","","","","","","","","","6","","","","","","","","",""
"null","445943","SARL_v6","SARL_v6dnjr3x75","63f77b9ca8439f6e1620c1cd","fixation","","","img/fixation.png","null","","","test","","","","","","","","","","","","","","","","","","","",""
"727","446672","SARL_v6","SARL_v6dnjr3x75","63f77b9ca8439f6e1620c1cd","freq","","","img/blue_2bandit_a2.png","70","","70","test","1","","122","","","","square","circle","117","3","6","0.9230769230769231","","","","","","","",""
"null","446763","SARL_v6","SARL_v6dnjr3x75","63f77b9ca8439f6e1620c1cd","freq_resp","","","img/blue_2bandit_a.png","70","img/blue_2bandit_a.png","70","test","","","","","","","","","","","6","","","","","","","","",""
"null","446927","SARL_v6","SARL_v6dnjr3x75","63f77b9ca8439f6e1620c1cd","fixation","","","img/fixation.png","null","","","test","","","","","","","","","","","","","","","","","","","",""
"715","447645","SARL_v6","SARL_v6dnjr3x75","63f77b9ca8439f6e1620c1cd","infreq","","","img/orange_2bandit_a2.png","68","","68","test","1","","123","","","","square","circle","118","4","6","0.923728813559322","","","","","","","",""
"null","447749","SARL_v6","SARL_v6dnjr3x75","63f77b9ca8439f6e1620c1cd","infreq_resp","","","img/orange_2bandit_a.png","68","img/orange_2bandit_a.png","68","test","","","","","","","","","","","6","","","","","","","","",""
"null","447914","SARL_v6","SARL_v6dnjr3x75","63f77b9ca8439f6e1620c1cd","fixation","","","img/fixation.png","null","","","test","","","","","","","","","","","","","","","","","","","",""
"506","448423","SARL_v6","SARL_v6dnjr3x75","63f77b9ca8439f6e1620c1cd","freq","","","img/blue_2bandit_a2.png","70","","70","test","1","","124","","","","square","circle","119","5","6","0.9243697478991597","","","","","","","",""
"null","448725","SARL_v6","SARL_v6dnjr3x75","63f77b9ca8439f6e1620c1cd","freq_resp","","","img/blue_2bandit_a.png","70","img/blue_2bandit_a.png","70","test","","","","","","","","","","","6","","","","","","","","",""
"null","448885","SARL_v6","SARL_v6dnjr3x75","63f77b9ca8439f6e1620c1cd","fixation","","","img/fixation.png","null","","","test","","","","","","","","","","","","","","","","","","","",""
"392","449281","SARL_v6","SARL_v6dnjr3x75","63f77b9ca8439f6e1620c1cd","freq","","","img/blue_2bandit_a2.png","70","","70","test","1","","125","","","","square","circle","120","6","6","0.925","","","","","","","",""
"null","449703","SARL_v6","SARL_v6dnjr3x75","63f77b9ca8439f6e1620c1cd","freq_resp","","","img/blue_2bandit_a.png","70","img/blue_2bandit_a.png","70","test","","","","","","","","","","","6","","","","","","","","",""
"null","449867","SARL_v6","SARL_v6dnjr3x75","63f77b9ca8439f6e1620c1cd","fixation","","","img/fixation.png","null","","","test","","","","","","","","","","","","","","","","","","","",""
"319","450188","SARL_v6","SARL_v6dnjr3x75","63f77b9ca8439f6e1620c1cd","freq","","","img/blue_2bandit_a2.png","70","","70","test","1","","126","","","","square","circle","121","7","6","0.9256198347107438","","","","","","","",""
"null","450676","SARL_v6","SARL_v6dnjr3x75","63f77b9ca8439f6e1620c1cd","freq_resp","","","img/blue_2bandit_a.png","70","img/blue_2bandit_a.png","70","test","","","","","","","","","","","6","","","","","","","","",""
"null","450839","SARL_v6","SARL_v6dnjr3x75","63f77b9ca8439f6e1620c1cd","fixation","","","img/fixation.png","null","","","test","","","","","","","","","","","","","","","","","","","",""
"295","451137","SARL_v6","SARL_v6dnjr3x75","63f77b9ca8439f6e1620c1cd","freq","","","img/blue_2bandit_a2.png","70","","70","test","1","","127","","","","square","circle","122","8","6","0.9262295081967213","","","","","","","",""
"null","451656","SARL_v6","SARL_v6dnjr3x75","63f77b9ca8439f6e1620c1cd","freq_resp","","","img/blue_2bandit_a.png","70","img/blue_2bandit_a.png","70","test","","","","","","","","","","","6","","","","","","","","",""
"null","451813","SARL_v6","SARL_v6dnjr3x75","63f77b9ca8439f6e1620c1cd","fixation","","","img/fixation.png","null","","","test","","","","","","","","","","","","","","","","","","","",""
"475","452292","SARL_v6","SARL_v6dnjr3x75","63f77b9ca8439f6e1620c1cd","infreq","","","img/orange_2bandit_a2.png","68","","68","test","1","","128","","","","square","circle","123","9","6","0.926829268292683","","","","","","","",""
"null","452624","SARL_v6","SARL_v6dnjr3x75","63f77b9ca8439f6e1620c1cd","infreq_resp","","","img/orange_2bandit_a.png","68","img/orange_2bandit_a.png","68","test","","","","","","","","","","","6","","","","","","","","",""
"null","452790","SARL_v6","SARL_v6dnjr3x75","63f77b9ca8439f6e1620c1cd","fixation","","","img/fixation.png","null","","","test","","","","","","","","","","","","","","","","","","","",""
"291","453083","SARL_v6","SARL_v6dnjr3x75","63f77b9ca8439f6e1620c1cd","freq","","","img/blue_2bandit_a2.png","70","","70","test","1","","129","","","","square","circle","124","10","6","0.9274193548387096","","","","","","","",""
"null","453603","SARL_v6","SARL_v6dnjr3x75","63f77b9ca8439f6e1620c1cd","freq_resp","","","img/blue_2bandit_a.png","70","img/blue_2bandit_a.png","70","test","","","","","","","","","","","6","","","","","","","","",""
"null","453765","SARL_v6","SARL_v6dnjr3x75","63f77b9ca8439f6e1620c1cd","fixation","","","img/fixation.png","null","","","test","","","","","","","","","","","","","","","","","","","",""
"257","454025","SARL_v6","SARL_v6dnjr3x75","63f77b9ca8439f6e1620c1cd","freq","","","img/blue_2bandit_a2.png","70","","70","test","1","","130","","","","square","circle","125","11","6","0.928","","","","","","","",""
"null","454571","SARL_v6","SARL_v6dnjr3x75","63f77b9ca8439f6e1620c1cd","freq_resp","","","img/blue_2bandit_a.png","70","img/blue_2bandit_a.png","70","test","","","","","","","","","","","6","","","","","","","","",""
"null","454732","SARL_v6","SARL_v6dnjr3x75","63f77b9ca8439f6e1620c1cd","fixation","","","img/fixation.png","null","","","test","","","","","","","","","","","","","","","","","","","",""
"283","455018","SARL_v6","SARL_v6dnjr3x75","63f77b9ca8439f6e1620c1cd","freq","","","img/blue_2bandit_a2.png","70","","70","test","1","","131","","","","square","circle","126","12","6","0.9285714285714286","","","","","","","",""
"null","455546","SARL_v6","SARL_v6dnjr3x75","63f77b9ca8439f6e1620c1cd","freq_resp","","","img/blue_2bandit_a.png","70","img/blue_2bandit_a.png","70","test","","","","","","","","","","","6","","","","","","","","",""
"null","455701","SARL_v6","SARL_v6dnjr3x75","63f77b9ca8439f6e1620c1cd","fixation","","","img/fixation.png","null","","","test","","","","","","","","","","","","","","","","","","","",""
"343","456047","SARL_v6","SARL_v6dnjr3x75","63f77b9ca8439f6e1620c1cd","freq","","","img/blue_2bandit_a2.png","70","","70","test","1","","132","","","","square","circle","127","13","6","0.9291338582677166","","","","","","","",""
"null","456515","SARL_v6","SARL_v6dnjr3x75","63f77b9ca8439f6e1620c1cd","freq_resp","","","img/blue_2bandit_a.png","70","img/blue_2bandit_a.png","70","test","","","","","","","","","","","6","","","","","","","","",""
"null","456681","SARL_v6","SARL_v6dnjr3x75","63f77b9ca8439f6e1620c1cd","fixation","","","img/fixation.png","null","","","test","","","","","","","","","","","","","","","","","","","",""
"352","457035","SARL_v6","SARL_v6dnjr3x75","63f77b9ca8439f6e1620c1cd","freq","","","img/blue_2bandit_a2.png","70","","70","test","1","","133","","","","square","circle","128","14","6","0.9296875","","","","","","","",""
"null","457493","SARL_v6","SARL_v6dnjr3x75","63f77b9ca8439f6e1620c1cd","freq_resp","","","img/blue_2bandit_a.png","70","img/blue_2bandit_a.png","70","test","","","","","","","","","","","6","","","","","","","","",""
"null","457658","SARL_v6","SARL_v6dnjr3x75","63f77b9ca8439f6e1620c1cd","fixation","","","img/fixation.png","null","","","test","","","","","","","","","","","","","","","","","","","",""
"329","457989","SARL_v6","SARL_v6dnjr3x75","63f77b9ca8439f6e1620c1cd","freq","","","img/blue_2bandit_a2.png","70","","70","test","1","","134","","","","square","circle","129","15","6","0.9302325581395349","","","","","","","",""
"null","458469","SARL_v6","SARL_v6dnjr3x75","63f77b9ca8439f6e1620c1cd","freq_resp","","","img/blue_2bandit_a.png","70","img/blue_2bandit_a.png","70","test","","","","","","","","","","","6","","","","","","","","",""
"null","458630","SARL_v6","SARL_v6dnjr3x75","63f77b9ca8439f6e1620c1cd","fixation","","","img/fixation.png","null","","","test","","","","","","","","","","","","","","","","","","","",""
"369","459002","SARL_v6","SARL_v6dnjr3x75","63f77b9ca8439f6e1620c1cd","freq","","","img/blue_2bandit_a2.png","70","","70","test","1","","135","","","","square","circle","130","16","6","0.9307692307692308","","","","","","","",""
"null","459440","SARL_v6","SARL_v6dnjr3x75","63f77b9ca8439f6e1620c1cd","freq_resp","","","img/blue_2bandit_a.png","70","img/blue_2bandit_a.png","70","test","","","","","","","","","","","6","","","","","","","","",""
"null","459606","SARL_v6","SARL_v6dnjr3x75","63f77b9ca8439f6e1620c1cd","fixation","","","img/fixation.png","null","","","test","","","","","","","","","","","","","","","","","","","",""
"366","459975","SARL_v6","SARL_v6dnjr3x75","63f77b9ca8439f6e1620c1cd","freq","","","img/blue_2bandit_a2.png","70","","70","test","1","","136","","","","square","circle","131","17","6","0.9312977099236641","","","","","","","",""
"null","460413","SARL_v6","SARL_v6dnjr3x75","63f77b9ca8439f6e1620c1cd","freq_resp","","","img/blue_2bandit_a.png","70","img/blue_2bandit_a.png","70","test","","","","","","","","","","","6","","","","","","","","",""
"null","460575","SARL_v6","SARL_v6dnjr3x75","63f77b9ca8439f6e1620c1cd","fixation","","","img/fixation.png","null","","","test","","","","","","","","","","","","","","","","","","","",""
"284","460862","SARL_v6","SARL_v6dnjr3x75","63f77b9ca8439f6e1620c1cd","freq","","","img/blue_2bandit_a2.png","70","","70","test","1","","137","","","","square","circle","132","18","6","0.9318181818181818","","","","","","","",""
