"rt","time_elapsed","expId","subject","prolificID","trialType","rlType","attType","stimulus","key_press","stim","corrresp","phase","corr","pracCounter","trialNum","rewardOne","rewardTwo","reward","bandOne","bandTwo","attentionNum","attentionRunNum","blockNum","performance","bandChosen","circleVal","squareVal","bandOneVal","bandTwoVal","shapeChosen","rlNum","badFlag"
"130559.09999990463","130564","SARL_v6","SARL_v68nktqafh","64013d507ab5a4cdc0c1a29a","","","","","","","","","","","","","","","","","","","","","","","","","","","",""
"","133481","SARL_v6","SARL_v68nktqafh","64013d507ab5a4cdc0c1a29a","fullscreen","fullscreen","fullscreen","","","","","","","","","","","","","","","","","","","","","","","","",""
"47691.199999928474","181175","SARL_v6","SARL_v68nktqafh","64013d507ab5a4cdc0c1a29a","","","","","","","","","","","","","","","","","","","","","","","","","","","",""
"null","181997","SARL_v6","SARL_v68nktqafh","64013d507ab5a4cdc0c1a29a","freqPrac","","","img/blue_2bandit_b2.png","null","img/blue_2bandit_b2.png","70","prac","0","1","","","","","","","","","","","","","","","","","",""
"null","183006","SARL_v6","SARL_v68nktqafh","64013d507ab5a4cdc0c1a29a","feedback","","","img/tooSlow.png","null","","na","prac","","","","","","","","","","","","","","","","","","","",""
"null","183162","SARL_v6","SARL_v68nktqafh","64013d507ab5a4cdc0c1a29a","fixation","","","img/fixation.png","null","","","prac","","","","","","","","","","","","","","","","","","","",""
"520","183685","SARL_v6","SARL_v68nktqafh","64013d507ab5a4cdc0c1a29a","infreqPrac","","","img/orange_2bandit_b2.png","70","img/orange_2bandit_b2.png","68","prac","0","2","","","","","","","","","","","","","","","","","",""
"520","183969","SARL_v6","SARL_v68nktqafh","64013d507ab5a4cdc0c1a29a","infreqPrac_resp","","","img/orange_2bandit_b.png","70","img/orange_2bandit_b.png","68","prac","","","","","","","","","","","","","","","","","","","",""
"null","184982","SARL_v6","SARL_v68nktqafh","64013d507ab5a4cdc0c1a29a","feedback","","","img/wrongKey.png","null","","na","prac","","","","","","","","","","","","","","","","","","","",""
"null","185143","SARL_v6","SARL_v68nktqafh","64013d507ab5a4cdc0c1a29a","fixation","","","img/fixation.png","null","","","prac","","","","","","","","","","","","","","","","","","","",""
"756.7999999523163","185903","SARL_v6","SARL_v68nktqafh","64013d507ab5a4cdc0c1a29a","freqPrac","","","img/blue_2bandit_b2.png","70","img/blue_2bandit_b2.png","70","prac","1","2","","","","","","","","","","","","","","","","","",""
"756.7999999523163","185965","SARL_v6","SARL_v68nktqafh","64013d507ab5a4cdc0c1a29a","freqPrac_resp","","","img/blue_2bandit_b.png","70","img/blue_2bandit_b.png","70","prac","","","","","","","","","","","","","","","","","","","",""
"null","186125","SARL_v6","SARL_v68nktqafh","64013d507ab5a4cdc0c1a29a","fixation","","","img/fixation.png","null","","","prac","","","","","","","","","","","","","","","","","","","",""
"748","186875","SARL_v6","SARL_v68nktqafh","64013d507ab5a4cdc0c1a29a","infreqPrac","","","img/orange_2bandit_b2.png","68","img/orange_2bandit_b2.png","68","prac","1","2","","","","","","","","","","","","","","","","","",""
"748","186945","SARL_v6","SARL_v68nktqafh","64013d507ab5a4cdc0c1a29a","infreqPrac_resp","","","img/orange_2bandit_b.png","68","img/orange_2bandit_b.png","68","prac","","","","","","","","","","","","","","","","","","","",""
"null","187109","SARL_v6","SARL_v68nktqafh","64013d507ab5a4cdc0c1a29a","fixation","","","img/fixation.png","null","","","prac","","","","","","","","","","","","","","","","","","","",""
"510.6999999284744","187622","SARL_v6","SARL_v68nktqafh","64013d507ab5a4cdc0c1a29a","infreqPrac","","","img/orange_2bandit_b2.png","68","img/orange_2bandit_b2.png","68","prac","1","2","","","","","","","","","","","","","","","","","",""
"510.6999999284744","187929","SARL_v6","SARL_v68nktqafh","64013d507ab5a4cdc0c1a29a","infreqPrac_resp","","","img/orange_2bandit_b.png","68","img/orange_2bandit_b.png","68","prac","","","","","","","","","","","","","","","","","","","",""
"null","188089","SARL_v6","SARL_v68nktqafh","64013d507ab5a4cdc0c1a29a","fixation","","","img/fixation.png","null","","","prac","","","","","","","","","","","","","","","","","","","",""
"424.8000000715256","188517","SARL_v6","SARL_v68nktqafh","64013d507ab5a4cdc0c1a29a","infreqPrac","","","img/orange_2bandit_b2.png","68","img/orange_2bandit_b2.png","68","prac","1","2","","","","","","","","","","","","","","","","","",""
"424.8000000715256","188897","SARL_v6","SARL_v68nktqafh","64013d507ab5a4cdc0c1a29a","infreqPrac_resp","","","img/orange_2bandit_b.png","68","img/orange_2bandit_b.png","68","prac","","","","","","","","","","","","","","","","","","","",""
"null","189055","SARL_v6","SARL_v68nktqafh","64013d507ab5a4cdc0c1a29a","fixation","","","img/fixation.png","null","","","prac","","","","","","","","","","","","","","","","","","","",""
"326.89999997615814","189385","SARL_v6","SARL_v68nktqafh","64013d507ab5a4cdc0c1a29a","freqPrac","","","img/blue_2bandit_b2.png","70","img/blue_2bandit_b2.png","70","prac","1","2","","","","","","","","","","","","","","","","","",""
"326.89999997615814","189869","SARL_v6","SARL_v68nktqafh","64013d507ab5a4cdc0c1a29a","freqPrac_resp","","","img/blue_2bandit_b.png","70","img/blue_2bandit_b.png","70","prac","","","","","","","","","","","","","","","","","","","",""
"null","190024","SARL_v6","SARL_v68nktqafh","64013d507ab5a4cdc0c1a29a","fixation","","","img/fixation.png","null","","","prac","","","","","","","","","","","","","","","","","","","",""
"429.7999999523163","190456","SARL_v6","SARL_v68nktqafh","64013d507ab5a4cdc0c1a29a","infreqPrac","","","img/orange_2bandit_b2.png","68","img/orange_2bandit_b2.png","68","prac","1","2","","","","","","","","","","","","","","","","","",""
"429.7999999523163","190836","SARL_v6","SARL_v68nktqafh","64013d507ab5a4cdc0c1a29a","infreqPrac_resp","","","img/orange_2bandit_b.png","68","img/orange_2bandit_b.png","68","prac","","","","","","","","","","","","","","","","","","","",""
"null","191003","SARL_v6","SARL_v68nktqafh","64013d507ab5a4cdc0c1a29a","fixation","","","img/fixation.png","null","","","prac","","","","","","","","","","","","","","","","","","","",""
"502.8000000715256","191509","SARL_v6","SARL_v68nktqafh","64013d507ab5a4cdc0c1a29a","freqPrac","","","img/blue_2bandit_b2.png","70","img/blue_2bandit_b2.png","70","prac","1","2","","","","","","","","","","","","","","","","","",""
"502.8000000715256","191813","SARL_v6","SARL_v68nktqafh","64013d507ab5a4cdc0c1a29a","freqPrac_resp","","","img/blue_2bandit_b.png","70","img/blue_2bandit_b.png","70","prac","","","","","","","","","","","","","","","","","","","",""
"null","191970","SARL_v6","SARL_v68nktqafh","64013d507ab5a4cdc0c1a29a","fixation","","","img/fixation.png","null","","","prac","","","","","","","","","","","","","","","","","","","",""
"477.7000000476837","192450","SARL_v6","SARL_v68nktqafh","64013d507ab5a4cdc0c1a29a","freqPrac","","","img/blue_2bandit_b2.png","70","img/blue_2bandit_b2.png","70","prac","1","2","","","","","","","","","","","","","","","","","",""
"477.7000000476837","192790","SARL_v6","SARL_v68nktqafh","64013d507ab5a4cdc0c1a29a","freqPrac_resp","","","img/blue_2bandit_b.png","70","img/blue_2bandit_b.png","70","prac","","","","","","","","","","","","","","","","","","","",""
"null","192953","SARL_v6","SARL_v68nktqafh","64013d507ab5a4cdc0c1a29a","fixation","","","img/fixation.png","null","","","prac","","","","","","","","","","","","","","","","","","","",""
"32015.099999904633","224971","SARL_v6","SARL_v68nktqafh","64013d507ab5a4cdc0c1a29a","","","","","","","","prac","","","","","","","","","","","","","","","","","","","",""
"631","225605","SARL_v6","SARL_v68nktqafh","64013d507ab5a4cdc0c1a29a","rlPractice","","","img/black_2bandit_b2.png","74","img/black_2bandit_b2.png","","prac","","","0","","","","","","","","","","","","","","","","",""
"null","226363","SARL_v6","SARL_v68nktqafh","64013d507ab5a4cdc0c1a29a","feedback","","","<div class=""veryhighPoints""> 10 </div>","null","","na","prac","","","1","10","-14","10","","","","","","","","","","","","","",""
"null","226520","SARL_v6","SARL_v68nktqafh","64013d507ab5a4cdc0c1a29a","fixation","","","img/fixation.png","null","","","prac","","","","","","","","","","","","","","","","","","","",""
"397.2999999523163","226919","SARL_v6","SARL_v68nktqafh","64013d507ab5a4cdc0c1a29a","rlPractice","","","img/black_2bandit_b2.png","74","img/black_2bandit_b2.png","","prac","","","1","","","","","","","","","","","","","","","","",""
"null","227685","SARL_v6","SARL_v68nktqafh","64013d507ab5a4cdc0c1a29a","feedback","","","<div class=""veryhighPoints""> 5 </div>","null","","na","prac","","","2","5","-5","5","","","","","","","","","","","","","",""
"null","227850","SARL_v6","SARL_v68nktqafh","64013d507ab5a4cdc0c1a29a","fixation","","","img/fixation.png","null","","","prac","","","","","","","","","","","","","","","","","","","",""
"399.10000002384186","228251","SARL_v6","SARL_v68nktqafh","64013d507ab5a4cdc0c1a29a","rlPractice","","","img/black_2bandit_b2.png","74","img/black_2bandit_b2.png","","prac","","","2","","","","","","","","","","","","","","","","",""
"null","229006","SARL_v6","SARL_v68nktqafh","64013d507ab5a4cdc0c1a29a","feedback","","","<div class=""veryhighPoints""> 30 </div>","null","","na","prac","","","3","30","2","30","","","","","","","","","","","","","",""
"null","229167","SARL_v6","SARL_v68nktqafh","64013d507ab5a4cdc0c1a29a","fixation","","","img/fixation.png","null","","","prac","","","","","","","","","","","","","","","","","","","",""
"420.2999999523163","229590","SARL_v6","SARL_v68nktqafh","64013d507ab5a4cdc0c1a29a","rlPractice","","","img/black_2bandit_b2.png","74","img/black_2bandit_b2.png","","prac","","","3","","","","","","","","","","","","","","","","",""
"null","230344","SARL_v6","SARL_v68nktqafh","64013d507ab5a4cdc0c1a29a","feedback","","","<div class=""verylowPoints""> -2 </div>","null","","na","prac","","","4","-2","20","-2","","","","","","","","","","","","","",""
"null","230499","SARL_v6","SARL_v68nktqafh","64013d507ab5a4cdc0c1a29a","fixation","","","img/fixation.png","null","","","prac","","","","","","","","","","","","","","","","","","","",""
"22372.700000047684","252873","SARL_v6","SARL_v68nktqafh","64013d507ab5a4cdc0c1a29a","","","","","","","","prac","","","","","","","","","","","","","","","","","","","",""
"null","253682","SARL_v6","SARL_v68nktqafh","64013d507ab5a4cdc0c1a29a","mixAttFreqPrac","","","img/blue_2bandit_b2.png","null","img/blue_2bandit_b2.png","70","prac","","","1","","","","","","","","","","","","","","","","",""
"null","253840","SARL_v6","SARL_v68nktqafh","64013d507ab5a4cdc0c1a29a","fixation","","","img/fixation.png","null","","","prac","","","","","","","","","","","","","","","","","","","",""
"82.5","253925","SARL_v6","SARL_v68nktqafh","64013d507ab5a4cdc0c1a29a","mixAttInfreqPrac","","","img/orange_2bandit_b2.png","70","img/orange_2bandit_b2.png","68","prac","","","2","","","","","","","","","","","","","","","","",""
"82.5","254651","SARL_v6","SARL_v68nktqafh","64013d507ab5a4cdc0c1a29a","infreqPrac_resp","","","img/orange_2bandit_b.png","70","img/blue_2bandit_b.png","68","prac","","","2","","","","","","","","","","","","","","","","",""
"null","254820","SARL_v6","SARL_v68nktqafh","64013d507ab5a4cdc0c1a29a","fixation","","","img/fixation.png","null","","","prac","","","","","","","","","","","","","","","","","","","",""
"422.60000002384186","255246","SARL_v6","SARL_v68nktqafh","64013d507ab5a4cdc0c1a29a","mixAttInfreqPrac","","","img/orange_2bandit_b2.png","68","img/orange_2bandit_b2.png","68","prac","","","3","","","","","","","","","","","","","","","","",""
"422.60000002384186","255637","SARL_v6","SARL_v68nktqafh","64013d507ab5a4cdc0c1a29a","infreqPrac_resp","","","img/orange_2bandit_b.png","68","img/blue_2bandit_b.png","68","prac","","","3","","","","","","","","","","","","","","","","",""
"null","255791","SARL_v6","SARL_v68nktqafh","64013d507ab5a4cdc0c1a29a","fixation","","","img/fixation.png","null","","","prac","","","","","","","","","","","","","","","","","","","",""
"329.6999999284744","256123","SARL_v6","SARL_v68nktqafh","64013d507ab5a4cdc0c1a29a","mixAttInfreqPrac","","","img/orange_2bandit_b2.png","68","img/orange_2bandit_b2.png","68","prac","","","4","","","","","","","","","","","","","","","","",""
"329.6999999284744","256611","SARL_v6","SARL_v68nktqafh","64013d507ab5a4cdc0c1a29a","infreqPrac_resp","","","img/orange_2bandit_b.png","68","img/blue_2bandit_b.png","68","prac","","","4","","","","","","","","","","","","","","","","",""
"null","256770","SARL_v6","SARL_v68nktqafh","64013d507ab5a4cdc0c1a29a","fixation","","","img/fixation.png","null","","","prac","","","","","","","","","","","","","","","","","","","",""
"370","257142","SARL_v6","SARL_v68nktqafh","64013d507ab5a4cdc0c1a29a","mixAttFreqPrac","","","img/blue_2bandit_b2.png","70","img/blue_2bandit_b2.png","70","prac","","","5","","","","","","","","","","","","","","","","",""
"370","257583","SARL_v6","SARL_v68nktqafh","64013d507ab5a4cdc0c1a29a","freqPrac_resp","","","img/blue_2bandit_b.png","70","img/blue_2bandit_b.png","70","prac","","","5","","","","","","","","","","","","","","","","",""
"null","257751","SARL_v6","SARL_v68nktqafh","64013d507ab5a4cdc0c1a29a","fixation","","","img/fixation.png","null","","","prac","","","","","","","","","","","","","","","","","","","",""
"1087.2000000476837","258841","SARL_v6","SARL_v68nktqafh","64013d507ab5a4cdc0c1a29a","mixRLPractice","","","img/black_2bandit_b2.png","74","img/black_2bandit_b2.png","","prac","","","5","","","","","","","","","","","","","","","","",""
"null","259601","SARL_v6","SARL_v68nktqafh","64013d507ab5a4cdc0c1a29a","feedback","","","<div class=""verylowPoints""> -14 </div>","null","","na","prac","","","6","-14","10","-14","","","","","","","","","","","","","",""
"null","259767","SARL_v6","SARL_v68nktqafh","64013d507ab5a4cdc0c1a29a","fixation","","","img/fixation.png","null","","","prac","","","","","","","","","","","","","","","","","","","",""
"539.1000000238419","260309","SARL_v6","SARL_v68nktqafh","64013d507ab5a4cdc0c1a29a","mixAttFreqPrac","","","img/blue_2bandit_b2.png","68","img/blue_2bandit_b2.png","70","prac","","","7","","","","","","","","","","","","","","","","",""
"539.1000000238419","260578","SARL_v6","SARL_v68nktqafh","64013d507ab5a4cdc0c1a29a","freqPrac_resp","","","img/blue_2bandit_b.png","68","img/blue_2bandit_b.png","70","prac","","","7","","","","","","","","","","","","","","","","",""
"null","260732","SARL_v6","SARL_v68nktqafh","64013d507ab5a4cdc0c1a29a","fixation","","","img/fixation.png","null","","","prac","","","","","","","","","","","","","","","","","","","",""
"null","261538","SARL_v6","SARL_v68nktqafh","64013d507ab5a4cdc0c1a29a","mixAttInfreqPrac","","","img/orange_2bandit_b2.png","null","img/orange_2bandit_b2.png","68","prac","","","8","","","","","","","","","","","","","","","","",""
"15.300000071525574","261698","SARL_v6","SARL_v68nktqafh","64013d507ab5a4cdc0c1a29a","fixation","","","img/fixation.png","70","","","prac","","","","","","","","","","","","","","","","","","","",""
"null","262517","SARL_v6","SARL_v68nktqafh","64013d507ab5a4cdc0c1a29a","mixAttFreqPrac","","","img/blue_2bandit_b2.png","null","img/blue_2bandit_b2.png","70","prac","","","9","","","","","","","","","","","","","","","","",""
"null","262681","SARL_v6","SARL_v68nktqafh","64013d507ab5a4cdc0c1a29a","fixation","","","img/fixation.png","null","","","prac","","","","","","","","","","","","","","","","","","","",""
"19.300000071525574","262704","SARL_v6","SARL_v68nktqafh","64013d507ab5a4cdc0c1a29a","mixAttFreqPrac","","","img/blue_2bandit_b2.png","68","img/blue_2bandit_b2.png","70","prac","","","10","","","","","","","","","","","","","","","","",""
"19.300000071525574","263488","SARL_v6","SARL_v68nktqafh","64013d507ab5a4cdc0c1a29a","freqPrac_resp","","","img/blue_2bandit_b.png","68","img/blue_2bandit_b.png","70","prac","","","10","","","","","","","","","","","","","","","","",""
"null","263646","SARL_v6","SARL_v68nktqafh","64013d507ab5a4cdc0c1a29a","fixation","","","img/fixation.png","null","","","prac","","","","","","","","","","","","","","","","","","","",""
"193.79999995231628","263843","SARL_v6","SARL_v68nktqafh","64013d507ab5a4cdc0c1a29a","mixAttInfreqPrac","","","img/orange_2bandit_b2.png","68","img/orange_2bandit_b2.png","68","prac","","","11","","","","","","","","","","","","","","","","",""
"193.79999995231628","264466","SARL_v6","SARL_v68nktqafh","64013d507ab5a4cdc0c1a29a","infreqPrac_resp","","","img/orange_2bandit_b.png","68","img/blue_2bandit_b.png","68","prac","","","11","","","","","","","","","","","","","","","","",""
"null","264634","SARL_v6","SARL_v68nktqafh","64013d507ab5a4cdc0c1a29a","fixation","","","img/fixation.png","null","","","prac","","","","","","","","","","","","","","","","","","","",""
"710.5","265347","SARL_v6","SARL_v68nktqafh","64013d507ab5a4cdc0c1a29a","mixRLPractice","","","img/black_2bandit_b2.png","75","img/black_2bandit_b2.png","","prac","","","11","","","","","","","","","","","","","","","","",""
"null","266105","SARL_v6","SARL_v68nktqafh","64013d507ab5a4cdc0c1a29a","feedback","","","<div class=""verylowPoints_sq""> -5 </div>","null","","na","prac","","","12","5","-5","5","","","","","","","","","","","","","",""
"null","266261","SARL_v6","SARL_v68nktqafh","64013d507ab5a4cdc0c1a29a","fixation","","","img/fixation.png","null","","","prac","","","","","","","","","","","","","","","","","","","",""
"20489.799999952316","286752","SARL_v6","SARL_v68nktqafh","64013d507ab5a4cdc0c1a29a","","","","","","","","prac","","","","","","","","","","","","","","","","","","","",""
"744.7000000476837","287500","SARL_v6","SARL_v68nktqafh","64013d507ab5a4cdc0c1a29a","freq","","","img/blue_2bandit_b2.png","70","","70","test","1","","1","","","","circle","square","1","1","1","1","","","","","","","",""
"null","287563","SARL_v6","SARL_v68nktqafh","64013d507ab5a4cdc0c1a29a","freq_resp","","","img/blue_2bandit_b.png","70","img/blue_2bandit_b.png","70","test","","","","","","","","","","","1","","","","","","","","",""
"null","287716","SARL_v6","SARL_v68nktqafh","64013d507ab5a4cdc0c1a29a","fixation","","","img/fixation.png","null","","","test","","","","","","","","","","","","","","","","","","","",""
"377.2999999523163","288096","SARL_v6","SARL_v68nktqafh","64013d507ab5a4cdc0c1a29a","freq","","","img/blue_2bandit_b2.png","70","","70","test","1","","2","","","","circle","square","2","2","1","1","","","","","","","",""
"null","288529","SARL_v6","SARL_v68nktqafh","64013d507ab5a4cdc0c1a29a","freq_resp","","","img/blue_2bandit_b.png","70","img/blue_2bandit_b.png","70","test","","","","","","","","","","","1","","","","","","","","",""
"null","288690","SARL_v6","SARL_v68nktqafh","64013d507ab5a4cdc0c1a29a","fixation","","","img/fixation.png","null","","","test","","","","","","","","","","","","","","","","","","","",""
"null","289504","SARL_v6","SARL_v68nktqafh","64013d507ab5a4cdc0c1a29a","infreq","","","img/orange_2bandit_b2.png","null","","68","test","0","","3","","","","circle","square","3","3","1","0.6666666666666666","","","","","","","",""
"null","289670","SARL_v6","SARL_v68nktqafh","64013d507ab5a4cdc0c1a29a","fixation","","","img/fixation.png","null","","","test","","","","","","","","","","","","","","","","","","","",""
"603.8999999761581","290277","SARL_v6","SARL_v68nktqafh","64013d507ab5a4cdc0c1a29a","freq","","","img/blue_2bandit_b2.png","68","","70","test","0","","4","","","","circle","square","4","4","1","0.5","","","","","","","",""
"null","290485","SARL_v6","SARL_v68nktqafh","64013d507ab5a4cdc0c1a29a","freq_resp","","","img/blue_2bandit_b.png","68","img/blue_2bandit_b.png","70","test","","","","","","","","","","","1","","","","","","","","",""
"null","290647","SARL_v6","SARL_v68nktqafh","64013d507ab5a4cdc0c1a29a","fixation","","","img/fixation.png","null","","","test","","","","","","","","","","","","","","","","","","","",""
"585.6999999284744","291235","SARL_v6","SARL_v68nktqafh","64013d507ab5a4cdc0c1a29a","freq","","","img/blue_2bandit_b2.png","70","","70","test","1","","5","","","","circle","square","5","5","1","0.6","","","","","","","",""
"null","291464","SARL_v6","SARL_v68nktqafh","64013d507ab5a4cdc0c1a29a","freq_resp","","","img/blue_2bandit_b.png","70","img/blue_2bandit_b.png","70","test","","","","","","","","","","","1","","","","","","","","",""
"null","291620","SARL_v6","SARL_v68nktqafh","64013d507ab5a4cdc0c1a29a","fixation","","","img/fixation.png","null","","","test","","","","","","","","","","","","","","","","","","","",""
"506.39999997615814","292129","SARL_v6","SARL_v68nktqafh","64013d507ab5a4cdc0c1a29a","freq","","","img/blue_2bandit_b2.png","70","","70","test","1","","6","","","","circle","square","6","6","1","0.6666666666666666","","","","","","","",""
"null","292426","SARL_v6","SARL_v68nktqafh","64013d507ab5a4cdc0c1a29a","freq_resp","","","img/blue_2bandit_b.png","70","img/blue_2bandit_b.png","70","test","","","","","","","","","","","1","","","","","","","","",""
"null","292585","SARL_v6","SARL_v68nktqafh","64013d507ab5a4cdc0c1a29a","fixation","","","img/fixation.png","null","","","test","","","","","","","","","","","","","","","","","","","",""
"406.60000002384186","292995","SARL_v6","SARL_v68nktqafh","64013d507ab5a4cdc0c1a29a","freq","","","img/blue_2bandit_b2.png","70","","70","test","1","","7","","","","circle","square","7","7","1","0.7142857142857143","","","","","","","",""
"null","293401","SARL_v6","SARL_v68nktqafh","64013d507ab5a4cdc0c1a29a","freq_resp","","","img/blue_2bandit_b.png","70","img/blue_2bandit_b.png","70","test","","","","","","","","","","","1","","","","","","","","",""
"null","293567","SARL_v6","SARL_v68nktqafh","64013d507ab5a4cdc0c1a29a","fixation","","","img/fixation.png","null","","","test","","","","","","","","","","","","","","","","","","","",""
"339.6999999284744","293909","SARL_v6","SARL_v68nktqafh","64013d507ab5a4cdc0c1a29a","freq","","","img/blue_2bandit_b2.png","70","","70","test","1","","8","","","","circle","square","8","8","1","0.75","","","","","","","",""
"null","294379","SARL_v6","SARL_v68nktqafh","64013d507ab5a4cdc0c1a29a","freq_resp","","","img/blue_2bandit_b.png","70","img/blue_2bandit_b.png","70","test","","","","","","","","","","","1","","","","","","","","",""
"null","294534","SARL_v6","SARL_v68nktqafh","64013d507ab5a4cdc0c1a29a","fixation","","","img/fixation.png","null","","","test","","","","","","","","","","","","","","","","","","","",""
"338.5","294875","SARL_v6","SARL_v68nktqafh","64013d507ab5a4cdc0c1a29a","freq","","","img/blue_2bandit_b2.png","70","","70","test","1","","9","","","","circle","square","9","9","1","0.7777777777777778","","","","","","","",""
"null","295345","SARL_v6","SARL_v68nktqafh","64013d507ab5a4cdc0c1a29a","freq_resp","","","img/blue_2bandit_b.png","70","img/blue_2bandit_b.png","70","test","","","","","","","","","","","1","","","","","","","","",""
"null","295503","SARL_v6","SARL_v68nktqafh","64013d507ab5a4cdc0c1a29a","fixation","","","img/fixation.png","null","","","test","","","","","","","","","","","","","","","","","","","",""
"363","295869","SARL_v6","SARL_v68nktqafh","64013d507ab5a4cdc0c1a29a","freq","","","img/blue_2bandit_b2.png","70","","70","test","1","","10","","","","circle","square","10","10","1","0.8","","","","","","","",""
"null","296313","SARL_v6","SARL_v68nktqafh","64013d507ab5a4cdc0c1a29a","freq_resp","","","img/blue_2bandit_b.png","70","img/blue_2bandit_b.png","70","test","","","","","","","","","","","1","","","","","","","","",""
"null","296480","SARL_v6","SARL_v68nktqafh","64013d507ab5a4cdc0c1a29a","fixation","","","img/fixation.png","null","","","test","","","","","","","","","","","","","","","","","","","",""
"377.6999999284744","296861","SARL_v6","SARL_v68nktqafh","64013d507ab5a4cdc0c1a29a","freq","","","img/blue_2bandit_b2.png","70","","70","test","1","","11","","","","circle","square","11","11","1","0.8181818181818182","","","","","","","",""
"null","297296","SARL_v6","SARL_v68nktqafh","64013d507ab5a4cdc0c1a29a","freq_resp","","","img/blue_2bandit_b.png","70","img/blue_2bandit_b.png","70","test","","","","","","","","","","","1","","","","","","","","",""
"null","297462","SARL_v6","SARL_v68nktqafh","64013d507ab5a4cdc0c1a29a","fixation","","","img/fixation.png","null","","","test","","","","","","","","","","","","","","","","","","","",""
"399.60000002384186","297865","SARL_v6","SARL_v68nktqafh","64013d507ab5a4cdc0c1a29a","freq","","","img/blue_2bandit_b2.png","70","","70","test","1","","12","","","","circle","square","12","12","1","0.8333333333333334","","","","","","","",""
"null","298279","SARL_v6","SARL_v68nktqafh","64013d507ab5a4cdc0c1a29a","freq_resp","","","img/blue_2bandit_b.png","70","img/blue_2bandit_b.png","70","test","","","","","","","","","","","1","","","","","","","","",""
"null","298444","SARL_v6","SARL_v68nktqafh","64013d507ab5a4cdc0c1a29a","fixation","","","img/fixation.png","null","","","test","","","","","","","","","","","","","","","","","","","",""
"341.5","298789","SARL_v6","SARL_v68nktqafh","64013d507ab5a4cdc0c1a29a","freq","","","img/blue_2bandit_b2.png","70","","70","test","1","","13","","","","circle","square","13","13","1","0.8461538461538461","","","","","","","",""
"null","299259","SARL_v6","SARL_v68nktqafh","64013d507ab5a4cdc0c1a29a","freq_resp","","","img/blue_2bandit_b.png","70","img/blue_2bandit_b.png","70","test","","","","","","","","","","","1","","","","","","","","",""
"null","299412","SARL_v6","SARL_v68nktqafh","64013d507ab5a4cdc0c1a29a","fixation","","","img/fixation.png","null","","","test","","","","","","","","","","","","","","","","","","","",""
"279.7000000476837","299695","SARL_v6","SARL_v68nktqafh","64013d507ab5a4cdc0c1a29a","freq","","","img/blue_2bandit_b2.png","70","","70","test","1","","14","","","","circle","square","14","14","1","0.8571428571428571","","","","","","","",""
"null","300219","SARL_v6","SARL_v68nktqafh","64013d507ab5a4cdc0c1a29a","freq_resp","","","img/blue_2bandit_b.png","70","img/blue_2bandit_b.png","70","test","","","","","","","","","","","1","","","","","","","","",""
"null","300378","SARL_v6","SARL_v68nktqafh","64013d507ab5a4cdc0c1a29a","fixation","","","img/fixation.png","null","","","test","","","","","","","","","","","","","","","","","","","",""
"271.39999997615814","300653","SARL_v6","SARL_v68nktqafh","64013d507ab5a4cdc0c1a29a","freq","","","img/blue_2bandit_b2.png","70","","70","test","1","","15","","","","circle","square","15","15","1","0.8666666666666667","","","","","","","",""
"null","301185","SARL_v6","SARL_v68nktqafh","64013d507ab5a4cdc0c1a29a","freq_resp","","","img/blue_2bandit_b.png","70","img/blue_2bandit_b.png","70","test","","","","","","","","","","","1","","","","","","","","",""
"null","301343","SARL_v6","SARL_v68nktqafh","64013d507ab5a4cdc0c1a29a","fixation","","","img/fixation.png","null","","","test","","","","","","","","","","","","","","","","","","","",""
"271.6999999284744","301617","SARL_v6","SARL_v68nktqafh","64013d507ab5a4cdc0c1a29a","freq","","","img/blue_2bandit_b2.png","70","","70","test","1","","16","","","","circle","square","16","16","1","0.875","","","","","","","",""
"null","302151","SARL_v6","SARL_v68nktqafh","64013d507ab5a4cdc0c1a29a","freq_resp","","","img/blue_2bandit_b.png","70","img/blue_2bandit_b.png","70","test","","","","","","","","","","","1","","","","","","","","",""
"null","302309","SARL_v6","SARL_v68nktqafh","64013d507ab5a4cdc0c1a29a","fixation","","","img/fixation.png","null","","","test","","","","","","","","","","","","","","","","","","","",""
"280.7000000476837","302593","SARL_v6","SARL_v68nktqafh","64013d507ab5a4cdc0c1a29a","freq","","","img/blue_2bandit_b2.png","70","","70","test","1","","17","","","","circle","square","17","17","1","0.8823529411764706","","","","","","","",""
"null","303122","SARL_v6","SARL_v68nktqafh","64013d507ab5a4cdc0c1a29a","freq_resp","","","img/blue_2bandit_b.png","70","img/blue_2bandit_b.png","70","test","","","","","","","","","","","1","","","","","","","","",""
"null","303290","SARL_v6","SARL_v68nktqafh","64013d507ab5a4cdc0c1a29a","fixation","","","img/fixation.png","null","","","test","","","","","","","","","","","","","","","","","","","",""
"228.39999997615814","303521","SARL_v6","SARL_v68nktqafh","64013d507ab5a4cdc0c1a29a","infreq","","","img/orange_2bandit_b2.png","70","","68","test","0","","18","","","","circle","square","18","18","1","0.8333333333333334","","","","","","","",""
"null","304096","SARL_v6","SARL_v68nktqafh","64013d507ab5a4cdc0c1a29a","infreq_resp","","","img/orange_2bandit_b.png","70","img/orange_2bandit_b.png","68","test","","","","","","","","","","","1","","","","","","","","",""
"null","304258","SARL_v6","SARL_v68nktqafh","64013d507ab5a4cdc0c1a29a","fixation","","","img/fixation.png","null","","","test","","","","","","","","","","","","","","","","","","","",""
"557.0999999046326","304818","SARL_v6","SARL_v68nktqafh","64013d507ab5a4cdc0c1a29a","freq","","","img/blue_2bandit_b2.png","70","","70","test","1","","19","","","","circle","square","19","19","1","0.8421052631578947","","","","","","","",""
"null","305067","SARL_v6","SARL_v68nktqafh","64013d507ab5a4cdc0c1a29a","freq_resp","","","img/blue_2bandit_b.png","70","img/blue_2bandit_b.png","70","test","","","","","","","","","","","1","","","","","","","","",""
"null","305223","SARL_v6","SARL_v68nktqafh","64013d507ab5a4cdc0c1a29a","fixation","","","img/fixation.png","null","","","test","","","","","","","","","","","","","","","","","","","",""
"389.40000009536743","305615","SARL_v6","SARL_v68nktqafh","64013d507ab5a4cdc0c1a29a","freq","","","img/blue_2bandit_b2.png","70","","70","test","1","","20","","","","circle","square","20","20","1","0.85","","","","","","","",""
"null","306038","SARL_v6","SARL_v68nktqafh","64013d507ab5a4cdc0c1a29a","freq_resp","","","img/blue_2bandit_b.png","70","img/blue_2bandit_b.png","70","test","","","","","","","","","","","1","","","","","","","","",""
"null","306204","SARL_v6","SARL_v68nktqafh","64013d507ab5a4cdc0c1a29a","fixation","","","img/fixation.png","null","","","test","","","","","","","","","","","","","","","","","","","",""
"329.10000002384186","306536","SARL_v6","SARL_v68nktqafh","64013d507ab5a4cdc0c1a29a","freq","","","img/blue_2bandit_b2.png","70","","70","test","1","","21","","","","circle","square","21","21","1","0.8571428571428571","","","","","","","",""
"null","307022","SARL_v6","SARL_v68nktqafh","64013d507ab5a4cdc0c1a29a","freq_resp","","","img/blue_2bandit_b.png","70","img/blue_2bandit_b.png","70","test","","","","","","","","","","","1","","","","","","","","",""
"null","307186","SARL_v6","SARL_v68nktqafh","64013d507ab5a4cdc0c1a29a","fixation","","","img/fixation.png","null","","","test","","","","","","","","","","","","","","","","","","","",""
"198","307387","SARL_v6","SARL_v68nktqafh","64013d507ab5a4cdc0c1a29a","freq","","","img/blue_2bandit_b2.png","70","","70","test","1","","22","","","","circle","square","22","22","1","0.8636363636363636","","","","","","","",""
"null","308002","SARL_v6","SARL_v68nktqafh","64013d507ab5a4cdc0c1a29a","freq_resp","","","img/blue_2bandit_b.png","70","img/blue_2bandit_b.png","70","test","","","","","","","","","","","1","","","","","","","","",""
"null","308169","SARL_v6","SARL_v68nktqafh","64013d507ab5a4cdc0c1a29a","fixation","","","img/fixation.png","null","","","test","","","","","","","","","","","","","","","","","","","",""
"146.59999990463257","308318","SARL_v6","SARL_v68nktqafh","64013d507ab5a4cdc0c1a29a","freq","","","img/blue_2bandit_b2.png","70","","70","test","1","","23","","","","circle","square","23","23","1","0.8695652173913043","","","","","","","",""
"null","308986","SARL_v6","SARL_v68nktqafh","64013d507ab5a4cdc0c1a29a","freq_resp","","","img/blue_2bandit_b.png","70","img/blue_2bandit_b.png","70","test","","","","","","","","","","","1","","","","","","","","",""
"null","309151","SARL_v6","SARL_v68nktqafh","64013d507ab5a4cdc0c1a29a","fixation","","","img/fixation.png","null","","","test","","","","","","","","","","","","","","","","","","","",""
"712.0999999046326","309866","SARL_v6","SARL_v68nktqafh","64013d507ab5a4cdc0c1a29a","rl","","","img/black_2bandit_b2.png","75","","0","test","","","24","","","-3","circle","square","","0","1","","75","-3","-3","-3","-3","square","1","0"
"null","310627","SARL_v6","SARL_v68nktqafh","64013d507ab5a4cdc0c1a29a","feedback","","","<div class=""verylowPoints_sq""> -3 </div>","null","","na","test","","","NaN","","","","","","","","1","","75","","","","","","1",""
"369.2999999523163","310999","SARL_v6","SARL_v68nktqafh","64013d507ab5a4cdc0c1a29a","freq","","","img/blue_2bandit_b2.png","70","","70","test","1","","25","","","","circle","square","24","1","2","0.875","","","","","","","",""
"null","311432","SARL_v6","SARL_v68nktqafh","64013d507ab5a4cdc0c1a29a","freq_resp","","","img/blue_2bandit_b.png","70","img/blue_2bandit_b.png","70","test","","","","","","","","","","","2","","","","","","","","",""
"null","311598","SARL_v6","SARL_v68nktqafh","64013d507ab5a4cdc0c1a29a","fixation","","","img/fixation.png","null","","","test","","","","","","","","","","","","","","","","","","","",""
"466","312067","SARL_v6","SARL_v68nktqafh","64013d507ab5a4cdc0c1a29a","freq","","","img/blue_2bandit_b2.png","70","","70","test","1","","26","","","","circle","square","25","2","2","0.88","","","","","","","",""
"null","312411","SARL_v6","SARL_v68nktqafh","64013d507ab5a4cdc0c1a29a","freq_resp","","","img/blue_2bandit_b.png","70","img/blue_2bandit_b.png","70","test","","","","","","","","","","","2","","","","","","","","",""
"null","312566","SARL_v6","SARL_v68nktqafh","64013d507ab5a4cdc0c1a29a","fixation","","","img/fixation.png","null","","","test","","","","","","","","","","","","","","","","","","","",""
"353.89999997615814","312924","SARL_v6","SARL_v68nktqafh","64013d507ab5a4cdc0c1a29a","freq","","","img/blue_2bandit_b2.png","70","","70","test","1","","27","","","","circle","square","26","3","2","0.8846153846153846","","","","","","","",""
"null","313380","SARL_v6","SARL_v68nktqafh","64013d507ab5a4cdc0c1a29a","freq_resp","","","img/blue_2bandit_b.png","70","img/blue_2bandit_b.png","70","test","","","","","","","","","","","2","","","","","","","","",""
"null","313543","SARL_v6","SARL_v68nktqafh","64013d507ab5a4cdc0c1a29a","fixation","","","img/fixation.png","null","","","test","","","","","","","","","","","","","","","","","","","",""
"342.89999997615814","313889","SARL_v6","SARL_v68nktqafh","64013d507ab5a4cdc0c1a29a","freq","","","img/blue_2bandit_b2.png","70","","70","test","1","","28","","","","circle","square","27","4","2","0.8888888888888888","","","","","","","",""
"null","314356","SARL_v6","SARL_v68nktqafh","64013d507ab5a4cdc0c1a29a","freq_resp","","","img/blue_2bandit_b.png","70","img/blue_2bandit_b.png","70","test","","","","","","","","","","","2","","","","","","","","",""
"null","314515","SARL_v6","SARL_v68nktqafh","64013d507ab5a4cdc0c1a29a","fixation","","","img/fixation.png","null","","","test","","","","","","","","","","","","","","","","","","","",""
"null","315327","SARL_v6","SARL_v68nktqafh","64013d507ab5a4cdc0c1a29a","infreq","","","img/orange_2bandit_b2.png","null","","68","test","0","","29","","","","circle","square","28","5","2","0.8571428571428571","","","","","","","",""
"null","315481","SARL_v6","SARL_v68nktqafh","64013d507ab5a4cdc0c1a29a","fixation","","","img/fixation.png","null","","","test","","","","","","","","","","","","","","","","","","","",""
"50.200000047683716","315533","SARL_v6","SARL_v68nktqafh","64013d507ab5a4cdc0c1a29a","freq","","","img/blue_2bandit_b2.png","68","","70","test","0","","30","","","","circle","square","29","6","2","0.8275862068965517","","","","","","","",""
"null","316299","SARL_v6","SARL_v68nktqafh","64013d507ab5a4cdc0c1a29a","freq_resp","","","img/blue_2bandit_b.png","68","img/blue_2bandit_b.png","70","test","","","","","","","","","","","2","","","","","","","","",""
"null","316462","SARL_v6","SARL_v68nktqafh","64013d507ab5a4cdc0c1a29a","fixation","","","img/fixation.png","null","","","test","","","","","","","","","","","","","","","","","","","",""
"408.1999999284744","316873","SARL_v6","SARL_v68nktqafh","64013d507ab5a4cdc0c1a29a","freq","","","img/blue_2bandit_b2.png","70","","70","test","1","","31","","","","circle","square","30","7","2","0.8333333333333334","","","","","","","",""
"null","317280","SARL_v6","SARL_v68nktqafh","64013d507ab5a4cdc0c1a29a","freq_resp","","","img/blue_2bandit_b.png","70","img/blue_2bandit_b.png","70","test","","","","","","","","","","","2","","","","","","","","",""
"null","317444","SARL_v6","SARL_v68nktqafh","64013d507ab5a4cdc0c1a29a","fixation","","","img/fixation.png","null","","","test","","","","","","","","","","","","","","","","","","","",""
"279.90000009536743","317727","SARL_v6","SARL_v68nktqafh","64013d507ab5a4cdc0c1a29a","freq","","","img/blue_2bandit_b2.png","70","","70","test","1","","32","","","","circle","square","31","8","2","0.8387096774193549","","","","","","","",""
"null","318254","SARL_v6","SARL_v68nktqafh","64013d507ab5a4cdc0c1a29a","freq_resp","","","img/blue_2bandit_b.png","70","img/blue_2bandit_b.png","70","test","","","","","","","","","","","2","","","","","","","","",""
"null","318412","SARL_v6","SARL_v68nktqafh","64013d507ab5a4cdc0c1a29a","fixation","","","img/fixation.png","null","","","test","","","","","","","","","","","","","","","","","","","",""
"301.09999990463257","318716","SARL_v6","SARL_v68nktqafh","64013d507ab5a4cdc0c1a29a","freq","","","img/blue_2bandit_b2.png","70","","70","test","1","","33","","","","circle","square","32","9","2","0.84375","","","","","","","",""
"null","319222","SARL_v6","SARL_v68nktqafh","64013d507ab5a4cdc0c1a29a","freq_resp","","","img/blue_2bandit_b.png","70","img/blue_2bandit_b.png","70","test","","","","","","","","","","","2","","","","","","","","",""
"null","319377","SARL_v6","SARL_v68nktqafh","64013d507ab5a4cdc0c1a29a","fixation","","","img/fixation.png","null","","","test","","","","","","","","","","","","","","","","","","","",""
"326.6999999284744","319707","SARL_v6","SARL_v68nktqafh","64013d507ab5a4cdc0c1a29a","freq","","","img/blue_2bandit_b2.png","70","","70","test","1","","34","","","","circle","square","33","10","2","0.8484848484848485","","","","","","","",""
"null","320194","SARL_v6","SARL_v68nktqafh","64013d507ab5a4cdc0c1a29a","freq_resp","","","img/blue_2bandit_b.png","70","img/blue_2bandit_b.png","70","test","","","","","","","","","","","2","","","","","","","","",""
"null","320361","SARL_v6","SARL_v68nktqafh","64013d507ab5a4cdc0c1a29a","fixation","","","img/fixation.png","null","","","test","","","","","","","","","","","","","","","","","","","",""
"249.10000002384186","320613","SARL_v6","SARL_v68nktqafh","64013d507ab5a4cdc0c1a29a","freq","","","img/blue_2bandit_b2.png","70","","70","test","1","","35","","","","circle","square","34","11","2","0.8529411764705882","","","","","","","",""
"null","321166","SARL_v6","SARL_v68nktqafh","64013d507ab5a4cdc0c1a29a","freq_resp","","","img/blue_2bandit_b.png","70","img/blue_2bandit_b.png","70","test","","","","","","","","","","","2","","","","","","","","",""
"null","321328","SARL_v6","SARL_v68nktqafh","64013d507ab5a4cdc0c1a29a","fixation","","","img/fixation.png","null","","","test","","","","","","","","","","","","","","","","","","","",""
"140.69999992847443","321471","SARL_v6","SARL_v68nktqafh","64013d507ab5a4cdc0c1a29a","freq","","","img/blue_2bandit_b2.png","70","","70","test","1","","36","","","","circle","square","35","12","2","0.8571428571428571","","","","","","","",""
"null","322138","SARL_v6","SARL_v68nktqafh","64013d507ab5a4cdc0c1a29a","freq_resp","","","img/blue_2bandit_b.png","70","img/blue_2bandit_b.png","70","test","","","","","","","","","","","2","","","","","","","","",""
"null","322306","SARL_v6","SARL_v68nktqafh","64013d507ab5a4cdc0c1a29a","fixation","","","img/fixation.png","null","","","test","","","","","","","","","","","","","","","","","","","",""
"475.2999999523163","322784","SARL_v6","SARL_v68nktqafh","64013d507ab5a4cdc0c1a29a","freq","","","img/blue_2bandit_b2.png","70","","70","test","1","","37","","","","circle","square","36","13","2","0.8611111111111112","","","","","","","",""
"null","323118","SARL_v6","SARL_v68nktqafh","64013d507ab5a4cdc0c1a29a","freq_resp","","","img/blue_2bandit_b.png","70","img/blue_2bandit_b.png","70","test","","","","","","","","","","","2","","","","","","","","",""
"null","323274","SARL_v6","SARL_v68nktqafh","64013d507ab5a4cdc0c1a29a","fixation","","","img/fixation.png","null","","","test","","","","","","","","","","","","","","","","","","","",""
"328.39999997615814","323606","SARL_v6","SARL_v68nktqafh","64013d507ab5a4cdc0c1a29a","freq","","","img/blue_2bandit_b2.png","70","","70","test","1","","38","","","","circle","square","37","14","2","0.8648648648648649","","","","","","","",""
"null","324086","SARL_v6","SARL_v68nktqafh","64013d507ab5a4cdc0c1a29a","freq_resp","","","img/blue_2bandit_b.png","70","img/blue_2bandit_b.png","70","test","","","","","","","","","","","2","","","","","","","","",""
"null","324239","SARL_v6","SARL_v68nktqafh","64013d507ab5a4cdc0c1a29a","fixation","","","img/fixation.png","null","","","test","","","","","","","","","","","","","","","","","","","",""
"470.5","324713","SARL_v6","SARL_v68nktqafh","64013d507ab5a4cdc0c1a29a","infreq","","","img/orange_2bandit_b2.png","68","","68","test","1","","39","","","","circle","square","38","15","2","0.868421052631579","","","","","","","",""
"null","325059","SARL_v6","SARL_v68nktqafh","64013d507ab5a4cdc0c1a29a","infreq_resp","","","img/orange_2bandit_b.png","68","img/orange_2bandit_b.png","68","test","","","","","","","","","","","2","","","","","","","","",""
"null","325221","SARL_v6","SARL_v68nktqafh","64013d507ab5a4cdc0c1a29a","fixation","","","img/fixation.png","null","","","test","","","","","","","","","","","","","","","","","","","",""
"419.40000009536743","325643","SARL_v6","SARL_v68nktqafh","64013d507ab5a4cdc0c1a29a","freq","","","img/blue_2bandit_b2.png","70","","70","test","1","","40","","","","circle","square","39","16","2","0.8717948717948718","","","","","","","",""
"null","326039","SARL_v6","SARL_v68nktqafh","64013d507ab5a4cdc0c1a29a","freq_resp","","","img/blue_2bandit_b.png","70","img/blue_2bandit_b.png","70","test","","","","","","","","","","","2","","","","","","","","",""
"null","326203","SARL_v6","SARL_v68nktqafh","64013d507ab5a4cdc0c1a29a","fixation","","","img/fixation.png","null","","","test","","","","","","","","","","","","","","","","","","","",""
"313.3000000715256","326520","SARL_v6","SARL_v68nktqafh","64013d507ab5a4cdc0c1a29a","freq","","","img/blue_2bandit_b2.png","70","","70","test","1","","41","","","","circle","square","40","17","2","0.875","","","","","","","",""
"null","327013","SARL_v6","SARL_v68nktqafh","64013d507ab5a4cdc0c1a29a","freq_resp","","","img/blue_2bandit_b.png","70","img/blue_2bandit_b.png","70","test","","","","","","","","","","","2","","","","","","","","",""
"null","327170","SARL_v6","SARL_v68nktqafh","64013d507ab5a4cdc0c1a29a","fixation","","","img/fixation.png","null","","","test","","","","","","","","","","","","","","","","","","","",""
"301.39999997615814","327474","SARL_v6","SARL_v68nktqafh","64013d507ab5a4cdc0c1a29a","freq","","","img/blue_2bandit_b2.png","70","","70","test","1","","42","","","","circle","square","41","18","2","0.8780487804878049","","","","","","","",""
"null","327985","SARL_v6","SARL_v68nktqafh","64013d507ab5a4cdc0c1a29a","freq_resp","","","img/blue_2bandit_b.png","70","img/blue_2bandit_b.png","70","test","","","","","","","","","","","2","","","","","","","","",""
"null","328151","SARL_v6","SARL_v68nktqafh","64013d507ab5a4cdc0c1a29a","fixation","","","img/fixation.png","null","","","test","","","","","","","","","","","","","","","","","","","",""
"340.60000002384186","328494","SARL_v6","SARL_v68nktqafh","64013d507ab5a4cdc0c1a29a","freq","","","img/blue_2bandit_b2.png","70","","70","test","1","","43","","","","circle","square","42","19","2","0.8809523809523809","","","","","","","",""
"null","328964","SARL_v6","SARL_v68nktqafh","64013d507ab5a4cdc0c1a29a","freq_resp","","","img/blue_2bandit_b.png","70","img/blue_2bandit_b.png","70","test","","","","","","","","","","","2","","","","","","","","",""
"null","329117","SARL_v6","SARL_v68nktqafh","64013d507ab5a4cdc0c1a29a","fixation","","","img/fixation.png","null","","","test","","","","","","","","","","","","","","","","","","","",""
"331.2000000476837","329451","SARL_v6","SARL_v68nktqafh","64013d507ab5a4cdc0c1a29a","freq","","","img/blue_2bandit_b2.png","70","","70","test","1","","44","","","","circle","square","43","20","2","0.8837209302325582","","","","","","","",""
"null","329929","SARL_v6","SARL_v68nktqafh","64013d507ab5a4cdc0c1a29a","freq_resp","","","img/blue_2bandit_b.png","70","img/blue_2bandit_b.png","70","test","","","","","","","","","","","2","","","","","","","","",""
"null","330084","SARL_v6","SARL_v68nktqafh","64013d507ab5a4cdc0c1a29a","fixation","","","img/fixation.png","null","","","test","","","","","","","","","","","","","","","","","","","",""
"294.5","330381","SARL_v6","SARL_v68nktqafh","64013d507ab5a4cdc0c1a29a","freq","","","img/blue_2bandit_b2.png","70","","70","test","1","","45","","","","circle","square","44","21","2","0.8863636363636364","","","","","","","",""
"null","330892","SARL_v6","SARL_v68nktqafh","64013d507ab5a4cdc0c1a29a","freq_resp","","","img/blue_2bandit_b.png","70","img/blue_2bandit_b.png","70","test","","","","","","","","","","","2","","","","","","","","",""
"null","331050","SARL_v6","SARL_v68nktqafh","64013d507ab5a4cdc0c1a29a","fixation","","","img/fixation.png","null","","","test","","","","","","","","","","","","","","","","","","","",""
"255.80000007152557","331308","SARL_v6","SARL_v68nktqafh","64013d507ab5a4cdc0c1a29a","freq","","","img/blue_2bandit_b2.png","70","","70","test","1","","46","","","","circle","square","45","22","2","0.8888888888888888","","","","","","","",""
"null","331862","SARL_v6","SARL_v68nktqafh","64013d507ab5a4cdc0c1a29a","freq_resp","","","img/blue_2bandit_b.png","70","img/blue_2bandit_b.png","70","test","","","","","","","","","","","2","","","","","","","","",""
"null","332030","SARL_v6","SARL_v68nktqafh","64013d507ab5a4cdc0c1a29a","fixation","","","img/fixation.png","null","","","test","","","","","","","","","","","","","","","","","","","",""
"261.2000000476837","332294","SARL_v6","SARL_v68nktqafh","64013d507ab5a4cdc0c1a29a","freq","","","img/blue_2bandit_b2.png","70","","70","test","1","","47","","","","circle","square","46","23","2","0.8913043478260869","","","","","","","",""
"null","332850","SARL_v6","SARL_v68nktqafh","64013d507ab5a4cdc0c1a29a","freq_resp","","","img/blue_2bandit_b.png","70","img/blue_2bandit_b.png","70","test","","","","","","","","","","","2","","","","","","","","",""
"null","333015","SARL_v6","SARL_v68nktqafh","64013d507ab5a4cdc0c1a29a","fixation","","","img/fixation.png","null","","","test","","","","","","","","","","","","","","","","","","","",""
"137.5","333155","SARL_v6","SARL_v68nktqafh","64013d507ab5a4cdc0c1a29a","freq","","","img/blue_2bandit_b2.png","70","","70","test","1","","48","","","","circle","square","47","24","2","0.8936170212765957","","","","","","","",""
"null","333833","SARL_v6","SARL_v68nktqafh","64013d507ab5a4cdc0c1a29a","freq_resp","","","img/blue_2bandit_b.png","70","img/blue_2bandit_b.png","70","test","","","","","","","","","","","2","","","","","","","","",""
"null","333996","SARL_v6","SARL_v68nktqafh","64013d507ab5a4cdc0c1a29a","fixation","","","img/fixation.png","null","","","test","","","","","","","","","","","","","","","","","","","",""
"572","334572","SARL_v6","SARL_v68nktqafh","64013d507ab5a4cdc0c1a29a","rl","","","img/black_2bandit_b2.png","75","","0","test","","","49","","","-8","circle","square","","0","2","","75","-5","-8","-5","-8","square","2","0"
"null","335338","SARL_v6","SARL_v68nktqafh","64013d507ab5a4cdc0c1a29a","feedback","","","<div class=""verylowPoints_sq""> -8 </div>","null","","na","test","","","NaN","","","","","","","","2","","75","","","","","","2",""
"518.1000000238419","335859","SARL_v6","SARL_v68nktqafh","64013d507ab5a4cdc0c1a29a","freq","","","img/blue_2bandit_b2.png","70","","70","test","1","","50","","","","circle","square","48","1","3","0.8958333333333334","","","","","","","",""
"null","336152","SARL_v6","SARL_v68nktqafh","64013d507ab5a4cdc0c1a29a","freq_resp","","","img/blue_2bandit_b.png","70","img/blue_2bandit_b.png","70","test","","","","","","","","","","","3","","","","","","","","",""
"null","336310","SARL_v6","SARL_v68nktqafh","64013d507ab5a4cdc0c1a29a","fixation","","","img/fixation.png","null","","","test","","","","","","","","","","","","","","","","","","","",""
"361.60000002384186","336674","SARL_v6","SARL_v68nktqafh","64013d507ab5a4cdc0c1a29a","freq","","","img/blue_2bandit_b2.png","70","","70","test","1","","51","","","","circle","square","49","2","3","0.8979591836734694","","","","","","","",""
"null","337123","SARL_v6","SARL_v68nktqafh","64013d507ab5a4cdc0c1a29a","freq_resp","","","img/blue_2bandit_b.png","70","img/blue_2bandit_b.png","70","test","","","","","","","","","","","3","","","","","","","","",""
"null","337291","SARL_v6","SARL_v68nktqafh","64013d507ab5a4cdc0c1a29a","fixation","","","img/fixation.png","null","","","test","","","","","","","","","","","","","","","","","","","",""
"284.8000000715256","337579","SARL_v6","SARL_v68nktqafh","64013d507ab5a4cdc0c1a29a","freq","","","img/blue_2bandit_b2.png","70","","70","test","1","","52","","","","circle","square","50","3","3","0.9","","","","","","","",""
"null","338101","SARL_v6","SARL_v68nktqafh","64013d507ab5a4cdc0c1a29a","freq_resp","","","img/blue_2bandit_b.png","70","img/blue_2bandit_b.png","70","test","","","","","","","","","","","3","","","","","","","","",""
"null","338258","SARL_v6","SARL_v68nktqafh","64013d507ab5a4cdc0c1a29a","fixation","","","img/fixation.png","null","","","test","","","","","","","","","","","","","","","","","","","",""
"69.39999997615814","338330","SARL_v6","SARL_v68nktqafh","64013d507ab5a4cdc0c1a29a","freq","","","img/blue_2bandit_b2.png","70","","70","test","1","","53","","","","circle","square","51","4","3","0.9019607843137255","","","","","","","",""
"null","339065","SARL_v6","SARL_v68nktqafh","64013d507ab5a4cdc0c1a29a","freq_resp","","","img/blue_2bandit_b.png","70","img/blue_2bandit_b.png","70","test","","","","","","","","","","","3","","","","","","","","",""
"null","339218","SARL_v6","SARL_v68nktqafh","64013d507ab5a4cdc0c1a29a","fixation","","","img/fixation.png","null","","","test","","","","","","","","","","","","","","","","","","","",""
"16.5","339237","SARL_v6","SARL_v68nktqafh","64013d507ab5a4cdc0c1a29a","freq","","","img/blue_2bandit_b2.png","70","","70","test","1","","54","","","","circle","square","52","5","3","0.9038461538461539","","","","","","","",""
"null","340033","SARL_v6","SARL_v68nktqafh","64013d507ab5a4cdc0c1a29a","freq_resp","","","img/blue_2bandit_b.png","70","img/blue_2bandit_b.png","70","test","","","","","","","","","","","3","","","","","","","","",""
"null","340189","SARL_v6","SARL_v68nktqafh","64013d507ab5a4cdc0c1a29a","fixation","","","img/fixation.png","null","","","test","","","","","","","","","","","","","","","","","","","",""
"155.19999992847443","340347","SARL_v6","SARL_v68nktqafh","64013d507ab5a4cdc0c1a29a","freq","","","img/blue_2bandit_b2.png","70","","70","test","1","","55","","","","circle","square","53","6","3","0.9056603773584906","","","","","","","",""
"null","341000","SARL_v6","SARL_v68nktqafh","64013d507ab5a4cdc0c1a29a","freq_resp","","","img/blue_2bandit_b.png","70","img/blue_2bandit_b.png","70","test","","","","","","","","","","","3","","","","","","","","",""
"null","341155","SARL_v6","SARL_v68nktqafh","64013d507ab5a4cdc0c1a29a","fixation","","","img/fixation.png","null","","","test","","","","","","","","","","","","","","","","","","","",""
"148.5","341306","SARL_v6","SARL_v68nktqafh","64013d507ab5a4cdc0c1a29a","freq","","","img/blue_2bandit_b2.png","70","","70","test","1","","56","","","","circle","square","54","7","3","0.9074074074074074","","","","","","","",""
"null","341961","SARL_v6","SARL_v68nktqafh","64013d507ab5a4cdc0c1a29a","freq_resp","","","img/blue_2bandit_b.png","70","img/blue_2bandit_b.png","70","test","","","","","","","","","","","3","","","","","","","","",""
"null","342125","SARL_v6","SARL_v68nktqafh","64013d507ab5a4cdc0c1a29a","fixation","","","img/fixation.png","null","","","test","","","","","","","","","","","","","","","","","","","",""
"148.5","342277","SARL_v6","SARL_v68nktqafh","64013d507ab5a4cdc0c1a29a","freq","","","img/blue_2bandit_b2.png","70","","70","test","1","","57","","","","circle","square","55","8","3","0.9090909090909091","","","","","","","",""
"null","342945","SARL_v6","SARL_v68nktqafh","64013d507ab5a4cdc0c1a29a","freq_resp","","","img/blue_2bandit_b.png","70","img/blue_2bandit_b.png","70","test","","","","","","","","","","","3","","","","","","","","",""
"null","343103","SARL_v6","SARL_v68nktqafh","64013d507ab5a4cdc0c1a29a","fixation","","","img/fixation.png","null","","","test","","","","","","","","","","","","","","","","","","","",""
"143.10000002384186","343249","SARL_v6","SARL_v68nktqafh","64013d507ab5a4cdc0c1a29a","freq","","","img/blue_2bandit_b2.png","70","","70","test","1","","58","","","","circle","square","56","9","3","0.9107142857142857","","","","","","","",""
"null","343920","SARL_v6","SARL_v68nktqafh","64013d507ab5a4cdc0c1a29a","freq_resp","","","img/blue_2bandit_b.png","70","img/blue_2bandit_b.png","70","test","","","","","","","","","","","3","","","","","","","","",""
"null","344085","SARL_v6","SARL_v68nktqafh","64013d507ab5a4cdc0c1a29a","fixation","","","img/fixation.png","null","","","test","","","","","","","","","","","","","","","","","","","",""
"128.10000002384186","344216","SARL_v6","SARL_v68nktqafh","64013d507ab5a4cdc0c1a29a","freq","","","img/blue_2bandit_b2.png","70","","70","test","1","","59","","","","circle","square","57","10","3","0.9122807017543859","","","","","","","",""
"null","344901","SARL_v6","SARL_v68nktqafh","64013d507ab5a4cdc0c1a29a","freq_resp","","","img/blue_2bandit_b.png","70","img/blue_2bandit_b.png","70","test","","","","","","","","","","","3","","","","","","","","",""
"null","345068","SARL_v6","SARL_v68nktqafh","64013d507ab5a4cdc0c1a29a","fixation","","","img/fixation.png","null","","","test","","","","","","","","","","","","","","","","","","","",""
"311.39999997615814","345382","SARL_v6","SARL_v68nktqafh","64013d507ab5a4cdc0c1a29a","freq","","","img/blue_2bandit_b2.png","70","","70","test","1","","60","","","","circle","square","58","11","3","0.9137931034482759","","","","","","","",""
"null","345886","SARL_v6","SARL_v68nktqafh","64013d507ab5a4cdc0c1a29a","freq_resp","","","img/blue_2bandit_b.png","70","img/blue_2bandit_b.png","70","test","","","","","","","","","","","3","","","","","","","","",""
"null","346049","SARL_v6","SARL_v68nktqafh","64013d507ab5a4cdc0c1a29a","fixation","","","img/fixation.png","null","","","test","","","","","","","","","","","","","","","","","","","",""
"244.5","346296","SARL_v6","SARL_v68nktqafh","64013d507ab5a4cdc0c1a29a","freq","","","img/blue_2bandit_b2.png","70","","70","test","1","","61","","","","circle","square","59","12","3","0.9152542372881356","","","","","","","",""
"null","346858","SARL_v6","SARL_v68nktqafh","64013d507ab5a4cdc0c1a29a","freq_resp","","","img/blue_2bandit_b.png","70","img/blue_2bandit_b.png","70","test","","","","","","","","","","","3","","","","","","","","",""
"null","347017","SARL_v6","SARL_v68nktqafh","64013d507ab5a4cdc0c1a29a","fixation","","","img/fixation.png","null","","","test","","","","","","","","","","","","","","","","","","","",""
"106.80000007152557","347127","SARL_v6","SARL_v68nktqafh","64013d507ab5a4cdc0c1a29a","freq","","","img/blue_2bandit_b2.png","70","","70","test","1","","62","","","","circle","square","60","13","3","0.9166666666666666","","","","","","","",""
"null","347837","SARL_v6","SARL_v68nktqafh","64013d507ab5a4cdc0c1a29a","freq_resp","","","img/blue_2bandit_b.png","70","img/blue_2bandit_b.png","70","test","","","","","","","","","","","3","","","","","","","","",""
"null","348000","SARL_v6","SARL_v68nktqafh","64013d507ab5a4cdc0c1a29a","fixation","","","img/fixation.png","null","","","test","","","","","","","","","","","","","","","","","","","",""
"136.60000002384186","348140","SARL_v6","SARL_v68nktqafh","64013d507ab5a4cdc0c1a29a","freq","","","img/blue_2bandit_b2.png","70","","70","test","1","","63","","","","circle","square","61","14","3","0.9180327868852459","","","","","","","",""
"null","348815","SARL_v6","SARL_v68nktqafh","64013d507ab5a4cdc0c1a29a","freq_resp","","","img/blue_2bandit_b.png","70","img/blue_2bandit_b.png","70","test","","","","","","","","","","","3","","","","","","","","",""
"null","348974","SARL_v6","SARL_v68nktqafh","64013d507ab5a4cdc0c1a29a","fixation","","","img/fixation.png","null","","","test","","","","","","","","","","","","","","","","","","","",""
"130.20000004768372","349107","SARL_v6","SARL_v68nktqafh","64013d507ab5a4cdc0c1a29a","freq","","","img/blue_2bandit_b2.png","70","","70","test","1","","64","","","","circle","square","62","15","3","0.9193548387096774","","","","","","","",""
"null","349792","SARL_v6","SARL_v68nktqafh","64013d507ab5a4cdc0c1a29a","freq_resp","","","img/blue_2bandit_b.png","70","img/blue_2bandit_b.png","70","test","","","","","","","","","","","3","","","","","","","","",""
"null","349947","SARL_v6","SARL_v68nktqafh","64013d507ab5a4cdc0c1a29a","fixation","","","img/fixation.png","null","","","test","","","","","","","","","","","","","","","","","","","",""
"260.8000000715256","350211","SARL_v6","SARL_v68nktqafh","64013d507ab5a4cdc0c1a29a","infreq","","","img/orange_2bandit_b2.png","70","","68","test","0","","65","","","","circle","square","63","16","3","0.9047619047619048","","","","","","","",""
"null","350761","SARL_v6","SARL_v68nktqafh","64013d507ab5a4cdc0c1a29a","infreq_resp","","","img/orange_2bandit_b.png","70","img/orange_2bandit_b.png","68","test","","","","","","","","","","","3","","","","","","","","",""
"null","350914","SARL_v6","SARL_v68nktqafh","64013d507ab5a4cdc0c1a29a","fixation","","","img/fixation.png","null","","","test","","","","","","","","","","","","","","","","","","","",""
"483.89999997615814","351401","SARL_v6","SARL_v68nktqafh","64013d507ab5a4cdc0c1a29a","freq","","","img/blue_2bandit_b2.png","70","","70","test","1","","66","","","","circle","square","64","17","3","0.90625","","","","","","","",""
"null","351735","SARL_v6","SARL_v68nktqafh","64013d507ab5a4cdc0c1a29a","freq_resp","","","img/blue_2bandit_b.png","70","img/blue_2bandit_b.png","70","test","","","","","","","","","","","3","","","","","","","","",""
"null","351894","SARL_v6","SARL_v68nktqafh","64013d507ab5a4cdc0c1a29a","fixation","","","img/fixation.png","null","","","test","","","","","","","","","","","","","","","","","","","",""
"291.5","352189","SARL_v6","SARL_v68nktqafh","64013d507ab5a4cdc0c1a29a","infreq","","","img/orange_2bandit_b2.png","70","","68","test","0","","67","","","","circle","square","65","18","3","0.8923076923076924","","","","","","","",""
"null","352707","SARL_v6","SARL_v68nktqafh","64013d507ab5a4cdc0c1a29a","infreq_resp","","","img/orange_2bandit_b.png","70","img/orange_2bandit_b.png","68","test","","","","","","","","","","","3","","","","","","","","",""
"null","352866","SARL_v6","SARL_v68nktqafh","64013d507ab5a4cdc0c1a29a","fixation","","","img/fixation.png","null","","","test","","","","","","","","","","","","","","","","","","","",""
"532.1999999284744","353401","SARL_v6","SARL_v68nktqafh","64013d507ab5a4cdc0c1a29a","freq","","","img/blue_2bandit_b2.png","70","","70","test","1","","68","","","","circle","square","66","19","3","0.8939393939393939","","","","","","","",""
"null","353684","SARL_v6","SARL_v68nktqafh","64013d507ab5a4cdc0c1a29a","freq_resp","","","img/blue_2bandit_b.png","70","img/blue_2bandit_b.png","70","test","","","","","","","","","","","3","","","","","","","","",""
"null","353844","SARL_v6","SARL_v68nktqafh","64013d507ab5a4cdc0c1a29a","fixation","","","img/fixation.png","null","","","test","","","","","","","","","","","","","","","","","","","",""
"383.5","354230","SARL_v6","SARL_v68nktqafh","64013d507ab5a4cdc0c1a29a","freq","","","img/blue_2bandit_b2.png","70","","70","test","1","","69","","","","circle","square","67","20","3","0.8955223880597015","","","","","","","",""
"null","354657","SARL_v6","SARL_v68nktqafh","64013d507ab5a4cdc0c1a29a","freq_resp","","","img/blue_2bandit_b.png","70","img/blue_2bandit_b.png","70","test","","","","","","","","","","","3","","","","","","","","",""
"null","354825","SARL_v6","SARL_v68nktqafh","64013d507ab5a4cdc0c1a29a","fixation","","","img/fixation.png","null","","","test","","","","","","","","","","","","","","","","","","","",""
"325.1999999284744","355153","SARL_v6","SARL_v68nktqafh","64013d507ab5a4cdc0c1a29a","freq","","","img/blue_2bandit_b2.png","70","","70","test","1","","70","","","","circle","square","68","21","3","0.8970588235294118","","","","","","","",""
"null","355643","SARL_v6","SARL_v68nktqafh","64013d507ab5a4cdc0c1a29a","freq_resp","","","img/blue_2bandit_b.png","70","img/blue_2bandit_b.png","70","test","","","","","","","","","","","3","","","","","","","","",""
"null","355807","SARL_v6","SARL_v68nktqafh","64013d507ab5a4cdc0c1a29a","fixation","","","img/fixation.png","null","","","test","","","","","","","","","","","","","","","","","","","",""
"548.2000000476837","356358","SARL_v6","SARL_v68nktqafh","64013d507ab5a4cdc0c1a29a","rl","","","img/black_2bandit_b2.png","75","","0","test","","","71","","","-8","circle","square","","0","3","","75","-4","-8","-4","-8","square","3","0"
"null","357116","SARL_v6","SARL_v68nktqafh","64013d507ab5a4cdc0c1a29a","feedback","","","<div class=""verylowPoints_sq""> -8 </div>","null","","na","test","","","NaN","","","","","","","","3","","75","","","","","","3",""
"null","357933","SARL_v6","SARL_v68nktqafh","64013d507ab5a4cdc0c1a29a","freq","","","img/blue_2bandit_b2.png","null","","70","test","0","","72","","","","circle","square","69","1","4","0.8840579710144928","","","","","","","",""
"null","358089","SARL_v6","SARL_v68nktqafh","64013d507ab5a4cdc0c1a29a","fixation","","","img/fixation.png","null","","","test","","","","","","","","","","","","","","","","","","","",""
"426","358518","SARL_v6","SARL_v68nktqafh","64013d507ab5a4cdc0c1a29a","freq","","","img/blue_2bandit_b2.png","70","","70","test","1","","73","","","","circle","square","70","2","4","0.8857142857142857","","","","","","","",""
"null","358906","SARL_v6","SARL_v68nktqafh","64013d507ab5a4cdc0c1a29a","freq_resp","","","img/blue_2bandit_b.png","70","img/blue_2bandit_b.png","70","test","","","","","","","","","","","4","","","","","","","","",""
"null","359070","SARL_v6","SARL_v68nktqafh","64013d507ab5a4cdc0c1a29a","fixation","","","img/fixation.png","null","","","test","","","","","","","","","","","","","","","","","","","",""
"313.2000000476837","359386","SARL_v6","SARL_v68nktqafh","64013d507ab5a4cdc0c1a29a","freq","","","img/blue_2bandit_b2.png","70","","70","test","1","","74","","","","circle","square","71","3","4","0.8873239436619719","","","","","","","",""
"null","359882","SARL_v6","SARL_v68nktqafh","64013d507ab5a4cdc0c1a29a","freq_resp","","","img/blue_2bandit_b.png","70","img/blue_2bandit_b.png","70","test","","","","","","","","","","","4","","","","","","","","",""
"null","360037","SARL_v6","SARL_v68nktqafh","64013d507ab5a4cdc0c1a29a","fixation","","","img/fixation.png","null","","","test","","","","","","","","","","","","","","","","","","","",""
"267","360306","SARL_v6","SARL_v68nktqafh","64013d507ab5a4cdc0c1a29a","infreq","","","img/orange_2bandit_b2.png","70","","68","test","0","","75","","","","circle","square","72","4","4","0.875","","","","","","","",""
"null","360845","SARL_v6","SARL_v68nktqafh","64013d507ab5a4cdc0c1a29a","infreq_resp","","","img/orange_2bandit_b.png","70","img/orange_2bandit_b.png","68","test","","","","","","","","","","","4","","","","","","","","",""
"null","361002","SARL_v6","SARL_v68nktqafh","64013d507ab5a4cdc0c1a29a","fixation","","","img/fixation.png","null","","","test","","","","","","","","","","","","","","","","","","","",""
"428.6999999284744","361434","SARL_v6","SARL_v68nktqafh","64013d507ab5a4cdc0c1a29a","freq","","","img/blue_2bandit_b2.png","70","","70","test","1","","76","","","","circle","square","73","5","4","0.8767123287671232","","","","","","","",""
"null","361808","SARL_v6","SARL_v68nktqafh","64013d507ab5a4cdc0c1a29a","freq_resp","","","img/blue_2bandit_b.png","70","img/blue_2bandit_b.png","70","test","","","","","","","","","","","4","","","","","","","","",""
"null","361968","SARL_v6","SARL_v68nktqafh","64013d507ab5a4cdc0c1a29a","fixation","","","img/fixation.png","null","","","test","","","","","","","","","","","","","","","","","","","",""
"344.89999997615814","362316","SARL_v6","SARL_v68nktqafh","64013d507ab5a4cdc0c1a29a","freq","","","img/blue_2bandit_b2.png","70","","70","test","1","","77","","","","circle","square","74","6","4","0.8783783783783784","","","","","","","",""
"null","362780","SARL_v6","SARL_v68nktqafh","64013d507ab5a4cdc0c1a29a","freq_resp","","","img/blue_2bandit_b.png","70","img/blue_2bandit_b.png","70","test","","","","","","","","","","","4","","","","","","","","",""
"null","362940","SARL_v6","SARL_v68nktqafh","64013d507ab5a4cdc0c1a29a","fixation","","","img/fixation.png","null","","","test","","","","","","","","","","","","","","","","","","","",""
"318.8000000715256","363261","SARL_v6","SARL_v68nktqafh","64013d507ab5a4cdc0c1a29a","freq","","","img/blue_2bandit_b2.png","70","","70","test","1","","78","","","","circle","square","75","7","4","0.88","","","","","","","",""
"null","363745","SARL_v6","SARL_v68nktqafh","64013d507ab5a4cdc0c1a29a","freq_resp","","","img/blue_2bandit_b.png","70","img/blue_2bandit_b.png","70","test","","","","","","","","","","","4","","","","","","","","",""
"null","363900","SARL_v6","SARL_v68nktqafh","64013d507ab5a4cdc0c1a29a","fixation","","","img/fixation.png","null","","","test","","","","","","","","","","","","","","","","","","","",""
"218.79999995231628","364122","SARL_v6","SARL_v68nktqafh","64013d507ab5a4cdc0c1a29a","freq","","","img/blue_2bandit_b2.png","70","","70","test","1","","79","","","","circle","square","76","8","4","0.881578947368421","","","","","","","",""
"null","364711","SARL_v6","SARL_v68nktqafh","64013d507ab5a4cdc0c1a29a","freq_resp","","","img/blue_2bandit_b.png","70","img/blue_2bandit_b.png","70","test","","","","","","","","","","","4","","","","","","","","",""
"null","364866","SARL_v6","SARL_v68nktqafh","64013d507ab5a4cdc0c1a29a","fixation","","","img/fixation.png","null","","","test","","","","","","","","","","","","","","","","","","","",""
"276.1999999284744","365145","SARL_v6","SARL_v68nktqafh","64013d507ab5a4cdc0c1a29a","freq","","","img/blue_2bandit_b2.png","70","","70","test","1","","80","","","","circle","square","77","9","4","0.8831168831168831","","","","","","","",""
"null","365675","SARL_v6","SARL_v68nktqafh","64013d507ab5a4cdc0c1a29a","freq_resp","","","img/blue_2bandit_b.png","70","img/blue_2bandit_b.png","70","test","","","","","","","","","","","4","","","","","","","","",""
"null","365832","SARL_v6","SARL_v68nktqafh","64013d507ab5a4cdc0c1a29a","fixation","","","img/fixation.png","null","","","test","","","","","","","","","","","","","","","","","","","",""
"281.8000000715256","366117","SARL_v6","SARL_v68nktqafh","64013d507ab5a4cdc0c1a29a","freq","","","img/blue_2bandit_b2.png","70","","70","test","1","","81","","","","circle","square","78","10","4","0.8846153846153846","","","","","","","",""
"null","366650","SARL_v6","SARL_v68nktqafh","64013d507ab5a4cdc0c1a29a","freq_resp","","","img/blue_2bandit_b.png","70","img/blue_2bandit_b.png","70","test","","","","","","","","","","","4","","","","","","","","",""
"null","366814","SARL_v6","SARL_v68nktqafh","64013d507ab5a4cdc0c1a29a","fixation","","","img/fixation.png","null","","","test","","","","","","","","","","","","","","","","","","","",""
"270.8000000715256","367088","SARL_v6","SARL_v68nktqafh","64013d507ab5a4cdc0c1a29a","freq","","","img/blue_2bandit_b2.png","70","","70","test","1","","82","","","","circle","square","79","11","4","0.8860759493670886","","","","","","","",""
"null","367629","SARL_v6","SARL_v68nktqafh","64013d507ab5a4cdc0c1a29a","freq_resp","","","img/blue_2bandit_b.png","70","img/blue_2bandit_b.png","70","test","","","","","","","","","","","4","","","","","","","","",""
"null","367795","SARL_v6","SARL_v68nktqafh","64013d507ab5a4cdc0c1a29a","fixation","","","img/fixation.png","null","","","test","","","","","","","","","","","","","","","","","","","",""
"null","368608","SARL_v6","SARL_v68nktqafh","64013d507ab5a4cdc0c1a29a","infreq","","","img/orange_2bandit_b2.png","null","","68","test","0","","83","","","","circle","square","80","12","4","0.875","","","","","","","",""
"null","368762","SARL_v6","SARL_v68nktqafh","64013d507ab5a4cdc0c1a29a","fixation","","","img/fixation.png","null","","","test","","","","","","","","","","","","","","","","","","","",""
"472","369237","SARL_v6","SARL_v68nktqafh","64013d507ab5a4cdc0c1a29a","freq","","","img/blue_2bandit_b2.png","70","","70","test","1","","84","","","","circle","square","81","13","4","0.8765432098765432","","","","","","","",""
"null","369572","SARL_v6","SARL_v68nktqafh","64013d507ab5a4cdc0c1a29a","freq_resp","","","img/blue_2bandit_b.png","70","img/blue_2bandit_b.png","70","test","","","","","","","","","","","4","","","","","","","","",""
"null","369729","SARL_v6","SARL_v68nktqafh","64013d507ab5a4cdc0c1a29a","fixation","","","img/fixation.png","null","","","test","","","","","","","","","","","","","","","","","","","",""
"312.39999997615814","370044","SARL_v6","SARL_v68nktqafh","64013d507ab5a4cdc0c1a29a","freq","","","img/blue_2bandit_b2.png","70","","70","test","1","","85","","","","circle","square","82","14","4","0.8780487804878049","","","","","","","",""
"null","370537","SARL_v6","SARL_v68nktqafh","64013d507ab5a4cdc0c1a29a","freq_resp","","","img/blue_2bandit_b.png","70","img/blue_2bandit_b.png","70","test","","","","","","","","","","","4","","","","","","","","",""
"null","370694","SARL_v6","SARL_v68nktqafh","64013d507ab5a4cdc0c1a29a","fixation","","","img/fixation.png","null","","","test","","","","","","","","","","","","","","","","","","","",""
"308.1999999284744","371005","SARL_v6","SARL_v68nktqafh","64013d507ab5a4cdc0c1a29a","freq","","","img/blue_2bandit_b2.png","70","","70","test","1","","86","","","","circle","square","83","15","4","0.8795180722891566","","","","","","","",""
"null","371504","SARL_v6","SARL_v68nktqafh","64013d507ab5a4cdc0c1a29a","freq_resp","","","img/blue_2bandit_b.png","70","img/blue_2bandit_b.png","70","test","","","","","","","","","","","4","","","","","","","","",""
"null","371659","SARL_v6","SARL_v68nktqafh","64013d507ab5a4cdc0c1a29a","fixation","","","img/fixation.png","null","","","test","","","","","","","","","","","","","","","","","","","",""
"313.60000002384186","371975","SARL_v6","SARL_v68nktqafh","64013d507ab5a4cdc0c1a29a","freq","","","img/blue_2bandit_b2.png","70","","70","test","1","","87","","","","circle","square","84","16","4","0.8809523809523809","","","","","","","",""
"null","372476","SARL_v6","SARL_v68nktqafh","64013d507ab5a4cdc0c1a29a","freq_resp","","","img/blue_2bandit_b.png","70","img/blue_2bandit_b.png","70","test","","","","","","","","","","","4","","","","","","","","",""
"null","372640","SARL_v6","SARL_v68nktqafh","64013d507ab5a4cdc0c1a29a","fixation","","","img/fixation.png","null","","","test","","","","","","","","","","","","","","","","","","","",""
"296.1999999284744","372941","SARL_v6","SARL_v68nktqafh","64013d507ab5a4cdc0c1a29a","freq","","","img/blue_2bandit_b2.png","70","","70","test","1","","88","","","","circle","square","85","17","4","0.8823529411764706","","","","","","","",""
"null","373447","SARL_v6","SARL_v68nktqafh","64013d507ab5a4cdc0c1a29a","freq_resp","","","img/blue_2bandit_b.png","70","img/blue_2bandit_b.png","70","test","","","","","","","","","","","4","","","","","","","","",""
"null","373609","SARL_v6","SARL_v68nktqafh","64013d507ab5a4cdc0c1a29a","fixation","","","img/fixation.png","null","","","test","","","","","","","","","","","","","","","","","","","",""
"325.1999999284744","373937","SARL_v6","SARL_v68nktqafh","64013d507ab5a4cdc0c1a29a","freq","","","img/blue_2bandit_b2.png","70","","70","test","1","","89","","","","circle","square","86","18","4","0.8837209302325582","","","","","","","",""
"null","374426","SARL_v6","SARL_v68nktqafh","64013d507ab5a4cdc0c1a29a","freq_resp","","","img/blue_2bandit_b.png","70","img/blue_2bandit_b.png","70","test","","","","","","","","","","","4","","","","","","","","",""
"null","374591","SARL_v6","SARL_v68nktqafh","64013d507ab5a4cdc0c1a29a","fixation","","","img/fixation.png","null","","","test","","","","","","","","","","","","","","","","","","","",""
"298.1999999284744","374892","SARL_v6","SARL_v68nktqafh","64013d507ab5a4cdc0c1a29a","freq","","","img/blue_2bandit_b2.png","70","","70","test","1","","90","","","","circle","square","87","19","4","0.8850574712643678","","","","","","","",""
"null","375400","SARL_v6","SARL_v68nktqafh","64013d507ab5a4cdc0c1a29a","freq_resp","","","img/blue_2bandit_b.png","70","img/blue_2bandit_b.png","70","test","","","","","","","","","","","4","","","","","","","","",""
"null","375557","SARL_v6","SARL_v68nktqafh","64013d507ab5a4cdc0c1a29a","fixation","","","img/fixation.png","null","","","test","","","","","","","","","","","","","","","","","","","",""
"305.7000000476837","375865","SARL_v6","SARL_v68nktqafh","64013d507ab5a4cdc0c1a29a","freq","","","img/blue_2bandit_b2.png","70","","70","test","1","","91","","","","circle","square","88","20","4","0.8863636363636364","","","","","","","",""
"null","376374","SARL_v6","SARL_v68nktqafh","64013d507ab5a4cdc0c1a29a","freq_resp","","","img/blue_2bandit_b.png","70","img/blue_2bandit_b.png","70","test","","","","","","","","","","","4","","","","","","","","",""
"null","376541","SARL_v6","SARL_v68nktqafh","64013d507ab5a4cdc0c1a29a","fixation","","","img/fixation.png","null","","","test","","","","","","","","","","","","","","","","","","","",""
"350.5","376895","SARL_v6","SARL_v68nktqafh","64013d507ab5a4cdc0c1a29a","freq","","","img/blue_2bandit_b2.png","70","","70","test","1","","92","","","","circle","square","89","21","4","0.8876404494382022","","","","","","","",""
"null","377351","SARL_v6","SARL_v68nktqafh","64013d507ab5a4cdc0c1a29a","freq_resp","","","img/blue_2bandit_b.png","70","img/blue_2bandit_b.png","70","test","","","","","","","","","","","4","","","","","","","","",""
"null","377505","SARL_v6","SARL_v68nktqafh","64013d507ab5a4cdc0c1a29a","fixation","","","img/fixation.png","null","","","test","","","","","","","","","","","","","","","","","","","",""
"393.89999997615814","377902","SARL_v6","SARL_v68nktqafh","64013d507ab5a4cdc0c1a29a","freq","","","img/blue_2bandit_b2.png","70","","70","test","1","","93","","","","circle","square","90","22","4","0.8888888888888888","","","","","","","",""
"null","378311","SARL_v6","SARL_v68nktqafh","64013d507ab5a4cdc0c1a29a","freq_resp","","","img/blue_2bandit_b.png","70","img/blue_2bandit_b.png","70","test","","","","","","","","","","","4","","","","","","","","",""
"null","378470","SARL_v6","SARL_v68nktqafh","64013d507ab5a4cdc0c1a29a","fixation","","","img/fixation.png","null","","","test","","","","","","","","","","","","","","","","","","","",""
"323","378796","SARL_v6","SARL_v68nktqafh","64013d507ab5a4cdc0c1a29a","freq","","","img/blue_2bandit_b2.png","70","","70","test","1","","94","","","","circle","square","91","23","4","0.8901098901098901","","","","","","","",""
"null","379284","SARL_v6","SARL_v68nktqafh","64013d507ab5a4cdc0c1a29a","freq_resp","","","img/blue_2bandit_b.png","70","img/blue_2bandit_b.png","70","test","","","","","","","","","","","4","","","","","","","","",""
"null","379452","SARL_v6","SARL_v68nktqafh","64013d507ab5a4cdc0c1a29a","fixation","","","img/fixation.png","null","","","test","","","","","","","","","","","","","","","","","","","",""
"280.59999990463257","379735","SARL_v6","SARL_v68nktqafh","64013d507ab5a4cdc0c1a29a","freq","","","img/blue_2bandit_b2.png","70","","70","test","1","","95","","","","circle","square","92","24","4","0.8913043478260869","","","","","","","",""
"null","380260","SARL_v6","SARL_v68nktqafh","64013d507ab5a4cdc0c1a29a","freq_resp","","","img/blue_2bandit_b.png","70","img/blue_2bandit_b.png","70","test","","","","","","","","","","","4","","","","","","","","",""
"null","380418","SARL_v6","SARL_v68nktqafh","64013d507ab5a4cdc0c1a29a","fixation","","","img/fixation.png","null","","","test","","","","","","","","","","","","","","","","","","","",""
"338.7999999523163","380759","SARL_v6","SARL_v68nktqafh","64013d507ab5a4cdc0c1a29a","freq","","","img/blue_2bandit_b2.png","70","","70","test","1","","96","","","","circle","square","93","25","4","0.8924731182795699","","","","","","","",""
"null","381230","SARL_v6","SARL_v68nktqafh","64013d507ab5a4cdc0c1a29a","freq_resp","","","img/blue_2bandit_b.png","70","img/blue_2bandit_b.png","70","test","","","","","","","","","","","4","","","","","","","","",""
"null","381385","SARL_v6","SARL_v68nktqafh","64013d507ab5a4cdc0c1a29a","fixation","","","img/fixation.png","null","","","test","","","","","","","","","","","","","","","","","","","",""
"375.60000002384186","381763","SARL_v6","SARL_v68nktqafh","64013d507ab5a4cdc0c1a29a","rl","","","img/black_2bandit_b2.png","74","","0","test","","","97","","","0","circle","square","","0","4","","74","0","-12","0","-12","circle","4","0"
"null","382525","SARL_v6","SARL_v68nktqafh","64013d507ab5a4cdc0c1a29a","feedback","","","<div class=""verylowPoints""> 0 </div>","null","","na","test","","","NaN","","","","","","","","4","","74","","","","","","4",""
"281.7000000476837","382809","SARL_v6","SARL_v68nktqafh","64013d507ab5a4cdc0c1a29a","freq","","","img/blue_2bandit_b2.png","70","","70","test","1","","98","","","","circle","square","94","1","5","0.8936170212765957","","","","","","","",""
"null","383337","SARL_v6","SARL_v68nktqafh","64013d507ab5a4cdc0c1a29a","freq_resp","","","img/blue_2bandit_b.png","70","img/blue_2bandit_b.png","70","test","","","","","","","","","","","5","","","","","","","","",""
"null","383500","SARL_v6","SARL_v68nktqafh","64013d507ab5a4cdc0c1a29a","fixation","","","img/fixation.png","null","","","test","","","","","","","","","","","","","","","","","","","",""
"630.3999999761581","384133","SARL_v6","SARL_v68nktqafh","64013d507ab5a4cdc0c1a29a","infreq","","","img/orange_2bandit_b2.png","68","","68","test","1","","99","","","","circle","square","95","2","5","0.8947368421052632","","","","","","","",""
"null","384310","SARL_v6","SARL_v68nktqafh","64013d507ab5a4cdc0c1a29a","infreq_resp","","","img/orange_2bandit_b.png","68","img/orange_2bandit_b.png","68","test","","","","","","","","","","","5","","","","","","","","",""
"null","384464","SARL_v6","SARL_v68nktqafh","64013d507ab5a4cdc0c1a29a","fixation","","","img/fixation.png","null","","","test","","","","","","","","","","","","","","","","","","","",""
"408.2999999523163","384875","SARL_v6","SARL_v68nktqafh","64013d507ab5a4cdc0c1a29a","freq","","","img/blue_2bandit_b2.png","70","","70","test","1","","100","","","","circle","square","96","3","5","0.8958333333333334","","","","","","","",""
"null","385280","SARL_v6","SARL_v68nktqafh","64013d507ab5a4cdc0c1a29a","freq_resp","","","img/blue_2bandit_b.png","70","img/blue_2bandit_b.png","70","test","","","","","","","","","","","5","","","","","","","","",""
"null","385446","SARL_v6","SARL_v68nktqafh","64013d507ab5a4cdc0c1a29a","fixation","","","img/fixation.png","null","","","test","","","","","","","","","","","","","","","","","","","",""
"265.5","385714","SARL_v6","SARL_v68nktqafh","64013d507ab5a4cdc0c1a29a","freq","","","img/blue_2bandit_b2.png","70","","70","test","1","","101","","","","circle","square","97","4","5","0.8969072164948454","","","","","","","",""
"null","386253","SARL_v6","SARL_v68nktqafh","64013d507ab5a4cdc0c1a29a","freq_resp","","","img/blue_2bandit_b.png","70","img/blue_2bandit_b.png","70","test","","","","","","","","","","","5","","","","","","","","",""
"null","386413","SARL_v6","SARL_v68nktqafh","64013d507ab5a4cdc0c1a29a","fixation","","","img/fixation.png","null","","","test","","","","","","","","","","","","","","","","","","","",""
"441.60000002384186","386857","SARL_v6","SARL_v68nktqafh","64013d507ab5a4cdc0c1a29a","freq","","","img/blue_2bandit_b2.png","70","","70","test","1","","102","","","","circle","square","98","5","5","0.8979591836734694","","","","","","","",""
"null","387222","SARL_v6","SARL_v68nktqafh","64013d507ab5a4cdc0c1a29a","freq_resp","","","img/blue_2bandit_b.png","70","img/blue_2bandit_b.png","70","test","","","","","","","","","","","5","","","","","","","","",""
"null","387379","SARL_v6","SARL_v68nktqafh","64013d507ab5a4cdc0c1a29a","fixation","","","img/fixation.png","null","","","test","","","","","","","","","","","","","","","","","","","",""
"359.8000000715256","387741","SARL_v6","SARL_v68nktqafh","64013d507ab5a4cdc0c1a29a","freq","","","img/blue_2bandit_b2.png","70","","70","test","1","","103","","","","circle","square","99","6","5","0.898989898989899","","","","","","","",""
"null","388194","SARL_v6","SARL_v68nktqafh","64013d507ab5a4cdc0c1a29a","freq_resp","","","img/blue_2bandit_b.png","70","img/blue_2bandit_b.png","70","test","","","","","","","","","","","5","","","","","","","","",""
"null","388360","SARL_v6","SARL_v68nktqafh","64013d507ab5a4cdc0c1a29a","fixation","","","img/fixation.png","null","","","test","","","","","","","","","","","","","","","","","","","",""
"322.8000000715256","388685","SARL_v6","SARL_v68nktqafh","64013d507ab5a4cdc0c1a29a","freq","","","img/blue_2bandit_b2.png","70","","70","test","1","","104","","","","circle","square","100","7","5","0.9","","","","","","","",""
"null","389172","SARL_v6","SARL_v68nktqafh","64013d507ab5a4cdc0c1a29a","freq_resp","","","img/blue_2bandit_b.png","70","img/blue_2bandit_b.png","70","test","","","","","","","","","","","5","","","","","","","","",""
"null","389325","SARL_v6","SARL_v68nktqafh","64013d507ab5a4cdc0c1a29a","fixation","","","img/fixation.png","null","","","test","","","","","","","","","","","","","","","","","","","",""
"220","389548","SARL_v6","SARL_v68nktqafh","64013d507ab5a4cdc0c1a29a","freq","","","img/blue_2bandit_b2.png","70","","70","test","1","","105","","","","circle","square","101","8","5","0.900990099009901","","","","","","","",""
"null","390138","SARL_v6","SARL_v68nktqafh","64013d507ab5a4cdc0c1a29a","freq_resp","","","img/blue_2bandit_b.png","70","img/blue_2bandit_b.png","70","test","","","","","","","","","","","5","","","","","","","","",""
"null","390307","SARL_v6","SARL_v68nktqafh","64013d507ab5a4cdc0c1a29a","fixation","","","img/fixation.png","null","","","test","","","","","","","","","","","","","","","","","","","",""
"197.29999995231628","390507","SARL_v6","SARL_v68nktqafh","64013d507ab5a4cdc0c1a29a","freq","","","img/blue_2bandit_b2.png","70","","70","test","1","","106","","","","circle","square","102","9","5","0.9019607843137255","","","","","","","",""
"null","391123","SARL_v6","SARL_v68nktqafh","64013d507ab5a4cdc0c1a29a","freq_resp","","","img/blue_2bandit_b.png","70","img/blue_2bandit_b.png","70","test","","","","","","","","","","","5","","","","","","","","",""
"null","391280","SARL_v6","SARL_v68nktqafh","64013d507ab5a4cdc0c1a29a","fixation","","","img/fixation.png","null","","","test","","","","","","","","","","","","","","","","","","","",""
"281.7999999523163","391564","SARL_v6","SARL_v68nktqafh","64013d507ab5a4cdc0c1a29a","freq","","","img/blue_2bandit_b2.png","70","","70","test","1","","107","","","","circle","square","103","10","5","0.9029126213592233","","","","","","","",""
"null","392100","SARL_v6","SARL_v68nktqafh","64013d507ab5a4cdc0c1a29a","freq_resp","","","img/blue_2bandit_b.png","70","img/blue_2bandit_b.png","70","test","","","","","","","","","","","5","","","","","","","","",""
"null","392258","SARL_v6","SARL_v68nktqafh","64013d507ab5a4cdc0c1a29a","fixation","","","img/fixation.png","null","","","test","","","","","","","","","","","","","","","","","","","",""
"243.20000004768372","392504","SARL_v6","SARL_v68nktqafh","64013d507ab5a4cdc0c1a29a","freq","","","img/blue_2bandit_b2.png","70","","70","test","1","","108","","","","circle","square","104","11","5","0.9038461538461539","","","","","","","",""
"null","393068","SARL_v6","SARL_v68nktqafh","64013d507ab5a4cdc0c1a29a","freq_resp","","","img/blue_2bandit_b.png","70","img/blue_2bandit_b.png","70","test","","","","","","","","","","","5","","","","","","","","",""
"null","393224","SARL_v6","SARL_v68nktqafh","64013d507ab5a4cdc0c1a29a","fixation","","","img/fixation.png","null","","","test","","","","","","","","","","","","","","","","","","","",""
"208.30000007152557","393435","SARL_v6","SARL_v68nktqafh","64013d507ab5a4cdc0c1a29a","infreq","","","img/orange_2bandit_b2.png","70","","68","test","0","","109","","","","circle","square","105","12","5","0.8952380952380953","","","","","","","",""
"null","394042","SARL_v6","SARL_v68nktqafh","64013d507ab5a4cdc0c1a29a","infreq_resp","","","img/orange_2bandit_b.png","70","img/orange_2bandit_b.png","68","test","","","","","","","","","","","5","","","","","","","","",""
"null","394204","SARL_v6","SARL_v68nktqafh","64013d507ab5a4cdc0c1a29a","fixation","","","img/fixation.png","null","","","test","","","","","","","","","","","","","","","","","","","",""
"486.7999999523163","394694","SARL_v6","SARL_v68nktqafh","64013d507ab5a4cdc0c1a29a","freq","","","img/blue_2bandit_b2.png","70","","70","test","1","","110","","","","circle","square","106","13","5","0.8962264150943396","","","","","","","",""
"null","395018","SARL_v6","SARL_v68nktqafh","64013d507ab5a4cdc0c1a29a","freq_resp","","","img/blue_2bandit_b.png","70","img/blue_2bandit_b.png","70","test","","","","","","","","","","","5","","","","","","","","",""
"null","395171","SARL_v6","SARL_v68nktqafh","64013d507ab5a4cdc0c1a29a","fixation","","","img/fixation.png","null","","","test","","","","","","","","","","","","","","","","","","","",""
"322","395496","SARL_v6","SARL_v68nktqafh","64013d507ab5a4cdc0c1a29a","freq","","","img/blue_2bandit_b2.png","70","","70","test","1","","111","","","","circle","square","107","14","5","0.897196261682243","","","","","","","",""
"null","395981","SARL_v6","SARL_v68nktqafh","64013d507ab5a4cdc0c1a29a","freq_resp","","","img/blue_2bandit_b.png","70","img/blue_2bandit_b.png","70","test","","","","","","","","","","","5","","","","","","","","",""
"null","396137","SARL_v6","SARL_v68nktqafh","64013d507ab5a4cdc0c1a29a","fixation","","","img/fixation.png","null","","","test","","","","","","","","","","","","","","","","","","","",""
"260.8000000715256","396401","SARL_v6","SARL_v68nktqafh","64013d507ab5a4cdc0c1a29a","freq","","","img/blue_2bandit_b2.png","70","","70","test","1","","112","","","","circle","square","108","15","5","0.8981481481481481","","","","","","","",""
"null","396943","SARL_v6","SARL_v68nktqafh","64013d507ab5a4cdc0c1a29a","freq_resp","","","img/blue_2bandit_b.png","70","img/blue_2bandit_b.png","70","test","","","","","","","","","","","5","","","","","","","","",""
"null","397102","SARL_v6","SARL_v68nktqafh","64013d507ab5a4cdc0c1a29a","fixation","","","img/fixation.png","null","","","test","","","","","","","","","","","","","","","","","","","",""
"252.70000004768372","397357","SARL_v6","SARL_v68nktqafh","64013d507ab5a4cdc0c1a29a","freq","","","img/blue_2bandit_b2.png","70","","70","test","1","","113","","","","circle","square","109","16","5","0.8990825688073395","","","","","","","",""
"null","397910","SARL_v6","SARL_v68nktqafh","64013d507ab5a4cdc0c1a29a","freq_resp","","","img/blue_2bandit_b.png","70","img/blue_2bandit_b.png","70","test","","","","","","","","","","","5","","","","","","","","",""
"null","398068","SARL_v6","SARL_v68nktqafh","64013d507ab5a4cdc0c1a29a","fixation","","","img/fixation.png","null","","","test","","","","","","","","","","","","","","","","","","","",""
"401.60000002384186","398472","SARL_v6","SARL_v68nktqafh","64013d507ab5a4cdc0c1a29a","freq","","","img/blue_2bandit_b2.png","70","","70","test","1","","114","","","","circle","square","110","17","5","0.9","","","","","","","",""
"null","398884","SARL_v6","SARL_v68nktqafh","64013d507ab5a4cdc0c1a29a","freq_resp","","","img/blue_2bandit_b.png","70","img/blue_2bandit_b.png","70","test","","","","","","","","","","","5","","","","","","","","",""
"null","399049","SARL_v6","SARL_v68nktqafh","64013d507ab5a4cdc0c1a29a","fixation","","","img/fixation.png","null","","","test","","","","","","","","","","","","","","","","","","","",""
"317.7999999523163","399369","SARL_v6","SARL_v68nktqafh","64013d507ab5a4cdc0c1a29a","freq","","","img/blue_2bandit_b2.png","70","","70","test","1","","115","","","","circle","square","111","18","5","0.9009009009009009","","","","","","","",""
"null","399861","SARL_v6","SARL_v68nktqafh","64013d507ab5a4cdc0c1a29a","freq_resp","","","img/blue_2bandit_b.png","70","img/blue_2bandit_b.png","70","test","","","","","","","","","","","5","","","","","","","","",""
"null","400018","SARL_v6","SARL_v68nktqafh","64013d507ab5a4cdc0c1a29a","fixation","","","img/fixation.png","null","","","test","","","","","","","","","","","","","","","","","","","",""
"339.2999999523163","400360","SARL_v6","SARL_v68nktqafh","64013d507ab5a4cdc0c1a29a","freq","","","img/blue_2bandit_b2.png","70","","70","test","1","","116","","","","circle","square","112","19","5","0.9017857142857143","","","","","","","",""
"null","400831","SARL_v6","SARL_v68nktqafh","64013d507ab5a4cdc0c1a29a","freq_resp","","","img/blue_2bandit_b.png","70","img/blue_2bandit_b.png","70","test","","","","","","","","","","","5","","","","","","","","",""
"null","400984","SARL_v6","SARL_v68nktqafh","64013d507ab5a4cdc0c1a29a","fixation","","","img/fixation.png","null","","","test","","","","","","","","","","","","","","","","","","","",""
"334.1999999284744","401321","SARL_v6","SARL_v68nktqafh","64013d507ab5a4cdc0c1a29a","freq","","","img/blue_2bandit_b2.png","70","","70","test","1","","117","","","","circle","square","113","20","5","0.9026548672566371","","","","","","","",""
"null","401794","SARL_v6","SARL_v68nktqafh","64013d507ab5a4cdc0c1a29a","freq_resp","","","img/blue_2bandit_b.png","70","img/blue_2bandit_b.png","70","test","","","","","","","","","","","5","","","","","","","","",""
"null","401948","SARL_v6","SARL_v68nktqafh","64013d507ab5a4cdc0c1a29a","fixation","","","img/fixation.png","null","","","test","","","","","","","","","","","","","","","","","","","",""
"325.10000002384186","402276","SARL_v6","SARL_v68nktqafh","64013d507ab5a4cdc0c1a29a","freq","","","img/blue_2bandit_b2.png","70","","70","test","1","","118","","","","circle","square","114","21","5","0.9035087719298246","","","","","","","",""
"null","402759","SARL_v6","SARL_v68nktqafh","64013d507ab5a4cdc0c1a29a","freq_resp","","","img/blue_2bandit_b.png","70","img/blue_2bandit_b.png","70","test","","","","","","","","","","","5","","","","","","","","",""
"null","402925","SARL_v6","SARL_v68nktqafh","64013d507ab5a4cdc0c1a29a","fixation","","","img/fixation.png","null","","","test","","","","","","","","","","","","","","","","","","","",""
"514.7999999523163","403442","SARL_v6","SARL_v68nktqafh","64013d507ab5a4cdc0c1a29a","rl","","","img/black_2bandit_b2.png","75","","0","test","","","119","","","-7","circle","square","","0","5","","75","4","-7","4","-7","square","5","0"
"null","404198","SARL_v6","SARL_v68nktqafh","64013d507ab5a4cdc0c1a29a","feedback","","","<div class=""verylowPoints_sq""> -7 </div>","null","","na","test","","","NaN","","","","","","","","5","","75","","","","","","5",""
"284.7999999523163","404486","SARL_v6","SARL_v68nktqafh","64013d507ab5a4cdc0c1a29a","freq","","","img/blue_2bandit_b2.png","70","","70","test","1","","120","","","","circle","square","115","1","6","0.9043478260869565","","","","","","","",""
"null","405005","SARL_v6","SARL_v68nktqafh","64013d507ab5a4cdc0c1a29a","freq_resp","","","img/blue_2bandit_b.png","70","img/blue_2bandit_b.png","70","test","","","","","","","","","","","6","","","","","","","","",""
"null","405162","SARL_v6","SARL_v68nktqafh","64013d507ab5a4cdc0c1a29a","fixation","","","img/fixation.png","null","","","test","","","","","","","","","","","","","","","","","","","",""
"280.2999999523163","405445","SARL_v6","SARL_v68nktqafh","64013d507ab5a4cdc0c1a29a","freq","","","img/blue_2bandit_b2.png","70","","70","test","1","","121","","","","circle","square","116","2","6","0.9051724137931034","","","","","","","",""
"null","405970","SARL_v6","SARL_v68nktqafh","64013d507ab5a4cdc0c1a29a","freq_resp","","","img/blue_2bandit_b.png","70","img/blue_2bandit_b.png","70","test","","","","","","","","","","","6","","","","","","","","",""
"null","406127","SARL_v6","SARL_v68nktqafh","64013d507ab5a4cdc0c1a29a","fixation","","","img/fixation.png","null","","","test","","","","","","","","","","","","","","","","","","","",""
"323.7000000476837","406454","SARL_v6","SARL_v68nktqafh","64013d507ab5a4cdc0c1a29a","freq","","","img/blue_2bandit_b2.png","70","","70","test","1","","122","","","","circle","square","117","3","6","0.905982905982906","","","","","","","",""
"null","406939","SARL_v6","SARL_v68nktqafh","64013d507ab5a4cdc0c1a29a","freq_resp","","","img/blue_2bandit_b.png","70","img/blue_2bandit_b.png","70","test","","","","","","","","","","","6","","","","","","","","",""
"null","407108","SARL_v6","SARL_v68nktqafh","64013d507ab5a4cdc0c1a29a","fixation","","","img/fixation.png","null","","","test","","","","","","","","","","","","","","","","","","","",""
"180.79999995231628","407292","SARL_v6","SARL_v68nktqafh","64013d507ab5a4cdc0c1a29a","freq","","","img/blue_2bandit_b2.png","70","","70","test","1","","123","","","","circle","square","118","4","6","0.9067796610169492","","","","","","","",""
"null","407925","SARL_v6","SARL_v68nktqafh","64013d507ab5a4cdc0c1a29a","freq_resp","","","img/blue_2bandit_b.png","70","img/blue_2bandit_b.png","70","test","","","","","","","","","","","6","","","","","","","","",""
"null","408079","SARL_v6","SARL_v68nktqafh","64013d507ab5a4cdc0c1a29a","fixation","","","img/fixation.png","null","","","test","","","","","","","","","","","","","","","","","","","",""
"143.10000002384186","408225","SARL_v6","SARL_v68nktqafh","64013d507ab5a4cdc0c1a29a","freq","","","img/blue_2bandit_b2.png","70","","70","test","1","","124","","","","circle","square","119","5","6","0.907563025210084","","","","","","","",""
"null","408889","SARL_v6","SARL_v68nktqafh","64013d507ab5a4cdc0c1a29a","freq_resp","","","img/blue_2bandit_b.png","70","img/blue_2bandit_b.png","70","test","","","","","","","","","","","6","","","","","","","","",""
"null","409056","SARL_v6","SARL_v68nktqafh","64013d507ab5a4cdc0c1a29a","fixation","","","img/fixation.png","null","","","test","","","","","","","","","","","","","","","","","","","",""
"232","409291","SARL_v6","SARL_v68nktqafh","64013d507ab5a4cdc0c1a29a","freq","","","img/blue_2bandit_b2.png","70","","70","test","1","","125","","","","circle","square","120","6","6","0.9083333333333333","","","","","","","",""
"null","409877","SARL_v6","SARL_v68nktqafh","64013d507ab5a4cdc0c1a29a","freq_resp","","","img/blue_2bandit_b.png","70","img/blue_2bandit_b.png","70","test","","","","","","","","","","","6","","","","","","","","",""
"null","410038","SARL_v6","SARL_v68nktqafh","64013d507ab5a4cdc0c1a29a","fixation","","","img/fixation.png","null","","","test","","","","","","","","","","","","","","","","","","","",""
"270.39999997615814","410312","SARL_v6","SARL_v68nktqafh","64013d507ab5a4cdc0c1a29a","freq","","","img/blue_2bandit_b2.png","70","","70","test","1","","126","","","","circle","square","121","7","6","0.9090909090909091","","","","","","","",""
"null","410847","SARL_v6","SARL_v68nktqafh","64013d507ab5a4cdc0c1a29a","freq_resp","","","img/blue_2bandit_b.png","70","img/blue_2bandit_b.png","70","test","","","","","","","","","","","6","","","","","","","","",""
"null","411005","SARL_v6","SARL_v68nktqafh","64013d507ab5a4cdc0c1a29a","fixation","","","img/fixation.png","null","","","test","","","","","","","","","","","","","","","","","","","",""
"165.60000002384186","411174","SARL_v6","SARL_v68nktqafh","64013d507ab5a4cdc0c1a29a","freq","","","img/blue_2bandit_b2.png","70","","70","test","1","","127","","","","circle","square","122","8","6","0.9098360655737705","","","","","","","",""
"null","411823","SARL_v6","SARL_v68nktqafh","64013d507ab5a4cdc0c1a29a","freq_resp","","","img/blue_2bandit_b.png","70","img/blue_2bandit_b.png","70","test","","","","","","","","","","","6","","","","","","","","",""
"null","411988","SARL_v6","SARL_v68nktqafh","64013d507ab5a4cdc0c1a29a","fixation","","","img/fixation.png","null","","","test","","","","","","","","","","","","","","","","","","","",""
"330.89999997615814","412322","SARL_v6","SARL_v68nktqafh","64013d507ab5a4cdc0c1a29a","freq","","","img/blue_2bandit_b2.png","70","","70","test","1","","128","","","","circle","square","123","9","6","0.9105691056910569","","","","","","","",""
"null","412799","SARL_v6","SARL_v68nktqafh","64013d507ab5a4cdc0c1a29a","freq_resp","","","img/blue_2bandit_b.png","70","img/blue_2bandit_b.png","70","test","","","","","","","","","","","6","","","","","","","","",""
"null","412954","SARL_v6","SARL_v68nktqafh","64013d507ab5a4cdc0c1a29a","fixation","","","img/fixation.png","null","","","test","","","","","","","","","","","","","","","","","","","",""
"294.5","413251","SARL_v6","SARL_v68nktqafh","64013d507ab5a4cdc0c1a29a","freq","","","img/blue_2bandit_b2.png","70","","70","test","1","","129","","","","circle","square","124","10","6","0.9112903225806451","","","","","","","",""
"null","413762","SARL_v6","SARL_v68nktqafh","64013d507ab5a4cdc0c1a29a","freq_resp","","","img/blue_2bandit_b.png","70","img/blue_2bandit_b.png","70","test","","","","","","","","","","","6","","","","","","","","",""
"null","413918","SARL_v6","SARL_v68nktqafh","64013d507ab5a4cdc0c1a29a","fixation","","","img/fixation.png","null","","","test","","","","","","","","","","","","","","","","","","","",""
"321.10000002384186","414242","SARL_v6","SARL_v68nktqafh","64013d507ab5a4cdc0c1a29a","freq","","","img/blue_2bandit_b2.png","70","","70","test","1","","130","","","","circle","square","125","11","6","0.912","","","","","","","",""
"null","414730","SARL_v6","SARL_v68nktqafh","64013d507ab5a4cdc0c1a29a","freq_resp","","","img/blue_2bandit_b.png","70","img/blue_2bandit_b.png","70","test","","","","","","","","","","","6","","","","","","","","",""
"null","414885","SARL_v6","SARL_v68nktqafh","64013d507ab5a4cdc0c1a29a","fixation","","","img/fixation.png","null","","","test","","","","","","","","","","","","","","","","","","","",""
"334.2999999523163","415222","SARL_v6","SARL_v68nktqafh","64013d507ab5a4cdc0c1a29a","freq","","","img/blue_2bandit_b2.png","70","","70","test","1","","131","","","","circle","square","126","12","6","0.9126984126984127","","","","","","","",""
"null","415697","SARL_v6","SARL_v68nktqafh","64013d507ab5a4cdc0c1a29a","freq_resp","","","img/blue_2bandit_b.png","70","img/blue_2bandit_b.png","70","test","","","","","","","","","","","6","","","","","","","","",""
"null","415865","SARL_v6","SARL_v68nktqafh","64013d507ab5a4cdc0c1a29a","fixation","","","img/fixation.png","null","","","test","","","","","","","","","","","","","","","","","","","",""
