"rt","time_elapsed","expId","subject","prolificID","trialType","rlType","attType","stimulus","key_press","stim","corrresp","phase","corr","pracCounter","trialNum","rewardOne","rewardTwo","reward","bandOne","bandTwo","attentionNum","attentionRunNum","blockNum","performance","bandChosen","circleVal","squareVal","bandOneVal","bandTwoVal","shapeChosen","rlNum","badFlag"
"4276","4280","SARL_v6","SARL_v68vg23v0f","60d8c6bc9686529cdc824a49","","","","","","","","","","","","","","","","","","","","","","","","","","","",""
"","7391","SARL_v6","SARL_v68vg23v0f","60d8c6bc9686529cdc824a49","fullscreen","fullscreen","fullscreen","","","","","","","","","","","","","","","","","","","","","","","","",""
"69314","76707","SARL_v6","SARL_v68vg23v0f","60d8c6bc9686529cdc824a49","","","","","","","","","","","","","","","","","","","","","","","","","","","",""
"null","77516","SARL_v6","SARL_v68vg23v0f","60d8c6bc9686529cdc824a49","freqPrac","","","img/blue_2bandit_a2.png","null","img/blue_2bandit_a2.png","70","prac","0","1","","","","","","","","","","","","","","","","","",""
"null","78529","SARL_v6","SARL_v68vg23v0f","60d8c6bc9686529cdc824a49","feedback","","","img/tooSlow.png","null","","na","prac","","","","","","","","","","","","","","","","","","","",""
"null","78687","SARL_v6","SARL_v68vg23v0f","60d8c6bc9686529cdc824a49","fixation","","","img/fixation.png","null","","","prac","","","","","","","","","","","","","","","","","","","",""
"null","79490","SARL_v6","SARL_v68vg23v0f","60d8c6bc9686529cdc824a49","infreqPrac","","","img/orange_2bandit_a2.png","null","img/orange_2bandit_a2.png","68","prac","0","2","","","","","","","","","","","","","","","","","",""
"null","80499","SARL_v6","SARL_v68vg23v0f","60d8c6bc9686529cdc824a49","feedback","","","img/tooSlow.png","null","","na","prac","","","","","","","","","","","","","","","","","","","",""
"null","80652","SARL_v6","SARL_v68vg23v0f","60d8c6bc9686529cdc824a49","fixation","","","img/fixation.png","null","","","prac","","","","","","","","","","","","","","","","","","","",""
"496","81151","SARL_v6","SARL_v68vg23v0f","60d8c6bc9686529cdc824a49","freqPrac","","","img/blue_2bandit_a2.png","68","img/blue_2bandit_a2.png","70","prac","0","3","","","","","","","","","","","","","","","","","",""
"496","81466","SARL_v6","SARL_v68vg23v0f","60d8c6bc9686529cdc824a49","freqPrac_resp","","","img/blue_2bandit_a.png","68","img/blue_2bandit_a.png","70","prac","","","","","","","","","","","","","","","","","","","",""
"null","82473","SARL_v6","SARL_v68vg23v0f","60d8c6bc9686529cdc824a49","feedback","","","img/wrongKey.png","null","","na","prac","","","","","","","","","","","","","","","","","","","",""
"null","82630","SARL_v6","SARL_v68vg23v0f","60d8c6bc9686529cdc824a49","fixation","","","img/fixation.png","null","","","prac","","","","","","","","","","","","","","","","","","","",""
"483","83115","SARL_v6","SARL_v68vg23v0f","60d8c6bc9686529cdc824a49","infreqPrac","","","img/orange_2bandit_a2.png","68","img/orange_2bandit_a2.png","68","prac","1","3","","","","","","","","","","","","","","","","","",""
"483","83443","SARL_v6","SARL_v68vg23v0f","60d8c6bc9686529cdc824a49","infreqPrac_resp","","","img/orange_2bandit_a.png","68","img/orange_2bandit_a.png","68","prac","","","","","","","","","","","","","","","","","","","",""
"null","83599","SARL_v6","SARL_v68vg23v0f","60d8c6bc9686529cdc824a49","fixation","","","img/fixation.png","null","","","prac","","","","","","","","","","","","","","","","","","","",""
"614","84216","SARL_v6","SARL_v68vg23v0f","60d8c6bc9686529cdc824a49","infreqPrac","","","img/orange_2bandit_a2.png","68","img/orange_2bandit_a2.png","68","prac","1","3","","","","","","","","","","","","","","","","","",""
"614","84416","SARL_v6","SARL_v68vg23v0f","60d8c6bc9686529cdc824a49","infreqPrac_resp","","","img/orange_2bandit_a.png","68","img/orange_2bandit_a.png","68","prac","","","","","","","","","","","","","","","","","","","",""
"null","84574","SARL_v6","SARL_v68vg23v0f","60d8c6bc9686529cdc824a49","fixation","","","img/fixation.png","null","","","prac","","","","","","","","","","","","","","","","","","","",""
"790","85367","SARL_v6","SARL_v68vg23v0f","60d8c6bc9686529cdc824a49","infreqPrac","","","img/orange_2bandit_a2.png","68","img/orange_2bandit_a2.png","68","prac","1","3","","","","","","","","","","","","","","","","","",""
"790","85380","SARL_v6","SARL_v68vg23v0f","60d8c6bc9686529cdc824a49","infreqPrac_resp","","","img/orange_2bandit_a.png","68","img/orange_2bandit_a.png","68","prac","","","","","","","","","","","","","","","","","","","",""
"null","85534","SARL_v6","SARL_v68vg23v0f","60d8c6bc9686529cdc824a49","fixation","","","img/fixation.png","null","","","prac","","","","","","","","","","","","","","","","","","","",""
"687","86222","SARL_v6","SARL_v68vg23v0f","60d8c6bc9686529cdc824a49","freqPrac","","","img/blue_2bandit_a2.png","70","img/blue_2bandit_a2.png","70","prac","1","3","","","","","","","","","","","","","","","","","",""
"687","86343","SARL_v6","SARL_v68vg23v0f","60d8c6bc9686529cdc824a49","freqPrac_resp","","","img/blue_2bandit_a.png","70","img/blue_2bandit_a.png","70","prac","","","","","","","","","","","","","","","","","","","",""
"null","86507","SARL_v6","SARL_v68vg23v0f","60d8c6bc9686529cdc824a49","fixation","","","img/fixation.png","null","","","prac","","","","","","","","","","","","","","","","","","","",""
"730","87238","SARL_v6","SARL_v68vg23v0f","60d8c6bc9686529cdc824a49","infreqPrac","","","img/orange_2bandit_a2.png","68","img/orange_2bandit_a2.png","68","prac","1","3","","","","","","","","","","","","","","","","","",""
"730","87311","SARL_v6","SARL_v68vg23v0f","60d8c6bc9686529cdc824a49","infreqPrac_resp","","","img/orange_2bandit_a.png","68","img/orange_2bandit_a.png","68","prac","","","","","","","","","","","","","","","","","","","",""
"null","87475","SARL_v6","SARL_v68vg23v0f","60d8c6bc9686529cdc824a49","fixation","","","img/fixation.png","null","","","prac","","","","","","","","","","","","","","","","","","","",""
"684","88162","SARL_v6","SARL_v68vg23v0f","60d8c6bc9686529cdc824a49","freqPrac","","","img/blue_2bandit_a2.png","70","img/blue_2bandit_a2.png","70","prac","1","3","","","","","","","","","","","","","","","","","",""
"684","88287","SARL_v6","SARL_v68vg23v0f","60d8c6bc9686529cdc824a49","freqPrac_resp","","","img/blue_2bandit_a.png","70","img/blue_2bandit_a.png","70","prac","","","","","","","","","","","","","","","","","","","",""
"null","88445","SARL_v6","SARL_v68vg23v0f","60d8c6bc9686529cdc824a49","fixation","","","img/fixation.png","null","","","prac","","","","","","","","","","","","","","","","","","","",""
"603","89051","SARL_v6","SARL_v68vg23v0f","60d8c6bc9686529cdc824a49","freqPrac","","","img/blue_2bandit_a2.png","70","img/blue_2bandit_a2.png","70","prac","1","3","","","","","","","","","","","","","","","","","",""
"603","89260","SARL_v6","SARL_v68vg23v0f","60d8c6bc9686529cdc824a49","freqPrac_resp","","","img/blue_2bandit_a.png","70","img/blue_2bandit_a.png","70","prac","","","","","","","","","","","","","","","","","","","",""
"null","89419","SARL_v6","SARL_v68vg23v0f","60d8c6bc9686529cdc824a49","fixation","","","img/fixation.png","null","","","prac","","","","","","","","","","","","","","","","","","","",""
"27148","116569","SARL_v6","SARL_v68vg23v0f","60d8c6bc9686529cdc824a49","","","","","","","","prac","","","","","","","","","","","","","","","","","","","",""
"883","117453","SARL_v6","SARL_v68vg23v0f","60d8c6bc9686529cdc824a49","rlPractice","","","img/black_2bandit_a2.png","75","img/black_2bandit_a2.png","","prac","","","0","","","","","","","","","","","","","","","","",""
"null","118212","SARL_v6","SARL_v68vg23v0f","60d8c6bc9686529cdc824a49","feedback","","","<div class=""veryhighPoints""> 10 </div>","null","","na","prac","","","1","10","-14","10","","","","","","","","","","","","","",""
"null","118368","SARL_v6","SARL_v68vg23v0f","60d8c6bc9686529cdc824a49","fixation","","","img/fixation.png","null","","","prac","","","","","","","","","","","","","","","","","","","",""
"748","119118","SARL_v6","SARL_v68vg23v0f","60d8c6bc9686529cdc824a49","rlPractice","","","img/black_2bandit_a2.png","75","img/black_2bandit_a2.png","","prac","","","1","","","","","","","","","","","","","","","","",""
"null","119879","SARL_v6","SARL_v68vg23v0f","60d8c6bc9686529cdc824a49","feedback","","","<div class=""veryhighPoints""> 5 </div>","null","","na","prac","","","2","5","-5","5","","","","","","","","","","","","","",""
"null","120034","SARL_v6","SARL_v68vg23v0f","60d8c6bc9686529cdc824a49","fixation","","","img/fixation.png","null","","","prac","","","","","","","","","","","","","","","","","","","",""
"728","120765","SARL_v6","SARL_v68vg23v0f","60d8c6bc9686529cdc824a49","rlPractice","","","img/black_2bandit_a2.png","74","img/black_2bandit_a2.png","","prac","","","2","","","","","","","","","","","","","","","","",""
"null","121533","SARL_v6","SARL_v68vg23v0f","60d8c6bc9686529cdc824a49","feedback","","","<div class=""veryhighPoints_sq""> 2 </div>","null","","na","prac","","","3","30","2","30","","","","","","","","","","","","","",""
"null","121692","SARL_v6","SARL_v68vg23v0f","60d8c6bc9686529cdc824a49","fixation","","","img/fixation.png","null","","","prac","","","","","","","","","","","","","","","","","","","",""
"686","122381","SARL_v6","SARL_v68vg23v0f","60d8c6bc9686529cdc824a49","rlPractice","","","img/black_2bandit_a2.png","74","img/black_2bandit_a2.png","","prac","","","3","","","","","","","","","","","","","","","","",""
"null","123147","SARL_v6","SARL_v68vg23v0f","60d8c6bc9686529cdc824a49","feedback","","","<div class=""veryhighPoints_sq""> 20 </div>","null","","na","prac","","","4","-2","20","-2","","","","","","","","","","","","","",""
"null","123307","SARL_v6","SARL_v68vg23v0f","60d8c6bc9686529cdc824a49","fixation","","","img/fixation.png","null","","","prac","","","","","","","","","","","","","","","","","","","",""
"30668","153977","SARL_v6","SARL_v68vg23v0f","60d8c6bc9686529cdc824a49","","","","","","","","prac","","","","","","","","","","","","","","","","","","","",""
"null","154789","SARL_v6","SARL_v68vg23v0f","60d8c6bc9686529cdc824a49","mixAttFreqPrac","","","img/blue_2bandit_a2.png","null","img/blue_2bandit_a2.png","70","prac","","","1","","","","","","","","","","","","","","","","",""
"106","154942","SARL_v6","SARL_v68vg23v0f","60d8c6bc9686529cdc824a49","fixation","","","img/fixation.png","70","","","prac","","","","","","","","","","","","","","","","","","","",""
"740","155682","SARL_v6","SARL_v68vg23v0f","60d8c6bc9686529cdc824a49","mixAttInfreqPrac","","","img/orange_2bandit_a2.png","68","img/orange_2bandit_a2.png","68","prac","","","2","","","","","","","","","","","","","","","","",""
"740","155746","SARL_v6","SARL_v68vg23v0f","60d8c6bc9686529cdc824a49","infreqPrac_resp","","","img/orange_2bandit_a.png","68","img/blue_2bandit_a.png","68","prac","","","2","","","","","","","","","","","","","","","","",""
"null","155900","SARL_v6","SARL_v68vg23v0f","60d8c6bc9686529cdc824a49","fixation","","","img/fixation.png","null","","","prac","","","","","","","","","","","","","","","","","","","",""
"587","156490","SARL_v6","SARL_v68vg23v0f","60d8c6bc9686529cdc824a49","mixAttInfreqPrac","","","img/orange_2bandit_a2.png","68","img/orange_2bandit_a2.png","68","prac","","","3","","","","","","","","","","","","","","","","",""
"587","156720","SARL_v6","SARL_v68vg23v0f","60d8c6bc9686529cdc824a49","infreqPrac_resp","","","img/orange_2bandit_a.png","68","img/blue_2bandit_a.png","68","prac","","","3","","","","","","","","","","","","","","","","",""
"null","156878","SARL_v6","SARL_v68vg23v0f","60d8c6bc9686529cdc824a49","fixation","","","img/fixation.png","null","","","prac","","","","","","","","","","","","","","","","","","","",""
"429","157309","SARL_v6","SARL_v68vg23v0f","60d8c6bc9686529cdc824a49","mixAttInfreqPrac","","","img/orange_2bandit_a2.png","68","img/orange_2bandit_a2.png","68","prac","","","4","","","","","","","","","","","","","","","","",""
"429","157687","SARL_v6","SARL_v68vg23v0f","60d8c6bc9686529cdc824a49","infreqPrac_resp","","","img/orange_2bandit_a.png","68","img/blue_2bandit_a.png","68","prac","","","4","","","","","","","","","","","","","","","","",""
"null","157847","SARL_v6","SARL_v68vg23v0f","60d8c6bc9686529cdc824a49","fixation","","","img/fixation.png","null","","","prac","","","","","","","","","","","","","","","","","","","",""
"748","158596","SARL_v6","SARL_v68vg23v0f","60d8c6bc9686529cdc824a49","mixAttFreqPrac","","","img/blue_2bandit_a2.png","68","img/blue_2bandit_a2.png","70","prac","","","5","","","","","","","","","","","","","","","","",""
"748","158652","SARL_v6","SARL_v68vg23v0f","60d8c6bc9686529cdc824a49","freqPrac_resp","","","img/blue_2bandit_a.png","68","img/blue_2bandit_a.png","70","prac","","","5","","","","","","","","","","","","","","","","",""
"null","158808","SARL_v6","SARL_v68vg23v0f","60d8c6bc9686529cdc824a49","fixation","","","img/fixation.png","null","","","prac","","","","","","","","","","","","","","","","","","","",""
"771","159581","SARL_v6","SARL_v68vg23v0f","60d8c6bc9686529cdc824a49","mixRLPractice","","","img/black_2bandit_a2.png","75","img/black_2bandit_a2.png","","prac","","","5","","","","","","","","","","","","","","","","",""
"null","160349","SARL_v6","SARL_v68vg23v0f","60d8c6bc9686529cdc824a49","feedback","","","<div class=""verylowPoints""> -14 </div>","null","","na","prac","","","6","-14","10","-14","","","","","","","","","","","","","",""
"null","160507","SARL_v6","SARL_v68vg23v0f","60d8c6bc9686529cdc824a49","fixation","","","img/fixation.png","null","","","prac","","","","","","","","","","","","","","","","","","","",""
"676","161185","SARL_v6","SARL_v68vg23v0f","60d8c6bc9686529cdc824a49","mixAttFreqPrac","","","img/blue_2bandit_a2.png","68","img/blue_2bandit_a2.png","70","prac","","","7","","","","","","","","","","","","","","","","",""
"676","161322","SARL_v6","SARL_v68vg23v0f","60d8c6bc9686529cdc824a49","freqPrac_resp","","","img/blue_2bandit_a.png","68","img/blue_2bandit_a.png","70","prac","","","7","","","","","","","","","","","","","","","","",""
"null","161478","SARL_v6","SARL_v68vg23v0f","60d8c6bc9686529cdc824a49","fixation","","","img/fixation.png","null","","","prac","","","","","","","","","","","","","","","","","","","",""
"712","162192","SARL_v6","SARL_v68vg23v0f","60d8c6bc9686529cdc824a49","mixAttInfreqPrac","","","img/orange_2bandit_a2.png","70","img/orange_2bandit_a2.png","68","prac","","","8","","","","","","","","","","","","","","","","",""
"712","162292","SARL_v6","SARL_v68vg23v0f","60d8c6bc9686529cdc824a49","infreqPrac_resp","","","img/orange_2bandit_a.png","70","img/blue_2bandit_a.png","68","prac","","","8","","","","","","","","","","","","","","","","",""
"null","162449","SARL_v6","SARL_v68vg23v0f","60d8c6bc9686529cdc824a49","fixation","","","img/fixation.png","null","","","prac","","","","","","","","","","","","","","","","","","","",""
"null","163252","SARL_v6","SARL_v68vg23v0f","60d8c6bc9686529cdc824a49","mixAttFreqPrac","","","img/blue_2bandit_a2.png","null","img/blue_2bandit_a2.png","70","prac","","","9","","","","","","","","","","","","","","","","",""
"null","163410","SARL_v6","SARL_v68vg23v0f","60d8c6bc9686529cdc824a49","fixation","","","img/fixation.png","null","","","prac","","","","","","","","","","","","","","","","","","","",""
"328","163741","SARL_v6","SARL_v68vg23v0f","60d8c6bc9686529cdc824a49","mixAttFreqPrac","","","img/blue_2bandit_a2.png","70","img/blue_2bandit_a2.png","70","prac","","","10","","","","","","","","","","","","","","","","",""
"328","164227","SARL_v6","SARL_v68vg23v0f","60d8c6bc9686529cdc824a49","freqPrac_resp","","","img/blue_2bandit_a.png","70","img/blue_2bandit_a.png","70","prac","","","10","","","","","","","","","","","","","","","","",""
"79","164383","SARL_v6","SARL_v68vg23v0f","60d8c6bc9686529cdc824a49","fixation","","","img/fixation.png","70","","","prac","","","","","","","","","","","","","","","","","","","",""
"563","164948","SARL_v6","SARL_v68vg23v0f","60d8c6bc9686529cdc824a49","mixAttInfreqPrac","","","img/orange_2bandit_a2.png","68","img/orange_2bandit_a2.png","68","prac","","","11","","","","","","","","","","","","","","","","",""
"563","165188","SARL_v6","SARL_v68vg23v0f","60d8c6bc9686529cdc824a49","infreqPrac_resp","","","img/orange_2bandit_a.png","68","img/blue_2bandit_a.png","68","prac","","","11","","","","","","","","","","","","","","","","",""
"null","165344","SARL_v6","SARL_v68vg23v0f","60d8c6bc9686529cdc824a49","fixation","","","img/fixation.png","null","","","prac","","","","","","","","","","","","","","","","","","","",""
"1122","166468","SARL_v6","SARL_v68vg23v0f","60d8c6bc9686529cdc824a49","mixRLPractice","","","img/black_2bandit_a2.png","74","img/black_2bandit_a2.png","","prac","","","11","","","","","","","","","","","","","","","","",""
"null","167228","SARL_v6","SARL_v68vg23v0f","60d8c6bc9686529cdc824a49","feedback","","","<div class=""verylowPoints_sq""> -5 </div>","null","","na","prac","","","12","5","-5","5","","","","","","","","","","","","","",""
"null","167385","SARL_v6","SARL_v68vg23v0f","60d8c6bc9686529cdc824a49","fixation","","","img/fixation.png","null","","","prac","","","","","","","","","","","","","","","","","","","",""
"13115","180501","SARL_v6","SARL_v68vg23v0f","60d8c6bc9686529cdc824a49","","","","","","","","prac","","","","","","","","","","","","","","","","","","","",""
"null","181314","SARL_v6","SARL_v68vg23v0f","60d8c6bc9686529cdc824a49","freq","","","img/blue_2bandit_a2.png","null","","70","test","0","","1","","","","square","circle","1","1","1","0","","","","","","","",""
"null","181471","SARL_v6","SARL_v68vg23v0f","60d8c6bc9686529cdc824a49","fixation","","","img/fixation.png","null","","","test","","","","","","","","","","","","","","","","","","","",""
"774","182248","SARL_v6","SARL_v68vg23v0f","60d8c6bc9686529cdc824a49","freq","","","img/blue_2bandit_a2.png","70","","70","test","1","","2","","","","square","circle","2","2","1","0.5","","","","","","","",""
"null","182277","SARL_v6","SARL_v68vg23v0f","60d8c6bc9686529cdc824a49","freq_resp","","","img/blue_2bandit_a.png","70","img/blue_2bandit_a.png","70","test","","","","","","","","","","","1","","","","","","","","",""
"null","182442","SARL_v6","SARL_v68vg23v0f","60d8c6bc9686529cdc824a49","fixation","","","img/fixation.png","null","","","test","","","","","","","","","","","","","","","","","","","",""
"778","183222","SARL_v6","SARL_v68vg23v0f","60d8c6bc9686529cdc824a49","freq","","","img/blue_2bandit_a2.png","70","","70","test","1","","3","","","","square","circle","3","3","1","0.6666666666666666","","","","","","","",""
"null","183247","SARL_v6","SARL_v68vg23v0f","60d8c6bc9686529cdc824a49","freq_resp","","","img/blue_2bandit_a.png","70","img/blue_2bandit_a.png","70","test","","","","","","","","","","","1","","","","","","","","",""
"null","183408","SARL_v6","SARL_v68vg23v0f","60d8c6bc9686529cdc824a49","fixation","","","img/fixation.png","null","","","test","","","","","","","","","","","","","","","","","","","",""
"609","184020","SARL_v6","SARL_v68vg23v0f","60d8c6bc9686529cdc824a49","freq","","","img/blue_2bandit_a2.png","70","","70","test","1","","4","","","","square","circle","4","4","1","0.75","","","","","","","",""
"null","184221","SARL_v6","SARL_v68vg23v0f","60d8c6bc9686529cdc824a49","freq_resp","","","img/blue_2bandit_a.png","70","img/blue_2bandit_a.png","70","test","","","","","","","","","","","1","","","","","","","","",""
"null","184386","SARL_v6","SARL_v68vg23v0f","60d8c6bc9686529cdc824a49","fixation","","","img/fixation.png","null","","","test","","","","","","","","","","","","","","","","","","","",""
"488","184877","SARL_v6","SARL_v68vg23v0f","60d8c6bc9686529cdc824a49","infreq","","","img/orange_2bandit_a2.png","68","","68","test","1","","5","","","","square","circle","5","5","1","0.8","","","","","","","",""
"null","185207","SARL_v6","SARL_v68vg23v0f","60d8c6bc9686529cdc824a49","infreq_resp","","","img/orange_2bandit_a.png","68","img/orange_2bandit_a.png","68","test","","","","","","","","","","","1","","","","","","","","",""
"null","185364","SARL_v6","SARL_v68vg23v0f","60d8c6bc9686529cdc824a49","fixation","","","img/fixation.png","null","","","test","","","","","","","","","","","","","","","","","","","",""
"728","186093","SARL_v6","SARL_v68vg23v0f","60d8c6bc9686529cdc824a49","freq","","","img/blue_2bandit_a2.png","70","","70","test","1","","6","","","","square","circle","6","6","1","0.8333333333333334","","","","","","","",""
"null","186181","SARL_v6","SARL_v68vg23v0f","60d8c6bc9686529cdc824a49","freq_resp","","","img/blue_2bandit_a.png","70","img/blue_2bandit_a.png","70","test","","","","","","","","","","","1","","","","","","","","",""
"null","186340","SARL_v6","SARL_v68vg23v0f","60d8c6bc9686529cdc824a49","fixation","","","img/fixation.png","null","","","test","","","","","","","","","","","","","","","","","","","",""
"471","186813","SARL_v6","SARL_v68vg23v0f","60d8c6bc9686529cdc824a49","freq","","","img/blue_2bandit_a2.png","70","","70","test","1","","7","","","","square","circle","7","7","1","0.8571428571428571","","","","","","","",""
"null","187148","SARL_v6","SARL_v68vg23v0f","60d8c6bc9686529cdc824a49","freq_resp","","","img/blue_2bandit_a.png","70","img/blue_2bandit_a.png","70","test","","","","","","","","","","","1","","","","","","","","",""
"null","187305","SARL_v6","SARL_v68vg23v0f","60d8c6bc9686529cdc824a49","fixation","","","img/fixation.png","null","","","test","","","","","","","","","","","","","","","","","","","",""
"393","187700","SARL_v6","SARL_v68vg23v0f","60d8c6bc9686529cdc824a49","freq","","","img/blue_2bandit_a2.png","70","","70","test","1","","8","","","","square","circle","8","8","1","0.875","","","","","","","",""
"null","188125","SARL_v6","SARL_v68vg23v0f","60d8c6bc9686529cdc824a49","freq_resp","","","img/blue_2bandit_a.png","70","img/blue_2bandit_a.png","70","test","","","","","","","","","","","1","","","","","","","","",""
"null","188279","SARL_v6","SARL_v68vg23v0f","60d8c6bc9686529cdc824a49","fixation","","","img/fixation.png","null","","","test","","","","","","","","","","","","","","","","","","","",""
"300","188581","SARL_v6","SARL_v68vg23v0f","60d8c6bc9686529cdc824a49","freq","","","img/blue_2bandit_a2.png","70","","70","test","1","","9","","","","square","circle","9","9","1","0.8888888888888888","","","","","","","",""
"null","189085","SARL_v6","SARL_v68vg23v0f","60d8c6bc9686529cdc824a49","freq_resp","","","img/blue_2bandit_a.png","70","img/blue_2bandit_a.png","70","test","","","","","","","","","","","1","","","","","","","","",""
"null","189243","SARL_v6","SARL_v68vg23v0f","60d8c6bc9686529cdc824a49","fixation","","","img/fixation.png","null","","","test","","","","","","","","","","","","","","","","","","","",""
"118","189363","SARL_v6","SARL_v68vg23v0f","60d8c6bc9686529cdc824a49","freq","","","img/blue_2bandit_a2.png","70","","70","test","1","","10","","","","square","circle","10","10","1","0.9","","","","","","","",""
"null","190047","SARL_v6","SARL_v68vg23v0f","60d8c6bc9686529cdc824a49","freq_resp","","","img/blue_2bandit_a.png","70","img/blue_2bandit_a.png","70","test","","","","","","","","","","","1","","","","","","","","",""
"null","190205","SARL_v6","SARL_v68vg23v0f","60d8c6bc9686529cdc824a49","fixation","","","img/fixation.png","null","","","test","","","","","","","","","","","","","","","","","","","",""
"340","190547","SARL_v6","SARL_v68vg23v0f","60d8c6bc9686529cdc824a49","freq","","","img/blue_2bandit_a2.png","70","","70","test","1","","11","","","","square","circle","11","11","1","0.9090909090909091","","","","","","","",""
"null","191011","SARL_v6","SARL_v68vg23v0f","60d8c6bc9686529cdc824a49","freq_resp","","","img/blue_2bandit_a.png","70","img/blue_2bandit_a.png","70","test","","","","","","","","","","","1","","","","","","","","",""
"null","191167","SARL_v6","SARL_v68vg23v0f","60d8c6bc9686529cdc824a49","fixation","","","img/fixation.png","null","","","test","","","","","","","","","","","","","","","","","","","",""
"369","191538","SARL_v6","SARL_v68vg23v0f","60d8c6bc9686529cdc824a49","freq","","","img/blue_2bandit_a2.png","70","","70","test","1","","12","","","","square","circle","12","12","1","0.9166666666666666","","","","","","","",""
"null","191973","SARL_v6","SARL_v68vg23v0f","60d8c6bc9686529cdc824a49","freq_resp","","","img/blue_2bandit_a.png","70","img/blue_2bandit_a.png","70","test","","","","","","","","","","","1","","","","","","","","",""
"null","192131","SARL_v6","SARL_v68vg23v0f","60d8c6bc9686529cdc824a49","fixation","","","img/fixation.png","null","","","test","","","","","","","","","","","","","","","","","","","",""
"197","192330","SARL_v6","SARL_v68vg23v0f","60d8c6bc9686529cdc824a49","freq","","","img/blue_2bandit_a2.png","70","","70","test","1","","13","","","","square","circle","13","13","1","0.9230769230769231","","","","","","","",""
"null","192945","SARL_v6","SARL_v68vg23v0f","60d8c6bc9686529cdc824a49","freq_resp","","","img/blue_2bandit_a.png","70","img/blue_2bandit_a.png","70","test","","","","","","","","","","","1","","","","","","","","",""
"null","193104","SARL_v6","SARL_v68vg23v0f","60d8c6bc9686529cdc824a49","fixation","","","img/fixation.png","null","","","test","","","","","","","","","","","","","","","","","","","",""
"254","193360","SARL_v6","SARL_v68vg23v0f","60d8c6bc9686529cdc824a49","freq","","","img/blue_2bandit_a2.png","70","","70","test","1","","14","","","","square","circle","14","14","1","0.9285714285714286","","","","","","","",""
"null","193912","SARL_v6","SARL_v68vg23v0f","60d8c6bc9686529cdc824a49","freq_resp","","","img/blue_2bandit_a.png","70","img/blue_2bandit_a.png","70","test","","","","","","","","","","","1","","","","","","","","",""
"null","194067","SARL_v6","SARL_v68vg23v0f","60d8c6bc9686529cdc824a49","fixation","","","img/fixation.png","null","","","test","","","","","","","","","","","","","","","","","","","",""
"199","194268","SARL_v6","SARL_v68vg23v0f","60d8c6bc9686529cdc824a49","freq","","","img/blue_2bandit_a2.png","70","","70","test","1","","15","","","","square","circle","15","15","1","0.9333333333333333","","","","","","","",""
"null","194873","SARL_v6","SARL_v68vg23v0f","60d8c6bc9686529cdc824a49","freq_resp","","","img/blue_2bandit_a.png","70","img/blue_2bandit_a.png","70","test","","","","","","","","","","","1","","","","","","","","",""
"null","195030","SARL_v6","SARL_v68vg23v0f","60d8c6bc9686529cdc824a49","fixation","","","img/fixation.png","null","","","test","","","","","","","","","","","","","","","","","","","",""
"199","195231","SARL_v6","SARL_v68vg23v0f","60d8c6bc9686529cdc824a49","freq","","","img/blue_2bandit_a2.png","70","","70","test","1","","16","","","","square","circle","16","16","1","0.9375","","","","","","","",""
"null","195846","SARL_v6","SARL_v68vg23v0f","60d8c6bc9686529cdc824a49","freq_resp","","","img/blue_2bandit_a.png","70","img/blue_2bandit_a.png","70","test","","","","","","","","","","","1","","","","","","","","",""
"null","196002","SARL_v6","SARL_v68vg23v0f","60d8c6bc9686529cdc824a49","fixation","","","img/fixation.png","null","","","test","","","","","","","","","","","","","","","","","","","",""
"200","196204","SARL_v6","SARL_v68vg23v0f","60d8c6bc9686529cdc824a49","infreq","","","img/orange_2bandit_a2.png","70","","68","test","0","","17","","","","square","circle","17","17","1","0.8823529411764706","","","","","","","",""
"null","196819","SARL_v6","SARL_v68vg23v0f","60d8c6bc9686529cdc824a49","infreq_resp","","","img/orange_2bandit_a.png","70","img/orange_2bandit_a.png","68","test","","","","","","","","","","","1","","","","","","","","",""
"null","196978","SARL_v6","SARL_v68vg23v0f","60d8c6bc9686529cdc824a49","fixation","","","img/fixation.png","null","","","test","","","","","","","","","","","","","","","","","","","",""
"725","197704","SARL_v6","SARL_v68vg23v0f","60d8c6bc9686529cdc824a49","freq","","","img/blue_2bandit_a2.png","70","","70","test","1","","18","","","","square","circle","18","18","1","0.8888888888888888","","","","","","","",""
"null","197783","SARL_v6","SARL_v68vg23v0f","60d8c6bc9686529cdc824a49","freq_resp","","","img/blue_2bandit_a.png","70","img/blue_2bandit_a.png","70","test","","","","","","","","","","","1","","","","","","","","",""
"null","197944","SARL_v6","SARL_v68vg23v0f","60d8c6bc9686529cdc824a49","fixation","","","img/fixation.png","null","","","test","","","","","","","","","","","","","","","","","","","",""
"477","198423","SARL_v6","SARL_v68vg23v0f","60d8c6bc9686529cdc824a49","freq","","","img/blue_2bandit_a2.png","70","","70","test","1","","19","","","","square","circle","19","19","1","0.8947368421052632","","","","","","","",""
"null","198764","SARL_v6","SARL_v68vg23v0f","60d8c6bc9686529cdc824a49","freq_resp","","","img/blue_2bandit_a.png","70","img/blue_2bandit_a.png","70","test","","","","","","","","","","","1","","","","","","","","",""
"null","198920","SARL_v6","SARL_v68vg23v0f","60d8c6bc9686529cdc824a49","fixation","","","img/fixation.png","null","","","test","","","","","","","","","","","","","","","","","","","",""
"839","199762","SARL_v6","SARL_v68vg23v0f","60d8c6bc9686529cdc824a49","rl","","","img/black_2bandit_a2.png","74","","0","test","","","20","","","-3","square","circle","","0","1","","74","-3","-3","-3","-3","square","1","0"
"null","200516","SARL_v6","SARL_v68vg23v0f","60d8c6bc9686529cdc824a49","feedback","","","<div class=""verylowPoints_sq""> -3 </div>","null","","na","test","","","NaN","","","","","","","","1","","74","","","","","","1",""
"591","201110","SARL_v6","SARL_v68vg23v0f","60d8c6bc9686529cdc824a49","freq","","","img/blue_2bandit_a2.png","68","","70","test","0","","21","","","","square","circle","20","1","2","0.85","","","","","","","",""
"null","201334","SARL_v6","SARL_v68vg23v0f","60d8c6bc9686529cdc824a49","freq_resp","","","img/blue_2bandit_a.png","68","img/blue_2bandit_a.png","70","test","","","","","","","","","","","2","","","","","","","","",""
"null","201490","SARL_v6","SARL_v68vg23v0f","60d8c6bc9686529cdc824a49","fixation","","","img/fixation.png","null","","","test","","","","","","","","","","","","","","","","","","","",""
"697","202188","SARL_v6","SARL_v68vg23v0f","60d8c6bc9686529cdc824a49","freq","","","img/blue_2bandit_a2.png","70","","70","test","1","","22","","","","square","circle","21","2","2","0.8571428571428571","","","","","","","",""
"null","202302","SARL_v6","SARL_v68vg23v0f","60d8c6bc9686529cdc824a49","freq_resp","","","img/blue_2bandit_a.png","70","img/blue_2bandit_a.png","70","test","","","","","","","","","","","2","","","","","","","","",""
"null","202458","SARL_v6","SARL_v68vg23v0f","60d8c6bc9686529cdc824a49","fixation","","","img/fixation.png","null","","","test","","","","","","","","","","","","","","","","","","","",""
"463","202925","SARL_v6","SARL_v68vg23v0f","60d8c6bc9686529cdc824a49","freq","","","img/blue_2bandit_a2.png","70","","70","test","1","","23","","","","square","circle","22","3","2","0.8636363636363636","","","","","","","",""
"null","203274","SARL_v6","SARL_v68vg23v0f","60d8c6bc9686529cdc824a49","freq_resp","","","img/blue_2bandit_a.png","70","img/blue_2bandit_a.png","70","test","","","","","","","","","","","2","","","","","","","","",""
"null","203431","SARL_v6","SARL_v68vg23v0f","60d8c6bc9686529cdc824a49","fixation","","","img/fixation.png","null","","","test","","","","","","","","","","","","","","","","","","","",""
"368","203802","SARL_v6","SARL_v68vg23v0f","60d8c6bc9686529cdc824a49","freq","","","img/blue_2bandit_a2.png","70","","70","test","1","","24","","","","square","circle","23","4","2","0.8695652173913043","","","","","","","",""
"null","204240","SARL_v6","SARL_v68vg23v0f","60d8c6bc9686529cdc824a49","freq_resp","","","img/blue_2bandit_a.png","70","img/blue_2bandit_a.png","70","test","","","","","","","","","","","2","","","","","","","","",""
"null","204398","SARL_v6","SARL_v68vg23v0f","60d8c6bc9686529cdc824a49","fixation","","","img/fixation.png","null","","","test","","","","","","","","","","","","","","","","","","","",""
"308","204708","SARL_v6","SARL_v68vg23v0f","60d8c6bc9686529cdc824a49","freq","","","img/blue_2bandit_a2.png","70","","70","test","1","","25","","","","square","circle","24","5","2","0.875","","","","","","","",""
"null","205210","SARL_v6","SARL_v68vg23v0f","60d8c6bc9686529cdc824a49","freq_resp","","","img/blue_2bandit_a.png","70","img/blue_2bandit_a.png","70","test","","","","","","","","","","","2","","","","","","","","",""
"null","205363","SARL_v6","SARL_v68vg23v0f","60d8c6bc9686529cdc824a49","fixation","","","img/fixation.png","null","","","test","","","","","","","","","","","","","","","","","","","",""
"275","205640","SARL_v6","SARL_v68vg23v0f","60d8c6bc9686529cdc824a49","freq","","","img/blue_2bandit_a2.png","70","","70","test","1","","26","","","","square","circle","25","6","2","0.88","","","","","","","",""
"null","206175","SARL_v6","SARL_v68vg23v0f","60d8c6bc9686529cdc824a49","freq_resp","","","img/blue_2bandit_a.png","70","img/blue_2bandit_a.png","70","test","","","","","","","","","","","2","","","","","","","","",""
"null","206332","SARL_v6","SARL_v68vg23v0f","60d8c6bc9686529cdc824a49","fixation","","","img/fixation.png","null","","","test","","","","","","","","","","","","","","","","","","","",""
"254","206589","SARL_v6","SARL_v68vg23v0f","60d8c6bc9686529cdc824a49","freq","","","img/blue_2bandit_a2.png","70","","70","test","1","","27","","","","square","circle","26","7","2","0.8846153846153846","","","","","","","",""
"null","207149","SARL_v6","SARL_v68vg23v0f","60d8c6bc9686529cdc824a49","freq_resp","","","img/blue_2bandit_a.png","70","img/blue_2bandit_a.png","70","test","","","","","","","","","","","2","","","","","","","","",""
"null","207303","SARL_v6","SARL_v68vg23v0f","60d8c6bc9686529cdc824a49","fixation","","","img/fixation.png","null","","","test","","","","","","","","","","","","","","","","","","","",""
"264","207569","SARL_v6","SARL_v68vg23v0f","60d8c6bc9686529cdc824a49","freq","","","img/blue_2bandit_a2.png","70","","70","test","1","","28","","","","square","circle","27","8","2","0.8888888888888888","","","","","","","",""
"null","208108","SARL_v6","SARL_v68vg23v0f","60d8c6bc9686529cdc824a49","freq_resp","","","img/blue_2bandit_a.png","70","img/blue_2bandit_a.png","70","test","","","","","","","","","","","2","","","","","","","","",""
"null","208268","SARL_v6","SARL_v68vg23v0f","60d8c6bc9686529cdc824a49","fixation","","","img/fixation.png","null","","","test","","","","","","","","","","","","","","","","","","","",""
"270","208540","SARL_v6","SARL_v68vg23v0f","60d8c6bc9686529cdc824a49","freq","","","img/blue_2bandit_a2.png","70","","70","test","1","","29","","","","square","circle","28","9","2","0.8928571428571429","","","","","","","",""
"null","209076","SARL_v6","SARL_v68vg23v0f","60d8c6bc9686529cdc824a49","freq_resp","","","img/blue_2bandit_a.png","70","img/blue_2bandit_a.png","70","test","","","","","","","","","","","2","","","","","","","","",""
"null","209234","SARL_v6","SARL_v68vg23v0f","60d8c6bc9686529cdc824a49","fixation","","","img/fixation.png","null","","","test","","","","","","","","","","","","","","","","","","","",""
"339","209576","SARL_v6","SARL_v68vg23v0f","60d8c6bc9686529cdc824a49","freq","","","img/blue_2bandit_a2.png","70","","70","test","1","","30","","","","square","circle","29","10","2","0.896551724137931","","","","","","","",""
"null","210050","SARL_v6","SARL_v68vg23v0f","60d8c6bc9686529cdc824a49","freq_resp","","","img/blue_2bandit_a.png","70","img/blue_2bandit_a.png","70","test","","","","","","","","","","","2","","","","","","","","",""
"null","210206","SARL_v6","SARL_v68vg23v0f","60d8c6bc9686529cdc824a49","fixation","","","img/fixation.png","null","","","test","","","","","","","","","","","","","","","","","","","",""
"237","210446","SARL_v6","SARL_v68vg23v0f","60d8c6bc9686529cdc824a49","freq","","","img/blue_2bandit_a2.png","70","","70","test","1","","31","","","","square","circle","30","11","2","0.9","","","","","","","",""
"null","211026","SARL_v6","SARL_v68vg23v0f","60d8c6bc9686529cdc824a49","freq_resp","","","img/blue_2bandit_a.png","70","img/blue_2bandit_a.png","70","test","","","","","","","","","","","2","","","","","","","","",""
"null","211182","SARL_v6","SARL_v68vg23v0f","60d8c6bc9686529cdc824a49","fixation","","","img/fixation.png","null","","","test","","","","","","","","","","","","","","","","","","","",""
"192","211376","SARL_v6","SARL_v68vg23v0f","60d8c6bc9686529cdc824a49","freq","","","img/blue_2bandit_a2.png","70","","70","test","1","","32","","","","square","circle","31","12","2","0.9032258064516129","","","","","","","",""
"null","211987","SARL_v6","SARL_v68vg23v0f","60d8c6bc9686529cdc824a49","freq_resp","","","img/blue_2bandit_a.png","70","img/blue_2bandit_a.png","70","test","","","","","","","","","","","2","","","","","","","","",""
"null","212143","SARL_v6","SARL_v68vg23v0f","60d8c6bc9686529cdc824a49","fixation","","","img/fixation.png","null","","","test","","","","","","","","","","","","","","","","","","","",""
"210","212355","SARL_v6","SARL_v68vg23v0f","60d8c6bc9686529cdc824a49","freq","","","img/blue_2bandit_a2.png","70","","70","test","1","","33","","","","square","circle","32","13","2","0.90625","","","","","","","",""
"null","212958","SARL_v6","SARL_v68vg23v0f","60d8c6bc9686529cdc824a49","freq_resp","","","img/blue_2bandit_a.png","70","img/blue_2bandit_a.png","70","test","","","","","","","","","","","2","","","","","","","","",""
"null","213113","SARL_v6","SARL_v68vg23v0f","60d8c6bc9686529cdc824a49","fixation","","","img/fixation.png","null","","","test","","","","","","","","","","","","","","","","","","","",""
"280","213396","SARL_v6","SARL_v68vg23v0f","60d8c6bc9686529cdc824a49","freq","","","img/blue_2bandit_a2.png","70","","70","test","1","","34","","","","square","circle","33","14","2","0.9090909090909091","","","","","","","",""
"null","213923","SARL_v6","SARL_v68vg23v0f","60d8c6bc9686529cdc824a49","freq_resp","","","img/blue_2bandit_a.png","70","img/blue_2bandit_a.png","70","test","","","","","","","","","","","2","","","","","","","","",""
"null","214081","SARL_v6","SARL_v68vg23v0f","60d8c6bc9686529cdc824a49","fixation","","","img/fixation.png","null","","","test","","","","","","","","","","","","","","","","","","","",""
"367","214451","SARL_v6","SARL_v68vg23v0f","60d8c6bc9686529cdc824a49","infreq","","","img/orange_2bandit_a2.png","70","","68","test","0","","35","","","","square","circle","34","15","2","0.8823529411764706","","","","","","","",""
"null","214897","SARL_v6","SARL_v68vg23v0f","60d8c6bc9686529cdc824a49","infreq_resp","","","img/orange_2bandit_a.png","70","img/orange_2bandit_a.png","68","test","","","","","","","","","","","2","","","","","","","","",""
"null","215053","SARL_v6","SARL_v68vg23v0f","60d8c6bc9686529cdc824a49","fixation","","","img/fixation.png","null","","","test","","","","","","","","","","","","","","","","","","","",""
"null","215870","SARL_v6","SARL_v68vg23v0f","60d8c6bc9686529cdc824a49","freq","","","img/blue_2bandit_a2.png","null","","70","test","0","","36","","","","square","circle","35","16","2","0.8571428571428571","","","","","","","",""
"null","216027","SARL_v6","SARL_v68vg23v0f","60d8c6bc9686529cdc824a49","fixation","","","img/fixation.png","null","","","test","","","","","","","","","","","","","","","","","","","",""
"null","216837","SARL_v6","SARL_v68vg23v0f","60d8c6bc9686529cdc824a49","freq","","","img/blue_2bandit_a2.png","null","","70","test","0","","37","","","","square","circle","36","17","2","0.8333333333333334","","","","","","","",""
"null","216995","SARL_v6","SARL_v68vg23v0f","60d8c6bc9686529cdc824a49","fixation","","","img/fixation.png","null","","","test","","","","","","","","","","","","","","","","","","","",""
"null","217812","SARL_v6","SARL_v68vg23v0f","60d8c6bc9686529cdc824a49","freq","","","img/blue_2bandit_a2.png","null","","70","test","0","","38","","","","square","circle","37","18","2","0.8108108108108109","","","","","","","",""
"null","217965","SARL_v6","SARL_v68vg23v0f","60d8c6bc9686529cdc824a49","fixation","","","img/fixation.png","null","","","test","","","","","","","","","","","","","","","","","","","",""
"15","217982","SARL_v6","SARL_v68vg23v0f","60d8c6bc9686529cdc824a49","infreq","","","img/orange_2bandit_a2.png","70","","68","test","0","","39","","","","square","circle","38","19","2","0.7894736842105263","","","","","","","",""
"null","218769","SARL_v6","SARL_v68vg23v0f","60d8c6bc9686529cdc824a49","infreq_resp","","","img/orange_2bandit_a.png","70","img/orange_2bandit_a.png","68","test","","","","","","","","","","","2","","","","","","","","",""
"null","218932","SARL_v6","SARL_v68vg23v0f","60d8c6bc9686529cdc824a49","fixation","","","img/fixation.png","null","","","test","","","","","","","","","","","","","","","","","","","",""
"null","219740","SARL_v6","SARL_v68vg23v0f","60d8c6bc9686529cdc824a49","freq","","","img/blue_2bandit_a2.png","null","","70","test","0","","40","","","","square","circle","39","20","2","0.7692307692307693","","","","","","","",""
"null","219895","SARL_v6","SARL_v68vg23v0f","60d8c6bc9686529cdc824a49","fixation","","","img/fixation.png","null","","","test","","","","","","","","","","","","","","","","","","","",""
"344","220241","SARL_v6","SARL_v68vg23v0f","60d8c6bc9686529cdc824a49","freq","","","img/blue_2bandit_a2.png","70","","70","test","1","","41","","","","square","circle","40","21","2","0.775","","","","","","","",""
"null","220714","SARL_v6","SARL_v68vg23v0f","60d8c6bc9686529cdc824a49","freq_resp","","","img/blue_2bandit_a.png","70","img/blue_2bandit_a.png","70","test","","","","","","","","","","","2","","","","","","","","",""
"null","220873","SARL_v6","SARL_v68vg23v0f","60d8c6bc9686529cdc824a49","fixation","","","img/fixation.png","null","","","test","","","","","","","","","","","","","","","","","","","",""
"345","221221","SARL_v6","SARL_v68vg23v0f","60d8c6bc9686529cdc824a49","freq","","","img/blue_2bandit_a2.png","70","","70","test","1","","42","","","","square","circle","41","22","2","0.7804878048780488","","","","","","","",""
"null","221686","SARL_v6","SARL_v68vg23v0f","60d8c6bc9686529cdc824a49","freq_resp","","","img/blue_2bandit_a.png","70","img/blue_2bandit_a.png","70","test","","","","","","","","","","","2","","","","","","","","",""
"null","221844","SARL_v6","SARL_v68vg23v0f","60d8c6bc9686529cdc824a49","fixation","","","img/fixation.png","null","","","test","","","","","","","","","","","","","","","","","","","",""
"777","222623","SARL_v6","SARL_v68vg23v0f","60d8c6bc9686529cdc824a49","rl","","","img/black_2bandit_a2.png","75","","0","test","","","43","","","-8","square","circle","","0","2","","75","-8","-5","-5","-8","circle","2","0"
"null","223383","SARL_v6","SARL_v68vg23v0f","60d8c6bc9686529cdc824a49","feedback","","","<div class=""verylowPoints""> -8 </div>","null","","na","test","","","NaN","","","","","","","","2","","75","","","","","","2",""
"null","224190","SARL_v6","SARL_v68vg23v0f","60d8c6bc9686529cdc824a49","freq","","","img/blue_2bandit_a2.png","null","","70","test","0","","44","","","","square","circle","42","1","3","0.7619047619047619","","","","","","","",""
"null","224349","SARL_v6","SARL_v68vg23v0f","60d8c6bc9686529cdc824a49","fixation","","","img/fixation.png","null","","","test","","","","","","","","","","","","","","","","","","","",""
"584","224936","SARL_v6","SARL_v68vg23v0f","60d8c6bc9686529cdc824a49","freq","","","img/blue_2bandit_a2.png","68","","70","test","0","","45","","","","square","circle","43","2","3","0.7441860465116279","","","","","","","",""
"null","225156","SARL_v6","SARL_v68vg23v0f","60d8c6bc9686529cdc824a49","freq_resp","","","img/blue_2bandit_a.png","68","img/blue_2bandit_a.png","70","test","","","","","","","","","","","3","","","","","","","","",""
"null","225316","SARL_v6","SARL_v68vg23v0f","60d8c6bc9686529cdc824a49","fixation","","","img/fixation.png","null","","","test","","","","","","","","","","","","","","","","","","","",""
"null","226133","SARL_v6","SARL_v68vg23v0f","60d8c6bc9686529cdc824a49","freq","","","img/blue_2bandit_a2.png","null","","70","test","0","","46","","","","square","circle","44","3","3","0.7272727272727273","","","","","","","",""
"null","226286","SARL_v6","SARL_v68vg23v0f","60d8c6bc9686529cdc824a49","fixation","","","img/fixation.png","null","","","test","","","","","","","","","","","","","","","","","","","",""
"null","227099","SARL_v6","SARL_v68vg23v0f","60d8c6bc9686529cdc824a49","freq","","","img/blue_2bandit_a2.png","null","","70","test","0","","47","","","","square","circle","45","4","3","0.7111111111111111","","","","","","","",""
"null","227256","SARL_v6","SARL_v68vg23v0f","60d8c6bc9686529cdc824a49","fixation","","","img/fixation.png","null","","","test","","","","","","","","","","","","","","","","","","","",""
"123","227381","SARL_v6","SARL_v68vg23v0f","60d8c6bc9686529cdc824a49","freq","","","img/blue_2bandit_a2.png","70","","70","test","1","","48","","","","square","circle","46","5","3","0.717391304347826","","","","","","","",""
"null","228061","SARL_v6","SARL_v68vg23v0f","60d8c6bc9686529cdc824a49","freq_resp","","","img/blue_2bandit_a.png","70","img/blue_2bandit_a.png","70","test","","","","","","","","","","","3","","","","","","","","",""
"null","228213","SARL_v6","SARL_v68vg23v0f","60d8c6bc9686529cdc824a49","fixation","","","img/fixation.png","null","","","test","","","","","","","","","","","","","","","","","","","",""
"269","228484","SARL_v6","SARL_v68vg23v0f","60d8c6bc9686529cdc824a49","infreq","","","img/orange_2bandit_a2.png","70","","68","test","0","","49","","","","square","circle","47","6","3","0.7021276595744681","","","","","","","",""
"null","229028","SARL_v6","SARL_v68vg23v0f","60d8c6bc9686529cdc824a49","infreq_resp","","","img/orange_2bandit_a.png","70","img/orange_2bandit_a.png","68","test","","","","","","","","","","","3","","","","","","","","",""
"null","229183","SARL_v6","SARL_v68vg23v0f","60d8c6bc9686529cdc824a49","fixation","","","img/fixation.png","null","","","test","","","","","","","","","","","","","","","","","","","",""
"666","229852","SARL_v6","SARL_v68vg23v0f","60d8c6bc9686529cdc824a49","freq","","","img/blue_2bandit_a2.png","70","","70","test","1","","50","","","","square","circle","48","7","3","0.7083333333333334","","","","","","","",""
"null","230002","SARL_v6","SARL_v68vg23v0f","60d8c6bc9686529cdc824a49","freq_resp","","","img/blue_2bandit_a.png","70","img/blue_2bandit_a.png","70","test","","","","","","","","","","","3","","","","","","","","",""
"null","230161","SARL_v6","SARL_v68vg23v0f","60d8c6bc9686529cdc824a49","fixation","","","img/fixation.png","null","","","test","","","","","","","","","","","","","","","","","","","",""
"465","230628","SARL_v6","SARL_v68vg23v0f","60d8c6bc9686529cdc824a49","freq","","","img/blue_2bandit_a2.png","70","","70","test","1","","51","","","","square","circle","49","8","3","0.7142857142857143","","","","","","","",""
"null","230980","SARL_v6","SARL_v68vg23v0f","60d8c6bc9686529cdc824a49","freq_resp","","","img/blue_2bandit_a.png","70","img/blue_2bandit_a.png","70","test","","","","","","","","","","","3","","","","","","","","",""
"null","231139","SARL_v6","SARL_v68vg23v0f","60d8c6bc9686529cdc824a49","fixation","","","img/fixation.png","null","","","test","","","","","","","","","","","","","","","","","","","",""
"516","231657","SARL_v6","SARL_v68vg23v0f","60d8c6bc9686529cdc824a49","freq","","","img/blue_2bandit_a2.png","70","","70","test","1","","52","","","","square","circle","50","9","3","0.72","","","","","","","",""
"null","231956","SARL_v6","SARL_v68vg23v0f","60d8c6bc9686529cdc824a49","freq_resp","","","img/blue_2bandit_a.png","70","img/blue_2bandit_a.png","70","test","","","","","","","","","","","3","","","","","","","","",""
"null","232109","SARL_v6","SARL_v68vg23v0f","60d8c6bc9686529cdc824a49","fixation","","","img/fixation.png","null","","","test","","","","","","","","","","","","","","","","","","","",""
"517","232628","SARL_v6","SARL_v68vg23v0f","60d8c6bc9686529cdc824a49","freq","","","img/blue_2bandit_a2.png","70","","70","test","1","","53","","","","square","circle","51","10","3","0.7254901960784313","","","","","","","",""
"null","232919","SARL_v6","SARL_v68vg23v0f","60d8c6bc9686529cdc824a49","freq_resp","","","img/blue_2bandit_a.png","70","img/blue_2bandit_a.png","70","test","","","","","","","","","","","3","","","","","","","","",""
"null","233077","SARL_v6","SARL_v68vg23v0f","60d8c6bc9686529cdc824a49","fixation","","","img/fixation.png","null","","","test","","","","","","","","","","","","","","","","","","","",""
"521","233601","SARL_v6","SARL_v68vg23v0f","60d8c6bc9686529cdc824a49","freq","","","img/blue_2bandit_a2.png","70","","70","test","1","","54","","","","square","circle","52","11","3","0.7307692307692307","","","","","","","",""
"null","233898","SARL_v6","SARL_v68vg23v0f","60d8c6bc9686529cdc824a49","freq_resp","","","img/blue_2bandit_a.png","70","img/blue_2bandit_a.png","70","test","","","","","","","","","","","3","","","","","","","","",""
"null","234055","SARL_v6","SARL_v68vg23v0f","60d8c6bc9686529cdc824a49","fixation","","","img/fixation.png","null","","","test","","","","","","","","","","","","","","","","","","","",""
"482","234539","SARL_v6","SARL_v68vg23v0f","60d8c6bc9686529cdc824a49","freq","","","img/blue_2bandit_a2.png","70","","70","test","1","","55","","","","square","circle","53","12","3","0.7358490566037735","","","","","","","",""
"null","234861","SARL_v6","SARL_v68vg23v0f","60d8c6bc9686529cdc824a49","freq_resp","","","img/blue_2bandit_a.png","70","img/blue_2bandit_a.png","70","test","","","","","","","","","","","3","","","","","","","","",""
"null","235015","SARL_v6","SARL_v68vg23v0f","60d8c6bc9686529cdc824a49","fixation","","","img/fixation.png","null","","","test","","","","","","","","","","","","","","","","","","","",""
"459","235476","SARL_v6","SARL_v68vg23v0f","60d8c6bc9686529cdc824a49","freq","","","img/blue_2bandit_a2.png","70","","70","test","1","","56","","","","square","circle","54","13","3","0.7407407407407407","","","","","","","",""
"null","235834","SARL_v6","SARL_v68vg23v0f","60d8c6bc9686529cdc824a49","freq_resp","","","img/blue_2bandit_a.png","70","img/blue_2bandit_a.png","70","test","","","","","","","","","","","3","","","","","","","","",""
"null","235992","SARL_v6","SARL_v68vg23v0f","60d8c6bc9686529cdc824a49","fixation","","","img/fixation.png","null","","","test","","","","","","","","","","","","","","","","","","","",""
"459","236454","SARL_v6","SARL_v68vg23v0f","60d8c6bc9686529cdc824a49","freq","","","img/blue_2bandit_a2.png","70","","70","test","1","","57","","","","square","circle","55","14","3","0.7454545454545455","","","","","","","",""
"null","236800","SARL_v6","SARL_v68vg23v0f","60d8c6bc9686529cdc824a49","freq_resp","","","img/blue_2bandit_a.png","70","img/blue_2bandit_a.png","70","test","","","","","","","","","","","3","","","","","","","","",""
"null","236957","SARL_v6","SARL_v68vg23v0f","60d8c6bc9686529cdc824a49","fixation","","","img/fixation.png","null","","","test","","","","","","","","","","","","","","","","","","","",""
"449","237409","SARL_v6","SARL_v68vg23v0f","60d8c6bc9686529cdc824a49","freq","","","img/blue_2bandit_a2.png","70","","70","test","1","","58","","","","square","circle","56","15","3","0.75","","","","","","","",""
"null","237765","SARL_v6","SARL_v68vg23v0f","60d8c6bc9686529cdc824a49","freq_resp","","","img/blue_2bandit_a.png","70","img/blue_2bandit_a.png","70","test","","","","","","","","","","","3","","","","","","","","",""
"null","237923","SARL_v6","SARL_v68vg23v0f","60d8c6bc9686529cdc824a49","fixation","","","img/fixation.png","null","","","test","","","","","","","","","","","","","","","","","","","",""
"481","238407","SARL_v6","SARL_v68vg23v0f","60d8c6bc9686529cdc824a49","freq","","","img/blue_2bandit_a2.png","70","","70","test","1","","59","","","","square","circle","57","16","3","0.7543859649122807","","","","","","","",""
"null","238737","SARL_v6","SARL_v68vg23v0f","60d8c6bc9686529cdc824a49","freq_resp","","","img/blue_2bandit_a.png","70","img/blue_2bandit_a.png","70","test","","","","","","","","","","","3","","","","","","","","",""
"null","238894","SARL_v6","SARL_v68vg23v0f","60d8c6bc9686529cdc824a49","fixation","","","img/fixation.png","null","","","test","","","","","","","","","","","","","","","","","","","",""
"393","239290","SARL_v6","SARL_v68vg23v0f","60d8c6bc9686529cdc824a49","freq","","","img/blue_2bandit_a2.png","70","","70","test","1","","60","","","","square","circle","58","17","3","0.7586206896551724","","","","","","","",""
"null","239709","SARL_v6","SARL_v68vg23v0f","60d8c6bc9686529cdc824a49","freq_resp","","","img/blue_2bandit_a.png","70","img/blue_2bandit_a.png","70","test","","","","","","","","","","","3","","","","","","","","",""
"null","239863","SARL_v6","SARL_v68vg23v0f","60d8c6bc9686529cdc824a49","fixation","","","img/fixation.png","null","","","test","","","","","","","","","","","","","","","","","","","",""
"401","240266","SARL_v6","SARL_v68vg23v0f","60d8c6bc9686529cdc824a49","freq","","","img/blue_2bandit_a2.png","70","","70","test","1","","61","","","","square","circle","59","18","3","0.7627118644067796","","","","","","","",""
"null","240677","SARL_v6","SARL_v68vg23v0f","60d8c6bc9686529cdc824a49","freq_resp","","","img/blue_2bandit_a.png","70","img/blue_2bandit_a.png","70","test","","","","","","","","","","","3","","","","","","","","",""
"null","240834","SARL_v6","SARL_v68vg23v0f","60d8c6bc9686529cdc824a49","fixation","","","img/fixation.png","null","","","test","","","","","","","","","","","","","","","","","","","",""
"428","241265","SARL_v6","SARL_v68vg23v0f","60d8c6bc9686529cdc824a49","freq","","","img/blue_2bandit_a2.png","70","","70","test","1","","62","","","","square","circle","60","19","3","0.7666666666666667","","","","","","","",""
"null","241643","SARL_v6","SARL_v68vg23v0f","60d8c6bc9686529cdc824a49","freq_resp","","","img/blue_2bandit_a.png","70","img/blue_2bandit_a.png","70","test","","","","","","","","","","","3","","","","","","","","",""
"null","241800","SARL_v6","SARL_v68vg23v0f","60d8c6bc9686529cdc824a49","fixation","","","img/fixation.png","null","","","test","","","","","","","","","","","","","","","","","","","",""
"640","242442","SARL_v6","SARL_v68vg23v0f","60d8c6bc9686529cdc824a49","infreq","","","img/orange_2bandit_a2.png","68","","68","test","1","","63","","","","square","circle","61","20","3","0.7704918032786885","","","","","","","",""
"null","242606","SARL_v6","SARL_v68vg23v0f","60d8c6bc9686529cdc824a49","infreq_resp","","","img/orange_2bandit_a.png","68","img/orange_2bandit_a.png","68","test","","","","","","","","","","","3","","","","","","","","",""
"null","242766","SARL_v6","SARL_v68vg23v0f","60d8c6bc9686529cdc824a49","fixation","","","img/fixation.png","null","","","test","","","","","","","","","","","","","","","","","","","",""
"632","243400","SARL_v6","SARL_v68vg23v0f","60d8c6bc9686529cdc824a49","freq","","","img/blue_2bandit_a2.png","70","","70","test","1","","64","","","","square","circle","62","21","3","0.7741935483870968","","","","","","","",""
"null","243573","SARL_v6","SARL_v68vg23v0f","60d8c6bc9686529cdc824a49","freq_resp","","","img/blue_2bandit_a.png","70","img/blue_2bandit_a.png","70","test","","","","","","","","","","","3","","","","","","","","",""
"null","243729","SARL_v6","SARL_v68vg23v0f","60d8c6bc9686529cdc824a49","fixation","","","img/fixation.png","null","","","test","","","","","","","","","","","","","","","","","","","",""
"656","244387","SARL_v6","SARL_v68vg23v0f","60d8c6bc9686529cdc824a49","freq","","","img/blue_2bandit_a2.png","70","","70","test","1","","65","","","","square","circle","63","22","3","0.7777777777777778","","","","","","","",""
"null","244534","SARL_v6","SARL_v68vg23v0f","60d8c6bc9686529cdc824a49","freq_resp","","","img/blue_2bandit_a.png","70","img/blue_2bandit_a.png","70","test","","","","","","","","","","","3","","","","","","","","",""
"null","244690","SARL_v6","SARL_v68vg23v0f","60d8c6bc9686529cdc824a49","fixation","","","img/fixation.png","null","","","test","","","","","","","","","","","","","","","","","","","",""
"907","245599","SARL_v6","SARL_v68vg23v0f","60d8c6bc9686529cdc824a49","rl","","","img/black_2bandit_a2.png","75","","0","test","","","66","","","-8","square","circle","","0","3","","75","-8","-4","-4","-8","circle","3","0"
"null","246362","SARL_v6","SARL_v68vg23v0f","60d8c6bc9686529cdc824a49","feedback","","","<div class=""verylowPoints""> -8 </div>","null","","na","test","","","NaN","","","","","","","","3","","75","","","","","","3",""
"null","247164","SARL_v6","SARL_v68vg23v0f","60d8c6bc9686529cdc824a49","freq","","","img/blue_2bandit_a2.png","null","","70","test","0","","67","","","","square","circle","64","1","4","0.765625","","","","","","","",""
"null","247320","SARL_v6","SARL_v68vg23v0f","60d8c6bc9686529cdc824a49","fixation","","","img/fixation.png","null","","","test","","","","","","","","","","","","","","","","","","","",""
"null","248128","SARL_v6","SARL_v68vg23v0f","60d8c6bc9686529cdc824a49","freq","","","img/blue_2bandit_a2.png","null","","70","test","0","","68","","","","square","circle","65","2","4","0.7538461538461538","","","","","","","",""
"null","248288","SARL_v6","SARL_v68vg23v0f","60d8c6bc9686529cdc824a49","fixation","","","img/fixation.png","null","","","test","","","","","","","","","","","","","","","","","","","",""
"null","249101","SARL_v6","SARL_v68vg23v0f","60d8c6bc9686529cdc824a49","freq","","","img/blue_2bandit_a2.png","null","","70","test","0","","69","","","","square","circle","66","3","4","0.7424242424242424","","","","","","","",""
"null","249259","SARL_v6","SARL_v68vg23v0f","60d8c6bc9686529cdc824a49","fixation","","","img/fixation.png","null","","","test","","","","","","","","","","","","","","","","","","","",""
"61","249323","SARL_v6","SARL_v68vg23v0f","60d8c6bc9686529cdc824a49","freq","","","img/blue_2bandit_a2.png","70","","70","test","1","","70","","","","square","circle","67","4","4","0.746268656716418","","","","","","","",""
"null","250072","SARL_v6","SARL_v68vg23v0f","60d8c6bc9686529cdc824a49","freq_resp","","","img/blue_2bandit_a.png","70","img/blue_2bandit_a.png","70","test","","","","","","","","","","","4","","","","","","","","",""
"null","250227","SARL_v6","SARL_v68vg23v0f","60d8c6bc9686529cdc824a49","fixation","","","img/fixation.png","null","","","test","","","","","","","","","","","","","","","","","","","",""
"235","250465","SARL_v6","SARL_v68vg23v0f","60d8c6bc9686529cdc824a49","freq","","","img/blue_2bandit_a2.png","70","","70","test","1","","71","","","","square","circle","68","5","4","0.75","","","","","","","",""
"null","251036","SARL_v6","SARL_v68vg23v0f","60d8c6bc9686529cdc824a49","freq_resp","","","img/blue_2bandit_a.png","70","img/blue_2bandit_a.png","70","test","","","","","","","","","","","4","","","","","","","","",""
"null","251193","SARL_v6","SARL_v68vg23v0f","60d8c6bc9686529cdc824a49","fixation","","","img/fixation.png","null","","","test","","","","","","","","","","","","","","","","","","","",""
"388","251582","SARL_v6","SARL_v68vg23v0f","60d8c6bc9686529cdc824a49","freq","","","img/blue_2bandit_a2.png","70","","70","test","1","","72","","","","square","circle","69","6","4","0.7536231884057971","","","","","","","",""
"null","251997","SARL_v6","SARL_v68vg23v0f","60d8c6bc9686529cdc824a49","freq_resp","","","img/blue_2bandit_a.png","70","img/blue_2bandit_a.png","70","test","","","","","","","","","","","4","","","","","","","","",""
"null","252155","SARL_v6","SARL_v68vg23v0f","60d8c6bc9686529cdc824a49","fixation","","","img/fixation.png","null","","","test","","","","","","","","","","","","","","","","","","","",""
"437","252595","SARL_v6","SARL_v68vg23v0f","60d8c6bc9686529cdc824a49","freq","","","img/blue_2bandit_a2.png","70","","70","test","1","","73","","","","square","circle","70","7","4","0.7571428571428571","","","","","","","",""
"null","252961","SARL_v6","SARL_v68vg23v0f","60d8c6bc9686529cdc824a49","freq_resp","","","img/blue_2bandit_a.png","70","img/blue_2bandit_a.png","70","test","","","","","","","","","","","4","","","","","","","","",""
"null","253117","SARL_v6","SARL_v68vg23v0f","60d8c6bc9686529cdc824a49","fixation","","","img/fixation.png","null","","","test","","","","","","","","","","","","","","","","","","","",""
"498","253618","SARL_v6","SARL_v68vg23v0f","60d8c6bc9686529cdc824a49","freq","","","img/blue_2bandit_a2.png","70","","70","test","1","","74","","","","square","circle","71","8","4","0.7605633802816901","","","","","","","",""
"null","253938","SARL_v6","SARL_v68vg23v0f","60d8c6bc9686529cdc824a49","freq_resp","","","img/blue_2bandit_a.png","70","img/blue_2bandit_a.png","70","test","","","","","","","","","","","4","","","","","","","","",""
"null","254093","SARL_v6","SARL_v68vg23v0f","60d8c6bc9686529cdc824a49","fixation","","","img/fixation.png","null","","","test","","","","","","","","","","","","","","","","","","","",""
"455","254550","SARL_v6","SARL_v68vg23v0f","60d8c6bc9686529cdc824a49","freq","","","img/blue_2bandit_a2.png","70","","70","test","1","","75","","","","square","circle","72","9","4","0.7638888888888888","","","","","","","",""
"null","254901","SARL_v6","SARL_v68vg23v0f","60d8c6bc9686529cdc824a49","freq_resp","","","img/blue_2bandit_a.png","70","img/blue_2bandit_a.png","70","test","","","","","","","","","","","4","","","","","","","","",""
"null","255059","SARL_v6","SARL_v68vg23v0f","60d8c6bc9686529cdc824a49","fixation","","","img/fixation.png","null","","","test","","","","","","","","","","","","","","","","","","","",""
"559","255621","SARL_v6","SARL_v68vg23v0f","60d8c6bc9686529cdc824a49","freq","","","img/blue_2bandit_a2.png","70","","70","test","1","","76","","","","square","circle","73","10","4","0.7671232876712328","","","","","","","",""
"null","255881","SARL_v6","SARL_v68vg23v0f","60d8c6bc9686529cdc824a49","freq_resp","","","img/blue_2bandit_a.png","70","img/blue_2bandit_a.png","70","test","","","","","","","","","","","4","","","","","","","","",""
"null","256039","SARL_v6","SARL_v68vg23v0f","60d8c6bc9686529cdc824a49","fixation","","","img/fixation.png","null","","","test","","","","","","","","","","","","","","","","","","","",""
"594","256635","SARL_v6","SARL_v68vg23v0f","60d8c6bc9686529cdc824a49","freq","","","img/blue_2bandit_a2.png","70","","70","test","1","","77","","","","square","circle","74","11","4","0.7702702702702703","","","","","","","",""
"null","256856","SARL_v6","SARL_v68vg23v0f","60d8c6bc9686529cdc824a49","freq_resp","","","img/blue_2bandit_a.png","70","img/blue_2bandit_a.png","70","test","","","","","","","","","","","4","","","","","","","","",""
"null","257012","SARL_v6","SARL_v68vg23v0f","60d8c6bc9686529cdc824a49","fixation","","","img/fixation.png","null","","","test","","","","","","","","","","","","","","","","","","","",""
"673","257687","SARL_v6","SARL_v68vg23v0f","60d8c6bc9686529cdc824a49","freq","","","img/blue_2bandit_a2.png","70","","70","test","1","","78","","","","square","circle","75","12","4","0.7733333333333333","","","","","","","",""
"null","257831","SARL_v6","SARL_v68vg23v0f","60d8c6bc9686529cdc824a49","freq_resp","","","img/blue_2bandit_a.png","70","img/blue_2bandit_a.png","70","test","","","","","","","","","","","4","","","","","","","","",""
"null","257988","SARL_v6","SARL_v68vg23v0f","60d8c6bc9686529cdc824a49","fixation","","","img/fixation.png","null","","","test","","","","","","","","","","","","","","","","","","","",""
"761","258752","SARL_v6","SARL_v68vg23v0f","60d8c6bc9686529cdc824a49","freq","","","img/blue_2bandit_a2.png","70","","70","test","1","","79","","","","square","circle","76","13","4","0.7763157894736842","","","","","","","",""
"null","258793","SARL_v6","SARL_v68vg23v0f","60d8c6bc9686529cdc824a49","freq_resp","","","img/blue_2bandit_a.png","70","img/blue_2bandit_a.png","70","test","","","","","","","","","","","4","","","","","","","","",""
"null","258957","SARL_v6","SARL_v68vg23v0f","60d8c6bc9686529cdc824a49","fixation","","","img/fixation.png","null","","","test","","","","","","","","","","","","","","","","","","","",""
"737","259696","SARL_v6","SARL_v68vg23v0f","60d8c6bc9686529cdc824a49","freq","","","img/blue_2bandit_a2.png","70","","70","test","1","","80","","","","square","circle","77","14","4","0.7792207792207793","","","","","","","",""
"null","259762","SARL_v6","SARL_v68vg23v0f","60d8c6bc9686529cdc824a49","freq_resp","","","img/blue_2bandit_a.png","70","img/blue_2bandit_a.png","70","test","","","","","","","","","","","4","","","","","","","","",""
"null","259917","SARL_v6","SARL_v68vg23v0f","60d8c6bc9686529cdc824a49","fixation","","","img/fixation.png","null","","","test","","","","","","","","","","","","","","","","","","","",""
"660","260579","SARL_v6","SARL_v68vg23v0f","60d8c6bc9686529cdc824a49","freq","","","img/blue_2bandit_a2.png","70","","70","test","1","","81","","","","square","circle","78","15","4","0.782051282051282","","","","","","","",""
"null","260724","SARL_v6","SARL_v68vg23v0f","60d8c6bc9686529cdc824a49","freq_resp","","","img/blue_2bandit_a.png","70","img/blue_2bandit_a.png","70","test","","","","","","","","","","","4","","","","","","","","",""
"null","260881","SARL_v6","SARL_v68vg23v0f","60d8c6bc9686529cdc824a49","fixation","","","img/fixation.png","null","","","test","","","","","","","","","","","","","","","","","","","",""
"580","261463","SARL_v6","SARL_v68vg23v0f","60d8c6bc9686529cdc824a49","infreq","","","img/orange_2bandit_a2.png","68","","68","test","1","","82","","","","square","circle","79","16","4","0.7848101265822784","","","","","","","",""
"null","261690","SARL_v6","SARL_v68vg23v0f","60d8c6bc9686529cdc824a49","infreq_resp","","","img/orange_2bandit_a.png","68","img/orange_2bandit_a.png","68","test","","","","","","","","","","","4","","","","","","","","",""
"null","261846","SARL_v6","SARL_v68vg23v0f","60d8c6bc9686529cdc824a49","fixation","","","img/fixation.png","null","","","test","","","","","","","","","","","","","","","","","","","",""
"615","262464","SARL_v6","SARL_v68vg23v0f","60d8c6bc9686529cdc824a49","freq","","","img/blue_2bandit_a2.png","70","","70","test","1","","83","","","","square","circle","80","17","4","0.7875","","","","","","","",""
"null","262665","SARL_v6","SARL_v68vg23v0f","60d8c6bc9686529cdc824a49","freq_resp","","","img/blue_2bandit_a.png","70","img/blue_2bandit_a.png","70","test","","","","","","","","","","","4","","","","","","","","",""
"null","262819","SARL_v6","SARL_v68vg23v0f","60d8c6bc9686529cdc824a49","fixation","","","img/fixation.png","null","","","test","","","","","","","","","","","","","","","","","","","",""
"719","263541","SARL_v6","SARL_v68vg23v0f","60d8c6bc9686529cdc824a49","infreq","","","img/orange_2bandit_a2.png","70","","68","test","0","","84","","","","square","circle","81","18","4","0.7777777777777778","","","","","","","",""
"null","263625","SARL_v6","SARL_v68vg23v0f","60d8c6bc9686529cdc824a49","infreq_resp","","","img/orange_2bandit_a.png","70","img/orange_2bandit_a.png","68","test","","","","","","","","","","","4","","","","","","","","",""
"null","263788","SARL_v6","SARL_v68vg23v0f","60d8c6bc9686529cdc824a49","fixation","","","img/fixation.png","null","","","test","","","","","","","","","","","","","","","","","","","",""
"146","263936","SARL_v6","SARL_v68vg23v0f","60d8c6bc9686529cdc824a49","freq","","","img/blue_2bandit_a2.png","68","","70","test","0","","85","","","","square","circle","82","19","4","0.7682926829268293","","","","","","","",""
"null","264601","SARL_v6","SARL_v68vg23v0f","60d8c6bc9686529cdc824a49","freq_resp","","","img/blue_2bandit_a.png","68","img/blue_2bandit_a.png","70","test","","","","","","","","","","","4","","","","","","","","",""
"null","264757","SARL_v6","SARL_v68vg23v0f","60d8c6bc9686529cdc824a49","fixation","","","img/fixation.png","null","","","test","","","","","","","","","","","","","","","","","","","",""
"90","264849","SARL_v6","SARL_v68vg23v0f","60d8c6bc9686529cdc824a49","freq","","","img/blue_2bandit_a2.png","70","","70","test","1","","86","","","","square","circle","83","20","4","0.7710843373493976","","","","","","","",""
"null","265576","SARL_v6","SARL_v68vg23v0f","60d8c6bc9686529cdc824a49","freq_resp","","","img/blue_2bandit_a.png","70","img/blue_2bandit_a.png","70","test","","","","","","","","","","","4","","","","","","","","",""
"null","265729","SARL_v6","SARL_v68vg23v0f","60d8c6bc9686529cdc824a49","fixation","","","img/fixation.png","null","","","test","","","","","","","","","","","","","","","","","","","",""
"210","265941","SARL_v6","SARL_v68vg23v0f","60d8c6bc9686529cdc824a49","freq","","","img/blue_2bandit_a2.png","70","","70","test","1","","87","","","","square","circle","84","21","4","0.7738095238095238","","","","","","","",""
"null","266537","SARL_v6","SARL_v68vg23v0f","60d8c6bc9686529cdc824a49","freq_resp","","","img/blue_2bandit_a.png","70","img/blue_2bandit_a.png","70","test","","","","","","","","","","","4","","","","","","","","",""
"null","266695","SARL_v6","SARL_v68vg23v0f","60d8c6bc9686529cdc824a49","fixation","","","img/fixation.png","null","","","test","","","","","","","","","","","","","","","","","","","",""
"755","267452","SARL_v6","SARL_v68vg23v0f","60d8c6bc9686529cdc824a49","rl","","","img/black_2bandit_a2.png","75","","0","test","","","88","","","-12","square","circle","","0","4","","75","-12","0","0","-12","circle","4","0"
"null","268216","SARL_v6","SARL_v68vg23v0f","60d8c6bc9686529cdc824a49","feedback","","","<div class=""verylowPoints""> -12 </div>","null","","na","test","","","NaN","","","","","","","","4","","75","","","","","","4",""
"688","268906","SARL_v6","SARL_v68vg23v0f","60d8c6bc9686529cdc824a49","freq","","","img/blue_2bandit_a2.png","70","","70","test","1","","89","","","","square","circle","85","1","5","0.7764705882352941","","","","","","","",""
"null","269036","SARL_v6","SARL_v68vg23v0f","60d8c6bc9686529cdc824a49","freq_resp","","","img/blue_2bandit_a.png","70","img/blue_2bandit_a.png","70","test","","","","","","","","","","","5","","","","","","","","",""
"null","269192","SARL_v6","SARL_v68vg23v0f","60d8c6bc9686529cdc824a49","fixation","","","img/fixation.png","null","","","test","","","","","","","","","","","","","","","","","","","",""
"501","269695","SARL_v6","SARL_v68vg23v0f","60d8c6bc9686529cdc824a49","freq","","","img/blue_2bandit_a2.png","70","","70","test","1","","90","","","","square","circle","86","2","5","0.7790697674418605","","","","","","","",""
"null","269998","SARL_v6","SARL_v68vg23v0f","60d8c6bc9686529cdc824a49","freq_resp","","","img/blue_2bandit_a.png","70","img/blue_2bandit_a.png","70","test","","","","","","","","","","","5","","","","","","","","",""
"null","270158","SARL_v6","SARL_v68vg23v0f","60d8c6bc9686529cdc824a49","fixation","","","img/fixation.png","null","","","test","","","","","","","","","","","","","","","","","","","",""
"479","270640","SARL_v6","SARL_v68vg23v0f","60d8c6bc9686529cdc824a49","freq","","","img/blue_2bandit_a2.png","70","","70","test","1","","91","","","","square","circle","87","3","5","0.7816091954022989","","","","","","","",""
"null","270965","SARL_v6","SARL_v68vg23v0f","60d8c6bc9686529cdc824a49","freq_resp","","","img/blue_2bandit_a.png","70","img/blue_2bandit_a.png","70","test","","","","","","","","","","","5","","","","","","","","",""
"null","271123","SARL_v6","SARL_v68vg23v0f","60d8c6bc9686529cdc824a49","fixation","","","img/fixation.png","null","","","test","","","","","","","","","","","","","","","","","","","",""
"437","271562","SARL_v6","SARL_v68vg23v0f","60d8c6bc9686529cdc824a49","freq","","","img/blue_2bandit_a2.png","70","","70","test","1","","92","","","","square","circle","88","4","5","0.7840909090909091","","","","","","","",""
"null","271942","SARL_v6","SARL_v68vg23v0f","60d8c6bc9686529cdc824a49","freq_resp","","","img/blue_2bandit_a.png","70","img/blue_2bandit_a.png","70","test","","","","","","","","","","","5","","","","","","","","",""
"null","272100","SARL_v6","SARL_v68vg23v0f","60d8c6bc9686529cdc824a49","fixation","","","img/fixation.png","null","","","test","","","","","","","","","","","","","","","","","","","",""
"445","272548","SARL_v6","SARL_v68vg23v0f","60d8c6bc9686529cdc824a49","freq","","","img/blue_2bandit_a2.png","70","","70","test","1","","93","","","","square","circle","89","5","5","0.7865168539325843","","","","","","","",""
"null","272919","SARL_v6","SARL_v68vg23v0f","60d8c6bc9686529cdc824a49","freq_resp","","","img/blue_2bandit_a.png","70","img/blue_2bandit_a.png","70","test","","","","","","","","","","","5","","","","","","","","",""
"null","273079","SARL_v6","SARL_v68vg23v0f","60d8c6bc9686529cdc824a49","fixation","","","img/fixation.png","null","","","test","","","","","","","","","","","","","","","","","","","",""
"304","273385","SARL_v6","SARL_v68vg23v0f","60d8c6bc9686529cdc824a49","infreq","","","img/orange_2bandit_a2.png","70","","68","test","0","","94","","","","square","circle","90","6","5","0.7777777777777778","","","","","","","",""
"null","273899","SARL_v6","SARL_v68vg23v0f","60d8c6bc9686529cdc824a49","infreq_resp","","","img/orange_2bandit_a.png","70","img/orange_2bandit_a.png","68","test","","","","","","","","","","","5","","","","","","","","",""
"null","274058","SARL_v6","SARL_v68vg23v0f","60d8c6bc9686529cdc824a49","fixation","","","img/fixation.png","null","","","test","","","","","","","","","","","","","","","","","","","",""
"null","274876","SARL_v6","SARL_v68vg23v0f","60d8c6bc9686529cdc824a49","freq","","","img/blue_2bandit_a2.png","null","","70","test","0","","95","","","","square","circle","91","7","5","0.7692307692307693","","","","","","","",""
"null","275032","SARL_v6","SARL_v68vg23v0f","60d8c6bc9686529cdc824a49","fixation","","","img/fixation.png","null","","","test","","","","","","","","","","","","","","","","","","","",""
"null","275836","SARL_v6","SARL_v68vg23v0f","60d8c6bc9686529cdc824a49","freq","","","img/blue_2bandit_a2.png","null","","70","test","0","","96","","","","square","circle","92","8","5","0.7608695652173914","","","","","","","",""
"null","275992","SARL_v6","SARL_v68vg23v0f","60d8c6bc9686529cdc824a49","fixation","","","img/fixation.png","null","","","test","","","","","","","","","","","","","","","","","","","",""
"235","276229","SARL_v6","SARL_v68vg23v0f","60d8c6bc9686529cdc824a49","freq","","","img/blue_2bandit_a2.png","70","","70","test","1","","97","","","","square","circle","93","9","5","0.7634408602150538","","","","","","","",""
"null","276808","SARL_v6","SARL_v68vg23v0f","60d8c6bc9686529cdc824a49","freq_resp","","","img/blue_2bandit_a.png","70","img/blue_2bandit_a.png","70","test","","","","","","","","","","","5","","","","","","","","",""
"null","276964","SARL_v6","SARL_v68vg23v0f","60d8c6bc9686529cdc824a49","fixation","","","img/fixation.png","null","","","test","","","","","","","","","","","","","","","","","","","",""
"367","277333","SARL_v6","SARL_v68vg23v0f","60d8c6bc9686529cdc824a49","freq","","","img/blue_2bandit_a2.png","70","","70","test","1","","98","","","","square","circle","94","10","5","0.7659574468085106","","","","","","","",""
"null","277779","SARL_v6","SARL_v68vg23v0f","60d8c6bc9686529cdc824a49","freq_resp","","","img/blue_2bandit_a.png","70","img/blue_2bandit_a.png","70","test","","","","","","","","","","","5","","","","","","","","",""
"null","277935","SARL_v6","SARL_v68vg23v0f","60d8c6bc9686529cdc824a49","fixation","","","img/fixation.png","null","","","test","","","","","","","","","","","","","","","","","","","",""
"338","278275","SARL_v6","SARL_v68vg23v0f","60d8c6bc9686529cdc824a49","freq","","","img/blue_2bandit_a2.png","70","","70","test","1","","99","","","","square","circle","95","11","5","0.7684210526315789","","","","","","","",""
"null","278747","SARL_v6","SARL_v68vg23v0f","60d8c6bc9686529cdc824a49","freq_resp","","","img/blue_2bandit_a.png","70","img/blue_2bandit_a.png","70","test","","","","","","","","","","","5","","","","","","","","",""
"null","278903","SARL_v6","SARL_v68vg23v0f","60d8c6bc9686529cdc824a49","fixation","","","img/fixation.png","null","","","test","","","","","","","","","","","","","","","","","","","",""
"325","279230","SARL_v6","SARL_v68vg23v0f","60d8c6bc9686529cdc824a49","freq","","","img/blue_2bandit_a2.png","70","","70","test","1","","100","","","","square","circle","96","12","5","0.7708333333333334","","","","","","","",""
"null","279723","SARL_v6","SARL_v68vg23v0f","60d8c6bc9686529cdc824a49","freq_resp","","","img/blue_2bandit_a.png","70","img/blue_2bandit_a.png","70","test","","","","","","","","","","","5","","","","","","","","",""
"null","279880","SARL_v6","SARL_v68vg23v0f","60d8c6bc9686529cdc824a49","fixation","","","img/fixation.png","null","","","test","","","","","","","","","","","","","","","","","","","",""
"313","280196","SARL_v6","SARL_v68vg23v0f","60d8c6bc9686529cdc824a49","freq","","","img/blue_2bandit_a2.png","70","","70","test","1","","101","","","","square","circle","97","13","5","0.7731958762886598","","","","","","","",""
"null","280701","SARL_v6","SARL_v68vg23v0f","60d8c6bc9686529cdc824a49","freq_resp","","","img/blue_2bandit_a.png","70","img/blue_2bandit_a.png","70","test","","","","","","","","","","","5","","","","","","","","",""
"null","280858","SARL_v6","SARL_v68vg23v0f","60d8c6bc9686529cdc824a49","fixation","","","img/fixation.png","null","","","test","","","","","","","","","","","","","","","","","","","",""
"291","281152","SARL_v6","SARL_v68vg23v0f","60d8c6bc9686529cdc824a49","freq","","","img/blue_2bandit_a2.png","70","","70","test","1","","102","","","","square","circle","98","14","5","0.7755102040816326","","","","","","","",""
"null","281676","SARL_v6","SARL_v68vg23v0f","60d8c6bc9686529cdc824a49","freq_resp","","","img/blue_2bandit_a.png","70","img/blue_2bandit_a.png","70","test","","","","","","","","","","","5","","","","","","","","",""
"null","281833","SARL_v6","SARL_v68vg23v0f","60d8c6bc9686529cdc824a49","fixation","","","img/fixation.png","null","","","test","","","","","","","","","","","","","","","","","","","",""
"289","282124","SARL_v6","SARL_v68vg23v0f","60d8c6bc9686529cdc824a49","infreq","","","img/orange_2bandit_a2.png","70","","68","test","0","","103","","","","square","circle","99","15","5","0.7676767676767676","","","","","","","",""
"null","282648","SARL_v6","SARL_v68vg23v0f","60d8c6bc9686529cdc824a49","infreq_resp","","","img/orange_2bandit_a.png","70","img/orange_2bandit_a.png","68","test","","","","","","","","","","","5","","","","","","","","",""
"null","282804","SARL_v6","SARL_v68vg23v0f","60d8c6bc9686529cdc824a49","fixation","","","img/fixation.png","null","","","test","","","","","","","","","","","","","","","","","","","",""
"694","283500","SARL_v6","SARL_v68vg23v0f","60d8c6bc9686529cdc824a49","freq","","","img/blue_2bandit_a2.png","70","","70","test","1","","104","","","","square","circle","100","16","5","0.77","","","","","","","",""
"null","283610","SARL_v6","SARL_v68vg23v0f","60d8c6bc9686529cdc824a49","freq_resp","","","img/blue_2bandit_a.png","70","img/blue_2bandit_a.png","70","test","","","","","","","","","","","5","","","","","","","","",""
"null","283767","SARL_v6","SARL_v68vg23v0f","60d8c6bc9686529cdc824a49","fixation","","","img/fixation.png","null","","","test","","","","","","","","","","","","","","","","","","","",""
"781","284551","SARL_v6","SARL_v68vg23v0f","60d8c6bc9686529cdc824a49","freq","","","img/blue_2bandit_a2.png","70","","70","test","1","","105","","","","square","circle","101","17","5","0.7722772277227723","","","","","","","",""
"null","284574","SARL_v6","SARL_v68vg23v0f","60d8c6bc9686529cdc824a49","freq_resp","","","img/blue_2bandit_a.png","70","img/blue_2bandit_a.png","70","test","","","","","","","","","","","5","","","","","","","","",""
"null","284740","SARL_v6","SARL_v68vg23v0f","60d8c6bc9686529cdc824a49","fixation","","","img/fixation.png","null","","","test","","","","","","","","","","","","","","","","","","","",""
"547","285289","SARL_v6","SARL_v68vg23v0f","60d8c6bc9686529cdc824a49","freq","","","img/blue_2bandit_a2.png","70","","70","test","1","","106","","","","square","circle","102","18","5","0.7745098039215687","","","","","","","",""
"null","285555","SARL_v6","SARL_v68vg23v0f","60d8c6bc9686529cdc824a49","freq_resp","","","img/blue_2bandit_a.png","70","img/blue_2bandit_a.png","70","test","","","","","","","","","","","5","","","","","","","","",""
"null","285707","SARL_v6","SARL_v68vg23v0f","60d8c6bc9686529cdc824a49","fixation","","","img/fixation.png","null","","","test","","","","","","","","","","","","","","","","","","","",""
"430","286139","SARL_v6","SARL_v68vg23v0f","60d8c6bc9686529cdc824a49","freq","","","img/blue_2bandit_a2.png","70","","70","test","1","","107","","","","square","circle","103","19","5","0.7766990291262136","","","","","","","",""
"null","286518","SARL_v6","SARL_v68vg23v0f","60d8c6bc9686529cdc824a49","freq_resp","","","img/blue_2bandit_a.png","70","img/blue_2bandit_a.png","70","test","","","","","","","","","","","5","","","","","","","","",""
"null","286676","SARL_v6","SARL_v68vg23v0f","60d8c6bc9686529cdc824a49","fixation","","","img/fixation.png","null","","","test","","","","","","","","","","","","","","","","","","","",""
"487","287166","SARL_v6","SARL_v68vg23v0f","60d8c6bc9686529cdc824a49","freq","","","img/blue_2bandit_a2.png","70","","70","test","1","","108","","","","square","circle","104","20","5","0.7788461538461539","","","","","","","",""
"null","287497","SARL_v6","SARL_v68vg23v0f","60d8c6bc9686529cdc824a49","freq_resp","","","img/blue_2bandit_a.png","70","img/blue_2bandit_a.png","70","test","","","","","","","","","","","5","","","","","","","","",""
"null","287655","SARL_v6","SARL_v68vg23v0f","60d8c6bc9686529cdc824a49","fixation","","","img/fixation.png","null","","","test","","","","","","","","","","","","","","","","","","","",""
"862","288520","SARL_v6","SARL_v68vg23v0f","60d8c6bc9686529cdc824a49","rl","","","img/black_2bandit_a2.png","74","","0","test","","","109","","","4","square","circle","","0","5","","74","-7","4","4","-7","square","5","0"
"null","289281","SARL_v6","SARL_v68vg23v0f","60d8c6bc9686529cdc824a49","feedback","","","<div class=""veryhighPoints_sq""> 4 </div>","null","","na","test","","","NaN","","","","","","","","5","","74","","","","","","5",""
"null","290090","SARL_v6","SARL_v68vg23v0f","60d8c6bc9686529cdc824a49","freq","","","img/blue_2bandit_a2.png","null","","70","test","0","","110","","","","square","circle","105","1","6","0.7714285714285715","","","","","","","",""
"null","290250","SARL_v6","SARL_v68vg23v0f","60d8c6bc9686529cdc824a49","fixation","","","img/fixation.png","null","","","test","","","","","","","","","","","","","","","","","","","",""
"668","290920","SARL_v6","SARL_v68vg23v0f","60d8c6bc9686529cdc824a49","infreq","","","img/orange_2bandit_a2.png","68","","68","test","1","","111","","","","square","circle","106","2","6","0.7735849056603774","","","","","","","",""
"null","291055","SARL_v6","SARL_v68vg23v0f","60d8c6bc9686529cdc824a49","infreq_resp","","","img/orange_2bandit_a.png","68","img/orange_2bandit_a.png","68","test","","","","","","","","","","","6","","","","","","","","",""
"null","291212","SARL_v6","SARL_v68vg23v0f","60d8c6bc9686529cdc824a49","fixation","","","img/fixation.png","null","","","test","","","","","","","","","","","","","","","","","","","",""
"580","291794","SARL_v6","SARL_v68vg23v0f","60d8c6bc9686529cdc824a49","freq","","","img/blue_2bandit_a2.png","70","","70","test","1","","112","","","","square","circle","107","3","6","0.7757009345794392","","","","","","","",""
"null","292019","SARL_v6","SARL_v68vg23v0f","60d8c6bc9686529cdc824a49","freq_resp","","","img/blue_2bandit_a.png","70","img/blue_2bandit_a.png","70","test","","","","","","","","","","","6","","","","","","","","",""
"null","292175","SARL_v6","SARL_v68vg23v0f","60d8c6bc9686529cdc824a49","fixation","","","img/fixation.png","null","","","test","","","","","","","","","","","","","","","","","","","",""
"552","292728","SARL_v6","SARL_v68vg23v0f","60d8c6bc9686529cdc824a49","freq","","","img/blue_2bandit_a2.png","70","","70","test","1","","113","","","","square","circle","108","4","6","0.7777777777777778","","","","","","","",""
"null","292982","SARL_v6","SARL_v68vg23v0f","60d8c6bc9686529cdc824a49","freq_resp","","","img/blue_2bandit_a.png","70","img/blue_2bandit_a.png","70","test","","","","","","","","","","","6","","","","","","","","",""
"null","293136","SARL_v6","SARL_v68vg23v0f","60d8c6bc9686529cdc824a49","fixation","","","img/fixation.png","null","","","test","","","","","","","","","","","","","","","","","","","",""
"382","293521","SARL_v6","SARL_v68vg23v0f","60d8c6bc9686529cdc824a49","freq","","","img/blue_2bandit_a2.png","70","","70","test","1","","114","","","","square","circle","109","5","6","0.7798165137614679","","","","","","","",""
"null","293951","SARL_v6","SARL_v68vg23v0f","60d8c6bc9686529cdc824a49","freq_resp","","","img/blue_2bandit_a.png","70","img/blue_2bandit_a.png","70","test","","","","","","","","","","","6","","","","","","","","",""
"null","294107","SARL_v6","SARL_v68vg23v0f","60d8c6bc9686529cdc824a49","fixation","","","img/fixation.png","null","","","test","","","","","","","","","","","","","","","","","","","",""
"267","294376","SARL_v6","SARL_v68vg23v0f","60d8c6bc9686529cdc824a49","freq","","","img/blue_2bandit_a2.png","70","","70","test","1","","115","","","","square","circle","110","6","6","0.7818181818181819","","","","","","","",""
"null","294922","SARL_v6","SARL_v68vg23v0f","60d8c6bc9686529cdc824a49","freq_resp","","","img/blue_2bandit_a.png","70","img/blue_2bandit_a.png","70","test","","","","","","","","","","","6","","","","","","","","",""
"null","295080","SARL_v6","SARL_v68vg23v0f","60d8c6bc9686529cdc824a49","fixation","","","img/fixation.png","null","","","test","","","","","","","","","","","","","","","","","","","",""
"289","295371","SARL_v6","SARL_v68vg23v0f","60d8c6bc9686529cdc824a49","freq","","","img/blue_2bandit_a2.png","70","","70","test","1","","116","","","","square","circle","111","7","6","0.7837837837837838","","","","","","","",""
"null","295888","SARL_v6","SARL_v68vg23v0f","60d8c6bc9686529cdc824a49","freq_resp","","","img/blue_2bandit_a.png","70","img/blue_2bandit_a.png","70","test","","","","","","","","","","","6","","","","","","","","",""
"null","296041","SARL_v6","SARL_v68vg23v0f","60d8c6bc9686529cdc824a49","fixation","","","img/fixation.png","null","","","test","","","","","","","","","","","","","","","","","","","",""
"339","296382","SARL_v6","SARL_v68vg23v0f","60d8c6bc9686529cdc824a49","freq","","","img/blue_2bandit_a2.png","70","","70","test","1","","117","","","","square","circle","112","8","6","0.7857142857142857","","","","","","","",""
"null","296858","SARL_v6","SARL_v68vg23v0f","60d8c6bc9686529cdc824a49","freq_resp","","","img/blue_2bandit_a.png","70","img/blue_2bandit_a.png","70","test","","","","","","","","","","","6","","","","","","","","",""
"null","297013","SARL_v6","SARL_v68vg23v0f","60d8c6bc9686529cdc824a49","fixation","","","img/fixation.png","null","","","test","","","","","","","","","","","","","","","","","","","",""
"331","297346","SARL_v6","SARL_v68vg23v0f","60d8c6bc9686529cdc824a49","freq","","","img/blue_2bandit_a2.png","70","","70","test","1","","118","","","","square","circle","113","9","6","0.7876106194690266","","","","","","","",""
"null","297833","SARL_v6","SARL_v68vg23v0f","60d8c6bc9686529cdc824a49","freq_resp","","","img/blue_2bandit_a.png","70","img/blue_2bandit_a.png","70","test","","","","","","","","","","","6","","","","","","","","",""
"null","297991","SARL_v6","SARL_v68vg23v0f","60d8c6bc9686529cdc824a49","fixation","","","img/fixation.png","null","","","test","","","","","","","","","","","","","","","","","","","",""
"269","298262","SARL_v6","SARL_v68vg23v0f","60d8c6bc9686529cdc824a49","freq","","","img/blue_2bandit_a2.png","70","","70","test","1","","119","","","","square","circle","114","10","6","0.7894736842105263","","","","","","","",""
"null","298798","SARL_v6","SARL_v68vg23v0f","60d8c6bc9686529cdc824a49","freq_resp","","","img/blue_2bandit_a.png","70","img/blue_2bandit_a.png","70","test","","","","","","","","","","","6","","","","","","","","",""
"null","298956","SARL_v6","SARL_v68vg23v0f","60d8c6bc9686529cdc824a49","fixation","","","img/fixation.png","null","","","test","","","","","","","","","","","","","","","","","","","",""
"344","299302","SARL_v6","SARL_v68vg23v0f","60d8c6bc9686529cdc824a49","freq","","","img/blue_2bandit_a2.png","70","","70","test","1","","120","","","","square","circle","115","11","6","0.7913043478260869","","","","","","","",""
"null","299773","SARL_v6","SARL_v68vg23v0f","60d8c6bc9686529cdc824a49","freq_resp","","","img/blue_2bandit_a.png","70","img/blue_2bandit_a.png","70","test","","","","","","","","","","","6","","","","","","","","",""
"null","299931","SARL_v6","SARL_v68vg23v0f","60d8c6bc9686529cdc824a49","fixation","","","img/fixation.png","null","","","test","","","","","","","","","","","","","","","","","","","",""
"371","300304","SARL_v6","SARL_v68vg23v0f","60d8c6bc9686529cdc824a49","freq","","","img/blue_2bandit_a2.png","70","","70","test","1","","121","","","","square","circle","116","12","6","0.7931034482758621","","","","","","","",""
"null","300736","SARL_v6","SARL_v68vg23v0f","60d8c6bc9686529cdc824a49","freq_resp","","","img/blue_2bandit_a.png","70","img/blue_2bandit_a.png","70","test","","","","","","","","","","","6","","","","","","","","",""
"null","300894","SARL_v6","SARL_v68vg23v0f","60d8c6bc9686529cdc824a49","fixation","","","img/fixation.png","null","","","test","","","","","","","","","","","","","","","","","","","",""
"402","301299","SARL_v6","SARL_v68vg23v0f","60d8c6bc9686529cdc824a49","freq","","","img/blue_2bandit_a2.png","70","","70","test","1","","122","","","","square","circle","117","13","6","0.7948717948717948","","","","","","","",""
"null","301711","SARL_v6","SARL_v68vg23v0f","60d8c6bc9686529cdc824a49","freq_resp","","","img/blue_2bandit_a.png","70","img/blue_2bandit_a.png","70","test","","","","","","","","","","","6","","","","","","","","",""
"null","301870","SARL_v6","SARL_v68vg23v0f","60d8c6bc9686529cdc824a49","fixation","","","img/fixation.png","null","","","test","","","","","","","","","","","","","","","","","","","",""
"456","302329","SARL_v6","SARL_v68vg23v0f","60d8c6bc9686529cdc824a49","freq","","","img/blue_2bandit_a2.png","70","","70","test","1","","123","","","","square","circle","118","14","6","0.7966101694915254","","","","","","","",""
"null","302690","SARL_v6","SARL_v68vg23v0f","60d8c6bc9686529cdc824a49","freq_resp","","","img/blue_2bandit_a.png","70","img/blue_2bandit_a.png","70","test","","","","","","","","","","","6","","","","","","","","",""
"null","302844","SARL_v6","SARL_v68vg23v0f","60d8c6bc9686529cdc824a49","fixation","","","img/fixation.png","null","","","test","","","","","","","","","","","","","","","","","","","",""
"442","303289","SARL_v6","SARL_v68vg23v0f","60d8c6bc9686529cdc824a49","freq","","","img/blue_2bandit_a2.png","70","","70","test","1","","124","","","","square","circle","119","15","6","0.7983193277310925","","","","","","","",""
"null","303657","SARL_v6","SARL_v68vg23v0f","60d8c6bc9686529cdc824a49","freq_resp","","","img/blue_2bandit_a.png","70","img/blue_2bandit_a.png","70","test","","","","","","","","","","","6","","","","","","","","",""
"null","303814","SARL_v6","SARL_v68vg23v0f","60d8c6bc9686529cdc824a49","fixation","","","img/fixation.png","null","","","test","","","","","","","","","","","","","","","","","","","",""
"457","304274","SARL_v6","SARL_v68vg23v0f","60d8c6bc9686529cdc824a49","freq","","","img/blue_2bandit_a2.png","70","","70","test","1","","125","","","","square","circle","120","16","6","0.8","","","","","","","",""
"null","304621","SARL_v6","SARL_v68vg23v0f","60d8c6bc9686529cdc824a49","freq_resp","","","img/blue_2bandit_a.png","70","img/blue_2bandit_a.png","70","test","","","","","","","","","","","6","","","","","","","","",""
"null","304781","SARL_v6","SARL_v68vg23v0f","60d8c6bc9686529cdc824a49","fixation","","","img/fixation.png","null","","","test","","","","","","","","","","","","","","","","","","","",""
"479","305262","SARL_v6","SARL_v68vg23v0f","60d8c6bc9686529cdc824a49","freq","","","img/blue_2bandit_a2.png","70","","70","test","1","","126","","","","square","circle","121","17","6","0.8016528925619835","","","","","","","",""
"null","305598","SARL_v6","SARL_v68vg23v0f","60d8c6bc9686529cdc824a49","freq_resp","","","img/blue_2bandit_a.png","70","img/blue_2bandit_a.png","70","test","","","","","","","","","","","6","","","","","","","","",""
"null","305755","SARL_v6","SARL_v68vg23v0f","60d8c6bc9686529cdc824a49","fixation","","","img/fixation.png","null","","","test","","","","","","","","","","","","","","","","","","","",""
"521","306278","SARL_v6","SARL_v68vg23v0f","60d8c6bc9686529cdc824a49","freq","","","img/blue_2bandit_a2.png","70","","70","test","1","","127","","","","square","circle","122","18","6","0.8032786885245902","","","","","","","",""
"null","306561","SARL_v6","SARL_v68vg23v0f","60d8c6bc9686529cdc824a49","freq_resp","","","img/blue_2bandit_a.png","70","img/blue_2bandit_a.png","70","test","","","","","","","","","","","6","","","","","","","","",""
"null","306717","SARL_v6","SARL_v68vg23v0f","60d8c6bc9686529cdc824a49","fixation","","","img/fixation.png","null","","","test","","","","","","","","","","","","","","","","","","","",""
"520","307239","SARL_v6","SARL_v68vg23v0f","60d8c6bc9686529cdc824a49","freq","","","img/blue_2bandit_a2.png","70","","70","test","1","","128","","","","square","circle","123","19","6","0.8048780487804879","","","","","","","",""
"null","307536","SARL_v6","SARL_v68vg23v0f","60d8c6bc9686529cdc824a49","freq_resp","","","img/blue_2bandit_a.png","70","img/blue_2bandit_a.png","70","test","","","","","","","","","","","6","","","","","","","","",""
"null","307695","SARL_v6","SARL_v68vg23v0f","60d8c6bc9686529cdc824a49","fixation","","","img/fixation.png","null","","","test","","","","","","","","","","","","","","","","","","","",""
"735","308432","SARL_v6","SARL_v68vg23v0f","60d8c6bc9686529cdc824a49","infreq","","","img/orange_2bandit_a2.png","70","","68","test","0","","129","","","","square","circle","124","20","6","0.7983870967741935","","","","","","","",""
"null","308499","SARL_v6","SARL_v68vg23v0f","60d8c6bc9686529cdc824a49","infreq_resp","","","img/orange_2bandit_a.png","70","img/orange_2bandit_a.png","68","test","","","","","","","","","","","6","","","","","","","","",""
"null","308661","SARL_v6","SARL_v68vg23v0f","60d8c6bc9686529cdc824a49","fixation","","","img/fixation.png","null","","","test","","","","","","","","","","","","","","","","","","","",""
"null","309468","SARL_v6","SARL_v68vg23v0f","60d8c6bc9686529cdc824a49","freq","","","img/blue_2bandit_a2.png","null","","70","test","0","","130","","","","square","circle","125","21","6","0.792","","","","","","","",""
"null","309625","SARL_v6","SARL_v68vg23v0f","60d8c6bc9686529cdc824a49","fixation","","","img/fixation.png","null","","","test","","","","","","","","","","","","","","","","","","","",""
"1053","310680","SARL_v6","SARL_v68vg23v0f","60d8c6bc9686529cdc824a49","rl","","","img/black_2bandit_a2.png","74","","0","test","","","131","","","-4","square","circle","","0","6","","74","-1","-4","-4","-1","square","6","0"
"null","311435","SARL_v6","SARL_v68vg23v0f","60d8c6bc9686529cdc824a49","feedback","","","<div class=""verylowPoints_sq""> -4 </div>","null","","na","test","","","NaN","","","","","","","","6","","74","","","","","","6",""
"696","312135","SARL_v6","SARL_v68vg23v0f","60d8c6bc9686529cdc824a49","freq","","","img/blue_2bandit_a2.png","70","","70","test","1","","132","","","","square","circle","126","1","7","0.7936507936507936","","","","","","","",""
"null","312255","SARL_v6","SARL_v68vg23v0f","60d8c6bc9686529cdc824a49","freq_resp","","","img/blue_2bandit_a.png","70","img/blue_2bandit_a.png","70","test","","","","","","","","","","","7","","","","","","","","",""
"null","312413","SARL_v6","SARL_v68vg23v0f","60d8c6bc9686529cdc824a49","fixation","","","img/fixation.png","null","","","test","","","","","","","","","","","","","","","","","","","",""
"614","313029","SARL_v6","SARL_v68vg23v0f","60d8c6bc9686529cdc824a49","freq","","","img/blue_2bandit_a2.png","70","","70","test","1","","133","","","","square","circle","127","2","7","0.7952755905511811","","","","","","","",""
"null","313227","SARL_v6","SARL_v68vg23v0f","60d8c6bc9686529cdc824a49","freq_resp","","","img/blue_2bandit_a.png","70","img/blue_2bandit_a.png","70","test","","","","","","","","","","","7","","","","","","","","",""
"null","313385","SARL_v6","SARL_v68vg23v0f","60d8c6bc9686529cdc824a49","fixation","","","img/fixation.png","null","","","test","","","","","","","","","","","","","","","","","","","",""
"575","313963","SARL_v6","SARL_v68vg23v0f","60d8c6bc9686529cdc824a49","freq","","","img/blue_2bandit_a2.png","70","","70","test","1","","134","","","","square","circle","128","3","7","0.796875","","","","","","","",""
"null","314194","SARL_v6","SARL_v68vg23v0f","60d8c6bc9686529cdc824a49","freq_resp","","","img/blue_2bandit_a.png","70","img/blue_2bandit_a.png","70","test","","","","","","","","","","","7","","","","","","","","",""
"null","314351","SARL_v6","SARL_v68vg23v0f","60d8c6bc9686529cdc824a49","fixation","","","img/fixation.png","null","","","test","","","","","","","","","","","","","","","","","","","",""
"490","314842","SARL_v6","SARL_v68vg23v0f","60d8c6bc9686529cdc824a49","freq","","","img/blue_2bandit_a2.png","70","","70","test","1","","135","","","","square","circle","129","4","7","0.7984496124031008","","","","","","","",""
"null","315158","SARL_v6","SARL_v68vg23v0f","60d8c6bc9686529cdc824a49","freq_resp","","","img/blue_2bandit_a.png","70","img/blue_2bandit_a.png","70","test","","","","","","","","","","","7","","","","","","","","",""
"null","315314","SARL_v6","SARL_v68vg23v0f","60d8c6bc9686529cdc824a49","fixation","","","img/fixation.png","null","","","test","","","","","","","","","","","","","","","","","","","",""
"443","315759","SARL_v6","SARL_v68vg23v0f","60d8c6bc9686529cdc824a49","freq","","","img/blue_2bandit_a2.png","70","","70","test","1","","136","","","","square","circle","130","5","7","0.8","","","","","","","",""
"null","316132","SARL_v6","SARL_v68vg23v0f","60d8c6bc9686529cdc824a49","freq_resp","","","img/blue_2bandit_a.png","70","img/blue_2bandit_a.png","70","test","","","","","","","","","","","7","","","","","","","","",""
"null","316287","SARL_v6","SARL_v68vg23v0f","60d8c6bc9686529cdc824a49","fixation","","","img/fixation.png","null","","","test","","","","","","","","","","","","","","","","","","","",""
"439","316729","SARL_v6","SARL_v68vg23v0f","60d8c6bc9686529cdc824a49","freq","","","img/blue_2bandit_a2.png","70","","70","test","1","","137","","","","square","circle","131","6","7","0.8015267175572519","","","","","","","",""
"null","317107","SARL_v6","SARL_v68vg23v0f","60d8c6bc9686529cdc824a49","freq_resp","","","img/blue_2bandit_a.png","70","img/blue_2bandit_a.png","70","test","","","","","","","","","","","7","","","","","","","","",""
"null","317267","SARL_v6","SARL_v68vg23v0f","60d8c6bc9686529cdc824a49","fixation","","","img/fixation.png","null","","","test","","","","","","","","","","","","","","","","","","","",""
"397","317667","SARL_v6","SARL_v68vg23v0f","60d8c6bc9686529cdc824a49","freq","","","img/blue_2bandit_a2.png","70","","70","test","1","","138","","","","square","circle","132","7","7","0.803030303030303","","","","","","","",""
"null","318082","SARL_v6","SARL_v68vg23v0f","60d8c6bc9686529cdc824a49","freq_resp","","","img/blue_2bandit_a.png","70","img/blue_2bandit_a.png","70","test","","","","","","","","","","","7","","","","","","","","",""
"null","318239","SARL_v6","SARL_v68vg23v0f","60d8c6bc9686529cdc824a49","fixation","","","img/fixation.png","null","","","test","","","","","","","","","","","","","","","","","","","",""
