"rt","time_elapsed","expId","subject","prolificID","trialType","rlType","attType","stimulus","key_press","stim","corrresp","phase","corr","pracCounter","trialNum","rewardOne","rewardTwo","reward","bandOne","bandTwo","attentionNum","attentionRunNum","blockNum","performance","bandChosen","circleVal","squareVal","bandOneVal","bandTwoVal","shapeChosen","rlNum","badFlag"
"4866","4868","SARL_v6","SARL_v6kld47gkx","62713a003caa3feec5c6a0ba","","","","","","","","","","","","","","","","","","","","","","","","","","","",""
"","6723","SARL_v6","SARL_v6kld47gkx","62713a003caa3feec5c6a0ba","fullscreen","fullscreen","fullscreen","","","","","","","","","","","","","","","","","","","","","","","","",""
"30847","37572","SARL_v6","SARL_v6kld47gkx","62713a003caa3feec5c6a0ba","","","","","","","","","","","","","","","","","","","","","","","","","","","",""
"null","38380","SARL_v6","SARL_v6kld47gkx","62713a003caa3feec5c6a0ba","freqPrac","","","img/blue_2bandit_a2.png","null","img/blue_2bandit_a2.png","70","prac","0","1","","","","","","","","","","","","","","","","","",""
"null","39397","SARL_v6","SARL_v6kld47gkx","62713a003caa3feec5c6a0ba","feedback","","","img/tooSlow.png","null","","na","prac","","","","","","","","","","","","","","","","","","","",""
"null","39565","SARL_v6","SARL_v6kld47gkx","62713a003caa3feec5c6a0ba","fixation","","","img/fixation.png","null","","","prac","","","","","","","","","","","","","","","","","","","",""
"674","40240","SARL_v6","SARL_v6kld47gkx","62713a003caa3feec5c6a0ba","infreqPrac","","","img/orange_2bandit_a2.png","68","img/orange_2bandit_a2.png","68","prac","1","1","","","","","","","","","","","","","","","","","",""
"674","40379","SARL_v6","SARL_v6kld47gkx","62713a003caa3feec5c6a0ba","infreqPrac_resp","","","img/orange_2bandit_a.png","68","img/orange_2bandit_a.png","68","prac","","","","","","","","","","","","","","","","","","","",""
"null","40546","SARL_v6","SARL_v6kld47gkx","62713a003caa3feec5c6a0ba","fixation","","","img/fixation.png","null","","","prac","","","","","","","","","","","","","","","","","","","",""
"756","41303","SARL_v6","SARL_v6kld47gkx","62713a003caa3feec5c6a0ba","freqPrac","","","img/blue_2bandit_a2.png","68","img/blue_2bandit_a2.png","70","prac","0","2","","","","","","","","","","","","","","","","","",""
"756","41364","SARL_v6","SARL_v6kld47gkx","62713a003caa3feec5c6a0ba","freqPrac_resp","","","img/blue_2bandit_a.png","68","img/blue_2bandit_a.png","70","prac","","","","","","","","","","","","","","","","","","","",""
"null","42379","SARL_v6","SARL_v6kld47gkx","62713a003caa3feec5c6a0ba","feedback","","","img/wrongKey.png","null","","na","prac","","","","","","","","","","","","","","","","","","","",""
"null","42546","SARL_v6","SARL_v6kld47gkx","62713a003caa3feec5c6a0ba","fixation","","","img/fixation.png","null","","","prac","","","","","","","","","","","","","","","","","","","",""
"741","43287","SARL_v6","SARL_v6kld47gkx","62713a003caa3feec5c6a0ba","infreqPrac","","","img/orange_2bandit_a2.png","70","img/orange_2bandit_a2.png","68","prac","0","3","","","","","","","","","","","","","","","","","",""
"741","43351","SARL_v6","SARL_v6kld47gkx","62713a003caa3feec5c6a0ba","infreqPrac_resp","","","img/orange_2bandit_a.png","70","img/orange_2bandit_a.png","68","prac","","","","","","","","","","","","","","","","","","","",""
"null","44358","SARL_v6","SARL_v6kld47gkx","62713a003caa3feec5c6a0ba","feedback","","","img/wrongKey.png","null","","na","prac","","","","","","","","","","","","","","","","","","","",""
"null","44512","SARL_v6","SARL_v6kld47gkx","62713a003caa3feec5c6a0ba","fixation","","","img/fixation.png","null","","","prac","","","","","","","","","","","","","","","","","","","",""
"518","45032","SARL_v6","SARL_v6kld47gkx","62713a003caa3feec5c6a0ba","infreqPrac","","","img/orange_2bandit_a2.png","68","img/orange_2bandit_a2.png","68","prac","1","3","","","","","","","","","","","","","","","","","",""
"518","45315","SARL_v6","SARL_v6kld47gkx","62713a003caa3feec5c6a0ba","infreqPrac_resp","","","img/orange_2bandit_a.png","68","img/orange_2bandit_a.png","68","prac","","","","","","","","","","","","","","","","","","","",""
"null","45467","SARL_v6","SARL_v6kld47gkx","62713a003caa3feec5c6a0ba","fixation","","","img/fixation.png","null","","","prac","","","","","","","","","","","","","","","","","","","",""
"612","46080","SARL_v6","SARL_v6kld47gkx","62713a003caa3feec5c6a0ba","infreqPrac","","","img/orange_2bandit_a2.png","68","img/orange_2bandit_a2.png","68","prac","1","3","","","","","","","","","","","","","","","","","",""
"612","46272","SARL_v6","SARL_v6kld47gkx","62713a003caa3feec5c6a0ba","infreqPrac_resp","","","img/orange_2bandit_a.png","68","img/orange_2bandit_a.png","68","prac","","","","","","","","","","","","","","","","","","","",""
"null","46437","SARL_v6","SARL_v6kld47gkx","62713a003caa3feec5c6a0ba","fixation","","","img/fixation.png","null","","","prac","","","","","","","","","","","","","","","","","","","",""
"593","47032","SARL_v6","SARL_v6kld47gkx","62713a003caa3feec5c6a0ba","freqPrac","","","img/blue_2bandit_a2.png","70","img/blue_2bandit_a2.png","70","prac","1","3","","","","","","","","","","","","","","","","","",""
"593","47244","SARL_v6","SARL_v6kld47gkx","62713a003caa3feec5c6a0ba","freqPrac_resp","","","img/blue_2bandit_a.png","70","img/blue_2bandit_a.png","70","prac","","","","","","","","","","","","","","","","","","","",""
"null","47410","SARL_v6","SARL_v6kld47gkx","62713a003caa3feec5c6a0ba","fixation","","","img/fixation.png","null","","","prac","","","","","","","","","","","","","","","","","","","",""
"605","48015","SARL_v6","SARL_v6kld47gkx","62713a003caa3feec5c6a0ba","infreqPrac","","","img/orange_2bandit_a2.png","68","img/orange_2bandit_a2.png","68","prac","1","3","","","","","","","","","","","","","","","","","",""
"605","48217","SARL_v6","SARL_v6kld47gkx","62713a003caa3feec5c6a0ba","infreqPrac_resp","","","img/orange_2bandit_a.png","68","img/orange_2bandit_a.png","68","prac","","","","","","","","","","","","","","","","","","","",""
"null","48383","SARL_v6","SARL_v6kld47gkx","62713a003caa3feec5c6a0ba","fixation","","","img/fixation.png","null","","","prac","","","","","","","","","","","","","","","","","","","",""
"447","48832","SARL_v6","SARL_v6kld47gkx","62713a003caa3feec5c6a0ba","freqPrac","","","img/blue_2bandit_a2.png","70","img/blue_2bandit_a2.png","70","prac","1","3","","","","","","","","","","","","","","","","","",""
"447","49198","SARL_v6","SARL_v6kld47gkx","62713a003caa3feec5c6a0ba","freqPrac_resp","","","img/blue_2bandit_a.png","70","img/blue_2bandit_a.png","70","prac","","","","","","","","","","","","","","","","","","","",""
"null","49350","SARL_v6","SARL_v6kld47gkx","62713a003caa3feec5c6a0ba","fixation","","","img/fixation.png","null","","","prac","","","","","","","","","","","","","","","","","","","",""
"385","49736","SARL_v6","SARL_v6kld47gkx","62713a003caa3feec5c6a0ba","freqPrac","","","img/blue_2bandit_a2.png","70","img/blue_2bandit_a2.png","70","prac","1","3","","","","","","","","","","","","","","","","","",""
"385","50155","SARL_v6","SARL_v6kld47gkx","62713a003caa3feec5c6a0ba","freqPrac_resp","","","img/blue_2bandit_a.png","70","img/blue_2bandit_a.png","70","prac","","","","","","","","","","","","","","","","","","","",""
"null","50320","SARL_v6","SARL_v6kld47gkx","62713a003caa3feec5c6a0ba","fixation","","","img/fixation.png","null","","","prac","","","","","","","","","","","","","","","","","","","",""
"17292","67613","SARL_v6","SARL_v6kld47gkx","62713a003caa3feec5c6a0ba","","","","","","","","prac","","","","","","","","","","","","","","","","","","","",""
"null","69127","SARL_v6","SARL_v6kld47gkx","62713a003caa3feec5c6a0ba","rlPractice","","","img/black_2bandit_a2.png","null","img/black_2bandit_a2.png","","prac","","","0","","","","","","","","","","","","","","","","",""
"null","69883","SARL_v6","SARL_v6kld47gkx","62713a003caa3feec5c6a0ba","feedback","","","<div font size = 80> TOO SLOW  </div>","null","","na","prac","","","1","10","-14","10","","","","","","","","","","","","","",""
"null","70035","SARL_v6","SARL_v6kld47gkx","62713a003caa3feec5c6a0ba","fixation","","","img/fixation.png","null","","","prac","","","","","","","","","","","","","","","","","","","",""
"null","71548","SARL_v6","SARL_v6kld47gkx","62713a003caa3feec5c6a0ba","rlPractice","","","img/black_2bandit_a2.png","null","img/black_2bandit_a2.png","","prac","","","1","","","","","","","","","","","","","","","","",""
"null","72310","SARL_v6","SARL_v6kld47gkx","62713a003caa3feec5c6a0ba","feedback","","","<div font size = 80> TOO SLOW  </div>","null","","na","prac","","","2","5","-5","5","","","","","","","","","","","","","",""
"null","72475","SARL_v6","SARL_v6kld47gkx","62713a003caa3feec5c6a0ba","fixation","","","img/fixation.png","null","","","prac","","","","","","","","","","","","","","","","","","","",""
"null","73989","SARL_v6","SARL_v6kld47gkx","62713a003caa3feec5c6a0ba","rlPractice","","","img/black_2bandit_a2.png","null","img/black_2bandit_a2.png","","prac","","","2","","","","","","","","","","","","","","","","",""
"null","74748","SARL_v6","SARL_v6kld47gkx","62713a003caa3feec5c6a0ba","feedback","","","<div font size = 80> TOO SLOW  </div>","null","","na","prac","","","3","30","2","30","","","","","","","","","","","","","",""
"null","74900","SARL_v6","SARL_v6kld47gkx","62713a003caa3feec5c6a0ba","fixation","","","img/fixation.png","null","","","prac","","","","","","","","","","","","","","","","","","","",""
"null","76403","SARL_v6","SARL_v6kld47gkx","62713a003caa3feec5c6a0ba","rlPractice","","","img/black_2bandit_a2.png","null","img/black_2bandit_a2.png","","prac","","","3","","","","","","","","","","","","","","","","",""
"null","77161","SARL_v6","SARL_v6kld47gkx","62713a003caa3feec5c6a0ba","feedback","","","<div font size = 80> TOO SLOW  </div>","null","","na","prac","","","4","-2","20","-2","","","","","","","","","","","","","",""
"null","77313","SARL_v6","SARL_v6kld47gkx","62713a003caa3feec5c6a0ba","fixation","","","img/fixation.png","null","","","prac","","","","","","","","","","","","","","","","","","","",""
"13191","90504","SARL_v6","SARL_v6kld47gkx","62713a003caa3feec5c6a0ba","","","","","","","","prac","","","","","","","","","","","","","","","","","","","",""
"null","91320","SARL_v6","SARL_v6kld47gkx","62713a003caa3feec5c6a0ba","mixAttFreqPrac","","","img/blue_2bandit_a2.png","null","img/blue_2bandit_a2.png","70","prac","","","1","","","","","","","","","","","","","","","","",""
"71","91486","SARL_v6","SARL_v6kld47gkx","62713a003caa3feec5c6a0ba","fixation","","","img/fixation.png","68","","","prac","","","","","","","","","","","","","","","","","","","",""
"664","92151","SARL_v6","SARL_v6kld47gkx","62713a003caa3feec5c6a0ba","mixAttInfreqPrac","","","img/orange_2bandit_a2.png","68","img/orange_2bandit_a2.png","68","prac","","","2","","","","","","","","","","","","","","","","",""
"664","92290","SARL_v6","SARL_v6kld47gkx","62713a003caa3feec5c6a0ba","infreqPrac_resp","","","img/orange_2bandit_a.png","68","img/blue_2bandit_a.png","68","prac","","","2","","","","","","","","","","","","","","","","",""
"null","92443","SARL_v6","SARL_v6kld47gkx","62713a003caa3feec5c6a0ba","fixation","","","img/fixation.png","null","","","prac","","","","","","","","","","","","","","","","","","","",""
"564","93008","SARL_v6","SARL_v6kld47gkx","62713a003caa3feec5c6a0ba","mixAttInfreqPrac","","","img/orange_2bandit_a2.png","68","img/orange_2bandit_a2.png","68","prac","","","3","","","","","","","","","","","","","","","","",""
"564","93247","SARL_v6","SARL_v6kld47gkx","62713a003caa3feec5c6a0ba","infreqPrac_resp","","","img/orange_2bandit_a.png","68","img/blue_2bandit_a.png","68","prac","","","3","","","","","","","","","","","","","","","","",""
"null","93398","SARL_v6","SARL_v6kld47gkx","62713a003caa3feec5c6a0ba","fixation","","","img/fixation.png","null","","","prac","","","","","","","","","","","","","","","","","","","",""
"456","93856","SARL_v6","SARL_v6kld47gkx","62713a003caa3feec5c6a0ba","mixAttInfreqPrac","","","img/orange_2bandit_a2.png","68","img/orange_2bandit_a2.png","68","prac","","","4","","","","","","","","","","","","","","","","",""
"456","94212","SARL_v6","SARL_v6kld47gkx","62713a003caa3feec5c6a0ba","infreqPrac_resp","","","img/orange_2bandit_a.png","68","img/blue_2bandit_a.png","68","prac","","","4","","","","","","","","","","","","","","","","",""
"null","94362","SARL_v6","SARL_v6kld47gkx","62713a003caa3feec5c6a0ba","fixation","","","img/fixation.png","null","","","prac","","","","","","","","","","","","","","","","","","","",""
"587","94952","SARL_v6","SARL_v6kld47gkx","62713a003caa3feec5c6a0ba","mixAttFreqPrac","","","img/blue_2bandit_a2.png","70","img/blue_2bandit_a2.png","70","prac","","","5","","","","","","","","","","","","","","","","",""
"587","95169","SARL_v6","SARL_v6kld47gkx","62713a003caa3feec5c6a0ba","freqPrac_resp","","","img/blue_2bandit_a.png","70","img/blue_2bandit_a.png","70","prac","","","5","","","","","","","","","","","","","","","","",""
"null","95324","SARL_v6","SARL_v6kld47gkx","62713a003caa3feec5c6a0ba","fixation","","","img/fixation.png","null","","","prac","","","","","","","","","","","","","","","","","","","",""
"803","96127","SARL_v6","SARL_v6kld47gkx","62713a003caa3feec5c6a0ba","mixRLPractice","","","img/black_2bandit_a2.png","74","img/black_2bandit_a2.png","","prac","","","5","","","","","","","","","","","","","","","","",""
"null","96892","SARL_v6","SARL_v6kld47gkx","62713a003caa3feec5c6a0ba","feedback","","","<div class=""veryhighPoints_sq""> 10 </div>","null","","na","prac","","","6","-14","10","-14","","","","","","","","","","","","","",""
"null","97065","SARL_v6","SARL_v6kld47gkx","62713a003caa3feec5c6a0ba","fixation","","","img/fixation.png","null","","","prac","","","","","","","","","","","","","","","","","","","",""
"623","97688","SARL_v6","SARL_v6kld47gkx","62713a003caa3feec5c6a0ba","mixAttFreqPrac","","","img/blue_2bandit_a2.png","70","img/blue_2bandit_a2.png","70","prac","","","7","","","","","","","","","","","","","","","","",""
"623","97879","SARL_v6","SARL_v6kld47gkx","62713a003caa3feec5c6a0ba","freqPrac_resp","","","img/blue_2bandit_a.png","70","img/blue_2bandit_a.png","70","prac","","","7","","","","","","","","","","","","","","","","",""
"null","98031","SARL_v6","SARL_v6kld47gkx","62713a003caa3feec5c6a0ba","fixation","","","img/fixation.png","null","","","prac","","","","","","","","","","","","","","","","","","","",""
"551","98583","SARL_v6","SARL_v6kld47gkx","62713a003caa3feec5c6a0ba","mixAttInfreqPrac","","","img/orange_2bandit_a2.png","68","img/orange_2bandit_a2.png","68","prac","","","8","","","","","","","","","","","","","","","","",""
"551","98837","SARL_v6","SARL_v6kld47gkx","62713a003caa3feec5c6a0ba","infreqPrac_resp","","","img/orange_2bandit_a.png","68","img/blue_2bandit_a.png","68","prac","","","8","","","","","","","","","","","","","","","","",""
"null","98988","SARL_v6","SARL_v6kld47gkx","62713a003caa3feec5c6a0ba","fixation","","","img/fixation.png","null","","","prac","","","","","","","","","","","","","","","","","","","",""
"474","99464","SARL_v6","SARL_v6kld47gkx","62713a003caa3feec5c6a0ba","mixAttFreqPrac","","","img/blue_2bandit_a2.png","70","img/blue_2bandit_a2.png","70","prac","","","9","","","","","","","","","","","","","","","","",""
"474","99800","SARL_v6","SARL_v6kld47gkx","62713a003caa3feec5c6a0ba","freqPrac_resp","","","img/blue_2bandit_a.png","70","img/blue_2bandit_a.png","70","prac","","","9","","","","","","","","","","","","","","","","",""
"null","99966","SARL_v6","SARL_v6kld47gkx","62713a003caa3feec5c6a0ba","fixation","","","img/fixation.png","null","","","prac","","","","","","","","","","","","","","","","","","","",""
"521","100488","SARL_v6","SARL_v6kld47gkx","62713a003caa3feec5c6a0ba","mixAttFreqPrac","","","img/blue_2bandit_a2.png","70","img/blue_2bandit_a2.png","70","prac","","","10","","","","","","","","","","","","","","","","",""
"521","100770","SARL_v6","SARL_v6kld47gkx","62713a003caa3feec5c6a0ba","freqPrac_resp","","","img/blue_2bandit_a.png","70","img/blue_2bandit_a.png","70","prac","","","10","","","","","","","","","","","","","","","","",""
"null","100925","SARL_v6","SARL_v6kld47gkx","62713a003caa3feec5c6a0ba","fixation","","","img/fixation.png","null","","","prac","","","","","","","","","","","","","","","","","","","",""
"401","101328","SARL_v6","SARL_v6kld47gkx","62713a003caa3feec5c6a0ba","mixAttInfreqPrac","","","img/orange_2bandit_a2.png","68","img/orange_2bandit_a2.png","68","prac","","","11","","","","","","","","","","","","","","","","",""
"401","101732","SARL_v6","SARL_v6kld47gkx","62713a003caa3feec5c6a0ba","infreqPrac_resp","","","img/orange_2bandit_a.png","68","img/blue_2bandit_a.png","68","prac","","","11","","","","","","","","","","","","","","","","",""
"null","101898","SARL_v6","SARL_v6kld47gkx","62713a003caa3feec5c6a0ba","fixation","","","img/fixation.png","null","","","prac","","","","","","","","","","","","","","","","","","","",""
"588","102488","SARL_v6","SARL_v6kld47gkx","62713a003caa3feec5c6a0ba","mixRLPractice","","","img/black_2bandit_a2.png","75","img/black_2bandit_a2.png","","prac","","","11","","","","","","","","","","","","","","","","",""
"null","103239","SARL_v6","SARL_v6kld47gkx","62713a003caa3feec5c6a0ba","feedback","","","<div class=""veryhighPoints""> 5 </div>","null","","na","prac","","","12","5","-5","5","","","","","","","","","","","","","",""
"null","103393","SARL_v6","SARL_v6kld47gkx","62713a003caa3feec5c6a0ba","fixation","","","img/fixation.png","null","","","prac","","","","","","","","","","","","","","","","","","","",""
"1110","104503","SARL_v6","SARL_v6kld47gkx","62713a003caa3feec5c6a0ba","","","","","","","","prac","","","","","","","","","","","","","","","","","","","",""
"null","105320","SARL_v6","SARL_v6kld47gkx","62713a003caa3feec5c6a0ba","freq","","","img/blue_2bandit_a2.png","null","","70","test","0","","1","","","","square","circle","1","1","1","0","","","","","","","",""
"null","105473","SARL_v6","SARL_v6kld47gkx","62713a003caa3feec5c6a0ba","fixation","","","img/fixation.png","null","","","test","","","","","","","","","","","","","","","","","","","",""
"445","105920","SARL_v6","SARL_v6kld47gkx","62713a003caa3feec5c6a0ba","freq","","","img/blue_2bandit_a2.png","70","","70","test","1","","2","","","","square","circle","2","2","1","0.5","","","","","","","",""
"null","106291","SARL_v6","SARL_v6kld47gkx","62713a003caa3feec5c6a0ba","freq_resp","","","img/blue_2bandit_a.png","70","img/blue_2bandit_a.png","70","test","","","","","","","","","","","1","","","","","","","","",""
"null","106456","SARL_v6","SARL_v6kld47gkx","62713a003caa3feec5c6a0ba","fixation","","","img/fixation.png","null","","","test","","","","","","","","","","","","","","","","","","","",""
"415","106872","SARL_v6","SARL_v6kld47gkx","62713a003caa3feec5c6a0ba","freq","","","img/blue_2bandit_a2.png","70","","70","test","1","","3","","","","square","circle","3","3","1","0.6666666666666666","","","","","","","",""
"null","107268","SARL_v6","SARL_v6kld47gkx","62713a003caa3feec5c6a0ba","freq_resp","","","img/blue_2bandit_a.png","70","img/blue_2bandit_a.png","70","test","","","","","","","","","","","1","","","","","","","","",""
"null","107436","SARL_v6","SARL_v6kld47gkx","62713a003caa3feec5c6a0ba","fixation","","","img/fixation.png","null","","","test","","","","","","","","","","","","","","","","","","","",""
"355","107791","SARL_v6","SARL_v6kld47gkx","62713a003caa3feec5c6a0ba","freq","","","img/blue_2bandit_a2.png","70","","70","test","1","","4","","","","square","circle","4","4","1","0.75","","","","","","","",""
"null","108243","SARL_v6","SARL_v6kld47gkx","62713a003caa3feec5c6a0ba","freq_resp","","","img/blue_2bandit_a.png","70","img/blue_2bandit_a.png","70","test","","","","","","","","","","","1","","","","","","","","",""
"null","108407","SARL_v6","SARL_v6kld47gkx","62713a003caa3feec5c6a0ba","fixation","","","img/fixation.png","null","","","test","","","","","","","","","","","","","","","","","","","",""
"335","108744","SARL_v6","SARL_v6kld47gkx","62713a003caa3feec5c6a0ba","freq","","","img/blue_2bandit_a2.png","70","","70","test","1","","5","","","","square","circle","5","5","1","0.8","","","","","","","",""
"null","109212","SARL_v6","SARL_v6kld47gkx","62713a003caa3feec5c6a0ba","freq_resp","","","img/blue_2bandit_a.png","70","img/blue_2bandit_a.png","70","test","","","","","","","","","","","1","","","","","","","","",""
"null","109365","SARL_v6","SARL_v6kld47gkx","62713a003caa3feec5c6a0ba","fixation","","","img/fixation.png","null","","","test","","","","","","","","","","","","","","","","","","","",""
"328","109696","SARL_v6","SARL_v6kld47gkx","62713a003caa3feec5c6a0ba","freq","","","img/blue_2bandit_a2.png","70","","70","test","1","","6","","","","square","circle","6","6","1","0.8333333333333334","","","","","","","",""
"null","110180","SARL_v6","SARL_v6kld47gkx","62713a003caa3feec5c6a0ba","freq_resp","","","img/blue_2bandit_a.png","70","img/blue_2bandit_a.png","70","test","","","","","","","","","","","1","","","","","","","","",""
"null","110331","SARL_v6","SARL_v6kld47gkx","62713a003caa3feec5c6a0ba","fixation","","","img/fixation.png","null","","","test","","","","","","","","","","","","","","","","","","","",""
"347","110680","SARL_v6","SARL_v6kld47gkx","62713a003caa3feec5c6a0ba","freq","","","img/blue_2bandit_a2.png","70","","70","test","1","","7","","","","square","circle","7","7","1","0.8571428571428571","","","","","","","",""
"null","111137","SARL_v6","SARL_v6kld47gkx","62713a003caa3feec5c6a0ba","freq_resp","","","img/blue_2bandit_a.png","70","img/blue_2bandit_a.png","70","test","","","","","","","","","","","1","","","","","","","","",""
"null","111290","SARL_v6","SARL_v6kld47gkx","62713a003caa3feec5c6a0ba","fixation","","","img/fixation.png","null","","","test","","","","","","","","","","","","","","","","","","","",""
"444","111736","SARL_v6","SARL_v6kld47gkx","62713a003caa3feec5c6a0ba","infreq","","","img/orange_2bandit_a2.png","68","","68","test","1","","8","","","","square","circle","8","8","1","0.875","","","","","","","",""
"null","112094","SARL_v6","SARL_v6kld47gkx","62713a003caa3feec5c6a0ba","infreq_resp","","","img/orange_2bandit_a.png","68","img/orange_2bandit_a.png","68","test","","","","","","","","","","","1","","","","","","","","",""
"null","112247","SARL_v6","SARL_v6kld47gkx","62713a003caa3feec5c6a0ba","fixation","","","img/fixation.png","null","","","test","","","","","","","","","","","","","","","","","","","",""
"463","112711","SARL_v6","SARL_v6kld47gkx","62713a003caa3feec5c6a0ba","freq","","","img/blue_2bandit_a2.png","70","","70","test","1","","9","","","","square","circle","9","9","1","0.8888888888888888","","","","","","","",""
"null","113061","SARL_v6","SARL_v6kld47gkx","62713a003caa3feec5c6a0ba","freq_resp","","","img/blue_2bandit_a.png","70","img/blue_2bandit_a.png","70","test","","","","","","","","","","","1","","","","","","","","",""
"null","113212","SARL_v6","SARL_v6kld47gkx","62713a003caa3feec5c6a0ba","fixation","","","img/fixation.png","null","","","test","","","","","","","","","","","","","","","","","","","",""
"426","113639","SARL_v6","SARL_v6kld47gkx","62713a003caa3feec5c6a0ba","freq","","","img/blue_2bandit_a2.png","70","","70","test","1","","10","","","","square","circle","10","10","1","0.9","","","","","","","",""
"null","114017","SARL_v6","SARL_v6kld47gkx","62713a003caa3feec5c6a0ba","freq_resp","","","img/blue_2bandit_a.png","70","img/blue_2bandit_a.png","70","test","","","","","","","","","","","1","","","","","","","","",""
"null","114182","SARL_v6","SARL_v6kld47gkx","62713a003caa3feec5c6a0ba","fixation","","","img/fixation.png","null","","","test","","","","","","","","","","","","","","","","","","","",""
"456","114639","SARL_v6","SARL_v6kld47gkx","62713a003caa3feec5c6a0ba","freq","","","img/blue_2bandit_a2.png","70","","70","test","1","","11","","","","square","circle","11","11","1","0.9090909090909091","","","","","","","",""
"null","114986","SARL_v6","SARL_v6kld47gkx","62713a003caa3feec5c6a0ba","freq_resp","","","img/blue_2bandit_a.png","70","img/blue_2bandit_a.png","70","test","","","","","","","","","","","1","","","","","","","","",""
"null","115140","SARL_v6","SARL_v6kld47gkx","62713a003caa3feec5c6a0ba","fixation","","","img/fixation.png","null","","","test","","","","","","","","","","","","","","","","","","","",""
"379","115520","SARL_v6","SARL_v6kld47gkx","62713a003caa3feec5c6a0ba","freq","","","img/blue_2bandit_a2.png","70","","70","test","1","","12","","","","square","circle","12","12","1","0.9166666666666666","","","","","","","",""
"null","115956","SARL_v6","SARL_v6kld47gkx","62713a003caa3feec5c6a0ba","freq_resp","","","img/blue_2bandit_a.png","70","img/blue_2bandit_a.png","70","test","","","","","","","","","","","1","","","","","","","","",""
"null","116121","SARL_v6","SARL_v6kld47gkx","62713a003caa3feec5c6a0ba","fixation","","","img/fixation.png","null","","","test","","","","","","","","","","","","","","","","","","","",""
"365","116488","SARL_v6","SARL_v6kld47gkx","62713a003caa3feec5c6a0ba","freq","","","img/blue_2bandit_a2.png","70","","70","test","1","","13","","","","square","circle","13","13","1","0.9230769230769231","","","","","","","",""
"null","116928","SARL_v6","SARL_v6kld47gkx","62713a003caa3feec5c6a0ba","freq_resp","","","img/blue_2bandit_a.png","70","img/blue_2bandit_a.png","70","test","","","","","","","","","","","1","","","","","","","","",""
"null","117081","SARL_v6","SARL_v6kld47gkx","62713a003caa3feec5c6a0ba","fixation","","","img/fixation.png","null","","","test","","","","","","","","","","","","","","","","","","","",""
"382","117463","SARL_v6","SARL_v6kld47gkx","62713a003caa3feec5c6a0ba","freq","","","img/blue_2bandit_a2.png","70","","70","test","1","","14","","","","square","circle","14","14","1","0.9285714285714286","","","","","","","",""
"null","117887","SARL_v6","SARL_v6kld47gkx","62713a003caa3feec5c6a0ba","freq_resp","","","img/blue_2bandit_a.png","70","img/blue_2bandit_a.png","70","test","","","","","","","","","","","1","","","","","","","","",""
"null","118053","SARL_v6","SARL_v6kld47gkx","62713a003caa3feec5c6a0ba","fixation","","","img/fixation.png","null","","","test","","","","","","","","","","","","","","","","","","","",""
"466","118519","SARL_v6","SARL_v6kld47gkx","62713a003caa3feec5c6a0ba","infreq","","","img/orange_2bandit_a2.png","68","","68","test","1","","15","","","","square","circle","15","15","1","0.9333333333333333","","","","","","","",""
"null","118869","SARL_v6","SARL_v6kld47gkx","62713a003caa3feec5c6a0ba","infreq_resp","","","img/orange_2bandit_a.png","68","img/orange_2bandit_a.png","68","test","","","","","","","","","","","1","","","","","","","","",""
"null","119021","SARL_v6","SARL_v6kld47gkx","62713a003caa3feec5c6a0ba","fixation","","","img/fixation.png","null","","","test","","","","","","","","","","","","","","","","","","","",""
"490","119511","SARL_v6","SARL_v6kld47gkx","62713a003caa3feec5c6a0ba","freq","","","img/blue_2bandit_a2.png","68","","70","test","0","","16","","","","square","circle","16","16","1","0.875","","","","","","","",""
"null","119826","SARL_v6","SARL_v6kld47gkx","62713a003caa3feec5c6a0ba","freq_resp","","","img/blue_2bandit_a.png","68","img/blue_2bandit_a.png","70","test","","","","","","","","","","","1","","","","","","","","",""
"null","119978","SARL_v6","SARL_v6kld47gkx","62713a003caa3feec5c6a0ba","fixation","","","img/fixation.png","null","","","test","","","","","","","","","","","","","","","","","","","",""
"548","120527","SARL_v6","SARL_v6kld47gkx","62713a003caa3feec5c6a0ba","freq","","","img/blue_2bandit_a2.png","70","","70","test","1","","17","","","","square","circle","17","17","1","0.8823529411764706","","","","","","","",""
"null","120792","SARL_v6","SARL_v6kld47gkx","62713a003caa3feec5c6a0ba","freq_resp","","","img/blue_2bandit_a.png","70","img/blue_2bandit_a.png","70","test","","","","","","","","","","","1","","","","","","","","",""
"null","120945","SARL_v6","SARL_v6kld47gkx","62713a003caa3feec5c6a0ba","fixation","","","img/fixation.png","null","","","test","","","","","","","","","","","","","","","","","","","",""
"487","121432","SARL_v6","SARL_v6kld47gkx","62713a003caa3feec5c6a0ba","freq","","","img/blue_2bandit_a2.png","70","","70","test","1","","18","","","","square","circle","18","18","1","0.8888888888888888","","","","","","","",""
"null","121752","SARL_v6","SARL_v6kld47gkx","62713a003caa3feec5c6a0ba","freq_resp","","","img/blue_2bandit_a.png","70","img/blue_2bandit_a.png","70","test","","","","","","","","","","","1","","","","","","","","",""
"null","121918","SARL_v6","SARL_v6kld47gkx","62713a003caa3feec5c6a0ba","fixation","","","img/fixation.png","null","","","test","","","","","","","","","","","","","","","","","","","",""
"417","122335","SARL_v6","SARL_v6kld47gkx","62713a003caa3feec5c6a0ba","freq","","","img/blue_2bandit_a2.png","70","","70","test","1","","19","","","","square","circle","19","19","1","0.8947368421052632","","","","","","","",""
"null","122722","SARL_v6","SARL_v6kld47gkx","62713a003caa3feec5c6a0ba","freq_resp","","","img/blue_2bandit_a.png","70","img/blue_2bandit_a.png","70","test","","","","","","","","","","","1","","","","","","","","",""
"null","122875","SARL_v6","SARL_v6kld47gkx","62713a003caa3feec5c6a0ba","fixation","","","img/fixation.png","null","","","test","","","","","","","","","","","","","","","","","","","",""
"332","123208","SARL_v6","SARL_v6kld47gkx","62713a003caa3feec5c6a0ba","freq","","","img/blue_2bandit_a2.png","70","","70","test","1","","20","","","","square","circle","20","20","1","0.9","","","","","","","",""
"null","123679","SARL_v6","SARL_v6kld47gkx","62713a003caa3feec5c6a0ba","freq_resp","","","img/blue_2bandit_a.png","70","img/blue_2bandit_a.png","70","test","","","","","","","","","","","1","","","","","","","","",""
"null","123834","SARL_v6","SARL_v6kld47gkx","62713a003caa3feec5c6a0ba","fixation","","","img/fixation.png","null","","","test","","","","","","","","","","","","","","","","","","","",""
"381","124216","SARL_v6","SARL_v6kld47gkx","62713a003caa3feec5c6a0ba","freq","","","img/blue_2bandit_a2.png","70","","70","test","1","","21","","","","square","circle","21","21","1","0.9047619047619048","","","","","","","",""
"null","124638","SARL_v6","SARL_v6kld47gkx","62713a003caa3feec5c6a0ba","freq_resp","","","img/blue_2bandit_a.png","70","img/blue_2bandit_a.png","70","test","","","","","","","","","","","1","","","","","","","","",""
"null","124789","SARL_v6","SARL_v6kld47gkx","62713a003caa3feec5c6a0ba","fixation","","","img/fixation.png","null","","","test","","","","","","","","","","","","","","","","","","","",""
"312","125103","SARL_v6","SARL_v6kld47gkx","62713a003caa3feec5c6a0ba","freq","","","img/blue_2bandit_a2.png","70","","70","test","1","","22","","","","square","circle","22","22","1","0.9090909090909091","","","","","","","",""
"null","125607","SARL_v6","SARL_v6kld47gkx","62713a003caa3feec5c6a0ba","freq_resp","","","img/blue_2bandit_a.png","70","img/blue_2bandit_a.png","70","test","","","","","","","","","","","1","","","","","","","","",""
"null","125760","SARL_v6","SARL_v6kld47gkx","62713a003caa3feec5c6a0ba","fixation","","","img/fixation.png","null","","","test","","","","","","","","","","","","","","","","","","","",""
"911","126673","SARL_v6","SARL_v6kld47gkx","62713a003caa3feec5c6a0ba","rl","","","img/black_2bandit_a2.png","74","","0","test","","","23","","","-3","square","circle","","0","1","","74","-3","-3","-3","-3","square","1","0"
"null","127430","SARL_v6","SARL_v6kld47gkx","62713a003caa3feec5c6a0ba","feedback","","","<div class=""verylowPoints_sq""> -3 </div>","null","","na","test","","","NaN","","","","","","","","1","","74","","","","","","1",""
"null","128239","SARL_v6","SARL_v6kld47gkx","62713a003caa3feec5c6a0ba","freq","","","img/blue_2bandit_a2.png","null","","70","test","0","","24","","","","square","circle","23","1","2","0.8695652173913043","","","","","","","",""
"null","128405","SARL_v6","SARL_v6kld47gkx","62713a003caa3feec5c6a0ba","fixation","","","img/fixation.png","null","","","test","","","","","","","","","","","","","","","","","","","",""
"49","128456","SARL_v6","SARL_v6kld47gkx","62713a003caa3feec5c6a0ba","freq","","","img/blue_2bandit_a2.png","68","","70","test","0","","25","","","","square","circle","24","2","2","0.8333333333333334","","","","","","","",""
"null","129212","SARL_v6","SARL_v6kld47gkx","62713a003caa3feec5c6a0ba","freq_resp","","","img/blue_2bandit_a.png","68","img/blue_2bandit_a.png","70","test","","","","","","","","","","","2","","","","","","","","",""
"null","129365","SARL_v6","SARL_v6kld47gkx","62713a003caa3feec5c6a0ba","fixation","","","img/fixation.png","null","","","test","","","","","","","","","","","","","","","","","","","",""
"466","129832","SARL_v6","SARL_v6kld47gkx","62713a003caa3feec5c6a0ba","freq","","","img/blue_2bandit_a2.png","70","","70","test","1","","26","","","","square","circle","25","3","2","0.84","","","","","","","",""
"null","130181","SARL_v6","SARL_v6kld47gkx","62713a003caa3feec5c6a0ba","freq_resp","","","img/blue_2bandit_a.png","70","img/blue_2bandit_a.png","70","test","","","","","","","","","","","2","","","","","","","","",""
"null","130347","SARL_v6","SARL_v6kld47gkx","62713a003caa3feec5c6a0ba","fixation","","","img/fixation.png","null","","","test","","","","","","","","","","","","","","","","","","","",""
"299","130647","SARL_v6","SARL_v6kld47gkx","62713a003caa3feec5c6a0ba","freq","","","img/blue_2bandit_a2.png","70","","70","test","1","","27","","","","square","circle","26","4","2","0.8461538461538461","","","","","","","",""
"null","131154","SARL_v6","SARL_v6kld47gkx","62713a003caa3feec5c6a0ba","freq_resp","","","img/blue_2bandit_a.png","70","img/blue_2bandit_a.png","70","test","","","","","","","","","","","2","","","","","","","","",""
"null","131306","SARL_v6","SARL_v6kld47gkx","62713a003caa3feec5c6a0ba","fixation","","","img/fixation.png","null","","","test","","","","","","","","","","","","","","","","","","","",""
"268","131576","SARL_v6","SARL_v6kld47gkx","62713a003caa3feec5c6a0ba","freq","","","img/blue_2bandit_a2.png","70","","70","test","1","","28","","","","square","circle","27","5","2","0.8518518518518519","","","","","","","",""
"null","132111","SARL_v6","SARL_v6kld47gkx","62713a003caa3feec5c6a0ba","freq_resp","","","img/blue_2bandit_a.png","70","img/blue_2bandit_a.png","70","test","","","","","","","","","","","2","","","","","","","","",""
"null","132263","SARL_v6","SARL_v6kld47gkx","62713a003caa3feec5c6a0ba","fixation","","","img/fixation.png","null","","","test","","","","","","","","","","","","","","","","","","","",""
"255","132520","SARL_v6","SARL_v6kld47gkx","62713a003caa3feec5c6a0ba","freq","","","img/blue_2bandit_a2.png","70","","70","test","1","","29","","","","square","circle","28","6","2","0.8571428571428571","","","","","","","",""
"null","133079","SARL_v6","SARL_v6kld47gkx","62713a003caa3feec5c6a0ba","freq_resp","","","img/blue_2bandit_a.png","70","img/blue_2bandit_a.png","70","test","","","","","","","","","","","2","","","","","","","","",""
"null","133244","SARL_v6","SARL_v6kld47gkx","62713a003caa3feec5c6a0ba","fixation","","","img/fixation.png","null","","","test","","","","","","","","","","","","","","","","","","","",""
"306","133552","SARL_v6","SARL_v6kld47gkx","62713a003caa3feec5c6a0ba","freq","","","img/blue_2bandit_a2.png","70","","70","test","1","","30","","","","square","circle","29","7","2","0.8620689655172413","","","","","","","",""
"null","134052","SARL_v6","SARL_v6kld47gkx","62713a003caa3feec5c6a0ba","freq_resp","","","img/blue_2bandit_a.png","70","img/blue_2bandit_a.png","70","test","","","","","","","","","","","2","","","","","","","","",""
"null","134218","SARL_v6","SARL_v6kld47gkx","62713a003caa3feec5c6a0ba","fixation","","","img/fixation.png","null","","","test","","","","","","","","","","","","","","","","","","","",""
"262","134479","SARL_v6","SARL_v6kld47gkx","62713a003caa3feec5c6a0ba","freq","","","img/blue_2bandit_a2.png","70","","70","test","1","","31","","","","square","circle","30","8","2","0.8666666666666667","","","","","","","",""
"null","135025","SARL_v6","SARL_v6kld47gkx","62713a003caa3feec5c6a0ba","freq_resp","","","img/blue_2bandit_a.png","70","img/blue_2bandit_a.png","70","test","","","","","","","","","","","2","","","","","","","","",""
"null","135176","SARL_v6","SARL_v6kld47gkx","62713a003caa3feec5c6a0ba","fixation","","","img/fixation.png","null","","","test","","","","","","","","","","","","","","","","","","","",""
"198","135376","SARL_v6","SARL_v6kld47gkx","62713a003caa3feec5c6a0ba","freq","","","img/blue_2bandit_a2.png","70","","70","test","1","","32","","","","square","circle","31","9","2","0.8709677419354839","","","","","","","",""
"null","135993","SARL_v6","SARL_v6kld47gkx","62713a003caa3feec5c6a0ba","freq_resp","","","img/blue_2bandit_a.png","70","img/blue_2bandit_a.png","70","test","","","","","","","","","","","2","","","","","","","","",""
"null","136159","SARL_v6","SARL_v6kld47gkx","62713a003caa3feec5c6a0ba","fixation","","","img/fixation.png","null","","","test","","","","","","","","","","","","","","","","","","","",""
"145","136304","SARL_v6","SARL_v6kld47gkx","62713a003caa3feec5c6a0ba","freq","","","img/blue_2bandit_a2.png","70","","70","test","1","","33","","","","square","circle","32","10","2","0.875","","","","","","","",""
"null","136967","SARL_v6","SARL_v6kld47gkx","62713a003caa3feec5c6a0ba","freq_resp","","","img/blue_2bandit_a.png","70","img/blue_2bandit_a.png","70","test","","","","","","","","","","","2","","","","","","","","",""
"null","137132","SARL_v6","SARL_v6kld47gkx","62713a003caa3feec5c6a0ba","fixation","","","img/fixation.png","null","","","test","","","","","","","","","","","","","","","","","","","",""
"218","137352","SARL_v6","SARL_v6kld47gkx","62713a003caa3feec5c6a0ba","freq","","","img/blue_2bandit_a2.png","70","","70","test","1","","34","","","","square","circle","33","11","2","0.8787878787878788","","","","","","","",""
"null","137947","SARL_v6","SARL_v6kld47gkx","62713a003caa3feec5c6a0ba","freq_resp","","","img/blue_2bandit_a.png","70","img/blue_2bandit_a.png","70","test","","","","","","","","","","","2","","","","","","","","",""
"null","138101","SARL_v6","SARL_v6kld47gkx","62713a003caa3feec5c6a0ba","fixation","","","img/fixation.png","null","","","test","","","","","","","","","","","","","","","","","","","",""
"202","138303","SARL_v6","SARL_v6kld47gkx","62713a003caa3feec5c6a0ba","infreq","","","img/orange_2bandit_a2.png","70","","68","test","0","","35","","","","square","circle","34","12","2","0.8529411764705882","","","","","","","",""
"null","138907","SARL_v6","SARL_v6kld47gkx","62713a003caa3feec5c6a0ba","infreq_resp","","","img/orange_2bandit_a.png","70","img/orange_2bandit_a.png","68","test","","","","","","","","","","","2","","","","","","","","",""
"null","139059","SARL_v6","SARL_v6kld47gkx","62713a003caa3feec5c6a0ba","fixation","","","img/fixation.png","null","","","test","","","","","","","","","","","","","","","","","","","",""
"null","139865","SARL_v6","SARL_v6kld47gkx","62713a003caa3feec5c6a0ba","freq","","","img/blue_2bandit_a2.png","null","","70","test","0","","36","","","","square","circle","35","13","2","0.8285714285714286","","","","","","","",""
"null","140018","SARL_v6","SARL_v6kld47gkx","62713a003caa3feec5c6a0ba","fixation","","","img/fixation.png","null","","","test","","","","","","","","","","","","","","","","","","","",""
"180","140200","SARL_v6","SARL_v6kld47gkx","62713a003caa3feec5c6a0ba","freq","","","img/blue_2bandit_a2.png","70","","70","test","1","","37","","","","square","circle","36","14","2","0.8333333333333334","","","","","","","",""
"null","140834","SARL_v6","SARL_v6kld47gkx","62713a003caa3feec5c6a0ba","freq_resp","","","img/blue_2bandit_a.png","70","img/blue_2bandit_a.png","70","test","","","","","","","","","","","2","","","","","","","","",""
"null","140986","SARL_v6","SARL_v6kld47gkx","62713a003caa3feec5c6a0ba","fixation","","","img/fixation.png","null","","","test","","","","","","","","","","","","","","","","","","","",""
"147","141136","SARL_v6","SARL_v6kld47gkx","62713a003caa3feec5c6a0ba","freq","","","img/blue_2bandit_a2.png","70","","70","test","1","","38","","","","square","circle","37","15","2","0.8378378378378378","","","","","","","",""
"null","141792","SARL_v6","SARL_v6kld47gkx","62713a003caa3feec5c6a0ba","freq_resp","","","img/blue_2bandit_a.png","70","img/blue_2bandit_a.png","70","test","","","","","","","","","","","2","","","","","","","","",""
"null","141946","SARL_v6","SARL_v6kld47gkx","62713a003caa3feec5c6a0ba","fixation","","","img/fixation.png","null","","","test","","","","","","","","","","","","","","","","","","","",""
"180","142128","SARL_v6","SARL_v6kld47gkx","62713a003caa3feec5c6a0ba","freq","","","img/blue_2bandit_a2.png","70","","70","test","1","","39","","","","square","circle","38","16","2","0.8421052631578947","","","","","","","",""
"null","142753","SARL_v6","SARL_v6kld47gkx","62713a003caa3feec5c6a0ba","freq_resp","","","img/blue_2bandit_a.png","70","img/blue_2bandit_a.png","70","test","","","","","","","","","","","2","","","","","","","","",""
"null","142906","SARL_v6","SARL_v6kld47gkx","62713a003caa3feec5c6a0ba","fixation","","","img/fixation.png","null","","","test","","","","","","","","","","","","","","","","","","","",""
"156","143063","SARL_v6","SARL_v6kld47gkx","62713a003caa3feec5c6a0ba","infreq","","","img/orange_2bandit_a2.png","70","","68","test","0","","40","","","","square","circle","39","17","2","0.8205128205128205","","","","","","","",""
"null","143712","SARL_v6","SARL_v6kld47gkx","62713a003caa3feec5c6a0ba","infreq_resp","","","img/orange_2bandit_a.png","70","img/orange_2bandit_a.png","68","test","","","","","","","","","","","2","","","","","","","","",""
"null","143863","SARL_v6","SARL_v6kld47gkx","62713a003caa3feec5c6a0ba","fixation","","","img/fixation.png","null","","","test","","","","","","","","","","","","","","","","","","","",""
"535","144400","SARL_v6","SARL_v6kld47gkx","62713a003caa3feec5c6a0ba","freq","","","img/blue_2bandit_a2.png","70","","70","test","1","","41","","","","square","circle","40","18","2","0.825","","","","","","","",""
"null","144678","SARL_v6","SARL_v6kld47gkx","62713a003caa3feec5c6a0ba","freq_resp","","","img/blue_2bandit_a.png","70","img/blue_2bandit_a.png","70","test","","","","","","","","","","","2","","","","","","","","",""
"null","144831","SARL_v6","SARL_v6kld47gkx","62713a003caa3feec5c6a0ba","fixation","","","img/fixation.png","null","","","test","","","","","","","","","","","","","","","","","","","",""
"384","145216","SARL_v6","SARL_v6kld47gkx","62713a003caa3feec5c6a0ba","freq","","","img/blue_2bandit_a2.png","70","","70","test","1","","42","","","","square","circle","41","19","2","0.8292682926829268","","","","","","","",""
"null","145637","SARL_v6","SARL_v6kld47gkx","62713a003caa3feec5c6a0ba","freq_resp","","","img/blue_2bandit_a.png","70","img/blue_2bandit_a.png","70","test","","","","","","","","","","","2","","","","","","","","",""
"null","145788","SARL_v6","SARL_v6kld47gkx","62713a003caa3feec5c6a0ba","fixation","","","img/fixation.png","null","","","test","","","","","","","","","","","","","","","","","","","",""
"330","146120","SARL_v6","SARL_v6kld47gkx","62713a003caa3feec5c6a0ba","freq","","","img/blue_2bandit_a2.png","70","","70","test","1","","43","","","","square","circle","42","20","2","0.8333333333333334","","","","","","","",""
"null","146592","SARL_v6","SARL_v6kld47gkx","62713a003caa3feec5c6a0ba","freq_resp","","","img/blue_2bandit_a.png","70","img/blue_2bandit_a.png","70","test","","","","","","","","","","","2","","","","","","","","",""
"null","146744","SARL_v6","SARL_v6kld47gkx","62713a003caa3feec5c6a0ba","fixation","","","img/fixation.png","null","","","test","","","","","","","","","","","","","","","","","","","",""
"415","147160","SARL_v6","SARL_v6kld47gkx","62713a003caa3feec5c6a0ba","rl","","","img/black_2bandit_a2.png","75","","0","test","","","44","","","-8","square","circle","","0","2","","75","-8","-5","-5","-8","circle","2","0"
"null","147917","SARL_v6","SARL_v6kld47gkx","62713a003caa3feec5c6a0ba","feedback","","","<div class=""verylowPoints""> -8 </div>","null","","na","test","","","NaN","","","","","","","","2","","75","","","","","","2",""
"419","148336","SARL_v6","SARL_v6kld47gkx","62713a003caa3feec5c6a0ba","freq","","","img/blue_2bandit_a2.png","70","","70","test","1","","45","","","","square","circle","43","1","3","0.8372093023255814","","","","","","","",""
"null","148722","SARL_v6","SARL_v6kld47gkx","62713a003caa3feec5c6a0ba","freq_resp","","","img/blue_2bandit_a.png","70","img/blue_2bandit_a.png","70","test","","","","","","","","","","","3","","","","","","","","",""
"null","148874","SARL_v6","SARL_v6kld47gkx","62713a003caa3feec5c6a0ba","fixation","","","img/fixation.png","null","","","test","","","","","","","","","","","","","","","","","","","",""
"516","149391","SARL_v6","SARL_v6kld47gkx","62713a003caa3feec5c6a0ba","freq","","","img/blue_2bandit_a2.png","70","","70","test","1","","46","","","","square","circle","44","2","3","0.8409090909090909","","","","","","","",""
"null","149677","SARL_v6","SARL_v6kld47gkx","62713a003caa3feec5c6a0ba","freq_resp","","","img/blue_2bandit_a.png","70","img/blue_2bandit_a.png","70","test","","","","","","","","","","","3","","","","","","","","",""
"null","149843","SARL_v6","SARL_v6kld47gkx","62713a003caa3feec5c6a0ba","fixation","","","img/fixation.png","null","","","test","","","","","","","","","","","","","","","","","","","",""
"515","150360","SARL_v6","SARL_v6kld47gkx","62713a003caa3feec5c6a0ba","freq","","","img/blue_2bandit_a2.png","70","","70","test","1","","47","","","","square","circle","45","3","3","0.8444444444444444","","","","","","","",""
"null","150662","SARL_v6","SARL_v6kld47gkx","62713a003caa3feec5c6a0ba","freq_resp","","","img/blue_2bandit_a.png","70","img/blue_2bandit_a.png","70","test","","","","","","","","","","","3","","","","","","","","",""
"null","150814","SARL_v6","SARL_v6kld47gkx","62713a003caa3feec5c6a0ba","fixation","","","img/fixation.png","null","","","test","","","","","","","","","","","","","","","","","","","",""
"440","151256","SARL_v6","SARL_v6kld47gkx","62713a003caa3feec5c6a0ba","freq","","","img/blue_2bandit_a2.png","70","","70","test","1","","48","","","","square","circle","46","4","3","0.8478260869565217","","","","","","","",""
"null","151617","SARL_v6","SARL_v6kld47gkx","62713a003caa3feec5c6a0ba","freq_resp","","","img/blue_2bandit_a.png","70","img/blue_2bandit_a.png","70","test","","","","","","","","","","","3","","","","","","","","",""
"null","151770","SARL_v6","SARL_v6kld47gkx","62713a003caa3feec5c6a0ba","fixation","","","img/fixation.png","null","","","test","","","","","","","","","","","","","","","","","","","",""
"372","152144","SARL_v6","SARL_v6kld47gkx","62713a003caa3feec5c6a0ba","freq","","","img/blue_2bandit_a2.png","70","","70","test","1","","49","","","","square","circle","47","5","3","0.851063829787234","","","","","","","",""
"null","152576","SARL_v6","SARL_v6kld47gkx","62713a003caa3feec5c6a0ba","freq_resp","","","img/blue_2bandit_a.png","70","img/blue_2bandit_a.png","70","test","","","","","","","","","","","3","","","","","","","","",""
"null","152729","SARL_v6","SARL_v6kld47gkx","62713a003caa3feec5c6a0ba","fixation","","","img/fixation.png","null","","","test","","","","","","","","","","","","","","","","","","","",""
"333","153064","SARL_v6","SARL_v6kld47gkx","62713a003caa3feec5c6a0ba","freq","","","img/blue_2bandit_a2.png","70","","70","test","1","","50","","","","square","circle","48","6","3","0.8541666666666666","","","","","","","",""
"null","153546","SARL_v6","SARL_v6kld47gkx","62713a003caa3feec5c6a0ba","freq_resp","","","img/blue_2bandit_a.png","70","img/blue_2bandit_a.png","70","test","","","","","","","","","","","3","","","","","","","","",""
"null","153698","SARL_v6","SARL_v6kld47gkx","62713a003caa3feec5c6a0ba","fixation","","","img/fixation.png","null","","","test","","","","","","","","","","","","","","","","","","","",""
"357","154055","SARL_v6","SARL_v6kld47gkx","62713a003caa3feec5c6a0ba","freq","","","img/blue_2bandit_a2.png","70","","70","test","1","","51","","","","square","circle","49","7","3","0.8571428571428571","","","","","","","",""
"null","154516","SARL_v6","SARL_v6kld47gkx","62713a003caa3feec5c6a0ba","freq_resp","","","img/blue_2bandit_a.png","70","img/blue_2bandit_a.png","70","test","","","","","","","","","","","3","","","","","","","","",""
"null","154668","SARL_v6","SARL_v6kld47gkx","62713a003caa3feec5c6a0ba","fixation","","","img/fixation.png","null","","","test","","","","","","","","","","","","","","","","","","","",""
"340","155007","SARL_v6","SARL_v6kld47gkx","62713a003caa3feec5c6a0ba","freq","","","img/blue_2bandit_a2.png","70","","70","test","1","","52","","","","square","circle","50","8","3","0.86","","","","","","","",""
"null","155473","SARL_v6","SARL_v6kld47gkx","62713a003caa3feec5c6a0ba","freq_resp","","","img/blue_2bandit_a.png","70","img/blue_2bandit_a.png","70","test","","","","","","","","","","","3","","","","","","","","",""
"null","155625","SARL_v6","SARL_v6kld47gkx","62713a003caa3feec5c6a0ba","fixation","","","img/fixation.png","null","","","test","","","","","","","","","","","","","","","","","","","",""
"437","156064","SARL_v6","SARL_v6kld47gkx","62713a003caa3feec5c6a0ba","infreq","","","img/orange_2bandit_a2.png","68","","68","test","1","","53","","","","square","circle","51","9","3","0.8627450980392157","","","","","","","",""
"null","156431","SARL_v6","SARL_v6kld47gkx","62713a003caa3feec5c6a0ba","infreq_resp","","","img/orange_2bandit_a.png","68","img/orange_2bandit_a.png","68","test","","","","","","","","","","","3","","","","","","","","",""
"null","156583","SARL_v6","SARL_v6kld47gkx","62713a003caa3feec5c6a0ba","fixation","","","img/fixation.png","null","","","test","","","","","","","","","","","","","","","","","","","",""
"440","157025","SARL_v6","SARL_v6kld47gkx","62713a003caa3feec5c6a0ba","freq","","","img/blue_2bandit_a2.png","70","","70","test","1","","54","","","","square","circle","52","10","3","0.8653846153846154","","","","","","","",""
"null","157390","SARL_v6","SARL_v6kld47gkx","62713a003caa3feec5c6a0ba","freq_resp","","","img/blue_2bandit_a.png","70","img/blue_2bandit_a.png","70","test","","","","","","","","","","","3","","","","","","","","",""
"null","157557","SARL_v6","SARL_v6kld47gkx","62713a003caa3feec5c6a0ba","fixation","","","img/fixation.png","null","","","test","","","","","","","","","","","","","","","","","","","",""
"409","157968","SARL_v6","SARL_v6kld47gkx","62713a003caa3feec5c6a0ba","freq","","","img/blue_2bandit_a2.png","70","","70","test","1","","55","","","","square","circle","53","11","3","0.8679245283018868","","","","","","","",""
"null","158365","SARL_v6","SARL_v6kld47gkx","62713a003caa3feec5c6a0ba","freq_resp","","","img/blue_2bandit_a.png","70","img/blue_2bandit_a.png","70","test","","","","","","","","","","","3","","","","","","","","",""
"null","158528","SARL_v6","SARL_v6kld47gkx","62713a003caa3feec5c6a0ba","fixation","","","img/fixation.png","null","","","test","","","","","","","","","","","","","","","","","","","",""
"534","159064","SARL_v6","SARL_v6kld47gkx","62713a003caa3feec5c6a0ba","infreq","","","img/orange_2bandit_a2.png","68","","68","test","1","","56","","","","square","circle","54","12","3","0.8703703703703703","","","","","","","",""
"null","159334","SARL_v6","SARL_v6kld47gkx","62713a003caa3feec5c6a0ba","infreq_resp","","","img/orange_2bandit_a.png","68","img/orange_2bandit_a.png","68","test","","","","","","","","","","","3","","","","","","","","",""
"null","159500","SARL_v6","SARL_v6kld47gkx","62713a003caa3feec5c6a0ba","fixation","","","img/fixation.png","null","","","test","","","","","","","","","","","","","","","","","","","",""
"610","160112","SARL_v6","SARL_v6kld47gkx","62713a003caa3feec5c6a0ba","freq","","","img/blue_2bandit_a2.png","68","","70","test","0","","57","","","","square","circle","55","13","3","0.8545454545454545","","","","","","","",""
"null","160316","SARL_v6","SARL_v6kld47gkx","62713a003caa3feec5c6a0ba","freq_resp","","","img/blue_2bandit_a.png","68","img/blue_2bandit_a.png","70","test","","","","","","","","","","","3","","","","","","","","",""
"null","160468","SARL_v6","SARL_v6kld47gkx","62713a003caa3feec5c6a0ba","fixation","","","img/fixation.png","null","","","test","","","","","","","","","","","","","","","","","","","",""
"466","160936","SARL_v6","SARL_v6kld47gkx","62713a003caa3feec5c6a0ba","freq","","","img/blue_2bandit_a2.png","70","","70","test","1","","58","","","","square","circle","56","14","3","0.8571428571428571","","","","","","","",""
"null","161273","SARL_v6","SARL_v6kld47gkx","62713a003caa3feec5c6a0ba","freq_resp","","","img/blue_2bandit_a.png","70","img/blue_2bandit_a.png","70","test","","","","","","","","","","","3","","","","","","","","",""
"null","161425","SARL_v6","SARL_v6kld47gkx","62713a003caa3feec5c6a0ba","fixation","","","img/fixation.png","null","","","test","","","","","","","","","","","","","","","","","","","",""
"389","161816","SARL_v6","SARL_v6kld47gkx","62713a003caa3feec5c6a0ba","freq","","","img/blue_2bandit_a2.png","70","","70","test","1","","59","","","","square","circle","57","15","3","0.8596491228070176","","","","","","","",""
"null","162229","SARL_v6","SARL_v6kld47gkx","62713a003caa3feec5c6a0ba","freq_resp","","","img/blue_2bandit_a.png","70","img/blue_2bandit_a.png","70","test","","","","","","","","","","","3","","","","","","","","",""
"null","162394","SARL_v6","SARL_v6kld47gkx","62713a003caa3feec5c6a0ba","fixation","","","img/fixation.png","null","","","test","","","","","","","","","","","","","","","","","","","",""
"389","162784","SARL_v6","SARL_v6kld47gkx","62713a003caa3feec5c6a0ba","freq","","","img/blue_2bandit_a2.png","70","","70","test","1","","60","","","","square","circle","58","16","3","0.8620689655172413","","","","","","","",""
"null","163198","SARL_v6","SARL_v6kld47gkx","62713a003caa3feec5c6a0ba","freq_resp","","","img/blue_2bandit_a.png","70","img/blue_2bandit_a.png","70","test","","","","","","","","","","","3","","","","","","","","",""
"null","163349","SARL_v6","SARL_v6kld47gkx","62713a003caa3feec5c6a0ba","fixation","","","img/fixation.png","null","","","test","","","","","","","","","","","","","","","","","","","",""
"354","163703","SARL_v6","SARL_v6kld47gkx","62713a003caa3feec5c6a0ba","freq","","","img/blue_2bandit_a2.png","70","","70","test","1","","61","","","","square","circle","59","17","3","0.864406779661017","","","","","","","",""
"null","164163","SARL_v6","SARL_v6kld47gkx","62713a003caa3feec5c6a0ba","freq_resp","","","img/blue_2bandit_a.png","70","img/blue_2bandit_a.png","70","test","","","","","","","","","","","3","","","","","","","","",""
"null","164315","SARL_v6","SARL_v6kld47gkx","62713a003caa3feec5c6a0ba","fixation","","","img/fixation.png","null","","","test","","","","","","","","","","","","","","","","","","","",""
"315","164632","SARL_v6","SARL_v6kld47gkx","62713a003caa3feec5c6a0ba","freq","","","img/blue_2bandit_a2.png","70","","70","test","1","","62","","","","square","circle","60","18","3","0.8666666666666667","","","","","","","",""
"null","165124","SARL_v6","SARL_v6kld47gkx","62713a003caa3feec5c6a0ba","freq_resp","","","img/blue_2bandit_a.png","70","img/blue_2bandit_a.png","70","test","","","","","","","","","","","3","","","","","","","","",""
"null","165288","SARL_v6","SARL_v6kld47gkx","62713a003caa3feec5c6a0ba","fixation","","","img/fixation.png","null","","","test","","","","","","","","","","","","","","","","","","","",""
"341","165632","SARL_v6","SARL_v6kld47gkx","62713a003caa3feec5c6a0ba","freq","","","img/blue_2bandit_a2.png","70","","70","test","1","","63","","","","square","circle","61","19","3","0.8688524590163934","","","","","","","",""
"null","166092","SARL_v6","SARL_v6kld47gkx","62713a003caa3feec5c6a0ba","freq_resp","","","img/blue_2bandit_a.png","70","img/blue_2bandit_a.png","70","test","","","","","","","","","","","3","","","","","","","","",""
"null","166245","SARL_v6","SARL_v6kld47gkx","62713a003caa3feec5c6a0ba","fixation","","","img/fixation.png","null","","","test","","","","","","","","","","","","","","","","","","","",""
"305","166552","SARL_v6","SARL_v6kld47gkx","62713a003caa3feec5c6a0ba","freq","","","img/blue_2bandit_a2.png","70","","70","test","1","","64","","","","square","circle","62","20","3","0.8709677419354839","","","","","","","",""
"null","167049","SARL_v6","SARL_v6kld47gkx","62713a003caa3feec5c6a0ba","freq_resp","","","img/blue_2bandit_a.png","70","img/blue_2bandit_a.png","70","test","","","","","","","","","","","3","","","","","","","","",""
"null","167201","SARL_v6","SARL_v6kld47gkx","62713a003caa3feec5c6a0ba","fixation","","","img/fixation.png","null","","","test","","","","","","","","","","","","","","","","","","","",""
"325","167528","SARL_v6","SARL_v6kld47gkx","62713a003caa3feec5c6a0ba","freq","","","img/blue_2bandit_a2.png","70","","70","test","1","","65","","","","square","circle","63","21","3","0.873015873015873","","","","","","","",""
"null","168008","SARL_v6","SARL_v6kld47gkx","62713a003caa3feec5c6a0ba","freq_resp","","","img/blue_2bandit_a.png","70","img/blue_2bandit_a.png","70","test","","","","","","","","","","","3","","","","","","","","",""
"null","168161","SARL_v6","SARL_v6kld47gkx","62713a003caa3feec5c6a0ba","fixation","","","img/fixation.png","null","","","test","","","","","","","","","","","","","","","","","","","",""
"302","168463","SARL_v6","SARL_v6kld47gkx","62713a003caa3feec5c6a0ba","freq","","","img/blue_2bandit_a2.png","70","","70","test","1","","66","","","","square","circle","64","22","3","0.875","","","","","","","",""
"null","168963","SARL_v6","SARL_v6kld47gkx","62713a003caa3feec5c6a0ba","freq_resp","","","img/blue_2bandit_a.png","70","img/blue_2bandit_a.png","70","test","","","","","","","","","","","3","","","","","","","","",""
"null","169128","SARL_v6","SARL_v6kld47gkx","62713a003caa3feec5c6a0ba","fixation","","","img/fixation.png","null","","","test","","","","","","","","","","","","","","","","","","","",""
"246","169375","SARL_v6","SARL_v6kld47gkx","62713a003caa3feec5c6a0ba","freq","","","img/blue_2bandit_a2.png","70","","70","test","1","","67","","","","square","circle","65","23","3","0.8769230769230769","","","","","","","",""
"null","169938","SARL_v6","SARL_v6kld47gkx","62713a003caa3feec5c6a0ba","freq_resp","","","img/blue_2bandit_a.png","70","img/blue_2bandit_a.png","70","test","","","","","","","","","","","3","","","","","","","","",""
"null","170089","SARL_v6","SARL_v6kld47gkx","62713a003caa3feec5c6a0ba","fixation","","","img/fixation.png","null","","","test","","","","","","","","","","","","","","","","","","","",""
"452","170544","SARL_v6","SARL_v6kld47gkx","62713a003caa3feec5c6a0ba","rl","","","img/black_2bandit_a2.png","74","","0","test","","","68","","","-4","square","circle","","0","3","","74","-8","-4","-4","-8","square","3","0"
"null","171306","SARL_v6","SARL_v6kld47gkx","62713a003caa3feec5c6a0ba","feedback","","","<div class=""verylowPoints_sq""> -4 </div>","null","","na","test","","","NaN","","","","","","","","3","","74","","","","","","3",""
"596","171903","SARL_v6","SARL_v6kld47gkx","62713a003caa3feec5c6a0ba","freq","","","img/blue_2bandit_a2.png","70","","70","test","1","","69","","","","square","circle","66","1","4","0.8787878787878788","","","","","","","",""
"null","172122","SARL_v6","SARL_v6kld47gkx","62713a003caa3feec5c6a0ba","freq_resp","","","img/blue_2bandit_a.png","70","img/blue_2bandit_a.png","70","test","","","","","","","","","","","4","","","","","","","","",""
"null","172274","SARL_v6","SARL_v6kld47gkx","62713a003caa3feec5c6a0ba","fixation","","","img/fixation.png","null","","","test","","","","","","","","","","","","","","","","","","","",""
"518","172792","SARL_v6","SARL_v6kld47gkx","62713a003caa3feec5c6a0ba","freq","","","img/blue_2bandit_a2.png","70","","70","test","1","","70","","","","square","circle","67","2","4","0.8805970149253731","","","","","","","",""
"null","173077","SARL_v6","SARL_v6kld47gkx","62713a003caa3feec5c6a0ba","freq_resp","","","img/blue_2bandit_a.png","70","img/blue_2bandit_a.png","70","test","","","","","","","","","","","4","","","","","","","","",""
"null","173229","SARL_v6","SARL_v6kld47gkx","62713a003caa3feec5c6a0ba","fixation","","","img/fixation.png","null","","","test","","","","","","","","","","","","","","","","","","","",""
"466","173696","SARL_v6","SARL_v6kld47gkx","62713a003caa3feec5c6a0ba","freq","","","img/blue_2bandit_a2.png","70","","70","test","1","","71","","","","square","circle","68","3","4","0.8823529411764706","","","","","","","",""
"null","174033","SARL_v6","SARL_v6kld47gkx","62713a003caa3feec5c6a0ba","freq_resp","","","img/blue_2bandit_a.png","70","img/blue_2bandit_a.png","70","test","","","","","","","","","","","4","","","","","","","","",""
"null","174187","SARL_v6","SARL_v6kld47gkx","62713a003caa3feec5c6a0ba","fixation","","","img/fixation.png","null","","","test","","","","","","","","","","","","","","","","","","","",""
"541","174728","SARL_v6","SARL_v6kld47gkx","62713a003caa3feec5c6a0ba","infreq","","","img/orange_2bandit_a2.png","68","","68","test","1","","72","","","","square","circle","69","4","4","0.8840579710144928","","","","","","","",""
"null","174991","SARL_v6","SARL_v6kld47gkx","62713a003caa3feec5c6a0ba","infreq_resp","","","img/orange_2bandit_a.png","68","img/orange_2bandit_a.png","68","test","","","","","","","","","","","4","","","","","","","","",""
"null","175143","SARL_v6","SARL_v6kld47gkx","62713a003caa3feec5c6a0ba","fixation","","","img/fixation.png","null","","","test","","","","","","","","","","","","","","","","","","","",""
"544","175688","SARL_v6","SARL_v6kld47gkx","62713a003caa3feec5c6a0ba","freq","","","img/blue_2bandit_a2.png","68","","70","test","0","","73","","","","square","circle","70","5","4","0.8714285714285714","","","","","","","",""
"null","175949","SARL_v6","SARL_v6kld47gkx","62713a003caa3feec5c6a0ba","freq_resp","","","img/blue_2bandit_a.png","68","img/blue_2bandit_a.png","70","test","","","","","","","","","","","4","","","","","","","","",""
"null","176102","SARL_v6","SARL_v6kld47gkx","62713a003caa3feec5c6a0ba","fixation","","","img/fixation.png","null","","","test","","","","","","","","","","","","","","","","","","","",""
"432","176536","SARL_v6","SARL_v6kld47gkx","62713a003caa3feec5c6a0ba","freq","","","img/blue_2bandit_a2.png","70","","70","test","1","","74","","","","square","circle","71","6","4","0.8732394366197183","","","","","","","",""
"null","176917","SARL_v6","SARL_v6kld47gkx","62713a003caa3feec5c6a0ba","freq_resp","","","img/blue_2bandit_a.png","70","img/blue_2bandit_a.png","70","test","","","","","","","","","","","4","","","","","","","","",""
"null","177068","SARL_v6","SARL_v6kld47gkx","62713a003caa3feec5c6a0ba","fixation","","","img/fixation.png","null","","","test","","","","","","","","","","","","","","","","","","","",""
"299","177368","SARL_v6","SARL_v6kld47gkx","62713a003caa3feec5c6a0ba","freq","","","img/blue_2bandit_a2.png","70","","70","test","1","","75","","","","square","circle","72","7","4","0.875","","","","","","","",""
"null","177872","SARL_v6","SARL_v6kld47gkx","62713a003caa3feec5c6a0ba","freq_resp","","","img/blue_2bandit_a.png","70","img/blue_2bandit_a.png","70","test","","","","","","","","","","","4","","","","","","","","",""
"null","178037","SARL_v6","SARL_v6kld47gkx","62713a003caa3feec5c6a0ba","fixation","","","img/fixation.png","null","","","test","","","","","","","","","","","","","","","","","","","",""
"344","178384","SARL_v6","SARL_v6kld47gkx","62713a003caa3feec5c6a0ba","freq","","","img/blue_2bandit_a2.png","70","","70","test","1","","76","","","","square","circle","73","8","4","0.8767123287671232","","","","","","","",""
"null","178843","SARL_v6","SARL_v6kld47gkx","62713a003caa3feec5c6a0ba","freq_resp","","","img/blue_2bandit_a.png","70","img/blue_2bandit_a.png","70","test","","","","","","","","","","","4","","","","","","","","",""
"null","179009","SARL_v6","SARL_v6kld47gkx","62713a003caa3feec5c6a0ba","fixation","","","img/fixation.png","null","","","test","","","","","","","","","","","","","","","","","","","",""
"292","179304","SARL_v6","SARL_v6kld47gkx","62713a003caa3feec5c6a0ba","freq","","","img/blue_2bandit_a2.png","70","","70","test","1","","77","","","","square","circle","74","9","4","0.8783783783783784","","","","","","","",""
"null","179818","SARL_v6","SARL_v6kld47gkx","62713a003caa3feec5c6a0ba","freq_resp","","","img/blue_2bandit_a.png","70","img/blue_2bandit_a.png","70","test","","","","","","","","","","","4","","","","","","","","",""
"null","179972","SARL_v6","SARL_v6kld47gkx","62713a003caa3feec5c6a0ba","fixation","","","img/fixation.png","null","","","test","","","","","","","","","","","","","","","","","","","",""
"252","180223","SARL_v6","SARL_v6kld47gkx","62713a003caa3feec5c6a0ba","freq","","","img/blue_2bandit_a2.png","70","","70","test","1","","78","","","","square","circle","75","10","4","0.88","","","","","","","",""
"null","180786","SARL_v6","SARL_v6kld47gkx","62713a003caa3feec5c6a0ba","freq_resp","","","img/blue_2bandit_a.png","70","img/blue_2bandit_a.png","70","test","","","","","","","","","","","4","","","","","","","","",""
"null","180937","SARL_v6","SARL_v6kld47gkx","62713a003caa3feec5c6a0ba","fixation","","","img/fixation.png","null","","","test","","","","","","","","","","","","","","","","","","","",""
"285","181224","SARL_v6","SARL_v6kld47gkx","62713a003caa3feec5c6a0ba","freq","","","img/blue_2bandit_a2.png","70","","70","test","1","","79","","","","square","circle","76","11","4","0.881578947368421","","","","","","","",""
"null","181744","SARL_v6","SARL_v6kld47gkx","62713a003caa3feec5c6a0ba","freq_resp","","","img/blue_2bandit_a.png","70","img/blue_2bandit_a.png","70","test","","","","","","","","","","","4","","","","","","","","",""
"null","181896","SARL_v6","SARL_v6kld47gkx","62713a003caa3feec5c6a0ba","fixation","","","img/fixation.png","null","","","test","","","","","","","","","","","","","","","","","","","",""
"261","182159","SARL_v6","SARL_v6kld47gkx","62713a003caa3feec5c6a0ba","freq","","","img/blue_2bandit_a2.png","70","","70","test","1","","80","","","","square","circle","77","12","4","0.8831168831168831","","","","","","","",""
"null","182702","SARL_v6","SARL_v6kld47gkx","62713a003caa3feec5c6a0ba","freq_resp","","","img/blue_2bandit_a.png","70","img/blue_2bandit_a.png","70","test","","","","","","","","","","","4","","","","","","","","",""
"null","182856","SARL_v6","SARL_v6kld47gkx","62713a003caa3feec5c6a0ba","fixation","","","img/fixation.png","null","","","test","","","","","","","","","","","","","","","","","","","",""
"333","183192","SARL_v6","SARL_v6kld47gkx","62713a003caa3feec5c6a0ba","freq","","","img/blue_2bandit_a2.png","70","","70","test","1","","81","","","","square","circle","78","13","4","0.8846153846153846","","","","","","","",""
"null","183674","SARL_v6","SARL_v6kld47gkx","62713a003caa3feec5c6a0ba","freq_resp","","","img/blue_2bandit_a.png","70","img/blue_2bandit_a.png","70","test","","","","","","","","","","","4","","","","","","","","",""
"null","183828","SARL_v6","SARL_v6kld47gkx","62713a003caa3feec5c6a0ba","fixation","","","img/fixation.png","null","","","test","","","","","","","","","","","","","","","","","","","",""
"306","184135","SARL_v6","SARL_v6kld47gkx","62713a003caa3feec5c6a0ba","freq","","","img/blue_2bandit_a2.png","70","","70","test","1","","82","","","","square","circle","79","14","4","0.8860759493670886","","","","","","","",""
"null","184646","SARL_v6","SARL_v6kld47gkx","62713a003caa3feec5c6a0ba","freq_resp","","","img/blue_2bandit_a.png","70","img/blue_2bandit_a.png","70","test","","","","","","","","","","","4","","","","","","","","",""
"null","184798","SARL_v6","SARL_v6kld47gkx","62713a003caa3feec5c6a0ba","fixation","","","img/fixation.png","null","","","test","","","","","","","","","","","","","","","","","","","",""
"312","185111","SARL_v6","SARL_v6kld47gkx","62713a003caa3feec5c6a0ba","freq","","","img/blue_2bandit_a2.png","70","","70","test","1","","83","","","","square","circle","80","15","4","0.8875","","","","","","","",""
"null","185603","SARL_v6","SARL_v6kld47gkx","62713a003caa3feec5c6a0ba","freq_resp","","","img/blue_2bandit_a.png","70","img/blue_2bandit_a.png","70","test","","","","","","","","","","","4","","","","","","","","",""
"null","185769","SARL_v6","SARL_v6kld47gkx","62713a003caa3feec5c6a0ba","fixation","","","img/fixation.png","null","","","test","","","","","","","","","","","","","","","","","","","",""
"286","186056","SARL_v6","SARL_v6kld47gkx","62713a003caa3feec5c6a0ba","freq","","","img/blue_2bandit_a2.png","70","","70","test","1","","84","","","","square","circle","81","16","4","0.8888888888888888","","","","","","","",""
"null","186575","SARL_v6","SARL_v6kld47gkx","62713a003caa3feec5c6a0ba","freq_resp","","","img/blue_2bandit_a.png","70","img/blue_2bandit_a.png","70","test","","","","","","","","","","","4","","","","","","","","",""
"null","186727","SARL_v6","SARL_v6kld47gkx","62713a003caa3feec5c6a0ba","fixation","","","img/fixation.png","null","","","test","","","","","","","","","","","","","","","","","","","",""
"null","187529","SARL_v6","SARL_v6kld47gkx","62713a003caa3feec5c6a0ba","infreq","","","img/orange_2bandit_a2.png","null","","68","test","0","","85","","","","square","circle","82","17","4","0.8780487804878049","","","","","","","",""
"null","187681","SARL_v6","SARL_v6kld47gkx","62713a003caa3feec5c6a0ba","fixation","","","img/fixation.png","null","","","test","","","","","","","","","","","","","","","","","","","",""
"702","188384","SARL_v6","SARL_v6kld47gkx","62713a003caa3feec5c6a0ba","freq","","","img/blue_2bandit_a2.png","70","","70","test","1","","86","","","","square","circle","83","18","4","0.8795180722891566","","","","","","","",""
"null","188486","SARL_v6","SARL_v6kld47gkx","62713a003caa3feec5c6a0ba","freq_resp","","","img/blue_2bandit_a.png","70","img/blue_2bandit_a.png","70","test","","","","","","","","","","","4","","","","","","","","",""
"null","188644","SARL_v6","SARL_v6kld47gkx","62713a003caa3feec5c6a0ba","fixation","","","img/fixation.png","null","","","test","","","","","","","","","","","","","","","","","","","",""
"594","189240","SARL_v6","SARL_v6kld47gkx","62713a003caa3feec5c6a0ba","freq","","","img/blue_2bandit_a2.png","70","","70","test","1","","87","","","","square","circle","84","19","4","0.8809523809523809","","","","","","","",""
"null","189447","SARL_v6","SARL_v6kld47gkx","62713a003caa3feec5c6a0ba","freq_resp","","","img/blue_2bandit_a.png","70","img/blue_2bandit_a.png","70","test","","","","","","","","","","","4","","","","","","","","",""
"null","189612","SARL_v6","SARL_v6kld47gkx","62713a003caa3feec5c6a0ba","fixation","","","img/fixation.png","null","","","test","","","","","","","","","","","","","","","","","","","",""
"450","190063","SARL_v6","SARL_v6kld47gkx","62713a003caa3feec5c6a0ba","freq","","","img/blue_2bandit_a2.png","70","","70","test","1","","88","","","","square","circle","85","20","4","0.8823529411764706","","","","","","","",""
"null","190415","SARL_v6","SARL_v6kld47gkx","62713a003caa3feec5c6a0ba","freq_resp","","","img/blue_2bandit_a.png","70","img/blue_2bandit_a.png","70","test","","","","","","","","","","","4","","","","","","","","",""
"null","190569","SARL_v6","SARL_v6kld47gkx","62713a003caa3feec5c6a0ba","fixation","","","img/fixation.png","null","","","test","","","","","","","","","","","","","","","","","","","",""
"685","191255","SARL_v6","SARL_v6kld47gkx","62713a003caa3feec5c6a0ba","freq","","","img/blue_2bandit_a2.png","70","","70","test","1","","89","","","","square","circle","86","21","4","0.8837209302325582","","","","","","","",""
"null","191374","SARL_v6","SARL_v6kld47gkx","62713a003caa3feec5c6a0ba","freq_resp","","","img/blue_2bandit_a.png","70","img/blue_2bandit_a.png","70","test","","","","","","","","","","","4","","","","","","","","",""
"null","191527","SARL_v6","SARL_v6kld47gkx","62713a003caa3feec5c6a0ba","fixation","","","img/fixation.png","null","","","test","","","","","","","","","","","","","","","","","","","",""
"535","192064","SARL_v6","SARL_v6kld47gkx","62713a003caa3feec5c6a0ba","freq","","","img/blue_2bandit_a2.png","70","","70","test","1","","90","","","","square","circle","87","22","4","0.8850574712643678","","","","","","","",""
"null","192334","SARL_v6","SARL_v6kld47gkx","62713a003caa3feec5c6a0ba","freq_resp","","","img/blue_2bandit_a.png","70","img/blue_2bandit_a.png","70","test","","","","","","","","","","","4","","","","","","","","",""
"null","192486","SARL_v6","SARL_v6kld47gkx","62713a003caa3feec5c6a0ba","fixation","","","img/fixation.png","null","","","test","","","","","","","","","","","","","","","","","","","",""
"583","193072","SARL_v6","SARL_v6kld47gkx","62713a003caa3feec5c6a0ba","rl","","","img/black_2bandit_a2.png","75","","0","test","","","91","","","-12","square","circle","","0","4","","75","-12","0","0","-12","circle","4","0"
"null","193829","SARL_v6","SARL_v6kld47gkx","62713a003caa3feec5c6a0ba","feedback","","","<div class=""verylowPoints""> -12 </div>","null","","na","test","","","NaN","","","","","","","","4","","75","","","","","","4",""
"370","194199","SARL_v6","SARL_v6kld47gkx","62713a003caa3feec5c6a0ba","freq","","","img/blue_2bandit_a2.png","70","","70","test","1","","92","","","","square","circle","88","1","5","0.8863636363636364","","","","","","","",""
"null","194633","SARL_v6","SARL_v6kld47gkx","62713a003caa3feec5c6a0ba","freq_resp","","","img/blue_2bandit_a.png","70","img/blue_2bandit_a.png","70","test","","","","","","","","","","","5","","","","","","","","",""
"null","194785","SARL_v6","SARL_v6kld47gkx","62713a003caa3feec5c6a0ba","fixation","","","img/fixation.png","null","","","test","","","","","","","","","","","","","","","","","","","",""
"390","195176","SARL_v6","SARL_v6kld47gkx","62713a003caa3feec5c6a0ba","freq","","","img/blue_2bandit_a2.png","70","","70","test","1","","93","","","","square","circle","89","2","5","0.8876404494382022","","","","","","","",""
"null","195588","SARL_v6","SARL_v6kld47gkx","62713a003caa3feec5c6a0ba","freq_resp","","","img/blue_2bandit_a.png","70","img/blue_2bandit_a.png","70","test","","","","","","","","","","","5","","","","","","","","",""
"null","195740","SARL_v6","SARL_v6kld47gkx","62713a003caa3feec5c6a0ba","fixation","","","img/fixation.png","null","","","test","","","","","","","","","","","","","","","","","","","",""
"346","196088","SARL_v6","SARL_v6kld47gkx","62713a003caa3feec5c6a0ba","freq","","","img/blue_2bandit_a2.png","70","","70","test","1","","94","","","","square","circle","90","3","5","0.8888888888888888","","","","","","","",""
"null","196545","SARL_v6","SARL_v6kld47gkx","62713a003caa3feec5c6a0ba","freq_resp","","","img/blue_2bandit_a.png","70","img/blue_2bandit_a.png","70","test","","","","","","","","","","","5","","","","","","","","",""
"null","196698","SARL_v6","SARL_v6kld47gkx","62713a003caa3feec5c6a0ba","fixation","","","img/fixation.png","null","","","test","","","","","","","","","","","","","","","","","","","",""
"293","196992","SARL_v6","SARL_v6kld47gkx","62713a003caa3feec5c6a0ba","freq","","","img/blue_2bandit_a2.png","70","","70","test","1","","95","","","","square","circle","91","4","5","0.8901098901098901","","","","","","","",""
"null","197502","SARL_v6","SARL_v6kld47gkx","62713a003caa3feec5c6a0ba","freq_resp","","","img/blue_2bandit_a.png","70","img/blue_2bandit_a.png","70","test","","","","","","","","","","","5","","","","","","","","",""
"null","197655","SARL_v6","SARL_v6kld47gkx","62713a003caa3feec5c6a0ba","fixation","","","img/fixation.png","null","","","test","","","","","","","","","","","","","","","","","","","",""
"295","197952","SARL_v6","SARL_v6kld47gkx","62713a003caa3feec5c6a0ba","freq","","","img/blue_2bandit_a2.png","70","","70","test","1","","96","","","","square","circle","92","5","5","0.8913043478260869","","","","","","","",""
"null","198461","SARL_v6","SARL_v6kld47gkx","62713a003caa3feec5c6a0ba","freq_resp","","","img/blue_2bandit_a.png","70","img/blue_2bandit_a.png","70","test","","","","","","","","","","","5","","","","","","","","",""
"null","198612","SARL_v6","SARL_v6kld47gkx","62713a003caa3feec5c6a0ba","fixation","","","img/fixation.png","null","","","test","","","","","","","","","","","","","","","","","","","",""
"273","198887","SARL_v6","SARL_v6kld47gkx","62713a003caa3feec5c6a0ba","freq","","","img/blue_2bandit_a2.png","70","","70","test","1","","97","","","","square","circle","93","6","5","0.8924731182795699","","","","","","","",""
"null","199416","SARL_v6","SARL_v6kld47gkx","62713a003caa3feec5c6a0ba","freq_resp","","","img/blue_2bandit_a.png","70","img/blue_2bandit_a.png","70","test","","","","","","","","","","","5","","","","","","","","",""
"null","199569","SARL_v6","SARL_v6kld47gkx","62713a003caa3feec5c6a0ba","fixation","","","img/fixation.png","null","","","test","","","","","","","","","","","","","","","","","","","",""
"382","199952","SARL_v6","SARL_v6kld47gkx","62713a003caa3feec5c6a0ba","freq","","","img/blue_2bandit_a2.png","70","","70","test","1","","98","","","","square","circle","94","7","5","0.8936170212765957","","","","","","","",""
"null","200376","SARL_v6","SARL_v6kld47gkx","62713a003caa3feec5c6a0ba","freq_resp","","","img/blue_2bandit_a.png","70","img/blue_2bandit_a.png","70","test","","","","","","","","","","","5","","","","","","","","",""
"null","200528","SARL_v6","SARL_v6kld47gkx","62713a003caa3feec5c6a0ba","fixation","","","img/fixation.png","null","","","test","","","","","","","","","","","","","","","","","","","",""
"382","200914","SARL_v6","SARL_v6kld47gkx","62713a003caa3feec5c6a0ba","freq","","","img/blue_2bandit_a2.png","70","","70","test","1","","99","","","","square","circle","95","8","5","0.8947368421052632","","","","","","","",""
"null","201334","SARL_v6","SARL_v6kld47gkx","62713a003caa3feec5c6a0ba","freq_resp","","","img/blue_2bandit_a.png","70","img/blue_2bandit_a.png","70","test","","","","","","","","","","","5","","","","","","","","",""
"null","201486","SARL_v6","SARL_v6kld47gkx","62713a003caa3feec5c6a0ba","fixation","","","img/fixation.png","null","","","test","","","","","","","","","","","","","","","","","","","",""
"425","201912","SARL_v6","SARL_v6kld47gkx","62713a003caa3feec5c6a0ba","freq","","","img/blue_2bandit_a2.png","70","","70","test","1","","100","","","","square","circle","96","9","5","0.8958333333333334","","","","","","","",""
"null","202289","SARL_v6","SARL_v6kld47gkx","62713a003caa3feec5c6a0ba","freq_resp","","","img/blue_2bandit_a.png","70","img/blue_2bandit_a.png","70","test","","","","","","","","","","","5","","","","","","","","",""
"null","202442","SARL_v6","SARL_v6kld47gkx","62713a003caa3feec5c6a0ba","fixation","","","img/fixation.png","null","","","test","","","","","","","","","","","","","","","","","","","",""
"429","202871","SARL_v6","SARL_v6kld47gkx","62713a003caa3feec5c6a0ba","freq","","","img/blue_2bandit_a2.png","70","","70","test","1","","101","","","","square","circle","97","10","5","0.8969072164948454","","","","","","","",""
"null","203247","SARL_v6","SARL_v6kld47gkx","62713a003caa3feec5c6a0ba","freq_resp","","","img/blue_2bandit_a.png","70","img/blue_2bandit_a.png","70","test","","","","","","","","","","","5","","","","","","","","",""
"null","203413","SARL_v6","SARL_v6kld47gkx","62713a003caa3feec5c6a0ba","fixation","","","img/fixation.png","null","","","test","","","","","","","","","","","","","","","","","","","",""
"305","203719","SARL_v6","SARL_v6kld47gkx","62713a003caa3feec5c6a0ba","freq","","","img/blue_2bandit_a2.png","70","","70","test","1","","102","","","","square","circle","98","11","5","0.8979591836734694","","","","","","","",""
"null","204223","SARL_v6","SARL_v6kld47gkx","62713a003caa3feec5c6a0ba","freq_resp","","","img/blue_2bandit_a.png","70","img/blue_2bandit_a.png","70","test","","","","","","","","","","","5","","","","","","","","",""
"null","204375","SARL_v6","SARL_v6kld47gkx","62713a003caa3feec5c6a0ba","fixation","","","img/fixation.png","null","","","test","","","","","","","","","","","","","","","","","","","",""
"304","204680","SARL_v6","SARL_v6kld47gkx","62713a003caa3feec5c6a0ba","freq","","","img/blue_2bandit_a2.png","70","","70","test","1","","103","","","","square","circle","99","12","5","0.898989898989899","","","","","","","",""
"null","205178","SARL_v6","SARL_v6kld47gkx","62713a003caa3feec5c6a0ba","freq_resp","","","img/blue_2bandit_a.png","70","img/blue_2bandit_a.png","70","test","","","","","","","","","","","5","","","","","","","","",""
"null","205345","SARL_v6","SARL_v6kld47gkx","62713a003caa3feec5c6a0ba","fixation","","","img/fixation.png","null","","","test","","","","","","","","","","","","","","","","","","","",""
"293","205639","SARL_v6","SARL_v6kld47gkx","62713a003caa3feec5c6a0ba","freq","","","img/blue_2bandit_a2.png","70","","70","test","1","","104","","","","square","circle","100","13","5","0.9","","","","","","","",""
"null","206149","SARL_v6","SARL_v6kld47gkx","62713a003caa3feec5c6a0ba","freq_resp","","","img/blue_2bandit_a.png","70","img/blue_2bandit_a.png","70","test","","","","","","","","","","","5","","","","","","","","",""
"null","206301","SARL_v6","SARL_v6kld47gkx","62713a003caa3feec5c6a0ba","fixation","","","img/fixation.png","null","","","test","","","","","","","","","","","","","","","","","","","",""
"257","206559","SARL_v6","SARL_v6kld47gkx","62713a003caa3feec5c6a0ba","freq","","","img/blue_2bandit_a2.png","70","","70","test","1","","105","","","","square","circle","101","14","5","0.900990099009901","","","","","","","",""
"null","207106","SARL_v6","SARL_v6kld47gkx","62713a003caa3feec5c6a0ba","freq_resp","","","img/blue_2bandit_a.png","70","img/blue_2bandit_a.png","70","test","","","","","","","","","","","5","","","","","","","","",""
"null","207258","SARL_v6","SARL_v6kld47gkx","62713a003caa3feec5c6a0ba","fixation","","","img/fixation.png","null","","","test","","","","","","","","","","","","","","","","","","","",""
"204","207464","SARL_v6","SARL_v6kld47gkx","62713a003caa3feec5c6a0ba","freq","","","img/blue_2bandit_a2.png","70","","70","test","1","","106","","","","square","circle","102","15","5","0.9019607843137255","","","","","","","",""
"null","208063","SARL_v6","SARL_v6kld47gkx","62713a003caa3feec5c6a0ba","freq_resp","","","img/blue_2bandit_a.png","70","img/blue_2bandit_a.png","70","test","","","","","","","","","","","5","","","","","","","","",""
"null","208216","SARL_v6","SARL_v6kld47gkx","62713a003caa3feec5c6a0ba","fixation","","","img/fixation.png","null","","","test","","","","","","","","","","","","","","","","","","","",""
"238","208456","SARL_v6","SARL_v6kld47gkx","62713a003caa3feec5c6a0ba","freq","","","img/blue_2bandit_a2.png","70","","70","test","1","","107","","","","square","circle","103","16","5","0.9029126213592233","","","","","","","",""
"null","209023","SARL_v6","SARL_v6kld47gkx","62713a003caa3feec5c6a0ba","freq_resp","","","img/blue_2bandit_a.png","70","img/blue_2bandit_a.png","70","test","","","","","","","","","","","5","","","","","","","","",""
"null","209175","SARL_v6","SARL_v6kld47gkx","62713a003caa3feec5c6a0ba","fixation","","","img/fixation.png","null","","","test","","","","","","","","","","","","","","","","","","","",""
"231","209407","SARL_v6","SARL_v6kld47gkx","62713a003caa3feec5c6a0ba","infreq","","","img/orange_2bandit_a2.png","70","","68","test","0","","108","","","","square","circle","104","17","5","0.8942307692307693","","","","","","","",""
"null","209977","SARL_v6","SARL_v6kld47gkx","62713a003caa3feec5c6a0ba","infreq_resp","","","img/orange_2bandit_a.png","70","img/orange_2bandit_a.png","68","test","","","","","","","","","","","5","","","","","","","","",""
"null","210129","SARL_v6","SARL_v6kld47gkx","62713a003caa3feec5c6a0ba","fixation","","","img/fixation.png","null","","","test","","","","","","","","","","","","","","","","","","","",""
"341","210472","SARL_v6","SARL_v6kld47gkx","62713a003caa3feec5c6a0ba","infreq","","","img/orange_2bandit_a2.png","68","","68","test","1","","109","","","","square","circle","105","18","5","0.8952380952380953","","","","","","","",""
"null","210935","SARL_v6","SARL_v6kld47gkx","62713a003caa3feec5c6a0ba","infreq_resp","","","img/orange_2bandit_a.png","68","img/orange_2bandit_a.png","68","test","","","","","","","","","","","5","","","","","","","","",""
"null","211088","SARL_v6","SARL_v6kld47gkx","62713a003caa3feec5c6a0ba","fixation","","","img/fixation.png","null","","","test","","","","","","","","","","","","","","","","","","","",""
"430","211520","SARL_v6","SARL_v6kld47gkx","62713a003caa3feec5c6a0ba","freq","","","img/blue_2bandit_a2.png","70","","70","test","1","","110","","","","square","circle","106","19","5","0.8962264150943396","","","","","","","",""
"null","211894","SARL_v6","SARL_v6kld47gkx","62713a003caa3feec5c6a0ba","freq_resp","","","img/blue_2bandit_a.png","70","img/blue_2bandit_a.png","70","test","","","","","","","","","","","5","","","","","","","","",""
"null","212060","SARL_v6","SARL_v6kld47gkx","62713a003caa3feec5c6a0ba","fixation","","","img/fixation.png","null","","","test","","","","","","","","","","","","","","","","","","","",""
"458","212520","SARL_v6","SARL_v6kld47gkx","62713a003caa3feec5c6a0ba","infreq","","","img/orange_2bandit_a2.png","68","","68","test","1","","111","","","","square","circle","107","20","5","0.897196261682243","","","","","","","",""
"null","212868","SARL_v6","SARL_v6kld47gkx","62713a003caa3feec5c6a0ba","infreq_resp","","","img/orange_2bandit_a.png","68","img/orange_2bandit_a.png","68","test","","","","","","","","","","","5","","","","","","","","",""
"null","213023","SARL_v6","SARL_v6kld47gkx","62713a003caa3feec5c6a0ba","fixation","","","img/fixation.png","null","","","test","","","","","","","","","","","","","","","","","","","",""
"520","213544","SARL_v6","SARL_v6kld47gkx","62713a003caa3feec5c6a0ba","freq","","","img/blue_2bandit_a2.png","70","","70","test","1","","112","","","","square","circle","108","21","5","0.8981481481481481","","","","","","","",""
"null","213826","SARL_v6","SARL_v6kld47gkx","62713a003caa3feec5c6a0ba","freq_resp","","","img/blue_2bandit_a.png","70","img/blue_2bandit_a.png","70","test","","","","","","","","","","","5","","","","","","","","",""
"null","213991","SARL_v6","SARL_v6kld47gkx","62713a003caa3feec5c6a0ba","fixation","","","img/fixation.png","null","","","test","","","","","","","","","","","","","","","","","","","",""
"342","214336","SARL_v6","SARL_v6kld47gkx","62713a003caa3feec5c6a0ba","freq","","","img/blue_2bandit_a2.png","70","","70","test","1","","113","","","","square","circle","109","22","5","0.8990825688073395","","","","","","","",""
"null","214798","SARL_v6","SARL_v6kld47gkx","62713a003caa3feec5c6a0ba","freq_resp","","","img/blue_2bandit_a.png","70","img/blue_2bandit_a.png","70","test","","","","","","","","","","","5","","","","","","","","",""
"null","214962","SARL_v6","SARL_v6kld47gkx","62713a003caa3feec5c6a0ba","fixation","","","img/fixation.png","null","","","test","","","","","","","","","","","","","","","","","","","",""
"292","215256","SARL_v6","SARL_v6kld47gkx","62713a003caa3feec5c6a0ba","freq","","","img/blue_2bandit_a2.png","70","","70","test","1","","114","","","","square","circle","110","23","5","0.9","","","","","","","",""
"null","215767","SARL_v6","SARL_v6kld47gkx","62713a003caa3feec5c6a0ba","freq_resp","","","img/blue_2bandit_a.png","70","img/blue_2bandit_a.png","70","test","","","","","","","","","","","5","","","","","","","","",""
"null","215920","SARL_v6","SARL_v6kld47gkx","62713a003caa3feec5c6a0ba","fixation","","","img/fixation.png","null","","","test","","","","","","","","","","","","","","","","","","","",""
"262","216183","SARL_v6","SARL_v6kld47gkx","62713a003caa3feec5c6a0ba","freq","","","img/blue_2bandit_a2.png","70","","70","test","1","","115","","","","square","circle","111","24","5","0.9009009009009009","","","","","","","",""
"null","216736","SARL_v6","SARL_v6kld47gkx","62713a003caa3feec5c6a0ba","freq_resp","","","img/blue_2bandit_a.png","70","img/blue_2bandit_a.png","70","test","","","","","","","","","","","5","","","","","","","","",""
"null","216888","SARL_v6","SARL_v6kld47gkx","62713a003caa3feec5c6a0ba","fixation","","","img/fixation.png","null","","","test","","","","","","","","","","","","","","","","","","","",""
"221","217112","SARL_v6","SARL_v6kld47gkx","62713a003caa3feec5c6a0ba","freq","","","img/blue_2bandit_a2.png","70","","70","test","1","","116","","","","square","circle","112","25","5","0.9017857142857143","","","","","","","",""
"null","217694","SARL_v6","SARL_v6kld47gkx","62713a003caa3feec5c6a0ba","freq_resp","","","img/blue_2bandit_a.png","70","img/blue_2bandit_a.png","70","test","","","","","","","","","","","5","","","","","","","","",""
"null","217847","SARL_v6","SARL_v6kld47gkx","62713a003caa3feec5c6a0ba","fixation","","","img/fixation.png","null","","","test","","","","","","","","","","","","","","","","","","","",""
"639","218487","SARL_v6","SARL_v6kld47gkx","62713a003caa3feec5c6a0ba","rl","","","img/black_2bandit_a2.png","75","","0","test","","","117","","","-7","square","circle","","0","5","","75","-7","4","4","-7","circle","5","0"
"null","219244","SARL_v6","SARL_v6kld47gkx","62713a003caa3feec5c6a0ba","feedback","","","<div class=""verylowPoints""> -7 </div>","null","","na","test","","","NaN","","","","","","","","5","","75","","","","","","5",""
"346","219591","SARL_v6","SARL_v6kld47gkx","62713a003caa3feec5c6a0ba","freq","","","img/blue_2bandit_a2.png","70","","70","test","1","","118","","","","square","circle","113","1","6","0.9026548672566371","","","","","","","",""
"null","220050","SARL_v6","SARL_v6kld47gkx","62713a003caa3feec5c6a0ba","freq_resp","","","img/blue_2bandit_a.png","70","img/blue_2bandit_a.png","70","test","","","","","","","","","","","6","","","","","","","","",""
"null","220215","SARL_v6","SARL_v6kld47gkx","62713a003caa3feec5c6a0ba","fixation","","","img/fixation.png","null","","","test","","","","","","","","","","","","","","","","","","","",""
"359","220575","SARL_v6","SARL_v6kld47gkx","62713a003caa3feec5c6a0ba","freq","","","img/blue_2bandit_a2.png","70","","70","test","1","","119","","","","square","circle","114","2","6","0.9035087719298246","","","","","","","",""
"null","221020","SARL_v6","SARL_v6kld47gkx","62713a003caa3feec5c6a0ba","freq_resp","","","img/blue_2bandit_a.png","70","img/blue_2bandit_a.png","70","test","","","","","","","","","","","6","","","","","","","","",""
"null","221174","SARL_v6","SARL_v6kld47gkx","62713a003caa3feec5c6a0ba","fixation","","","img/fixation.png","null","","","test","","","","","","","","","","","","","","","","","","","",""
"329","221503","SARL_v6","SARL_v6kld47gkx","62713a003caa3feec5c6a0ba","freq","","","img/blue_2bandit_a2.png","70","","70","test","1","","120","","","","square","circle","115","3","6","0.9043478260869565","","","","","","","",""
"null","221981","SARL_v6","SARL_v6kld47gkx","62713a003caa3feec5c6a0ba","freq_resp","","","img/blue_2bandit_a.png","70","img/blue_2bandit_a.png","70","test","","","","","","","","","","","6","","","","","","","","",""
"null","222148","SARL_v6","SARL_v6kld47gkx","62713a003caa3feec5c6a0ba","fixation","","","img/fixation.png","null","","","test","","","","","","","","","","","","","","","","","","","",""
"220","222368","SARL_v6","SARL_v6kld47gkx","62713a003caa3feec5c6a0ba","freq","","","img/blue_2bandit_a2.png","70","","70","test","1","","121","","","","square","circle","116","4","6","0.9051724137931034","","","","","","","",""
"null","222950","SARL_v6","SARL_v6kld47gkx","62713a003caa3feec5c6a0ba","freq_resp","","","img/blue_2bandit_a.png","70","img/blue_2bandit_a.png","70","test","","","","","","","","","","","6","","","","","","","","",""
"null","223101","SARL_v6","SARL_v6kld47gkx","62713a003caa3feec5c6a0ba","fixation","","","img/fixation.png","null","","","test","","","","","","","","","","","","","","","","","","","",""
"249","223351","SARL_v6","SARL_v6kld47gkx","62713a003caa3feec5c6a0ba","freq","","","img/blue_2bandit_a2.png","70","","70","test","1","","122","","","","square","circle","117","5","6","0.905982905982906","","","","","","","",""
"null","223909","SARL_v6","SARL_v6kld47gkx","62713a003caa3feec5c6a0ba","freq_resp","","","img/blue_2bandit_a.png","70","img/blue_2bandit_a.png","70","test","","","","","","","","","","","6","","","","","","","","",""
"null","224062","SARL_v6","SARL_v6kld47gkx","62713a003caa3feec5c6a0ba","fixation","","","img/fixation.png","null","","","test","","","","","","","","","","","","","","","","","","","",""
"264","224327","SARL_v6","SARL_v6kld47gkx","62713a003caa3feec5c6a0ba","freq","","","img/blue_2bandit_a2.png","70","","70","test","1","","123","","","","square","circle","118","6","6","0.9067796610169492","","","","","","","",""
"null","224879","SARL_v6","SARL_v6kld47gkx","62713a003caa3feec5c6a0ba","freq_resp","","","img/blue_2bandit_a.png","70","img/blue_2bandit_a.png","70","test","","","","","","","","","","","6","","","","","","","","",""
"null","225046","SARL_v6","SARL_v6kld47gkx","62713a003caa3feec5c6a0ba","fixation","","","img/fixation.png","null","","","test","","","","","","","","","","","","","","","","","","","",""
"280","225328","SARL_v6","SARL_v6kld47gkx","62713a003caa3feec5c6a0ba","freq","","","img/blue_2bandit_a2.png","70","","70","test","1","","124","","","","square","circle","119","7","6","0.907563025210084","","","","","","","",""
"null","225862","SARL_v6","SARL_v6kld47gkx","62713a003caa3feec5c6a0ba","freq_resp","","","img/blue_2bandit_a.png","70","img/blue_2bandit_a.png","70","test","","","","","","","","","","","6","","","","","","","","",""
"null","226013","SARL_v6","SARL_v6kld47gkx","62713a003caa3feec5c6a0ba","fixation","","","img/fixation.png","null","","","test","","","","","","","","","","","","","","","","","","","",""
"304","226320","SARL_v6","SARL_v6kld47gkx","62713a003caa3feec5c6a0ba","freq","","","img/blue_2bandit_a2.png","70","","70","test","1","","125","","","","square","circle","120","8","6","0.9083333333333333","","","","","","","",""
"null","226819","SARL_v6","SARL_v6kld47gkx","62713a003caa3feec5c6a0ba","freq_resp","","","img/blue_2bandit_a.png","70","img/blue_2bandit_a.png","70","test","","","","","","","","","","","6","","","","","","","","",""
"null","226971","SARL_v6","SARL_v6kld47gkx","62713a003caa3feec5c6a0ba","fixation","","","img/fixation.png","null","","","test","","","","","","","","","","","","","","","","","","","",""
"330","227304","SARL_v6","SARL_v6kld47gkx","62713a003caa3feec5c6a0ba","freq","","","img/blue_2bandit_a2.png","70","","70","test","1","","126","","","","square","circle","121","9","6","0.9090909090909091","","","","","","","",""
"null","227789","SARL_v6","SARL_v6kld47gkx","62713a003caa3feec5c6a0ba","freq_resp","","","img/blue_2bandit_a.png","70","img/blue_2bandit_a.png","70","test","","","","","","","","","","","6","","","","","","","","",""
"null","227942","SARL_v6","SARL_v6kld47gkx","62713a003caa3feec5c6a0ba","fixation","","","img/fixation.png","null","","","test","","","","","","","","","","","","","","","","","","","",""
"263","228208","SARL_v6","SARL_v6kld47gkx","62713a003caa3feec5c6a0ba","freq","","","img/blue_2bandit_a2.png","70","","70","test","1","","127","","","","square","circle","122","10","6","0.9098360655737705","","","","","","","",""
"null","228754","SARL_v6","SARL_v6kld47gkx","62713a003caa3feec5c6a0ba","freq_resp","","","img/blue_2bandit_a.png","70","img/blue_2bandit_a.png","70","test","","","","","","","","","","","6","","","","","","","","",""
"null","228905","SARL_v6","SARL_v6kld47gkx","62713a003caa3feec5c6a0ba","fixation","","","img/fixation.png","null","","","test","","","","","","","","","","","","","","","","","","","",""
"260","229167","SARL_v6","SARL_v6kld47gkx","62713a003caa3feec5c6a0ba","freq","","","img/blue_2bandit_a2.png","70","","70","test","1","","128","","","","square","circle","123","11","6","0.9105691056910569","","","","","","","",""
"null","229724","SARL_v6","SARL_v6kld47gkx","62713a003caa3feec5c6a0ba","freq_resp","","","img/blue_2bandit_a.png","70","img/blue_2bandit_a.png","70","test","","","","","","","","","","","6","","","","","","","","",""
"null","229888","SARL_v6","SARL_v6kld47gkx","62713a003caa3feec5c6a0ba","fixation","","","img/fixation.png","null","","","test","","","","","","","","","","","","","","","","","","","",""
"181","230072","SARL_v6","SARL_v6kld47gkx","62713a003caa3feec5c6a0ba","freq","","","img/blue_2bandit_a2.png","70","","70","test","1","","129","","","","square","circle","124","12","6","0.9112903225806451","","","","","","","",""
"null","230694","SARL_v6","SARL_v6kld47gkx","62713a003caa3feec5c6a0ba","freq_resp","","","img/blue_2bandit_a.png","70","img/blue_2bandit_a.png","70","test","","","","","","","","","","","6","","","","","","","","",""
"null","230861","SARL_v6","SARL_v6kld47gkx","62713a003caa3feec5c6a0ba","fixation","","","img/fixation.png","null","","","test","","","","","","","","","","","","","","","","","","","",""
"114","230976","SARL_v6","SARL_v6kld47gkx","62713a003caa3feec5c6a0ba","freq","","","img/blue_2bandit_a2.png","70","","70","test","1","","130","","","","square","circle","125","13","6","0.912","","","","","","","",""
"null","231663","SARL_v6","SARL_v6kld47gkx","62713a003caa3feec5c6a0ba","freq_resp","","","img/blue_2bandit_a.png","70","img/blue_2bandit_a.png","70","test","","","","","","","","","","","6","","","","","","","","",""
"null","231829","SARL_v6","SARL_v6kld47gkx","62713a003caa3feec5c6a0ba","fixation","","","img/fixation.png","null","","","test","","","","","","","","","","","","","","","","","","","",""
"153","231984","SARL_v6","SARL_v6kld47gkx","62713a003caa3feec5c6a0ba","infreq","","","img/orange_2bandit_a2.png","70","","68","test","0","","131","","","","square","circle","126","14","6","0.9047619047619048","","","","","","","",""
"null","232636","SARL_v6","SARL_v6kld47gkx","62713a003caa3feec5c6a0ba","infreq_resp","","","img/orange_2bandit_a.png","70","img/orange_2bandit_a.png","68","test","","","","","","","","","","","6","","","","","","","","",""
"null","232789","SARL_v6","SARL_v6kld47gkx","62713a003caa3feec5c6a0ba","fixation","","","img/fixation.png","null","","","test","","","","","","","","","","","","","","","","","","","",""
"129","232920","SARL_v6","SARL_v6kld47gkx","62713a003caa3feec5c6a0ba","freq","","","img/blue_2bandit_a2.png","70","","70","test","1","","132","","","","square","circle","127","15","6","0.905511811023622","","","","","","","",""
"null","233593","SARL_v6","SARL_v6kld47gkx","62713a003caa3feec5c6a0ba","freq_resp","","","img/blue_2bandit_a.png","70","img/blue_2bandit_a.png","70","test","","","","","","","","","","","6","","","","","","","","",""
"null","233760","SARL_v6","SARL_v6kld47gkx","62713a003caa3feec5c6a0ba","fixation","","","img/fixation.png","null","","","test","","","","","","","","","","","","","","","","","","","",""
"30","233792","SARL_v6","SARL_v6kld47gkx","62713a003caa3feec5c6a0ba","freq","","","img/blue_2bandit_a2.png","70","","70","test","1","","133","","","","square","circle","128","16","6","0.90625","","","","","","","",""
"null","234563","SARL_v6","SARL_v6kld47gkx","62713a003caa3feec5c6a0ba","freq_resp","","","img/blue_2bandit_a.png","70","img/blue_2bandit_a.png","70","test","","","","","","","","","","","6","","","","","","","","",""
"null","234716","SARL_v6","SARL_v6kld47gkx","62713a003caa3feec5c6a0ba","fixation","","","img/fixation.png","null","","","test","","","","","","","","","","","","","","","","","","","",""
"98","234815","SARL_v6","SARL_v6kld47gkx","62713a003caa3feec5c6a0ba","freq","","","img/blue_2bandit_a2.png","70","","70","test","1","","134","","","","square","circle","129","17","6","0.9069767441860465","","","","","","","",""
