"rt","time_elapsed","expId","subject","prolificID","trialType","rlType","attType","stimulus","key_press","stim","corrresp","phase","corr","pracCounter","trialNum","rewardOne","rewardTwo","reward","bandOne","bandTwo","attentionNum","attentionRunNum","blockNum","performance","bandChosen","circleVal","squareVal","bandOneVal","bandTwoVal","shapeChosen","rlNum","badFlag"
"114640.3999999999","114643","SARL_v6","SARL_v673kwo8g9","5ba740e19629a90001b3b1c5","","","","","","","","","","","","","","","","","","","","","","","","","","","",""
"","117383","SARL_v6","SARL_v673kwo8g9","5ba740e19629a90001b3b1c5","fullscreen","fullscreen","fullscreen","","","","","","","","","","","","","","","","","","","","","","","","",""
"113785.40000000037","231171","SARL_v6","SARL_v673kwo8g9","5ba740e19629a90001b3b1c5","","","","","","","","","","","","","","","","","","","","","","","","","","","",""
"670.7000000001863","231845","SARL_v6","SARL_v673kwo8g9","5ba740e19629a90001b3b1c5","freqPrac","","","img/blue_2bandit_b2.png","70","img/blue_2bandit_b2.png","70","prac","1","0","","","","","","","","","","","","","","","","","",""
"670.7000000001863","231985","SARL_v6","SARL_v673kwo8g9","5ba740e19629a90001b3b1c5","freqPrac_resp","","","img/blue_2bandit_b.png","70","img/blue_2bandit_b.png","70","prac","","","","","","","","","","","","","","","","","","","",""
"null","232140","SARL_v6","SARL_v673kwo8g9","5ba740e19629a90001b3b1c5","fixation","","","img/fixation.png","null","","","prac","","","","","","","","","","","","","","","","","","","",""
"557.2999999998137","232699","SARL_v6","SARL_v673kwo8g9","5ba740e19629a90001b3b1c5","infreqPrac","","","img/orange_2bandit_b2.png","68","img/orange_2bandit_b2.png","68","prac","1","0","","","","","","","","","","","","","","","","","",""
"557.2999999998137","232952","SARL_v6","SARL_v673kwo8g9","5ba740e19629a90001b3b1c5","infreqPrac_resp","","","img/orange_2bandit_b.png","68","img/orange_2bandit_b.png","68","prac","","","","","","","","","","","","","","","","","","","",""
"null","233108","SARL_v6","SARL_v673kwo8g9","5ba740e19629a90001b3b1c5","fixation","","","img/fixation.png","null","","","prac","","","","","","","","","","","","","","","","","","","",""
"445.20000000018626","233555","SARL_v6","SARL_v673kwo8g9","5ba740e19629a90001b3b1c5","freqPrac","","","img/blue_2bandit_b2.png","70","img/blue_2bandit_b2.png","70","prac","1","0","","","","","","","","","","","","","","","","","",""
"445.20000000018626","233921","SARL_v6","SARL_v673kwo8g9","5ba740e19629a90001b3b1c5","freqPrac_resp","","","img/blue_2bandit_b.png","70","img/blue_2bandit_b.png","70","prac","","","","","","","","","","","","","","","","","","","",""
"null","234077","SARL_v6","SARL_v673kwo8g9","5ba740e19629a90001b3b1c5","fixation","","","img/fixation.png","null","","","prac","","","","","","","","","","","","","","","","","","","",""
"348","234427","SARL_v6","SARL_v673kwo8g9","5ba740e19629a90001b3b1c5","infreqPrac","","","img/orange_2bandit_b2.png","68","img/orange_2bandit_b2.png","68","prac","1","0","","","","","","","","","","","","","","","","","",""
"348","234888","SARL_v6","SARL_v673kwo8g9","5ba740e19629a90001b3b1c5","infreqPrac_resp","","","img/orange_2bandit_b.png","68","img/orange_2bandit_b.png","68","prac","","","","","","","","","","","","","","","","","","","",""
"null","235043","SARL_v6","SARL_v673kwo8g9","5ba740e19629a90001b3b1c5","fixation","","","img/fixation.png","null","","","prac","","","","","","","","","","","","","","","","","","","",""
"446.29999999981374","235491","SARL_v6","SARL_v673kwo8g9","5ba740e19629a90001b3b1c5","infreqPrac","","","img/orange_2bandit_b2.png","70","img/orange_2bandit_b2.png","68","prac","0","1","","","","","","","","","","","","","","","","","",""
"446.29999999981374","235855","SARL_v6","SARL_v673kwo8g9","5ba740e19629a90001b3b1c5","infreqPrac_resp","","","img/orange_2bandit_b.png","70","img/orange_2bandit_b.png","68","prac","","","","","","","","","","","","","","","","","","","",""
"null","236872","SARL_v6","SARL_v673kwo8g9","5ba740e19629a90001b3b1c5","feedback","","","img/wrongKey.png","null","","na","prac","","","","","","","","","","","","","","","","","","","",""
"null","237026","SARL_v6","SARL_v673kwo8g9","5ba740e19629a90001b3b1c5","fixation","","","img/fixation.png","null","","","prac","","","","","","","","","","","","","","","","","","","",""
"478.8999999994412","237507","SARL_v6","SARL_v673kwo8g9","5ba740e19629a90001b3b1c5","infreqPrac","","","img/orange_2bandit_b2.png","68","img/orange_2bandit_b2.png","68","prac","1","1","","","","","","","","","","","","","","","","","",""
"478.8999999994412","237838","SARL_v6","SARL_v673kwo8g9","5ba740e19629a90001b3b1c5","infreqPrac_resp","","","img/orange_2bandit_b.png","68","img/orange_2bandit_b.png","68","prac","","","","","","","","","","","","","","","","","","","",""
"null","237993","SARL_v6","SARL_v673kwo8g9","5ba740e19629a90001b3b1c5","fixation","","","img/fixation.png","null","","","prac","","","","","","","","","","","","","","","","","","","",""
"544.0999999996275","238539","SARL_v6","SARL_v673kwo8g9","5ba740e19629a90001b3b1c5","freqPrac","","","img/blue_2bandit_b2.png","70","img/blue_2bandit_b2.png","70","prac","1","1","","","","","","","","","","","","","","","","","",""
"544.0999999996275","238796","SARL_v6","SARL_v673kwo8g9","5ba740e19629a90001b3b1c5","freqPrac_resp","","","img/blue_2bandit_b.png","70","img/blue_2bandit_b.png","70","prac","","","","","","","","","","","","","","","","","","","",""
"null","238949","SARL_v6","SARL_v673kwo8g9","5ba740e19629a90001b3b1c5","fixation","","","img/fixation.png","null","","","prac","","","","","","","","","","","","","","","","","","","",""
"436.20000000018626","239387","SARL_v6","SARL_v673kwo8g9","5ba740e19629a90001b3b1c5","infreqPrac","","","img/orange_2bandit_b2.png","68","img/orange_2bandit_b2.png","68","prac","1","1","","","","","","","","","","","","","","","","","",""
"436.20000000018626","239755","SARL_v6","SARL_v673kwo8g9","5ba740e19629a90001b3b1c5","infreqPrac_resp","","","img/orange_2bandit_b.png","68","img/orange_2bandit_b.png","68","prac","","","","","","","","","","","","","","","","","","","",""
"null","239912","SARL_v6","SARL_v673kwo8g9","5ba740e19629a90001b3b1c5","fixation","","","img/fixation.png","null","","","prac","","","","","","","","","","","","","","","","","","","",""
"593.2999999998137","240507","SARL_v6","SARL_v673kwo8g9","5ba740e19629a90001b3b1c5","freqPrac","","","img/blue_2bandit_b2.png","70","img/blue_2bandit_b2.png","70","prac","1","1","","","","","","","","","","","","","","","","","",""
"593.2999999998137","240719","SARL_v6","SARL_v673kwo8g9","5ba740e19629a90001b3b1c5","freqPrac_resp","","","img/blue_2bandit_b.png","70","img/blue_2bandit_b.png","70","prac","","","","","","","","","","","","","","","","","","","",""
"null","240874","SARL_v6","SARL_v673kwo8g9","5ba740e19629a90001b3b1c5","fixation","","","img/fixation.png","null","","","prac","","","","","","","","","","","","","","","","","","","",""
"527.9000000003725","241403","SARL_v6","SARL_v673kwo8g9","5ba740e19629a90001b3b1c5","freqPrac","","","img/blue_2bandit_b2.png","70","img/blue_2bandit_b2.png","70","prac","1","1","","","","","","","","","","","","","","","","","",""
"527.9000000003725","241686","SARL_v6","SARL_v673kwo8g9","5ba740e19629a90001b3b1c5","freqPrac_resp","","","img/blue_2bandit_b.png","70","img/blue_2bandit_b.png","70","prac","","","","","","","","","","","","","","","","","","","",""
"null","241839","SARL_v6","SARL_v673kwo8g9","5ba740e19629a90001b3b1c5","fixation","","","img/fixation.png","null","","","prac","","","","","","","","","","","","","","","","","","","",""
"33122.59999999963","274964","SARL_v6","SARL_v673kwo8g9","5ba740e19629a90001b3b1c5","","","","","","","","prac","","","","","","","","","","","","","","","","","","","",""
"741.7000000001863","275707","SARL_v6","SARL_v673kwo8g9","5ba740e19629a90001b3b1c5","rlPractice","","","img/black_2bandit_b2.png","74","img/black_2bandit_b2.png","","prac","","","0","","","","","","","","","","","","","","","","",""
"null","276474","SARL_v6","SARL_v673kwo8g9","5ba740e19629a90001b3b1c5","feedback","","","<div class=""veryhighPoints""> 10 </div>","null","","na","prac","","","1","10","-14","10","","","","","","","","","","","","","",""
"null","276627","SARL_v6","SARL_v673kwo8g9","5ba740e19629a90001b3b1c5","fixation","","","img/fixation.png","null","","","prac","","","","","","","","","","","","","","","","","","","",""
"543.0999999996275","277172","SARL_v6","SARL_v673kwo8g9","5ba740e19629a90001b3b1c5","rlPractice","","","img/black_2bandit_b2.png","75","img/black_2bandit_b2.png","","prac","","","1","","","","","","","","","","","","","","","","",""
"null","277934","SARL_v6","SARL_v673kwo8g9","5ba740e19629a90001b3b1c5","feedback","","","<div class=""verylowPoints_sq""> -5 </div>","null","","na","prac","","","2","5","-5","5","","","","","","","","","","","","","",""
"null","278090","SARL_v6","SARL_v673kwo8g9","5ba740e19629a90001b3b1c5","fixation","","","img/fixation.png","null","","","prac","","","","","","","","","","","","","","","","","","","",""
"336.40000000037253","278427","SARL_v6","SARL_v673kwo8g9","5ba740e19629a90001b3b1c5","rlPractice","","","img/black_2bandit_b2.png","75","img/black_2bandit_b2.png","","prac","","","2","","","","","","","","","","","","","","","","",""
"null","279181","SARL_v6","SARL_v673kwo8g9","5ba740e19629a90001b3b1c5","feedback","","","<div class=""veryhighPoints_sq""> 2 </div>","null","","na","prac","","","3","30","2","30","","","","","","","","","","","","","",""
"null","279338","SARL_v6","SARL_v673kwo8g9","5ba740e19629a90001b3b1c5","fixation","","","img/fixation.png","null","","","prac","","","","","","","","","","","","","","","","","","","",""
"488.19999999925494","279827","SARL_v6","SARL_v673kwo8g9","5ba740e19629a90001b3b1c5","rlPractice","","","img/black_2bandit_b2.png","75","img/black_2bandit_b2.png","","prac","","","3","","","","","","","","","","","","","","","","",""
"null","280582","SARL_v6","SARL_v673kwo8g9","5ba740e19629a90001b3b1c5","feedback","","","<div class=""veryhighPoints_sq""> 20 </div>","null","","na","prac","","","4","-2","20","-2","","","","","","","","","","","","","",""
"null","280738","SARL_v6","SARL_v673kwo8g9","5ba740e19629a90001b3b1c5","fixation","","","img/fixation.png","null","","","prac","","","","","","","","","","","","","","","","","","","",""
"18448.699999999255","299188","SARL_v6","SARL_v673kwo8g9","5ba740e19629a90001b3b1c5","","","","","","","","prac","","","","","","","","","","","","","","","","","","","",""
"757.5","299948","SARL_v6","SARL_v673kwo8g9","5ba740e19629a90001b3b1c5","mixAttFreqPrac","","","img/blue_2bandit_b2.png","70","img/blue_2bandit_b2.png","70","prac","","","1","","","","","","","","","","","","","","","","",""
"757.5","300002","SARL_v6","SARL_v673kwo8g9","5ba740e19629a90001b3b1c5","freqPrac_resp","","","img/blue_2bandit_b.png","70","img/blue_2bandit_b.png","70","prac","","","1","","","","","","","","","","","","","","","","",""
"null","300158","SARL_v6","SARL_v673kwo8g9","5ba740e19629a90001b3b1c5","fixation","","","img/fixation.png","null","","","prac","","","","","","","","","","","","","","","","","","","",""
"540.0999999996275","300700","SARL_v6","SARL_v673kwo8g9","5ba740e19629a90001b3b1c5","mixAttInfreqPrac","","","img/orange_2bandit_b2.png","68","img/orange_2bandit_b2.png","68","prac","","","2","","","","","","","","","","","","","","","","",""
"540.0999999996275","300965","SARL_v6","SARL_v673kwo8g9","5ba740e19629a90001b3b1c5","infreqPrac_resp","","","img/orange_2bandit_b.png","68","img/blue_2bandit_b.png","68","prac","","","2","","","","","","","","","","","","","","","","",""
"null","301121","SARL_v6","SARL_v673kwo8g9","5ba740e19629a90001b3b1c5","fixation","","","img/fixation.png","null","","","prac","","","","","","","","","","","","","","","","","","","",""
"729.4000000003725","301852","SARL_v6","SARL_v673kwo8g9","5ba740e19629a90001b3b1c5","mixAttInfreqPrac","","","img/orange_2bandit_b2.png","68","img/orange_2bandit_b2.png","68","prac","","","3","","","","","","","","","","","","","","","","",""
"729.4000000003725","301930","SARL_v6","SARL_v673kwo8g9","5ba740e19629a90001b3b1c5","infreqPrac_resp","","","img/orange_2bandit_b.png","68","img/blue_2bandit_b.png","68","prac","","","3","","","","","","","","","","","","","","","","",""
"null","302087","SARL_v6","SARL_v673kwo8g9","5ba740e19629a90001b3b1c5","fixation","","","img/fixation.png","null","","","prac","","","","","","","","","","","","","","","","","","","",""
"475","302564","SARL_v6","SARL_v673kwo8g9","5ba740e19629a90001b3b1c5","mixAttInfreqPrac","","","img/orange_2bandit_b2.png","68","img/orange_2bandit_b2.png","68","prac","","","4","","","","","","","","","","","","","","","","",""
"475","302901","SARL_v6","SARL_v673kwo8g9","5ba740e19629a90001b3b1c5","infreqPrac_resp","","","img/orange_2bandit_b.png","68","img/blue_2bandit_b.png","68","prac","","","4","","","","","","","","","","","","","","","","",""
"null","303053","SARL_v6","SARL_v673kwo8g9","5ba740e19629a90001b3b1c5","fixation","","","img/fixation.png","null","","","prac","","","","","","","","","","","","","","","","","","","",""
"660.9000000003725","303716","SARL_v6","SARL_v673kwo8g9","5ba740e19629a90001b3b1c5","mixAttFreqPrac","","","img/blue_2bandit_b2.png","70","img/blue_2bandit_b2.png","70","prac","","","5","","","","","","","","","","","","","","","","",""
"660.9000000003725","303871","SARL_v6","SARL_v673kwo8g9","5ba740e19629a90001b3b1c5","freqPrac_resp","","","img/blue_2bandit_b.png","70","img/blue_2bandit_b.png","70","prac","","","5","","","","","","","","","","","","","","","","",""
"null","304024","SARL_v6","SARL_v673kwo8g9","5ba740e19629a90001b3b1c5","fixation","","","img/fixation.png","null","","","prac","","","","","","","","","","","","","","","","","","","",""
"569.7000000001863","304596","SARL_v6","SARL_v673kwo8g9","5ba740e19629a90001b3b1c5","mixRLPractice","","","img/black_2bandit_b2.png","75","img/black_2bandit_b2.png","","prac","","","5","","","","","","","","","","","","","","","","",""
"null","305351","SARL_v6","SARL_v673kwo8g9","5ba740e19629a90001b3b1c5","feedback","","","<div class=""veryhighPoints_sq""> 10 </div>","null","","na","prac","","","6","-14","10","-14","","","","","","","","","","","","","",""
"null","305505","SARL_v6","SARL_v673kwo8g9","5ba740e19629a90001b3b1c5","fixation","","","img/fixation.png","null","","","prac","","","","","","","","","","","","","","","","","","","",""
"616.5","306124","SARL_v6","SARL_v673kwo8g9","5ba740e19629a90001b3b1c5","mixAttFreqPrac","","","img/blue_2bandit_b2.png","70","img/blue_2bandit_b2.png","70","prac","","","7","","","","","","","","","","","","","","","","",""
"616.5","306315","SARL_v6","SARL_v673kwo8g9","5ba740e19629a90001b3b1c5","freqPrac_resp","","","img/blue_2bandit_b.png","70","img/blue_2bandit_b.png","70","prac","","","7","","","","","","","","","","","","","","","","",""
"null","306469","SARL_v6","SARL_v673kwo8g9","5ba740e19629a90001b3b1c5","fixation","","","img/fixation.png","null","","","prac","","","","","","","","","","","","","","","","","","","",""
"548.6999999992549","307019","SARL_v6","SARL_v673kwo8g9","5ba740e19629a90001b3b1c5","mixAttInfreqPrac","","","img/orange_2bandit_b2.png","68","img/orange_2bandit_b2.png","68","prac","","","8","","","","","","","","","","","","","","","","",""
"548.6999999992549","307274","SARL_v6","SARL_v673kwo8g9","5ba740e19629a90001b3b1c5","infreqPrac_resp","","","img/orange_2bandit_b.png","68","img/blue_2bandit_b.png","68","prac","","","8","","","","","","","","","","","","","","","","",""
"null","307430","SARL_v6","SARL_v673kwo8g9","5ba740e19629a90001b3b1c5","fixation","","","img/fixation.png","null","","","prac","","","","","","","","","","","","","","","","","","","",""
"627.8999999994412","308060","SARL_v6","SARL_v673kwo8g9","5ba740e19629a90001b3b1c5","mixAttFreqPrac","","","img/blue_2bandit_b2.png","70","img/blue_2bandit_b2.png","70","prac","","","9","","","","","","","","","","","","","","","","",""
"627.8999999994412","308246","SARL_v6","SARL_v673kwo8g9","5ba740e19629a90001b3b1c5","freqPrac_resp","","","img/blue_2bandit_b.png","70","img/blue_2bandit_b.png","70","prac","","","9","","","","","","","","","","","","","","","","",""
"null","308402","SARL_v6","SARL_v673kwo8g9","5ba740e19629a90001b3b1c5","fixation","","","img/fixation.png","null","","","prac","","","","","","","","","","","","","","","","","","","",""
"559.5999999996275","308964","SARL_v6","SARL_v673kwo8g9","5ba740e19629a90001b3b1c5","mixAttFreqPrac","","","img/blue_2bandit_b2.png","70","img/blue_2bandit_b2.png","70","prac","","","10","","","","","","","","","","","","","","","","",""
"559.5999999996275","309209","SARL_v6","SARL_v673kwo8g9","5ba740e19629a90001b3b1c5","freqPrac_resp","","","img/blue_2bandit_b.png","70","img/blue_2bandit_b.png","70","prac","","","10","","","","","","","","","","","","","","","","",""
"null","309365","SARL_v6","SARL_v673kwo8g9","5ba740e19629a90001b3b1c5","fixation","","","img/fixation.png","null","","","prac","","","","","","","","","","","","","","","","","","","",""
"517.5999999996275","309884","SARL_v6","SARL_v673kwo8g9","5ba740e19629a90001b3b1c5","mixAttInfreqPrac","","","img/orange_2bandit_b2.png","68","img/orange_2bandit_b2.png","68","prac","","","11","","","","","","","","","","","","","","","","",""
"517.5999999996275","310172","SARL_v6","SARL_v673kwo8g9","5ba740e19629a90001b3b1c5","infreqPrac_resp","","","img/orange_2bandit_b.png","68","img/blue_2bandit_b.png","68","prac","","","11","","","","","","","","","","","","","","","","",""
"null","310327","SARL_v6","SARL_v673kwo8g9","5ba740e19629a90001b3b1c5","fixation","","","img/fixation.png","null","","","prac","","","","","","","","","","","","","","","","","","","",""
"554.5999999996275","310884","SARL_v6","SARL_v673kwo8g9","5ba740e19629a90001b3b1c5","mixRLPractice","","","img/black_2bandit_b2.png","75","img/black_2bandit_b2.png","","prac","","","11","","","","","","","","","","","","","","","","",""
"null","311637","SARL_v6","SARL_v673kwo8g9","5ba740e19629a90001b3b1c5","feedback","","","<div class=""verylowPoints_sq""> -5 </div>","null","","na","prac","","","12","5","-5","5","","","","","","","","","","","","","",""
"null","311791","SARL_v6","SARL_v673kwo8g9","5ba740e19629a90001b3b1c5","fixation","","","img/fixation.png","null","","","prac","","","","","","","","","","","","","","","","","","","",""
"12747.299999999814","324540","SARL_v6","SARL_v673kwo8g9","5ba740e19629a90001b3b1c5","","","","","","","","prac","","","","","","","","","","","","","","","","","","","",""
"572.8999999994412","325116","SARL_v6","SARL_v673kwo8g9","5ba740e19629a90001b3b1c5","freq","","","img/blue_2bandit_b2.png","70","","70","test","1","","1","","","","circle","square","1","1","1","1","","","","","","","",""
"null","325349","SARL_v6","SARL_v673kwo8g9","5ba740e19629a90001b3b1c5","freq_resp","","","img/blue_2bandit_b.png","70","img/blue_2bandit_b.png","70","test","","","","","","","","","","","1","","","","","","","","",""
"null","325504","SARL_v6","SARL_v673kwo8g9","5ba740e19629a90001b3b1c5","fixation","","","img/fixation.png","null","","","test","","","","","","","","","","","","","","","","","","","",""
"497.29999999981374","326003","SARL_v6","SARL_v673kwo8g9","5ba740e19629a90001b3b1c5","freq","","","img/blue_2bandit_b2.png","70","","70","test","1","","2","","","","circle","square","2","2","1","1","","","","","","","",""
"null","326318","SARL_v6","SARL_v673kwo8g9","5ba740e19629a90001b3b1c5","freq_resp","","","img/blue_2bandit_b.png","70","img/blue_2bandit_b.png","70","test","","","","","","","","","","","1","","","","","","","","",""
"null","326472","SARL_v6","SARL_v673kwo8g9","5ba740e19629a90001b3b1c5","fixation","","","img/fixation.png","null","","","test","","","","","","","","","","","","","","","","","","","",""
"497.09999999962747","326971","SARL_v6","SARL_v673kwo8g9","5ba740e19629a90001b3b1c5","freq","","","img/blue_2bandit_b2.png","70","","70","test","1","","3","","","","circle","square","3","3","1","1","","","","","","","",""
"null","327280","SARL_v6","SARL_v673kwo8g9","5ba740e19629a90001b3b1c5","freq_resp","","","img/blue_2bandit_b.png","70","img/blue_2bandit_b.png","70","test","","","","","","","","","","","1","","","","","","","","",""
"null","327435","SARL_v6","SARL_v673kwo8g9","5ba740e19629a90001b3b1c5","fixation","","","img/fixation.png","null","","","test","","","","","","","","","","","","","","","","","","","",""
"462","327899","SARL_v6","SARL_v673kwo8g9","5ba740e19629a90001b3b1c5","freq","","","img/blue_2bandit_b2.png","70","","70","test","1","","4","","","","circle","square","4","4","1","1","","","","","","","",""
"null","328247","SARL_v6","SARL_v673kwo8g9","5ba740e19629a90001b3b1c5","freq_resp","","","img/blue_2bandit_b.png","70","img/blue_2bandit_b.png","70","test","","","","","","","","","","","1","","","","","","","","",""
"null","328404","SARL_v6","SARL_v673kwo8g9","5ba740e19629a90001b3b1c5","fixation","","","img/fixation.png","null","","","test","","","","","","","","","","","","","","","","","","","",""
"469.8999999994412","328875","SARL_v6","SARL_v673kwo8g9","5ba740e19629a90001b3b1c5","freq","","","img/blue_2bandit_b2.png","70","","70","test","1","","5","","","","circle","square","5","5","1","1","","","","","","","",""
"null","329211","SARL_v6","SARL_v673kwo8g9","5ba740e19629a90001b3b1c5","freq_resp","","","img/blue_2bandit_b.png","70","img/blue_2bandit_b.png","70","test","","","","","","","","","","","1","","","","","","","","",""
"null","329364","SARL_v6","SARL_v673kwo8g9","5ba740e19629a90001b3b1c5","fixation","","","img/fixation.png","null","","","test","","","","","","","","","","","","","","","","","","","",""
"445.20000000018626","329811","SARL_v6","SARL_v673kwo8g9","5ba740e19629a90001b3b1c5","freq","","","img/blue_2bandit_b2.png","70","","70","test","1","","6","","","","circle","square","6","6","1","1","","","","","","","",""
"null","330175","SARL_v6","SARL_v673kwo8g9","5ba740e19629a90001b3b1c5","freq_resp","","","img/blue_2bandit_b.png","70","img/blue_2bandit_b.png","70","test","","","","","","","","","","","1","","","","","","","","",""
"null","330331","SARL_v6","SARL_v673kwo8g9","5ba740e19629a90001b3b1c5","fixation","","","img/fixation.png","null","","","test","","","","","","","","","","","","","","","","","","","",""
"446.79999999981374","330779","SARL_v6","SARL_v673kwo8g9","5ba740e19629a90001b3b1c5","freq","","","img/blue_2bandit_b2.png","70","","70","test","1","","7","","","","circle","square","7","7","1","1","","","","","","","",""
"null","331141","SARL_v6","SARL_v673kwo8g9","5ba740e19629a90001b3b1c5","freq_resp","","","img/blue_2bandit_b.png","70","img/blue_2bandit_b.png","70","test","","","","","","","","","","","1","","","","","","","","",""
"null","331297","SARL_v6","SARL_v673kwo8g9","5ba740e19629a90001b3b1c5","fixation","","","img/fixation.png","null","","","test","","","","","","","","","","","","","","","","","","","",""
"456.29999999981374","331755","SARL_v6","SARL_v673kwo8g9","5ba740e19629a90001b3b1c5","infreq","","","img/orange_2bandit_b2.png","68","","68","test","1","","8","","","","circle","square","8","8","1","1","","","","","","","",""
"null","332114","SARL_v6","SARL_v673kwo8g9","5ba740e19629a90001b3b1c5","infreq_resp","","","img/orange_2bandit_b.png","68","img/orange_2bandit_b.png","68","test","","","","","","","","","","","1","","","","","","","","",""
"null","332268","SARL_v6","SARL_v673kwo8g9","5ba740e19629a90001b3b1c5","fixation","","","img/fixation.png","null","","","test","","","","","","","","","","","","","","","","","","","",""
"477.8999999994412","332747","SARL_v6","SARL_v673kwo8g9","5ba740e19629a90001b3b1c5","freq","","","img/blue_2bandit_b2.png","70","","70","test","1","","9","","","","circle","square","9","9","1","1","","","","","","","",""
"null","333079","SARL_v6","SARL_v673kwo8g9","5ba740e19629a90001b3b1c5","freq_resp","","","img/blue_2bandit_b.png","70","img/blue_2bandit_b.png","70","test","","","","","","","","","","","1","","","","","","","","",""
"null","333236","SARL_v6","SARL_v673kwo8g9","5ba740e19629a90001b3b1c5","fixation","","","img/fixation.png","null","","","test","","","","","","","","","","","","","","","","","","","",""
"645.2999999998137","333883","SARL_v6","SARL_v673kwo8g9","5ba740e19629a90001b3b1c5","freq","","","img/blue_2bandit_b2.png","70","","70","test","1","","10","","","","circle","square","10","10","1","1","","","","","","","",""
"null","334043","SARL_v6","SARL_v673kwo8g9","5ba740e19629a90001b3b1c5","freq_resp","","","img/blue_2bandit_b.png","70","img/blue_2bandit_b.png","70","test","","","","","","","","","","","1","","","","","","","","",""
"null","334200","SARL_v6","SARL_v673kwo8g9","5ba740e19629a90001b3b1c5","fixation","","","img/fixation.png","null","","","test","","","","","","","","","","","","","","","","","","","",""
"585.3999999994412","334788","SARL_v6","SARL_v673kwo8g9","5ba740e19629a90001b3b1c5","freq","","","img/blue_2bandit_b2.png","70","","70","test","1","","11","","","","circle","square","11","11","1","1","","","","","","","",""
"null","335011","SARL_v6","SARL_v673kwo8g9","5ba740e19629a90001b3b1c5","freq_resp","","","img/blue_2bandit_b.png","70","img/blue_2bandit_b.png","70","test","","","","","","","","","","","1","","","","","","","","",""
"null","335167","SARL_v6","SARL_v673kwo8g9","5ba740e19629a90001b3b1c5","fixation","","","img/fixation.png","null","","","test","","","","","","","","","","","","","","","","","","","",""
"587.0999999996275","335756","SARL_v6","SARL_v673kwo8g9","5ba740e19629a90001b3b1c5","freq","","","img/blue_2bandit_b2.png","70","","70","test","1","","12","","","","circle","square","12","12","1","1","","","","","","","",""
"null","335977","SARL_v6","SARL_v673kwo8g9","5ba740e19629a90001b3b1c5","freq_resp","","","img/blue_2bandit_b.png","70","img/blue_2bandit_b.png","70","test","","","","","","","","","","","1","","","","","","","","",""
"null","336133","SARL_v6","SARL_v673kwo8g9","5ba740e19629a90001b3b1c5","fixation","","","img/fixation.png","null","","","test","","","","","","","","","","","","","","","","","","","",""
"580","336715","SARL_v6","SARL_v673kwo8g9","5ba740e19629a90001b3b1c5","freq","","","img/blue_2bandit_b2.png","70","","70","test","1","","13","","","","circle","square","13","13","1","1","","","","","","","",""
"null","336944","SARL_v6","SARL_v673kwo8g9","5ba740e19629a90001b3b1c5","freq_resp","","","img/blue_2bandit_b.png","70","img/blue_2bandit_b.png","70","test","","","","","","","","","","","1","","","","","","","","",""
"null","337096","SARL_v6","SARL_v673kwo8g9","5ba740e19629a90001b3b1c5","fixation","","","img/fixation.png","null","","","test","","","","","","","","","","","","","","","","","","","",""
"593.5","337691","SARL_v6","SARL_v673kwo8g9","5ba740e19629a90001b3b1c5","freq","","","img/blue_2bandit_b2.png","70","","70","test","1","","14","","","","circle","square","14","14","1","1","","","","","","","",""
"null","337914","SARL_v6","SARL_v673kwo8g9","5ba740e19629a90001b3b1c5","freq_resp","","","img/blue_2bandit_b.png","70","img/blue_2bandit_b.png","70","test","","","","","","","","","","","1","","","","","","","","",""
"null","338066","SARL_v6","SARL_v673kwo8g9","5ba740e19629a90001b3b1c5","fixation","","","img/fixation.png","null","","","test","","","","","","","","","","","","","","","","","","","",""
"519.3000000007451","338587","SARL_v6","SARL_v673kwo8g9","5ba740e19629a90001b3b1c5","infreq","","","img/orange_2bandit_b2.png","68","","68","test","1","","15","","","","circle","square","15","15","1","1","","","","","","","",""
"null","338877","SARL_v6","SARL_v673kwo8g9","5ba740e19629a90001b3b1c5","infreq_resp","","","img/orange_2bandit_b.png","68","img/orange_2bandit_b.png","68","test","","","","","","","","","","","1","","","","","","","","",""
"null","339030","SARL_v6","SARL_v673kwo8g9","5ba740e19629a90001b3b1c5","fixation","","","img/fixation.png","null","","","test","","","","","","","","","","","","","","","","","","","",""
"475.70000000018626","339507","SARL_v6","SARL_v673kwo8g9","5ba740e19629a90001b3b1c5","freq","","","img/blue_2bandit_b2.png","70","","70","test","1","","16","","","","circle","square","16","16","1","1","","","","","","","",""
"null","339837","SARL_v6","SARL_v673kwo8g9","5ba740e19629a90001b3b1c5","freq_resp","","","img/blue_2bandit_b.png","70","img/blue_2bandit_b.png","70","test","","","","","","","","","","","1","","","","","","","","",""
"null","339989","SARL_v6","SARL_v673kwo8g9","5ba740e19629a90001b3b1c5","fixation","","","img/fixation.png","null","","","test","","","","","","","","","","","","","","","","","","","",""
"412.59999999962747","340403","SARL_v6","SARL_v673kwo8g9","5ba740e19629a90001b3b1c5","freq","","","img/blue_2bandit_b2.png","70","","70","test","1","","17","","","","circle","square","17","17","1","1","","","","","","","",""
"null","340802","SARL_v6","SARL_v673kwo8g9","5ba740e19629a90001b3b1c5","freq_resp","","","img/blue_2bandit_b.png","70","img/blue_2bandit_b.png","70","test","","","","","","","","","","","1","","","","","","","","",""
"null","340957","SARL_v6","SARL_v673kwo8g9","5ba740e19629a90001b3b1c5","fixation","","","img/fixation.png","null","","","test","","","","","","","","","","","","","","","","","","","",""
"420.29999999981374","341379","SARL_v6","SARL_v673kwo8g9","5ba740e19629a90001b3b1c5","freq","","","img/blue_2bandit_b2.png","70","","70","test","1","","18","","","","circle","square","18","18","1","1","","","","","","","",""
"null","341767","SARL_v6","SARL_v673kwo8g9","5ba740e19629a90001b3b1c5","freq_resp","","","img/blue_2bandit_b.png","70","img/blue_2bandit_b.png","70","test","","","","","","","","","","","1","","","","","","","","",""
"null","341923","SARL_v6","SARL_v673kwo8g9","5ba740e19629a90001b3b1c5","fixation","","","img/fixation.png","null","","","test","","","","","","","","","","","","","","","","","","","",""
"383","342307","SARL_v6","SARL_v673kwo8g9","5ba740e19629a90001b3b1c5","freq","","","img/blue_2bandit_b2.png","70","","70","test","1","","19","","","","circle","square","19","19","1","1","","","","","","","",""
"null","342731","SARL_v6","SARL_v673kwo8g9","5ba740e19629a90001b3b1c5","freq_resp","","","img/blue_2bandit_b.png","70","img/blue_2bandit_b.png","70","test","","","","","","","","","","","1","","","","","","","","",""
"null","342886","SARL_v6","SARL_v673kwo8g9","5ba740e19629a90001b3b1c5","fixation","","","img/fixation.png","null","","","test","","","","","","","","","","","","","","","","","","","",""
"404.29999999981374","343292","SARL_v6","SARL_v673kwo8g9","5ba740e19629a90001b3b1c5","freq","","","img/blue_2bandit_b2.png","70","","70","test","1","","20","","","","circle","square","20","20","1","1","","","","","","","",""
"null","343698","SARL_v6","SARL_v673kwo8g9","5ba740e19629a90001b3b1c5","freq_resp","","","img/blue_2bandit_b.png","70","img/blue_2bandit_b.png","70","test","","","","","","","","","","","1","","","","","","","","",""
"null","343852","SARL_v6","SARL_v673kwo8g9","5ba740e19629a90001b3b1c5","fixation","","","img/fixation.png","null","","","test","","","","","","","","","","","","","","","","","","","",""
"397.20000000018626","344251","SARL_v6","SARL_v673kwo8g9","5ba740e19629a90001b3b1c5","freq","","","img/blue_2bandit_b2.png","70","","70","test","1","","21","","","","circle","square","21","21","1","1","","","","","","","",""
"null","344661","SARL_v6","SARL_v673kwo8g9","5ba740e19629a90001b3b1c5","freq_resp","","","img/blue_2bandit_b.png","70","img/blue_2bandit_b.png","70","test","","","","","","","","","","","1","","","","","","","","",""
"null","344815","SARL_v6","SARL_v673kwo8g9","5ba740e19629a90001b3b1c5","fixation","","","img/fixation.png","null","","","test","","","","","","","","","","","","","","","","","","","",""
"378.5","345196","SARL_v6","SARL_v673kwo8g9","5ba740e19629a90001b3b1c5","freq","","","img/blue_2bandit_b2.png","70","","70","test","1","","22","","","","circle","square","22","22","1","1","","","","","","","",""
"null","345624","SARL_v6","SARL_v673kwo8g9","5ba740e19629a90001b3b1c5","freq_resp","","","img/blue_2bandit_b.png","70","img/blue_2bandit_b.png","70","test","","","","","","","","","","","1","","","","","","","","",""
"null","345781","SARL_v6","SARL_v673kwo8g9","5ba740e19629a90001b3b1c5","fixation","","","img/fixation.png","null","","","test","","","","","","","","","","","","","","","","","","","",""
"852.7000000001863","346636","SARL_v6","SARL_v673kwo8g9","5ba740e19629a90001b3b1c5","rl","","","img/black_2bandit_b2.png","74","","0","test","","","23","","","-3","circle","square","","0","1","","74","-3","-3","-3","-3","circle","1","0"
"null","347396","SARL_v6","SARL_v673kwo8g9","5ba740e19629a90001b3b1c5","feedback","","","<div class=""verylowPoints""> -3 </div>","null","","na","test","","","NaN","","","","","","","","1","","74","","","","","","1",""
"685.5","348084","SARL_v6","SARL_v673kwo8g9","5ba740e19629a90001b3b1c5","freq","","","img/blue_2bandit_b2.png","70","","70","test","1","","24","","","","circle","square","23","1","2","1","","","","","","","",""
"null","348205","SARL_v6","SARL_v673kwo8g9","5ba740e19629a90001b3b1c5","freq_resp","","","img/blue_2bandit_b.png","70","img/blue_2bandit_b.png","70","test","","","","","","","","","","","2","","","","","","","","",""
"null","348360","SARL_v6","SARL_v673kwo8g9","5ba740e19629a90001b3b1c5","fixation","","","img/fixation.png","null","","","test","","","","","","","","","","","","","","","","","","","",""
"null","349167","SARL_v6","SARL_v673kwo8g9","5ba740e19629a90001b3b1c5","freq","","","img/blue_2bandit_b2.png","null","","70","test","0","","25","","","","circle","square","24","2","2","0.9583333333333334","","","","","","","",""
"null","349324","SARL_v6","SARL_v673kwo8g9","5ba740e19629a90001b3b1c5","fixation","","","img/fixation.png","null","","","test","","","","","","","","","","","","","","","","","","","",""
"629.4000000003725","349955","SARL_v6","SARL_v673kwo8g9","5ba740e19629a90001b3b1c5","freq","","","img/blue_2bandit_b2.png","70","","70","test","1","","26","","","","circle","square","25","3","2","0.96","","","","","","","",""
"null","350137","SARL_v6","SARL_v673kwo8g9","5ba740e19629a90001b3b1c5","freq_resp","","","img/blue_2bandit_b.png","70","img/blue_2bandit_b.png","70","test","","","","","","","","","","","2","","","","","","","","",""
"null","350289","SARL_v6","SARL_v673kwo8g9","5ba740e19629a90001b3b1c5","fixation","","","img/fixation.png","null","","","test","","","","","","","","","","","","","","","","","","","",""
"592.8000000007451","350883","SARL_v6","SARL_v673kwo8g9","5ba740e19629a90001b3b1c5","freq","","","img/blue_2bandit_b2.png","70","","70","test","1","","27","","","","circle","square","26","4","2","0.9615384615384616","","","","","","","",""
"null","351104","SARL_v6","SARL_v673kwo8g9","5ba740e19629a90001b3b1c5","freq_resp","","","img/blue_2bandit_b.png","70","img/blue_2bandit_b.png","70","test","","","","","","","","","","","2","","","","","","","","",""
"null","351258","SARL_v6","SARL_v673kwo8g9","5ba740e19629a90001b3b1c5","fixation","","","img/fixation.png","null","","","test","","","","","","","","","","","","","","","","","","","",""
"552.1000000005588","351811","SARL_v6","SARL_v673kwo8g9","5ba740e19629a90001b3b1c5","freq","","","img/blue_2bandit_b2.png","70","","70","test","1","","28","","","","circle","square","27","5","2","0.9629629629629629","","","","","","","",""
"null","352071","SARL_v6","SARL_v673kwo8g9","5ba740e19629a90001b3b1c5","freq_resp","","","img/blue_2bandit_b.png","70","img/blue_2bandit_b.png","70","test","","","","","","","","","","","2","","","","","","","","",""
"null","352230","SARL_v6","SARL_v673kwo8g9","5ba740e19629a90001b3b1c5","fixation","","","img/fixation.png","null","","","test","","","","","","","","","","","","","","","","","","","",""
"491.79999999981374","352723","SARL_v6","SARL_v673kwo8g9","5ba740e19629a90001b3b1c5","freq","","","img/blue_2bandit_b2.png","70","","70","test","1","","29","","","","circle","square","28","6","2","0.9642857142857143","","","","","","","",""
"null","353038","SARL_v6","SARL_v673kwo8g9","5ba740e19629a90001b3b1c5","freq_resp","","","img/blue_2bandit_b.png","70","img/blue_2bandit_b.png","70","test","","","","","","","","","","","2","","","","","","","","",""
"null","353191","SARL_v6","SARL_v673kwo8g9","5ba740e19629a90001b3b1c5","fixation","","","img/fixation.png","null","","","test","","","","","","","","","","","","","","","","","","","",""
"530.9000000003725","353723","SARL_v6","SARL_v673kwo8g9","5ba740e19629a90001b3b1c5","freq","","","img/blue_2bandit_b2.png","70","","70","test","1","","30","","","","circle","square","29","7","2","0.9655172413793104","","","","","","","",""
"null","354004","SARL_v6","SARL_v673kwo8g9","5ba740e19629a90001b3b1c5","freq_resp","","","img/blue_2bandit_b.png","70","img/blue_2bandit_b.png","70","test","","","","","","","","","","","2","","","","","","","","",""
"null","354162","SARL_v6","SARL_v673kwo8g9","5ba740e19629a90001b3b1c5","fixation","","","img/fixation.png","null","","","test","","","","","","","","","","","","","","","","","","","",""
"440.1000000005588","354604","SARL_v6","SARL_v673kwo8g9","5ba740e19629a90001b3b1c5","freq","","","img/blue_2bandit_b2.png","70","","70","test","1","","31","","","","circle","square","30","8","2","0.9666666666666667","","","","","","","",""
"null","354976","SARL_v6","SARL_v673kwo8g9","5ba740e19629a90001b3b1c5","freq_resp","","","img/blue_2bandit_b.png","70","img/blue_2bandit_b.png","70","test","","","","","","","","","","","2","","","","","","","","",""
"null","355129","SARL_v6","SARL_v673kwo8g9","5ba740e19629a90001b3b1c5","fixation","","","img/fixation.png","null","","","test","","","","","","","","","","","","","","","","","","","",""
"432.79999999981374","355564","SARL_v6","SARL_v673kwo8g9","5ba740e19629a90001b3b1c5","freq","","","img/blue_2bandit_b2.png","70","","70","test","1","","32","","","","circle","square","31","9","2","0.967741935483871","","","","","","","",""
"null","355935","SARL_v6","SARL_v673kwo8g9","5ba740e19629a90001b3b1c5","freq_resp","","","img/blue_2bandit_b.png","70","img/blue_2bandit_b.png","70","test","","","","","","","","","","","2","","","","","","","","",""
"null","356090","SARL_v6","SARL_v673kwo8g9","5ba740e19629a90001b3b1c5","fixation","","","img/fixation.png","null","","","test","","","","","","","","","","","","","","","","","","","",""
"392","356483","SARL_v6","SARL_v673kwo8g9","5ba740e19629a90001b3b1c5","freq","","","img/blue_2bandit_b2.png","70","","70","test","1","","33","","","","circle","square","32","10","2","0.96875","","","","","","","",""
"null","356899","SARL_v6","SARL_v673kwo8g9","5ba740e19629a90001b3b1c5","freq_resp","","","img/blue_2bandit_b.png","70","img/blue_2bandit_b.png","70","test","","","","","","","","","","","2","","","","","","","","",""
"null","357055","SARL_v6","SARL_v673kwo8g9","5ba740e19629a90001b3b1c5","fixation","","","img/fixation.png","null","","","test","","","","","","","","","","","","","","","","","","","",""
"458.5","357515","SARL_v6","SARL_v673kwo8g9","5ba740e19629a90001b3b1c5","freq","","","img/blue_2bandit_b2.png","70","","70","test","1","","34","","","","circle","square","33","11","2","0.9696969696969697","","","","","","","",""
"null","357863","SARL_v6","SARL_v673kwo8g9","5ba740e19629a90001b3b1c5","freq_resp","","","img/blue_2bandit_b.png","70","img/blue_2bandit_b.png","70","test","","","","","","","","","","","2","","","","","","","","",""
"null","358018","SARL_v6","SARL_v673kwo8g9","5ba740e19629a90001b3b1c5","fixation","","","img/fixation.png","null","","","test","","","","","","","","","","","","","","","","","","","",""
"591.5","358611","SARL_v6","SARL_v673kwo8g9","5ba740e19629a90001b3b1c5","infreq","","","img/orange_2bandit_b2.png","68","","68","test","1","","35","","","","circle","square","34","12","2","0.9705882352941176","","","","","","","",""
"null","358826","SARL_v6","SARL_v673kwo8g9","5ba740e19629a90001b3b1c5","infreq_resp","","","img/orange_2bandit_b.png","68","img/orange_2bandit_b.png","68","test","","","","","","","","","","","2","","","","","","","","",""
"null","358981","SARL_v6","SARL_v673kwo8g9","5ba740e19629a90001b3b1c5","fixation","","","img/fixation.png","null","","","test","","","","","","","","","","","","","","","","","","","",""
"668.7000000001863","359651","SARL_v6","SARL_v673kwo8g9","5ba740e19629a90001b3b1c5","freq","","","img/blue_2bandit_b2.png","70","","70","test","1","","36","","","","circle","square","35","13","2","0.9714285714285714","","","","","","","",""
"null","359789","SARL_v6","SARL_v673kwo8g9","5ba740e19629a90001b3b1c5","freq_resp","","","img/blue_2bandit_b.png","70","img/blue_2bandit_b.png","70","test","","","","","","","","","","","2","","","","","","","","",""
"null","359946","SARL_v6","SARL_v673kwo8g9","5ba740e19629a90001b3b1c5","fixation","","","img/fixation.png","null","","","test","","","","","","","","","","","","","","","","","","","",""
"759.2999999998137","360707","SARL_v6","SARL_v673kwo8g9","5ba740e19629a90001b3b1c5","freq","","","img/blue_2bandit_b2.png","70","","70","test","1","","37","","","","circle","square","36","14","2","0.9722222222222222","","","","","","","",""
"null","360749","SARL_v6","SARL_v673kwo8g9","5ba740e19629a90001b3b1c5","freq_resp","","","img/blue_2bandit_b.png","70","img/blue_2bandit_b.png","70","test","","","","","","","","","","","2","","","","","","","","",""
"null","360914","SARL_v6","SARL_v673kwo8g9","5ba740e19629a90001b3b1c5","fixation","","","img/fixation.png","null","","","test","","","","","","","","","","","","","","","","","","","",""
"560","361475","SARL_v6","SARL_v673kwo8g9","5ba740e19629a90001b3b1c5","freq","","","img/blue_2bandit_b2.png","70","","70","test","1","","38","","","","circle","square","37","15","2","0.972972972972973","","","","","","","",""
"null","361724","SARL_v6","SARL_v673kwo8g9","5ba740e19629a90001b3b1c5","freq_resp","","","img/blue_2bandit_b.png","70","img/blue_2bandit_b.png","70","test","","","","","","","","","","","2","","","","","","","","",""
"null","361880","SARL_v6","SARL_v673kwo8g9","5ba740e19629a90001b3b1c5","fixation","","","img/fixation.png","null","","","test","","","","","","","","","","","","","","","","","","","",""
"569.2000000001863","362451","SARL_v6","SARL_v673kwo8g9","5ba740e19629a90001b3b1c5","freq","","","img/blue_2bandit_b2.png","70","","70","test","1","","39","","","","circle","square","38","16","2","0.9736842105263158","","","","","","","",""
"null","362688","SARL_v6","SARL_v673kwo8g9","5ba740e19629a90001b3b1c5","freq_resp","","","img/blue_2bandit_b.png","70","img/blue_2bandit_b.png","70","test","","","","","","","","","","","2","","","","","","","","",""
"null","362844","SARL_v6","SARL_v673kwo8g9","5ba740e19629a90001b3b1c5","fixation","","","img/fixation.png","null","","","test","","","","","","","","","","","","","","","","","","","",""
"500.90000000037253","363347","SARL_v6","SARL_v673kwo8g9","5ba740e19629a90001b3b1c5","infreq","","","img/orange_2bandit_b2.png","68","","68","test","1","","40","","","","circle","square","39","17","2","0.9743589743589743","","","","","","","",""
"null","363655","SARL_v6","SARL_v673kwo8g9","5ba740e19629a90001b3b1c5","infreq_resp","","","img/orange_2bandit_b.png","68","img/orange_2bandit_b.png","68","test","","","","","","","","","","","2","","","","","","","","",""
"null","363808","SARL_v6","SARL_v673kwo8g9","5ba740e19629a90001b3b1c5","fixation","","","img/fixation.png","null","","","test","","","","","","","","","","","","","","","","","","","",""
"482.1000000005588","364291","SARL_v6","SARL_v673kwo8g9","5ba740e19629a90001b3b1c5","freq","","","img/blue_2bandit_b2.png","70","","70","test","1","","41","","","","circle","square","40","18","2","0.975","","","","","","","",""
"null","364622","SARL_v6","SARL_v673kwo8g9","5ba740e19629a90001b3b1c5","freq_resp","","","img/blue_2bandit_b.png","70","img/blue_2bandit_b.png","70","test","","","","","","","","","","","2","","","","","","","","",""
"null","364778","SARL_v6","SARL_v673kwo8g9","5ba740e19629a90001b3b1c5","fixation","","","img/fixation.png","null","","","test","","","","","","","","","","","","","","","","","","","",""
"687.9000000003725","365467","SARL_v6","SARL_v673kwo8g9","5ba740e19629a90001b3b1c5","freq","","","img/blue_2bandit_b2.png","70","","70","test","1","","42","","","","circle","square","41","19","2","0.975609756097561","","","","","","","",""
"null","365588","SARL_v6","SARL_v673kwo8g9","5ba740e19629a90001b3b1c5","freq_resp","","","img/blue_2bandit_b.png","70","img/blue_2bandit_b.png","70","test","","","","","","","","","","","2","","","","","","","","",""
"null","365742","SARL_v6","SARL_v673kwo8g9","5ba740e19629a90001b3b1c5","fixation","","","img/fixation.png","null","","","test","","","","","","","","","","","","","","","","","","","",""
"539.5999999996275","366284","SARL_v6","SARL_v673kwo8g9","5ba740e19629a90001b3b1c5","freq","","","img/blue_2bandit_b2.png","70","","70","test","1","","43","","","","circle","square","42","20","2","0.9761904761904762","","","","","","","",""
"null","366551","SARL_v6","SARL_v673kwo8g9","5ba740e19629a90001b3b1c5","freq_resp","","","img/blue_2bandit_b.png","70","img/blue_2bandit_b.png","70","test","","","","","","","","","","","2","","","","","","","","",""
"null","366704","SARL_v6","SARL_v673kwo8g9","5ba740e19629a90001b3b1c5","fixation","","","img/fixation.png","null","","","test","","","","","","","","","","","","","","","","","","","",""
"705.5","367411","SARL_v6","SARL_v673kwo8g9","5ba740e19629a90001b3b1c5","rl","","","img/black_2bandit_b2.png","75","","0","test","","","44","","","-8","circle","square","","0","2","","75","-5","-8","-5","-8","square","2","0"
"null","368165","SARL_v6","SARL_v673kwo8g9","5ba740e19629a90001b3b1c5","feedback","","","<div class=""verylowPoints_sq""> -8 </div>","null","","na","test","","","NaN","","","","","","","","2","","75","","","","","","2",""
"516.4000000003725","368684","SARL_v6","SARL_v673kwo8g9","5ba740e19629a90001b3b1c5","freq","","","img/blue_2bandit_b2.png","70","","70","test","1","","45","","","","circle","square","43","1","3","0.9767441860465116","","","","","","","",""
"null","368975","SARL_v6","SARL_v673kwo8g9","5ba740e19629a90001b3b1c5","freq_resp","","","img/blue_2bandit_b.png","70","img/blue_2bandit_b.png","70","test","","","","","","","","","","","3","","","","","","","","",""
"null","369130","SARL_v6","SARL_v673kwo8g9","5ba740e19629a90001b3b1c5","fixation","","","img/fixation.png","null","","","test","","","","","","","","","","","","","","","","","","","",""
"424.20000000018626","369556","SARL_v6","SARL_v673kwo8g9","5ba740e19629a90001b3b1c5","freq","","","img/blue_2bandit_b2.png","70","","70","test","1","","46","","","","circle","square","44","2","3","0.9772727272727273","","","","","","","",""
"null","369936","SARL_v6","SARL_v673kwo8g9","5ba740e19629a90001b3b1c5","freq_resp","","","img/blue_2bandit_b.png","70","img/blue_2bandit_b.png","70","test","","","","","","","","","","","3","","","","","","","","",""
"null","370091","SARL_v6","SARL_v673kwo8g9","5ba740e19629a90001b3b1c5","fixation","","","img/fixation.png","null","","","test","","","","","","","","","","","","","","","","","","","",""
"374.1000000005588","370467","SARL_v6","SARL_v673kwo8g9","5ba740e19629a90001b3b1c5","freq","","","img/blue_2bandit_b2.png","70","","70","test","1","","47","","","","circle","square","45","3","3","0.9777777777777777","","","","","","","",""
"null","370906","SARL_v6","SARL_v673kwo8g9","5ba740e19629a90001b3b1c5","freq_resp","","","img/blue_2bandit_b.png","70","img/blue_2bandit_b.png","70","test","","","","","","","","","","","3","","","","","","","","",""
"null","371061","SARL_v6","SARL_v673kwo8g9","5ba740e19629a90001b3b1c5","fixation","","","img/fixation.png","null","","","test","","","","","","","","","","","","","","","","","","","",""
"348.20000000018626","371412","SARL_v6","SARL_v673kwo8g9","5ba740e19629a90001b3b1c5","freq","","","img/blue_2bandit_b2.png","70","","70","test","1","","48","","","","circle","square","46","4","3","0.9782608695652174","","","","","","","",""
"null","371870","SARL_v6","SARL_v673kwo8g9","5ba740e19629a90001b3b1c5","freq_resp","","","img/blue_2bandit_b.png","70","img/blue_2bandit_b.png","70","test","","","","","","","","","","","3","","","","","","","","",""
"null","372025","SARL_v6","SARL_v673kwo8g9","5ba740e19629a90001b3b1c5","fixation","","","img/fixation.png","null","","","test","","","","","","","","","","","","","","","","","","","",""
"328.30000000074506","372355","SARL_v6","SARL_v673kwo8g9","5ba740e19629a90001b3b1c5","freq","","","img/blue_2bandit_b2.png","70","","70","test","1","","49","","","","circle","square","47","5","3","0.9787234042553191","","","","","","","",""
"null","372832","SARL_v6","SARL_v673kwo8g9","5ba740e19629a90001b3b1c5","freq_resp","","","img/blue_2bandit_b.png","70","img/blue_2bandit_b.png","70","test","","","","","","","","","","","3","","","","","","","","",""
"null","372987","SARL_v6","SARL_v673kwo8g9","5ba740e19629a90001b3b1c5","fixation","","","img/fixation.png","null","","","test","","","","","","","","","","","","","","","","","","","",""
"318.79999999981374","373307","SARL_v6","SARL_v673kwo8g9","5ba740e19629a90001b3b1c5","freq","","","img/blue_2bandit_b2.png","70","","70","test","1","","50","","","","circle","square","48","6","3","0.9791666666666666","","","","","","","",""
"null","373800","SARL_v6","SARL_v673kwo8g9","5ba740e19629a90001b3b1c5","freq_resp","","","img/blue_2bandit_b.png","70","img/blue_2bandit_b.png","70","test","","","","","","","","","","","3","","","","","","","","",""
"null","373954","SARL_v6","SARL_v673kwo8g9","5ba740e19629a90001b3b1c5","fixation","","","img/fixation.png","null","","","test","","","","","","","","","","","","","","","","","","","",""
"343.8999999994412","374299","SARL_v6","SARL_v673kwo8g9","5ba740e19629a90001b3b1c5","freq","","","img/blue_2bandit_b2.png","70","","70","test","1","","51","","","","circle","square","49","7","3","0.9795918367346939","","","","","","","",""
"null","374772","SARL_v6","SARL_v673kwo8g9","5ba740e19629a90001b3b1c5","freq_resp","","","img/blue_2bandit_b.png","70","img/blue_2bandit_b.png","70","test","","","","","","","","","","","3","","","","","","","","",""
"null","374928","SARL_v6","SARL_v673kwo8g9","5ba740e19629a90001b3b1c5","fixation","","","img/fixation.png","null","","","test","","","","","","","","","","","","","","","","","","","",""
"329.09999999962747","375259","SARL_v6","SARL_v673kwo8g9","5ba740e19629a90001b3b1c5","freq","","","img/blue_2bandit_b2.png","70","","70","test","1","","52","","","","circle","square","50","8","3","0.98","","","","","","","",""
"null","375742","SARL_v6","SARL_v673kwo8g9","5ba740e19629a90001b3b1c5","freq_resp","","","img/blue_2bandit_b.png","70","img/blue_2bandit_b.png","70","test","","","","","","","","","","","3","","","","","","","","",""
"null","375898","SARL_v6","SARL_v673kwo8g9","5ba740e19629a90001b3b1c5","fixation","","","img/fixation.png","null","","","test","","","","","","","","","","","","","","","","","","","",""
"375.3999999994412","376275","SARL_v6","SARL_v673kwo8g9","5ba740e19629a90001b3b1c5","infreq","","","img/orange_2bandit_b2.png","68","","68","test","1","","53","","","","circle","square","51","9","3","0.9803921568627451","","","","","","","",""
"null","376704","SARL_v6","SARL_v673kwo8g9","5ba740e19629a90001b3b1c5","infreq_resp","","","img/orange_2bandit_b.png","68","img/orange_2bandit_b.png","68","test","","","","","","","","","","","3","","","","","","","","",""
"null","376860","SARL_v6","SARL_v673kwo8g9","5ba740e19629a90001b3b1c5","fixation","","","img/fixation.png","null","","","test","","","","","","","","","","","","","","","","","","","",""
"454.19999999925494","377316","SARL_v6","SARL_v673kwo8g9","5ba740e19629a90001b3b1c5","freq","","","img/blue_2bandit_b2.png","70","","70","test","1","","54","","","","circle","square","52","10","3","0.9807692307692307","","","","","","","",""
"null","377668","SARL_v6","SARL_v673kwo8g9","5ba740e19629a90001b3b1c5","freq_resp","","","img/blue_2bandit_b.png","70","img/blue_2bandit_b.png","70","test","","","","","","","","","","","3","","","","","","","","",""
"null","377824","SARL_v6","SARL_v673kwo8g9","5ba740e19629a90001b3b1c5","fixation","","","img/fixation.png","null","","","test","","","","","","","","","","","","","","","","","","","",""
"417.29999999981374","378243","SARL_v6","SARL_v673kwo8g9","5ba740e19629a90001b3b1c5","freq","","","img/blue_2bandit_b2.png","70","","70","test","1","","55","","","","circle","square","53","11","3","0.9811320754716981","","","","","","","",""
"null","378627","SARL_v6","SARL_v673kwo8g9","5ba740e19629a90001b3b1c5","freq_resp","","","img/blue_2bandit_b.png","70","img/blue_2bandit_b.png","70","test","","","","","","","","","","","3","","","","","","","","",""
"null","378782","SARL_v6","SARL_v673kwo8g9","5ba740e19629a90001b3b1c5","fixation","","","img/fixation.png","null","","","test","","","","","","","","","","","","","","","","","","","",""
"547.2999999998137","379331","SARL_v6","SARL_v673kwo8g9","5ba740e19629a90001b3b1c5","infreq","","","img/orange_2bandit_b2.png","68","","68","test","1","","56","","","","circle","square","54","12","3","0.9814814814814815","","","","","","","",""
"null","379587","SARL_v6","SARL_v673kwo8g9","5ba740e19629a90001b3b1c5","infreq_resp","","","img/orange_2bandit_b.png","68","img/orange_2bandit_b.png","68","test","","","","","","","","","","","3","","","","","","","","",""
"null","379740","SARL_v6","SARL_v673kwo8g9","5ba740e19629a90001b3b1c5","fixation","","","img/fixation.png","null","","","test","","","","","","","","","","","","","","","","","","","",""
"470.20000000018626","380211","SARL_v6","SARL_v673kwo8g9","5ba740e19629a90001b3b1c5","freq","","","img/blue_2bandit_b2.png","70","","70","test","1","","57","","","","circle","square","55","13","3","0.9818181818181818","","","","","","","",""
"null","380548","SARL_v6","SARL_v673kwo8g9","5ba740e19629a90001b3b1c5","freq_resp","","","img/blue_2bandit_b.png","70","img/blue_2bandit_b.png","70","test","","","","","","","","","","","3","","","","","","","","",""
"null","380701","SARL_v6","SARL_v673kwo8g9","5ba740e19629a90001b3b1c5","fixation","","","img/fixation.png","null","","","test","","","","","","","","","","","","","","","","","","","",""
"372.80000000074506","381075","SARL_v6","SARL_v673kwo8g9","5ba740e19629a90001b3b1c5","freq","","","img/blue_2bandit_b2.png","70","","70","test","1","","58","","","","circle","square","56","14","3","0.9821428571428571","","","","","","","",""
"null","381512","SARL_v6","SARL_v673kwo8g9","5ba740e19629a90001b3b1c5","freq_resp","","","img/blue_2bandit_b.png","70","img/blue_2bandit_b.png","70","test","","","","","","","","","","","3","","","","","","","","",""
"null","381669","SARL_v6","SARL_v673kwo8g9","5ba740e19629a90001b3b1c5","fixation","","","img/fixation.png","null","","","test","","","","","","","","","","","","","","","","","","","",""
"372.20000000018626","382043","SARL_v6","SARL_v673kwo8g9","5ba740e19629a90001b3b1c5","freq","","","img/blue_2bandit_b2.png","70","","70","test","1","","59","","","","circle","square","57","15","3","0.9824561403508771","","","","","","","",""
"null","382477","SARL_v6","SARL_v673kwo8g9","5ba740e19629a90001b3b1c5","freq_resp","","","img/blue_2bandit_b.png","70","img/blue_2bandit_b.png","70","test","","","","","","","","","","","3","","","","","","","","",""
"null","382631","SARL_v6","SARL_v673kwo8g9","5ba740e19629a90001b3b1c5","fixation","","","img/fixation.png","null","","","test","","","","","","","","","","","","","","","","","","","",""
"403","383035","SARL_v6","SARL_v673kwo8g9","5ba740e19629a90001b3b1c5","freq","","","img/blue_2bandit_b2.png","70","","70","test","1","","60","","","","circle","square","58","16","3","0.9827586206896551","","","","","","","",""
"null","383441","SARL_v6","SARL_v673kwo8g9","5ba740e19629a90001b3b1c5","freq_resp","","","img/blue_2bandit_b.png","70","img/blue_2bandit_b.png","70","test","","","","","","","","","","","3","","","","","","","","",""
"null","383599","SARL_v6","SARL_v673kwo8g9","5ba740e19629a90001b3b1c5","fixation","","","img/fixation.png","null","","","test","","","","","","","","","","","","","","","","","","","",""
"345.8999999994412","383947","SARL_v6","SARL_v673kwo8g9","5ba740e19629a90001b3b1c5","freq","","","img/blue_2bandit_b2.png","70","","70","test","1","","61","","","","circle","square","59","17","3","0.9830508474576272","","","","","","","",""
"null","384403","SARL_v6","SARL_v673kwo8g9","5ba740e19629a90001b3b1c5","freq_resp","","","img/blue_2bandit_b.png","70","img/blue_2bandit_b.png","70","test","","","","","","","","","","","3","","","","","","","","",""
"null","384559","SARL_v6","SARL_v673kwo8g9","5ba740e19629a90001b3b1c5","fixation","","","img/fixation.png","null","","","test","","","","","","","","","","","","","","","","","","","",""
"331.40000000037253","384892","SARL_v6","SARL_v673kwo8g9","5ba740e19629a90001b3b1c5","freq","","","img/blue_2bandit_b2.png","70","","70","test","1","","62","","","","circle","square","60","18","3","0.9833333333333333","","","","","","","",""
"null","385369","SARL_v6","SARL_v673kwo8g9","5ba740e19629a90001b3b1c5","freq_resp","","","img/blue_2bandit_b.png","70","img/blue_2bandit_b.png","70","test","","","","","","","","","","","3","","","","","","","","",""
"null","385525","SARL_v6","SARL_v673kwo8g9","5ba740e19629a90001b3b1c5","fixation","","","img/fixation.png","null","","","test","","","","","","","","","","","","","","","","","","","",""
"413","385939","SARL_v6","SARL_v673kwo8g9","5ba740e19629a90001b3b1c5","freq","","","img/blue_2bandit_b2.png","70","","70","test","1","","63","","","","circle","square","61","19","3","0.9836065573770492","","","","","","","",""
"null","386343","SARL_v6","SARL_v673kwo8g9","5ba740e19629a90001b3b1c5","freq_resp","","","img/blue_2bandit_b.png","70","img/blue_2bandit_b.png","70","test","","","","","","","","","","","3","","","","","","","","",""
"null","386497","SARL_v6","SARL_v673kwo8g9","5ba740e19629a90001b3b1c5","fixation","","","img/fixation.png","null","","","test","","","","","","","","","","","","","","","","","","","",""
"344.59999999962747","386844","SARL_v6","SARL_v673kwo8g9","5ba740e19629a90001b3b1c5","freq","","","img/blue_2bandit_b2.png","70","","70","test","1","","64","","","","circle","square","62","20","3","0.9838709677419355","","","","","","","",""
"null","387306","SARL_v6","SARL_v673kwo8g9","5ba740e19629a90001b3b1c5","freq_resp","","","img/blue_2bandit_b.png","70","img/blue_2bandit_b.png","70","test","","","","","","","","","","","3","","","","","","","","",""
"null","387462","SARL_v6","SARL_v673kwo8g9","5ba740e19629a90001b3b1c5","fixation","","","img/fixation.png","null","","","test","","","","","","","","","","","","","","","","","","","",""
"395.90000000037253","387860","SARL_v6","SARL_v673kwo8g9","5ba740e19629a90001b3b1c5","freq","","","img/blue_2bandit_b2.png","70","","70","test","1","","65","","","","circle","square","63","21","3","0.9841269841269841","","","","","","","",""
"null","388272","SARL_v6","SARL_v673kwo8g9","5ba740e19629a90001b3b1c5","freq_resp","","","img/blue_2bandit_b.png","70","img/blue_2bandit_b.png","70","test","","","","","","","","","","","3","","","","","","","","",""
"null","388425","SARL_v6","SARL_v673kwo8g9","5ba740e19629a90001b3b1c5","fixation","","","img/fixation.png","null","","","test","","","","","","","","","","","","","","","","","","","",""
"352.70000000018626","388779","SARL_v6","SARL_v673kwo8g9","5ba740e19629a90001b3b1c5","freq","","","img/blue_2bandit_b2.png","70","","70","test","1","","66","","","","circle","square","64","22","3","0.984375","","","","","","","",""
"null","389234","SARL_v6","SARL_v673kwo8g9","5ba740e19629a90001b3b1c5","freq_resp","","","img/blue_2bandit_b.png","70","img/blue_2bandit_b.png","70","test","","","","","","","","","","","3","","","","","","","","",""
"null","389390","SARL_v6","SARL_v673kwo8g9","5ba740e19629a90001b3b1c5","fixation","","","img/fixation.png","null","","","test","","","","","","","","","","","","","","","","","","","",""
"316.20000000018626","389708","SARL_v6","SARL_v673kwo8g9","5ba740e19629a90001b3b1c5","freq","","","img/blue_2bandit_b2.png","70","","70","test","1","","67","","","","circle","square","65","23","3","0.9846153846153847","","","","","","","",""
"null","390203","SARL_v6","SARL_v673kwo8g9","5ba740e19629a90001b3b1c5","freq_resp","","","img/blue_2bandit_b.png","70","img/blue_2bandit_b.png","70","test","","","","","","","","","","","3","","","","","","","","",""
"null","390360","SARL_v6","SARL_v673kwo8g9","5ba740e19629a90001b3b1c5","fixation","","","img/fixation.png","null","","","test","","","","","","","","","","","","","","","","","","","",""
"657.7000000001863","391019","SARL_v6","SARL_v673kwo8g9","5ba740e19629a90001b3b1c5","rl","","","img/black_2bandit_b2.png","74","","0","test","","","68","","","-4","circle","square","","0","3","","74","-4","-8","-4","-8","circle","3","0"
"null","391777","SARL_v6","SARL_v673kwo8g9","5ba740e19629a90001b3b1c5","feedback","","","<div class=""verylowPoints""> -4 </div>","null","","na","test","","","NaN","","","","","","","","3","","74","","","","","","3",""
"632.8000000007451","392412","SARL_v6","SARL_v673kwo8g9","5ba740e19629a90001b3b1c5","freq","","","img/blue_2bandit_b2.png","70","","70","test","1","","69","","","","circle","square","66","1","4","0.9848484848484849","","","","","","","",""
"null","392585","SARL_v6","SARL_v673kwo8g9","5ba740e19629a90001b3b1c5","freq_resp","","","img/blue_2bandit_b.png","70","img/blue_2bandit_b.png","70","test","","","","","","","","","","","4","","","","","","","","",""
"null","392741","SARL_v6","SARL_v673kwo8g9","5ba740e19629a90001b3b1c5","fixation","","","img/fixation.png","null","","","test","","","","","","","","","","","","","","","","","","","",""
"516.8999999994412","393259","SARL_v6","SARL_v673kwo8g9","5ba740e19629a90001b3b1c5","freq","","","img/blue_2bandit_b2.png","70","","70","test","1","","70","","","","circle","square","67","2","4","0.9850746268656716","","","","","","","",""
"null","393553","SARL_v6","SARL_v673kwo8g9","5ba740e19629a90001b3b1c5","freq_resp","","","img/blue_2bandit_b.png","70","img/blue_2bandit_b.png","70","test","","","","","","","","","","","4","","","","","","","","",""
"null","393706","SARL_v6","SARL_v673kwo8g9","5ba740e19629a90001b3b1c5","fixation","","","img/fixation.png","null","","","test","","","","","","","","","","","","","","","","","","","",""
"423.29999999981374","394132","SARL_v6","SARL_v673kwo8g9","5ba740e19629a90001b3b1c5","freq","","","img/blue_2bandit_b2.png","70","","70","test","1","","71","","","","circle","square","68","3","4","0.9852941176470589","","","","","","","",""
"null","394521","SARL_v6","SARL_v673kwo8g9","5ba740e19629a90001b3b1c5","freq_resp","","","img/blue_2bandit_b.png","70","img/blue_2bandit_b.png","70","test","","","","","","","","","","","4","","","","","","","","",""
"null","394677","SARL_v6","SARL_v673kwo8g9","5ba740e19629a90001b3b1c5","fixation","","","img/fixation.png","null","","","test","","","","","","","","","","","","","","","","","","","",""
"620.7999999998137","395299","SARL_v6","SARL_v673kwo8g9","5ba740e19629a90001b3b1c5","infreq","","","img/orange_2bandit_b2.png","68","","68","test","1","","72","","","","circle","square","69","4","4","0.9855072463768116","","","","","","","",""
"null","395486","SARL_v6","SARL_v673kwo8g9","5ba740e19629a90001b3b1c5","infreq_resp","","","img/orange_2bandit_b.png","68","img/orange_2bandit_b.png","68","test","","","","","","","","","","","4","","","","","","","","",""
"null","395641","SARL_v6","SARL_v673kwo8g9","5ba740e19629a90001b3b1c5","fixation","","","img/fixation.png","null","","","test","","","","","","","","","","","","","","","","","","","",""
"664.5999999996275","396307","SARL_v6","SARL_v673kwo8g9","5ba740e19629a90001b3b1c5","freq","","","img/blue_2bandit_b2.png","70","","70","test","1","","73","","","","circle","square","70","5","4","0.9857142857142858","","","","","","","",""
"null","396452","SARL_v6","SARL_v673kwo8g9","5ba740e19629a90001b3b1c5","freq_resp","","","img/blue_2bandit_b.png","70","img/blue_2bandit_b.png","70","test","","","","","","","","","","","4","","","","","","","","",""
"null","396609","SARL_v6","SARL_v673kwo8g9","5ba740e19629a90001b3b1c5","fixation","","","img/fixation.png","null","","","test","","","","","","","","","","","","","","","","","","","",""
"617","397228","SARL_v6","SARL_v673kwo8g9","5ba740e19629a90001b3b1c5","freq","","","img/blue_2bandit_b2.png","70","","70","test","1","","74","","","","circle","square","71","6","4","0.9859154929577465","","","","","","","",""
"null","397422","SARL_v6","SARL_v673kwo8g9","5ba740e19629a90001b3b1c5","freq_resp","","","img/blue_2bandit_b.png","70","img/blue_2bandit_b.png","70","test","","","","","","","","","","","4","","","","","","","","",""
"null","397579","SARL_v6","SARL_v673kwo8g9","5ba740e19629a90001b3b1c5","fixation","","","img/fixation.png","null","","","test","","","","","","","","","","","","","","","","","","","",""
"575.2999999998137","398156","SARL_v6","SARL_v673kwo8g9","5ba740e19629a90001b3b1c5","freq","","","img/blue_2bandit_b2.png","70","","70","test","1","","75","","","","circle","square","72","7","4","0.9861111111111112","","","","","","","",""
"null","398387","SARL_v6","SARL_v673kwo8g9","5ba740e19629a90001b3b1c5","freq_resp","","","img/blue_2bandit_b.png","70","img/blue_2bandit_b.png","70","test","","","","","","","","","","","4","","","","","","","","",""
"null","398543","SARL_v6","SARL_v673kwo8g9","5ba740e19629a90001b3b1c5","fixation","","","img/fixation.png","null","","","test","","","","","","","","","","","","","","","","","","","",""
"530.5999999996275","399076","SARL_v6","SARL_v673kwo8g9","5ba740e19629a90001b3b1c5","freq","","","img/blue_2bandit_b2.png","70","","70","test","1","","76","","","","circle","square","73","8","4","0.9863013698630136","","","","","","","",""
"null","399352","SARL_v6","SARL_v673kwo8g9","5ba740e19629a90001b3b1c5","freq_resp","","","img/blue_2bandit_b.png","70","img/blue_2bandit_b.png","70","test","","","","","","","","","","","4","","","","","","","","",""
"null","399505","SARL_v6","SARL_v673kwo8g9","5ba740e19629a90001b3b1c5","fixation","","","img/fixation.png","null","","","test","","","","","","","","","","","","","","","","","","","",""
"504.80000000074506","400012","SARL_v6","SARL_v673kwo8g9","5ba740e19629a90001b3b1c5","freq","","","img/blue_2bandit_b2.png","70","","70","test","1","","77","","","","circle","square","74","9","4","0.9864864864864865","","","","","","","",""
"null","400319","SARL_v6","SARL_v673kwo8g9","5ba740e19629a90001b3b1c5","freq_resp","","","img/blue_2bandit_b.png","70","img/blue_2bandit_b.png","70","test","","","","","","","","","","","4","","","","","","","","",""
"null","400474","SARL_v6","SARL_v673kwo8g9","5ba740e19629a90001b3b1c5","fixation","","","img/fixation.png","null","","","test","","","","","","","","","","","","","","","","","","","",""
"487.79999999981374","400964","SARL_v6","SARL_v673kwo8g9","5ba740e19629a90001b3b1c5","freq","","","img/blue_2bandit_b2.png","70","","70","test","1","","78","","","","circle","square","75","10","4","0.9866666666666667","","","","","","","",""
"null","401285","SARL_v6","SARL_v673kwo8g9","5ba740e19629a90001b3b1c5","freq_resp","","","img/blue_2bandit_b.png","70","img/blue_2bandit_b.png","70","test","","","","","","","","","","","4","","","","","","","","",""
"null","401440","SARL_v6","SARL_v673kwo8g9","5ba740e19629a90001b3b1c5","fixation","","","img/fixation.png","null","","","test","","","","","","","","","","","","","","","","","","","",""
"433.80000000074506","401876","SARL_v6","SARL_v673kwo8g9","5ba740e19629a90001b3b1c5","freq","","","img/blue_2bandit_b2.png","70","","70","test","1","","79","","","","circle","square","76","11","4","0.9868421052631579","","","","","","","",""
"null","402250","SARL_v6","SARL_v673kwo8g9","5ba740e19629a90001b3b1c5","freq_resp","","","img/blue_2bandit_b.png","70","img/blue_2bandit_b.png","70","test","","","","","","","","","","","4","","","","","","","","",""
"null","402404","SARL_v6","SARL_v673kwo8g9","5ba740e19629a90001b3b1c5","fixation","","","img/fixation.png","null","","","test","","","","","","","","","","","","","","","","","","","",""
"365.20000000018626","402772","SARL_v6","SARL_v673kwo8g9","5ba740e19629a90001b3b1c5","freq","","","img/blue_2bandit_b2.png","70","","70","test","1","","80","","","","circle","square","77","12","4","0.987012987012987","","","","","","","",""
"null","403210","SARL_v6","SARL_v673kwo8g9","5ba740e19629a90001b3b1c5","freq_resp","","","img/blue_2bandit_b.png","70","img/blue_2bandit_b.png","70","test","","","","","","","","","","","4","","","","","","","","",""
"null","403366","SARL_v6","SARL_v673kwo8g9","5ba740e19629a90001b3b1c5","fixation","","","img/fixation.png","null","","","test","","","","","","","","","","","","","","","","","","","",""
"379.09999999962747","403747","SARL_v6","SARL_v673kwo8g9","5ba740e19629a90001b3b1c5","freq","","","img/blue_2bandit_b2.png","70","","70","test","1","","81","","","","circle","square","78","13","4","0.9871794871794872","","","","","","","",""
"null","404177","SARL_v6","SARL_v673kwo8g9","5ba740e19629a90001b3b1c5","freq_resp","","","img/blue_2bandit_b.png","70","img/blue_2bandit_b.png","70","test","","","","","","","","","","","4","","","","","","","","",""
"null","404333","SARL_v6","SARL_v673kwo8g9","5ba740e19629a90001b3b1c5","fixation","","","img/fixation.png","null","","","test","","","","","","","","","","","","","","","","","","","",""
"381.20000000018626","404716","SARL_v6","SARL_v673kwo8g9","5ba740e19629a90001b3b1c5","freq","","","img/blue_2bandit_b2.png","70","","70","test","1","","82","","","","circle","square","79","14","4","0.9873417721518988","","","","","","","",""
"null","405141","SARL_v6","SARL_v673kwo8g9","5ba740e19629a90001b3b1c5","freq_resp","","","img/blue_2bandit_b.png","70","img/blue_2bandit_b.png","70","test","","","","","","","","","","","4","","","","","","","","",""
"null","405298","SARL_v6","SARL_v673kwo8g9","5ba740e19629a90001b3b1c5","fixation","","","img/fixation.png","null","","","test","","","","","","","","","","","","","","","","","","","",""
"359.40000000037253","405659","SARL_v6","SARL_v673kwo8g9","5ba740e19629a90001b3b1c5","freq","","","img/blue_2bandit_b2.png","70","","70","test","1","","83","","","","circle","square","80","15","4","0.9875","","","","","","","",""
"null","406110","SARL_v6","SARL_v673kwo8g9","5ba740e19629a90001b3b1c5","freq_resp","","","img/blue_2bandit_b.png","70","img/blue_2bandit_b.png","70","test","","","","","","","","","","","4","","","","","","","","",""
"null","406266","SARL_v6","SARL_v673kwo8g9","5ba740e19629a90001b3b1c5","fixation","","","img/fixation.png","null","","","test","","","","","","","","","","","","","","","","","","","",""
"359.79999999981374","406627","SARL_v6","SARL_v673kwo8g9","5ba740e19629a90001b3b1c5","freq","","","img/blue_2bandit_b2.png","70","","70","test","1","","84","","","","circle","square","81","16","4","0.9876543209876543","","","","","","","",""
"null","407073","SARL_v6","SARL_v673kwo8g9","5ba740e19629a90001b3b1c5","freq_resp","","","img/blue_2bandit_b.png","70","img/blue_2bandit_b.png","70","test","","","","","","","","","","","4","","","","","","","","",""
"null","407229","SARL_v6","SARL_v673kwo8g9","5ba740e19629a90001b3b1c5","fixation","","","img/fixation.png","null","","","test","","","","","","","","","","","","","","","","","","","",""
"524.7000000001863","407756","SARL_v6","SARL_v673kwo8g9","5ba740e19629a90001b3b1c5","infreq","","","img/orange_2bandit_b2.png","68","","68","test","1","","85","","","","circle","square","82","17","4","0.9878048780487805","","","","","","","",""
"null","408040","SARL_v6","SARL_v673kwo8g9","5ba740e19629a90001b3b1c5","infreq_resp","","","img/orange_2bandit_b.png","68","img/orange_2bandit_b.png","68","test","","","","","","","","","","","4","","","","","","","","",""
"null","408194","SARL_v6","SARL_v673kwo8g9","5ba740e19629a90001b3b1c5","fixation","","","img/fixation.png","null","","","test","","","","","","","","","","","","","","","","","","","",""
"471.6000000005588","408668","SARL_v6","SARL_v673kwo8g9","5ba740e19629a90001b3b1c5","freq","","","img/blue_2bandit_b2.png","70","","70","test","1","","86","","","","circle","square","83","18","4","0.9879518072289156","","","","","","","",""
"null","409004","SARL_v6","SARL_v673kwo8g9","5ba740e19629a90001b3b1c5","freq_resp","","","img/blue_2bandit_b.png","70","img/blue_2bandit_b.png","70","test","","","","","","","","","","","4","","","","","","","","",""
"null","409157","SARL_v6","SARL_v673kwo8g9","5ba740e19629a90001b3b1c5","fixation","","","img/fixation.png","null","","","test","","","","","","","","","","","","","","","","","","","",""
"468.59999999962747","409627","SARL_v6","SARL_v673kwo8g9","5ba740e19629a90001b3b1c5","freq","","","img/blue_2bandit_b2.png","70","","70","test","1","","87","","","","circle","square","84","19","4","0.9880952380952381","","","","","","","",""
"null","409969","SARL_v6","SARL_v673kwo8g9","5ba740e19629a90001b3b1c5","freq_resp","","","img/blue_2bandit_b.png","70","img/blue_2bandit_b.png","70","test","","","","","","","","","","","4","","","","","","","","",""
"null","410126","SARL_v6","SARL_v673kwo8g9","5ba740e19629a90001b3b1c5","fixation","","","img/fixation.png","null","","","test","","","","","","","","","","","","","","","","","","","",""
"443.90000000037253","410572","SARL_v6","SARL_v673kwo8g9","5ba740e19629a90001b3b1c5","freq","","","img/blue_2bandit_b2.png","70","","70","test","1","","88","","","","circle","square","85","20","4","0.9882352941176471","","","","","","","",""
"null","410938","SARL_v6","SARL_v673kwo8g9","5ba740e19629a90001b3b1c5","freq_resp","","","img/blue_2bandit_b.png","70","img/blue_2bandit_b.png","70","test","","","","","","","","","","","4","","","","","","","","",""
"null","411094","SARL_v6","SARL_v673kwo8g9","5ba740e19629a90001b3b1c5","fixation","","","img/fixation.png","null","","","test","","","","","","","","","","","","","","","","","","","",""
"492","411588","SARL_v6","SARL_v673kwo8g9","5ba740e19629a90001b3b1c5","freq","","","img/blue_2bandit_b2.png","70","","70","test","1","","89","","","","circle","square","86","21","4","0.9883720930232558","","","","","","","",""
"null","411906","SARL_v6","SARL_v673kwo8g9","5ba740e19629a90001b3b1c5","freq_resp","","","img/blue_2bandit_b.png","70","img/blue_2bandit_b.png","70","test","","","","","","","","","","","4","","","","","","","","",""
"null","412058","SARL_v6","SARL_v673kwo8g9","5ba740e19629a90001b3b1c5","fixation","","","img/fixation.png","null","","","test","","","","","","","","","","","","","","","","","","","",""
"487.29999999981374","412547","SARL_v6","SARL_v673kwo8g9","5ba740e19629a90001b3b1c5","freq","","","img/blue_2bandit_b2.png","70","","70","test","1","","90","","","","circle","square","87","22","4","0.9885057471264368","","","","","","","",""
"null","412873","SARL_v6","SARL_v673kwo8g9","5ba740e19629a90001b3b1c5","freq_resp","","","img/blue_2bandit_b.png","70","img/blue_2bandit_b.png","70","test","","","","","","","","","","","4","","","","","","","","",""
"null","413026","SARL_v6","SARL_v673kwo8g9","5ba740e19629a90001b3b1c5","fixation","","","img/fixation.png","null","","","test","","","","","","","","","","","","","","","","","","","",""
"631.1000000005588","413659","SARL_v6","SARL_v673kwo8g9","5ba740e19629a90001b3b1c5","rl","","","img/black_2bandit_b2.png","75","","0","test","","","91","","","-12","circle","square","","0","4","","75","0","-12","0","-12","square","4","0"
"null","414426","SARL_v6","SARL_v673kwo8g9","5ba740e19629a90001b3b1c5","feedback","","","<div class=""verylowPoints_sq""> -12 </div>","null","","na","test","","","NaN","","","","","","","","4","","75","","","","","","4",""
"null","415236","SARL_v6","SARL_v673kwo8g9","5ba740e19629a90001b3b1c5","freq","","","img/blue_2bandit_b2.png","null","","70","test","0","","92","","","","circle","square","88","1","5","0.9772727272727273","","","","","","","",""
"null","415391","SARL_v6","SARL_v673kwo8g9","5ba740e19629a90001b3b1c5","fixation","","","img/fixation.png","null","","","test","","","","","","","","","","","","","","","","","","","",""
"146.5","415539","SARL_v6","SARL_v673kwo8g9","5ba740e19629a90001b3b1c5","freq","","","img/blue_2bandit_b2.png","70","","70","test","1","","93","","","","circle","square","89","2","5","0.9775280898876404","","","","","","","",""
"null","416203","SARL_v6","SARL_v673kwo8g9","5ba740e19629a90001b3b1c5","freq_resp","","","img/blue_2bandit_b.png","70","img/blue_2bandit_b.png","70","test","","","","","","","","","","","5","","","","","","","","",""
"null","416358","SARL_v6","SARL_v673kwo8g9","5ba740e19629a90001b3b1c5","fixation","","","img/fixation.png","null","","","test","","","","","","","","","","","","","","","","","","","",""
"331.80000000074506","416692","SARL_v6","SARL_v673kwo8g9","5ba740e19629a90001b3b1c5","freq","","","img/blue_2bandit_b2.png","70","","70","test","1","","94","","","","circle","square","90","3","5","0.9777777777777777","","","","","","","",""
"null","417164","SARL_v6","SARL_v673kwo8g9","5ba740e19629a90001b3b1c5","freq_resp","","","img/blue_2bandit_b.png","70","img/blue_2bandit_b.png","70","test","","","","","","","","","","","5","","","","","","","","",""
"null","417322","SARL_v6","SARL_v673kwo8g9","5ba740e19629a90001b3b1c5","fixation","","","img/fixation.png","null","","","test","","","","","","","","","","","","","","","","","","","",""
"352.09999999962747","417676","SARL_v6","SARL_v673kwo8g9","5ba740e19629a90001b3b1c5","freq","","","img/blue_2bandit_b2.png","70","","70","test","1","","95","","","","circle","square","91","4","5","0.978021978021978","","","","","","","",""
"null","418130","SARL_v6","SARL_v673kwo8g9","5ba740e19629a90001b3b1c5","freq_resp","","","img/blue_2bandit_b.png","70","img/blue_2bandit_b.png","70","test","","","","","","","","","","","5","","","","","","","","",""
"null","418285","SARL_v6","SARL_v673kwo8g9","5ba740e19629a90001b3b1c5","fixation","","","img/fixation.png","null","","","test","","","","","","","","","","","","","","","","","","","",""
"380.90000000037253","418668","SARL_v6","SARL_v673kwo8g9","5ba740e19629a90001b3b1c5","freq","","","img/blue_2bandit_b2.png","70","","70","test","1","","96","","","","circle","square","92","5","5","0.9782608695652174","","","","","","","",""
"null","419092","SARL_v6","SARL_v673kwo8g9","5ba740e19629a90001b3b1c5","freq_resp","","","img/blue_2bandit_b.png","70","img/blue_2bandit_b.png","70","test","","","","","","","","","","","5","","","","","","","","",""
"null","419247","SARL_v6","SARL_v673kwo8g9","5ba740e19629a90001b3b1c5","fixation","","","img/fixation.png","null","","","test","","","","","","","","","","","","","","","","","","","",""
"354.79999999981374","419604","SARL_v6","SARL_v673kwo8g9","5ba740e19629a90001b3b1c5","freq","","","img/blue_2bandit_b2.png","70","","70","test","1","","97","","","","circle","square","93","6","5","0.978494623655914","","","","","","","",""
"null","420055","SARL_v6","SARL_v673kwo8g9","5ba740e19629a90001b3b1c5","freq_resp","","","img/blue_2bandit_b.png","70","img/blue_2bandit_b.png","70","test","","","","","","","","","","","5","","","","","","","","",""
"null","420209","SARL_v6","SARL_v673kwo8g9","5ba740e19629a90001b3b1c5","fixation","","","img/fixation.png","null","","","test","","","","","","","","","","","","","","","","","","","",""
"336.5","420547","SARL_v6","SARL_v673kwo8g9","5ba740e19629a90001b3b1c5","freq","","","img/blue_2bandit_b2.png","70","","70","test","1","","98","","","","circle","square","94","7","5","0.9787234042553191","","","","","","","",""
"null","421017","SARL_v6","SARL_v673kwo8g9","5ba740e19629a90001b3b1c5","freq_resp","","","img/blue_2bandit_b.png","70","img/blue_2bandit_b.png","70","test","","","","","","","","","","","5","","","","","","","","",""
"null","421172","SARL_v6","SARL_v673kwo8g9","5ba740e19629a90001b3b1c5","fixation","","","img/fixation.png","null","","","test","","","","","","","","","","","","","","","","","","","",""
"318.40000000037253","421492","SARL_v6","SARL_v673kwo8g9","5ba740e19629a90001b3b1c5","freq","","","img/blue_2bandit_b2.png","70","","70","test","1","","99","","","","circle","square","95","8","5","0.9789473684210527","","","","","","","",""
"null","421978","SARL_v6","SARL_v673kwo8g9","5ba740e19629a90001b3b1c5","freq_resp","","","img/blue_2bandit_b.png","70","img/blue_2bandit_b.png","70","test","","","","","","","","","","","5","","","","","","","","",""
"null","422134","SARL_v6","SARL_v673kwo8g9","5ba740e19629a90001b3b1c5","fixation","","","img/fixation.png","null","","","test","","","","","","","","","","","","","","","","","","","",""
"356.09999999962747","422492","SARL_v6","SARL_v673kwo8g9","5ba740e19629a90001b3b1c5","freq","","","img/blue_2bandit_b2.png","70","","70","test","1","","100","","","","circle","square","96","9","5","0.9791666666666666","","","","","","","",""
"null","422941","SARL_v6","SARL_v673kwo8g9","5ba740e19629a90001b3b1c5","freq_resp","","","img/blue_2bandit_b.png","70","img/blue_2bandit_b.png","70","test","","","","","","","","","","","5","","","","","","","","",""
"null","423095","SARL_v6","SARL_v673kwo8g9","5ba740e19629a90001b3b1c5","fixation","","","img/fixation.png","null","","","test","","","","","","","","","","","","","","","","","","","",""
"338.79999999981374","423436","SARL_v6","SARL_v673kwo8g9","5ba740e19629a90001b3b1c5","freq","","","img/blue_2bandit_b2.png","70","","70","test","1","","101","","","","circle","square","97","10","5","0.979381443298969","","","","","","","",""
"null","423906","SARL_v6","SARL_v673kwo8g9","5ba740e19629a90001b3b1c5","freq_resp","","","img/blue_2bandit_b.png","70","img/blue_2bandit_b.png","70","test","","","","","","","","","","","5","","","","","","","","",""
"null","424058","SARL_v6","SARL_v673kwo8g9","5ba740e19629a90001b3b1c5","fixation","","","img/fixation.png","null","","","test","","","","","","","","","","","","","","","","","","","",""
"311.90000000037253","424372","SARL_v6","SARL_v673kwo8g9","5ba740e19629a90001b3b1c5","freq","","","img/blue_2bandit_b2.png","70","","70","test","1","","102","","","","circle","square","98","11","5","0.9795918367346939","","","","","","","",""
"null","424867","SARL_v6","SARL_v673kwo8g9","5ba740e19629a90001b3b1c5","freq_resp","","","img/blue_2bandit_b.png","70","img/blue_2bandit_b.png","70","test","","","","","","","","","","","5","","","","","","","","",""
"null","425020","SARL_v6","SARL_v673kwo8g9","5ba740e19629a90001b3b1c5","fixation","","","img/fixation.png","null","","","test","","","","","","","","","","","","","","","","","","","",""
"286.29999999981374","425308","SARL_v6","SARL_v673kwo8g9","5ba740e19629a90001b3b1c5","freq","","","img/blue_2bandit_b2.png","70","","70","test","1","","103","","","","circle","square","99","12","5","0.9797979797979798","","","","","","","",""
"null","425831","SARL_v6","SARL_v673kwo8g9","5ba740e19629a90001b3b1c5","freq_resp","","","img/blue_2bandit_b.png","70","img/blue_2bandit_b.png","70","test","","","","","","","","","","","5","","","","","","","","",""
"null","425986","SARL_v6","SARL_v673kwo8g9","5ba740e19629a90001b3b1c5","fixation","","","img/fixation.png","null","","","test","","","","","","","","","","","","","","","","","","","",""
"328","426316","SARL_v6","SARL_v673kwo8g9","5ba740e19629a90001b3b1c5","freq","","","img/blue_2bandit_b2.png","70","","70","test","1","","104","","","","circle","square","100","13","5","0.98","","","","","","","",""
"null","426797","SARL_v6","SARL_v673kwo8g9","5ba740e19629a90001b3b1c5","freq_resp","","","img/blue_2bandit_b.png","70","img/blue_2bandit_b.png","70","test","","","","","","","","","","","5","","","","","","","","",""
"null","426953","SARL_v6","SARL_v673kwo8g9","5ba740e19629a90001b3b1c5","fixation","","","img/fixation.png","null","","","test","","","","","","","","","","","","","","","","","","","",""
"296.40000000037253","427252","SARL_v6","SARL_v673kwo8g9","5ba740e19629a90001b3b1c5","freq","","","img/blue_2bandit_b2.png","70","","70","test","1","","105","","","","circle","square","101","14","5","0.9801980198019802","","","","","","","",""
"null","427761","SARL_v6","SARL_v673kwo8g9","5ba740e19629a90001b3b1c5","freq_resp","","","img/blue_2bandit_b.png","70","img/blue_2bandit_b.png","70","test","","","","","","","","","","","5","","","","","","","","",""
"null","427916","SARL_v6","SARL_v673kwo8g9","5ba740e19629a90001b3b1c5","fixation","","","img/fixation.png","null","","","test","","","","","","","","","","","","","","","","","","","",""
"326.30000000074506","428244","SARL_v6","SARL_v673kwo8g9","5ba740e19629a90001b3b1c5","freq","","","img/blue_2bandit_b2.png","70","","70","test","1","","106","","","","circle","square","102","15","5","0.9803921568627451","","","","","","","",""
"null","428726","SARL_v6","SARL_v673kwo8g9","5ba740e19629a90001b3b1c5","freq_resp","","","img/blue_2bandit_b.png","70","img/blue_2bandit_b.png","70","test","","","","","","","","","","","5","","","","","","","","",""
"null","428883","SARL_v6","SARL_v673kwo8g9","5ba740e19629a90001b3b1c5","fixation","","","img/fixation.png","null","","","test","","","","","","","","","","","","","","","","","","","",""
"343.1000000005588","429228","SARL_v6","SARL_v673kwo8g9","5ba740e19629a90001b3b1c5","freq","","","img/blue_2bandit_b2.png","70","","70","test","1","","107","","","","circle","square","103","16","5","0.9805825242718447","","","","","","","",""
"null","429689","SARL_v6","SARL_v673kwo8g9","5ba740e19629a90001b3b1c5","freq_resp","","","img/blue_2bandit_b.png","70","img/blue_2bandit_b.png","70","test","","","","","","","","","","","5","","","","","","","","",""
"null","429845","SARL_v6","SARL_v673kwo8g9","5ba740e19629a90001b3b1c5","fixation","","","img/fixation.png","null","","","test","","","","","","","","","","","","","","","","","","","",""
"372.79999999981374","430220","SARL_v6","SARL_v673kwo8g9","5ba740e19629a90001b3b1c5","infreq","","","img/orange_2bandit_b2.png","68","","68","test","1","","108","","","","circle","square","104","17","5","0.9807692307692307","","","","","","","",""
"null","430657","SARL_v6","SARL_v673kwo8g9","5ba740e19629a90001b3b1c5","infreq_resp","","","img/orange_2bandit_b.png","68","img/orange_2bandit_b.png","68","test","","","","","","","","","","","5","","","","","","","","",""
"null","430813","SARL_v6","SARL_v673kwo8g9","5ba740e19629a90001b3b1c5","fixation","","","img/fixation.png","null","","","test","","","","","","","","","","","","","","","","","","","",""
"621.2000000001863","431436","SARL_v6","SARL_v673kwo8g9","5ba740e19629a90001b3b1c5","infreq","","","img/orange_2bandit_b2.png","68","","68","test","1","","109","","","","circle","square","105","18","5","0.9809523809523809","","","","","","","",""
"null","431625","SARL_v6","SARL_v673kwo8g9","5ba740e19629a90001b3b1c5","infreq_resp","","","img/orange_2bandit_b.png","68","img/orange_2bandit_b.png","68","test","","","","","","","","","","","5","","","","","","","","",""
"null","431782","SARL_v6","SARL_v673kwo8g9","5ba740e19629a90001b3b1c5","fixation","","","img/fixation.png","null","","","test","","","","","","","","","","","","","","","","","","","",""
"451.70000000018626","432236","SARL_v6","SARL_v673kwo8g9","5ba740e19629a90001b3b1c5","freq","","","img/blue_2bandit_b2.png","70","","70","test","1","","110","","","","circle","square","106","19","5","0.9811320754716981","","","","","","","",""
"null","432593","SARL_v6","SARL_v673kwo8g9","5ba740e19629a90001b3b1c5","freq_resp","","","img/blue_2bandit_b.png","70","img/blue_2bandit_b.png","70","test","","","","","","","","","","","5","","","","","","","","",""
"null","432751","SARL_v6","SARL_v673kwo8g9","5ba740e19629a90001b3b1c5","fixation","","","img/fixation.png","null","","","test","","","","","","","","","","","","","","","","","","","",""
"387.1000000005588","433139","SARL_v6","SARL_v673kwo8g9","5ba740e19629a90001b3b1c5","infreq","","","img/orange_2bandit_b2.png","68","","68","test","1","","111","","","","circle","square","107","20","5","0.9813084112149533","","","","","","","",""
"null","433560","SARL_v6","SARL_v673kwo8g9","5ba740e19629a90001b3b1c5","infreq_resp","","","img/orange_2bandit_b.png","68","img/orange_2bandit_b.png","68","test","","","","","","","","","","","5","","","","","","","","",""
"null","433717","SARL_v6","SARL_v673kwo8g9","5ba740e19629a90001b3b1c5","fixation","","","img/fixation.png","null","","","test","","","","","","","","","","","","","","","","","","","",""
"357.20000000018626","434076","SARL_v6","SARL_v673kwo8g9","5ba740e19629a90001b3b1c5","freq","","","img/blue_2bandit_b2.png","70","","70","test","1","","112","","","","circle","square","108","21","5","0.9814814814814815","","","","","","","",""
"null","434531","SARL_v6","SARL_v673kwo8g9","5ba740e19629a90001b3b1c5","freq_resp","","","img/blue_2bandit_b.png","70","img/blue_2bandit_b.png","70","test","","","","","","","","","","","5","","","","","","","","",""
"null","434685","SARL_v6","SARL_v673kwo8g9","5ba740e19629a90001b3b1c5","fixation","","","img/fixation.png","null","","","test","","","","","","","","","","","","","","","","","","","",""
"341","435027","SARL_v6","SARL_v673kwo8g9","5ba740e19629a90001b3b1c5","freq","","","img/blue_2bandit_b2.png","70","","70","test","1","","113","","","","circle","square","109","22","5","0.981651376146789","","","","","","","",""
"null","435494","SARL_v6","SARL_v673kwo8g9","5ba740e19629a90001b3b1c5","freq_resp","","","img/blue_2bandit_b.png","70","img/blue_2bandit_b.png","70","test","","","","","","","","","","","5","","","","","","","","",""
"null","435651","SARL_v6","SARL_v673kwo8g9","5ba740e19629a90001b3b1c5","fixation","","","img/fixation.png","null","","","test","","","","","","","","","","","","","","","","","","","",""
"294.29999999981374","435947","SARL_v6","SARL_v673kwo8g9","5ba740e19629a90001b3b1c5","freq","","","img/blue_2bandit_b2.png","70","","70","test","1","","114","","","","circle","square","110","23","5","0.9818181818181818","","","","","","","",""
"null","436462","SARL_v6","SARL_v673kwo8g9","5ba740e19629a90001b3b1c5","freq_resp","","","img/blue_2bandit_b.png","70","img/blue_2bandit_b.png","70","test","","","","","","","","","","","5","","","","","","","","",""
"null","436618","SARL_v6","SARL_v673kwo8g9","5ba740e19629a90001b3b1c5","fixation","","","img/fixation.png","null","","","test","","","","","","","","","","","","","","","","","","","",""
"295.5","436916","SARL_v6","SARL_v673kwo8g9","5ba740e19629a90001b3b1c5","freq","","","img/blue_2bandit_b2.png","70","","70","test","1","","115","","","","circle","square","111","24","5","0.9819819819819819","","","","","","","",""
"null","437430","SARL_v6","SARL_v673kwo8g9","5ba740e19629a90001b3b1c5","freq_resp","","","img/blue_2bandit_b.png","70","img/blue_2bandit_b.png","70","test","","","","","","","","","","","5","","","","","","","","",""
"null","437587","SARL_v6","SARL_v673kwo8g9","5ba740e19629a90001b3b1c5","fixation","","","img/fixation.png","null","","","test","","","","","","","","","","","","","","","","","","","",""
"278.5","437868","SARL_v6","SARL_v673kwo8g9","5ba740e19629a90001b3b1c5","freq","","","img/blue_2bandit_b2.png","70","","70","test","1","","116","","","","circle","square","112","25","5","0.9821428571428571","","","","","","","",""
"null","438397","SARL_v6","SARL_v673kwo8g9","5ba740e19629a90001b3b1c5","freq_resp","","","img/blue_2bandit_b.png","70","img/blue_2bandit_b.png","70","test","","","","","","","","","","","5","","","","","","","","",""
"null","438554","SARL_v6","SARL_v673kwo8g9","5ba740e19629a90001b3b1c5","fixation","","","img/fixation.png","null","","","test","","","","","","","","","","","","","","","","","","","",""
"456.09999999962747","439012","SARL_v6","SARL_v673kwo8g9","5ba740e19629a90001b3b1c5","rl","","","img/black_2bandit_b2.png","75","","0","test","","","117","","","-7","circle","square","","0","5","","75","4","-7","4","-7","square","5","0"
"null","439772","SARL_v6","SARL_v673kwo8g9","5ba740e19629a90001b3b1c5","feedback","","","<div class=""verylowPoints_sq""> -7 </div>","null","","na","test","","","NaN","","","","","","","","5","","75","","","","","","5",""
"606.3999999994412","440380","SARL_v6","SARL_v673kwo8g9","5ba740e19629a90001b3b1c5","freq","","","img/blue_2bandit_b2.png","70","","70","test","1","","118","","","","circle","square","113","1","6","0.9823008849557522","","","","","","","",""
"null","440584","SARL_v6","SARL_v673kwo8g9","5ba740e19629a90001b3b1c5","freq_resp","","","img/blue_2bandit_b.png","70","img/blue_2bandit_b.png","70","test","","","","","","","","","","","6","","","","","","","","",""
"null","440740","SARL_v6","SARL_v673kwo8g9","5ba740e19629a90001b3b1c5","fixation","","","img/fixation.png","null","","","test","","","","","","","","","","","","","","","","","","","",""
"422","441164","SARL_v6","SARL_v673kwo8g9","5ba740e19629a90001b3b1c5","freq","","","img/blue_2bandit_b2.png","70","","70","test","1","","119","","","","circle","square","114","2","6","0.9824561403508771","","","","","","","",""
"null","441552","SARL_v6","SARL_v673kwo8g9","5ba740e19629a90001b3b1c5","freq_resp","","","img/blue_2bandit_b.png","70","img/blue_2bandit_b.png","70","test","","","","","","","","","","","6","","","","","","","","",""
"null","441707","SARL_v6","SARL_v673kwo8g9","5ba740e19629a90001b3b1c5","fixation","","","img/fixation.png","null","","","test","","","","","","","","","","","","","","","","","","","",""
"342.80000000074506","442052","SARL_v6","SARL_v673kwo8g9","5ba740e19629a90001b3b1c5","freq","","","img/blue_2bandit_b2.png","70","","70","test","1","","120","","","","circle","square","115","3","6","0.9826086956521739","","","","","","","",""
"null","442516","SARL_v6","SARL_v673kwo8g9","5ba740e19629a90001b3b1c5","freq_resp","","","img/blue_2bandit_b.png","70","img/blue_2bandit_b.png","70","test","","","","","","","","","","","6","","","","","","","","",""
"null","442671","SARL_v6","SARL_v673kwo8g9","5ba740e19629a90001b3b1c5","fixation","","","img/fixation.png","null","","","test","","","","","","","","","","","","","","","","","","","",""
"330.5","443004","SARL_v6","SARL_v673kwo8g9","5ba740e19629a90001b3b1c5","freq","","","img/blue_2bandit_b2.png","70","","70","test","1","","121","","","","circle","square","116","4","6","0.9827586206896551","","","","","","","",""
"null","443483","SARL_v6","SARL_v673kwo8g9","5ba740e19629a90001b3b1c5","freq_resp","","","img/blue_2bandit_b.png","70","img/blue_2bandit_b.png","70","test","","","","","","","","","","","6","","","","","","","","",""
"null","443641","SARL_v6","SARL_v673kwo8g9","5ba740e19629a90001b3b1c5","fixation","","","img/fixation.png","null","","","test","","","","","","","","","","","","","","","","","","","",""
"297.20000000018626","443939","SARL_v6","SARL_v673kwo8g9","5ba740e19629a90001b3b1c5","freq","","","img/blue_2bandit_b2.png","70","","70","test","1","","122","","","","circle","square","117","5","6","0.9829059829059829","","","","","","","",""
"null","444455","SARL_v6","SARL_v673kwo8g9","5ba740e19629a90001b3b1c5","freq_resp","","","img/blue_2bandit_b.png","70","img/blue_2bandit_b.png","70","test","","","","","","","","","","","6","","","","","","","","",""
"null","444612","SARL_v6","SARL_v673kwo8g9","5ba740e19629a90001b3b1c5","fixation","","","img/fixation.png","null","","","test","","","","","","","","","","","","","","","","","","","",""
"326.29999999981374","444940","SARL_v6","SARL_v673kwo8g9","5ba740e19629a90001b3b1c5","freq","","","img/blue_2bandit_b2.png","70","","70","test","1","","123","","","","circle","square","118","6","6","0.9830508474576272","","","","","","","",""
"null","445423","SARL_v6","SARL_v673kwo8g9","5ba740e19629a90001b3b1c5","freq_resp","","","img/blue_2bandit_b.png","70","img/blue_2bandit_b.png","70","test","","","","","","","","","","","6","","","","","","","","",""
"null","445578","SARL_v6","SARL_v673kwo8g9","5ba740e19629a90001b3b1c5","fixation","","","img/fixation.png","null","","","test","","","","","","","","","","","","","","","","","","","",""
"336.20000000018626","445916","SARL_v6","SARL_v673kwo8g9","5ba740e19629a90001b3b1c5","freq","","","img/blue_2bandit_b2.png","70","","70","test","1","","124","","","","circle","square","119","7","6","0.9831932773109243","","","","","","","",""
"null","446390","SARL_v6","SARL_v673kwo8g9","5ba740e19629a90001b3b1c5","freq_resp","","","img/blue_2bandit_b.png","70","img/blue_2bandit_b.png","70","test","","","","","","","","","","","6","","","","","","","","",""
"null","446546","SARL_v6","SARL_v673kwo8g9","5ba740e19629a90001b3b1c5","fixation","","","img/fixation.png","null","","","test","","","","","","","","","","","","","","","","","","","",""
"303.79999999981374","446852","SARL_v6","SARL_v673kwo8g9","5ba740e19629a90001b3b1c5","freq","","","img/blue_2bandit_b2.png","70","","70","test","1","","125","","","","circle","square","120","8","6","0.9833333333333333","","","","","","","",""
"null","447360","SARL_v6","SARL_v673kwo8g9","5ba740e19629a90001b3b1c5","freq_resp","","","img/blue_2bandit_b.png","70","img/blue_2bandit_b.png","70","test","","","","","","","","","","","6","","","","","","","","",""
"null","447512","SARL_v6","SARL_v673kwo8g9","5ba740e19629a90001b3b1c5","fixation","","","img/fixation.png","null","","","test","","","","","","","","","","","","","","","","","","","",""
"322.29999999981374","447836","SARL_v6","SARL_v673kwo8g9","5ba740e19629a90001b3b1c5","freq","","","img/blue_2bandit_b2.png","70","","70","test","1","","126","","","","circle","square","121","9","6","0.9834710743801653","","","","","","","",""
"null","448321","SARL_v6","SARL_v673kwo8g9","5ba740e19629a90001b3b1c5","freq_resp","","","img/blue_2bandit_b.png","70","img/blue_2bandit_b.png","70","test","","","","","","","","","","","6","","","","","","","","",""
"null","448477","SARL_v6","SARL_v673kwo8g9","5ba740e19629a90001b3b1c5","fixation","","","img/fixation.png","null","","","test","","","","","","","","","","","","","","","","","","","",""
"284.90000000037253","448764","SARL_v6","SARL_v673kwo8g9","5ba740e19629a90001b3b1c5","freq","","","img/blue_2bandit_b2.png","70","","70","test","1","","127","","","","circle","square","122","10","6","0.9836065573770492","","","","","","","",""
"null","449285","SARL_v6","SARL_v673kwo8g9","5ba740e19629a90001b3b1c5","freq_resp","","","img/blue_2bandit_b.png","70","img/blue_2bandit_b.png","70","test","","","","","","","","","","","6","","","","","","","","",""
"null","449439","SARL_v6","SARL_v673kwo8g9","5ba740e19629a90001b3b1c5","fixation","","","img/fixation.png","null","","","test","","","","","","","","","","","","","","","","","","","",""
"306.29999999981374","449747","SARL_v6","SARL_v673kwo8g9","5ba740e19629a90001b3b1c5","freq","","","img/blue_2bandit_b2.png","70","","70","test","1","","128","","","","circle","square","123","11","6","0.983739837398374","","","","","","","",""
"null","450251","SARL_v6","SARL_v673kwo8g9","5ba740e19629a90001b3b1c5","freq_resp","","","img/blue_2bandit_b.png","70","img/blue_2bandit_b.png","70","test","","","","","","","","","","","6","","","","","","","","",""
"null","450406","SARL_v6","SARL_v673kwo8g9","5ba740e19629a90001b3b1c5","fixation","","","img/fixation.png","null","","","test","","","","","","","","","","","","","","","","","","","",""
"292.09999999962747","450700","SARL_v6","SARL_v673kwo8g9","5ba740e19629a90001b3b1c5","freq","","","img/blue_2bandit_b2.png","70","","70","test","1","","129","","","","circle","square","124","12","6","0.9838709677419355","","","","","","","",""
"null","451211","SARL_v6","SARL_v673kwo8g9","5ba740e19629a90001b3b1c5","freq_resp","","","img/blue_2bandit_b.png","70","img/blue_2bandit_b.png","70","test","","","","","","","","","","","6","","","","","","","","",""
"null","451366","SARL_v6","SARL_v673kwo8g9","5ba740e19629a90001b3b1c5","fixation","","","img/fixation.png","null","","","test","","","","","","","","","","","","","","","","","","","",""
"307.40000000037253","451676","SARL_v6","SARL_v673kwo8g9","5ba740e19629a90001b3b1c5","freq","","","img/blue_2bandit_b2.png","70","","70","test","1","","130","","","","circle","square","125","13","6","0.984","","","","","","","",""
