"rt","time_elapsed","expId","subject","prolificID","trialType","rlType","attType","stimulus","key_press","stim","corrresp","phase","corr","pracCounter","trialNum","rewardOne","rewardTwo","reward","bandOne","bandTwo","attentionNum","attentionRunNum","blockNum","performance","bandChosen","circleVal","squareVal","bandOneVal","bandTwoVal","shapeChosen","rlNum","badFlag"
"232019.30000000005","232025","SARL_v6","SARL_v6hcsmhe2v","63d156100e702f67d226f892","","","","","","","","","","","","","","","","","","","","","","","","","","","",""
"","235704","SARL_v6","SARL_v6hcsmhe2v","63d156100e702f67d226f892","fullscreen","fullscreen","fullscreen","","","","","","","","","","","","","","","","","","","","","","","","",""
"73054.5","308762","SARL_v6","SARL_v6hcsmhe2v","63d156100e702f67d226f892","","","","","","","","","","","","","","","","","","","","","","","","","","","",""
"null","309569","SARL_v6","SARL_v6hcsmhe2v","63d156100e702f67d226f892","freqPrac","","","img/orange_2bandit_a2.png","null","img/orange_2bandit_a2.png","70","prac","0","1","","","","","","","","","","","","","","","","","",""
"null","310576","SARL_v6","SARL_v6hcsmhe2v","63d156100e702f67d226f892","feedback","","","img/tooSlow.png","null","","na","prac","","","","","","","","","","","","","","","","","","","",""
"null","310736","SARL_v6","SARL_v6hcsmhe2v","63d156100e702f67d226f892","fixation","","","img/fixation.png","null","","","prac","","","","","","","","","","","","","","","","","","","",""
"514.2999999999302","311254","SARL_v6","SARL_v6hcsmhe2v","63d156100e702f67d226f892","infreqPrac","","","img/blue_2bandit_a2.png","68","img/blue_2bandit_a2.png","68","prac","1","1","","","","","","","","","","","","","","","","","",""
"514.2999999999302","311544","SARL_v6","SARL_v6hcsmhe2v","63d156100e702f67d226f892","infreqPrac_resp","","","img/blue_2bandit_a.png","68","img/blue_2bandit_a.png","68","prac","","","","","","","","","","","","","","","","","","","",""
"null","311705","SARL_v6","SARL_v6hcsmhe2v","63d156100e702f67d226f892","fixation","","","img/fixation.png","null","","","prac","","","","","","","","","","","","","","","","","","","",""
"629","312337","SARL_v6","SARL_v6hcsmhe2v","63d156100e702f67d226f892","freqPrac","","","img/orange_2bandit_a2.png","70","img/orange_2bandit_a2.png","70","prac","1","1","","","","","","","","","","","","","","","","","",""
"629","312512","SARL_v6","SARL_v6hcsmhe2v","63d156100e702f67d226f892","freqPrac_resp","","","img/orange_2bandit_a.png","70","img/orange_2bandit_a.png","70","prac","","","","","","","","","","","","","","","","","","","",""
"null","312672","SARL_v6","SARL_v6hcsmhe2v","63d156100e702f67d226f892","fixation","","","img/fixation.png","null","","","prac","","","","","","","","","","","","","","","","","","","",""
"555.0999999999767","313230","SARL_v6","SARL_v6hcsmhe2v","63d156100e702f67d226f892","infreqPrac","","","img/blue_2bandit_a2.png","68","img/blue_2bandit_a2.png","68","prac","1","1","","","","","","","","","","","","","","","","","",""
"555.0999999999767","313481","SARL_v6","SARL_v6hcsmhe2v","63d156100e702f67d226f892","infreqPrac_resp","","","img/blue_2bandit_a.png","68","img/blue_2bandit_a.png","68","prac","","","","","","","","","","","","","","","","","","","",""
"null","313640","SARL_v6","SARL_v6hcsmhe2v","63d156100e702f67d226f892","fixation","","","img/fixation.png","null","","","prac","","","","","","","","","","","","","","","","","","","",""
"518.5","314162","SARL_v6","SARL_v6hcsmhe2v","63d156100e702f67d226f892","infreqPrac","","","img/blue_2bandit_a2.png","68","img/blue_2bandit_a2.png","68","prac","1","1","","","","","","","","","","","","","","","","","",""
"518.5","314448","SARL_v6","SARL_v6hcsmhe2v","63d156100e702f67d226f892","infreqPrac_resp","","","img/blue_2bandit_a.png","68","img/blue_2bandit_a.png","68","prac","","","","","","","","","","","","","","","","","","","",""
"null","314608","SARL_v6","SARL_v6hcsmhe2v","63d156100e702f67d226f892","fixation","","","img/fixation.png","null","","","prac","","","","","","","","","","","","","","","","","","","",""
"480.9000000000233","315092","SARL_v6","SARL_v6hcsmhe2v","63d156100e702f67d226f892","infreqPrac","","","img/blue_2bandit_a2.png","68","img/blue_2bandit_a2.png","68","prac","1","1","","","","","","","","","","","","","","","","","",""
"480.9000000000233","315416","SARL_v6","SARL_v6hcsmhe2v","63d156100e702f67d226f892","infreqPrac_resp","","","img/blue_2bandit_a.png","68","img/blue_2bandit_a.png","68","prac","","","","","","","","","","","","","","","","","","","",""
"null","315576","SARL_v6","SARL_v6hcsmhe2v","63d156100e702f67d226f892","fixation","","","img/fixation.png","null","","","prac","","","","","","","","","","","","","","","","","","","",""
"524.5999999999767","316104","SARL_v6","SARL_v6hcsmhe2v","63d156100e702f67d226f892","freqPrac","","","img/orange_2bandit_a2.png","70","img/orange_2bandit_a2.png","70","prac","1","1","","","","","","","","","","","","","","","","","",""
"524.5999999999767","316384","SARL_v6","SARL_v6hcsmhe2v","63d156100e702f67d226f892","freqPrac_resp","","","img/orange_2bandit_a.png","70","img/orange_2bandit_a.png","70","prac","","","","","","","","","","","","","","","","","","","",""
"null","316544","SARL_v6","SARL_v6hcsmhe2v","63d156100e702f67d226f892","fixation","","","img/fixation.png","null","","","prac","","","","","","","","","","","","","","","","","","","",""
"621.5","317169","SARL_v6","SARL_v6hcsmhe2v","63d156100e702f67d226f892","infreqPrac","","","img/blue_2bandit_a2.png","68","img/blue_2bandit_a2.png","68","prac","1","1","","","","","","","","","","","","","","","","","",""
"621.5","317352","SARL_v6","SARL_v6hcsmhe2v","63d156100e702f67d226f892","infreqPrac_resp","","","img/blue_2bandit_a.png","68","img/blue_2bandit_a.png","68","prac","","","","","","","","","","","","","","","","","","","",""
"null","317512","SARL_v6","SARL_v6hcsmhe2v","63d156100e702f67d226f892","fixation","","","img/fixation.png","null","","","prac","","","","","","","","","","","","","","","","","","","",""
"616","318131","SARL_v6","SARL_v6hcsmhe2v","63d156100e702f67d226f892","freqPrac","","","img/orange_2bandit_a2.png","70","img/orange_2bandit_a2.png","70","prac","1","1","","","","","","","","","","","","","","","","","",""
"616","318320","SARL_v6","SARL_v6hcsmhe2v","63d156100e702f67d226f892","freqPrac_resp","","","img/orange_2bandit_a.png","70","img/orange_2bandit_a.png","70","prac","","","","","","","","","","","","","","","","","","","",""
"null","318480","SARL_v6","SARL_v6hcsmhe2v","63d156100e702f67d226f892","fixation","","","img/fixation.png","null","","","prac","","","","","","","","","","","","","","","","","","","",""
"498.5999999999767","318982","SARL_v6","SARL_v6hcsmhe2v","63d156100e702f67d226f892","freqPrac","","","img/orange_2bandit_a2.png","70","img/orange_2bandit_a2.png","70","prac","1","1","","","","","","","","","","","","","","","","","",""
"498.5999999999767","319288","SARL_v6","SARL_v6hcsmhe2v","63d156100e702f67d226f892","freqPrac_resp","","","img/orange_2bandit_a.png","70","img/orange_2bandit_a.png","70","prac","","","","","","","","","","","","","","","","","","","",""
"null","319448","SARL_v6","SARL_v6hcsmhe2v","63d156100e702f67d226f892","fixation","","","img/fixation.png","null","","","prac","","","","","","","","","","","","","","","","","","","",""
"26003.099999999977","345454","SARL_v6","SARL_v6hcsmhe2v","63d156100e702f67d226f892","","","","","","","","prac","","","","","","","","","","","","","","","","","","","",""
"599.8000000000466","346057","SARL_v6","SARL_v6hcsmhe2v","63d156100e702f67d226f892","rlPractice","","","img/black_2bandit_a2.png","75","img/black_2bandit_a2.png","","prac","","","0","","","","","","","","","","","","","","","","",""
"null","346817","SARL_v6","SARL_v6hcsmhe2v","63d156100e702f67d226f892","feedback","","","<div class=""veryhighPoints""> 10 </div>","null","","na","prac","","","1","10","-14","10","","","","","","","","","","","","","",""
"null","346976","SARL_v6","SARL_v6hcsmhe2v","63d156100e702f67d226f892","fixation","","","img/fixation.png","null","","","prac","","","","","","","","","","","","","","","","","","","",""
"416.30000000004657","347396","SARL_v6","SARL_v6hcsmhe2v","63d156100e702f67d226f892","rlPractice","","","img/black_2bandit_a2.png","75","img/black_2bandit_a2.png","","prac","","","1","","","","","","","","","","","","","","","","",""
"null","348152","SARL_v6","SARL_v6hcsmhe2v","63d156100e702f67d226f892","feedback","","","<div class=""veryhighPoints""> 5 </div>","null","","na","prac","","","2","5","-5","5","","","","","","","","","","","","","",""
"null","348312","SARL_v6","SARL_v6hcsmhe2v","63d156100e702f67d226f892","fixation","","","img/fixation.png","null","","","prac","","","","","","","","","","","","","","","","","","","",""
"366.5","348682","SARL_v6","SARL_v6hcsmhe2v","63d156100e702f67d226f892","rlPractice","","","img/black_2bandit_a2.png","74","img/black_2bandit_a2.png","","prac","","","2","","","","","","","","","","","","","","","","",""
"null","349440","SARL_v6","SARL_v6hcsmhe2v","63d156100e702f67d226f892","feedback","","","<div class=""veryhighPoints_sq""> 2 </div>","null","","na","prac","","","3","30","2","30","","","","","","","","","","","","","",""
"null","349600","SARL_v6","SARL_v6hcsmhe2v","63d156100e702f67d226f892","fixation","","","img/fixation.png","null","","","prac","","","","","","","","","","","","","","","","","","","",""
"304.0999999999767","349907","SARL_v6","SARL_v6hcsmhe2v","63d156100e702f67d226f892","rlPractice","","","img/black_2bandit_a2.png","75","img/black_2bandit_a2.png","","prac","","","3","","","","","","","","","","","","","","","","",""
"null","350665","SARL_v6","SARL_v6hcsmhe2v","63d156100e702f67d226f892","feedback","","","<div class=""verylowPoints""> -2 </div>","null","","na","prac","","","4","-2","20","-2","","","","","","","","","","","","","",""
"null","350825","SARL_v6","SARL_v6hcsmhe2v","63d156100e702f67d226f892","fixation","","","img/fixation.png","null","","","prac","","","","","","","","","","","","","","","","","","","",""
"34102.90000000002","384930","SARL_v6","SARL_v6hcsmhe2v","63d156100e702f67d226f892","","","","","","","","prac","","","","","","","","","","","","","","","","","","","",""
"null","385736","SARL_v6","SARL_v6hcsmhe2v","63d156100e702f67d226f892","mixAttFreqPrac","","","img/orange_2bandit_a2.png","null","img/orange_2bandit_a2.png","70","prac","","","1","","","","","","","","","","","","","","","","",""
"null","385897","SARL_v6","SARL_v6hcsmhe2v","63d156100e702f67d226f892","fixation","","","img/fixation.png","null","","","prac","","","","","","","","","","","","","","","","","","","",""
"53.199999999953434","385953","SARL_v6","SARL_v6hcsmhe2v","63d156100e702f67d226f892","mixAttInfreqPrac","","","img/blue_2bandit_a2.png","70","img/blue_2bandit_a2.png","68","prac","","","2","","","","","","","","","","","","","","","","",""
"53.199999999953434","386704","SARL_v6","SARL_v6hcsmhe2v","63d156100e702f67d226f892","infreqPrac_resp","","","img/blue_2bandit_a.png","70","img/orange_2bandit_a.png","68","prac","","","2","","","","","","","","","","","","","","","","",""
"null","386864","SARL_v6","SARL_v6hcsmhe2v","63d156100e702f67d226f892","fixation","","","img/fixation.png","null","","","prac","","","","","","","","","","","","","","","","","","","",""
"489.30000000004657","387356","SARL_v6","SARL_v6hcsmhe2v","63d156100e702f67d226f892","mixAttInfreqPrac","","","img/blue_2bandit_a2.png","68","img/blue_2bandit_a2.png","68","prac","","","3","","","","","","","","","","","","","","","","",""
"489.30000000004657","387672","SARL_v6","SARL_v6hcsmhe2v","63d156100e702f67d226f892","infreqPrac_resp","","","img/blue_2bandit_a.png","68","img/orange_2bandit_a.png","68","prac","","","3","","","","","","","","","","","","","","","","",""
"null","387832","SARL_v6","SARL_v6hcsmhe2v","63d156100e702f67d226f892","fixation","","","img/fixation.png","null","","","prac","","","","","","","","","","","","","","","","","","","",""
"490.69999999995343","388326","SARL_v6","SARL_v6hcsmhe2v","63d156100e702f67d226f892","mixAttInfreqPrac","","","img/blue_2bandit_a2.png","68","img/blue_2bandit_a2.png","68","prac","","","4","","","","","","","","","","","","","","","","",""
"490.69999999995343","388641","SARL_v6","SARL_v6hcsmhe2v","63d156100e702f67d226f892","infreqPrac_resp","","","img/blue_2bandit_a.png","68","img/orange_2bandit_a.png","68","prac","","","4","","","","","","","","","","","","","","","","",""
"null","388800","SARL_v6","SARL_v6hcsmhe2v","63d156100e702f67d226f892","fixation","","","img/fixation.png","null","","","prac","","","","","","","","","","","","","","","","","","","",""
"429.70000000006985","389233","SARL_v6","SARL_v6hcsmhe2v","63d156100e702f67d226f892","mixAttFreqPrac","","","img/orange_2bandit_a2.png","70","img/orange_2bandit_a2.png","70","prac","","","5","","","","","","","","","","","","","","","","",""
"429.70000000006985","389608","SARL_v6","SARL_v6hcsmhe2v","63d156100e702f67d226f892","freqPrac_resp","","","img/orange_2bandit_a.png","70","img/orange_2bandit_a.png","70","prac","","","5","","","","","","","","","","","","","","","","",""
"null","389768","SARL_v6","SARL_v6hcsmhe2v","63d156100e702f67d226f892","fixation","","","img/fixation.png","null","","","prac","","","","","","","","","","","","","","","","","","","",""
"713.5","390485","SARL_v6","SARL_v6hcsmhe2v","63d156100e702f67d226f892","mixRLPractice","","","img/black_2bandit_a2.png","75","img/black_2bandit_a2.png","","prac","","","5","","","","","","","","","","","","","","","","",""
"null","391240","SARL_v6","SARL_v6hcsmhe2v","63d156100e702f67d226f892","feedback","","","<div class=""verylowPoints""> -14 </div>","null","","na","prac","","","6","-14","10","-14","","","","","","","","","","","","","",""
"null","391401","SARL_v6","SARL_v6hcsmhe2v","63d156100e702f67d226f892","fixation","","","img/fixation.png","null","","","prac","","","","","","","","","","","","","","","","","","","",""
"781.6999999999534","392185","SARL_v6","SARL_v6hcsmhe2v","63d156100e702f67d226f892","mixAttFreqPrac","","","img/orange_2bandit_a2.png","68","img/orange_2bandit_a2.png","70","prac","","","7","","","","","","","","","","","","","","","","",""
"781.6999999999534","392208","SARL_v6","SARL_v6hcsmhe2v","63d156100e702f67d226f892","freqPrac_resp","","","img/orange_2bandit_a.png","68","img/orange_2bandit_a.png","70","prac","","","7","","","","","","","","","","","","","","","","",""
"null","392368","SARL_v6","SARL_v6hcsmhe2v","63d156100e702f67d226f892","fixation","","","img/fixation.png","null","","","prac","","","","","","","","","","","","","","","","","","","",""
"640.7999999999302","393012","SARL_v6","SARL_v6hcsmhe2v","63d156100e702f67d226f892","mixAttInfreqPrac","","","img/blue_2bandit_a2.png","68","img/blue_2bandit_a2.png","68","prac","","","8","","","","","","","","","","","","","","","","",""
"640.7999999999302","393176","SARL_v6","SARL_v6hcsmhe2v","63d156100e702f67d226f892","infreqPrac_resp","","","img/blue_2bandit_a.png","68","img/orange_2bandit_a.png","68","prac","","","8","","","","","","","","","","","","","","","","",""
"null","393336","SARL_v6","SARL_v6hcsmhe2v","63d156100e702f67d226f892","fixation","","","img/fixation.png","null","","","prac","","","","","","","","","","","","","","","","","","","",""
"793.4000000000233","394133","SARL_v6","SARL_v6hcsmhe2v","63d156100e702f67d226f892","mixAttFreqPrac","","","img/orange_2bandit_a2.png","68","img/orange_2bandit_a2.png","70","prac","","","9","","","","","","","","","","","","","","","","",""
"793.4000000000233","394143","SARL_v6","SARL_v6hcsmhe2v","63d156100e702f67d226f892","freqPrac_resp","","","img/orange_2bandit_a.png","68","img/orange_2bandit_a.png","70","prac","","","9","","","","","","","","","","","","","","","","",""
"null","394296","SARL_v6","SARL_v6hcsmhe2v","63d156100e702f67d226f892","fixation","","","img/fixation.png","null","","","prac","","","","","","","","","","","","","","","","","","","",""
"391","394690","SARL_v6","SARL_v6hcsmhe2v","63d156100e702f67d226f892","mixAttFreqPrac","","","img/orange_2bandit_a2.png","70","img/orange_2bandit_a2.png","70","prac","","","10","","","","","","","","","","","","","","","","",""
"391","395104","SARL_v6","SARL_v6hcsmhe2v","63d156100e702f67d226f892","freqPrac_resp","","","img/orange_2bandit_a.png","70","img/orange_2bandit_a.png","70","prac","","","10","","","","","","","","","","","","","","","","",""
"null","395264","SARL_v6","SARL_v6hcsmhe2v","63d156100e702f67d226f892","fixation","","","img/fixation.png","null","","","prac","","","","","","","","","","","","","","","","","","","",""
"766.5","396034","SARL_v6","SARL_v6hcsmhe2v","63d156100e702f67d226f892","mixAttInfreqPrac","","","img/blue_2bandit_a2.png","68","img/blue_2bandit_a2.png","68","prac","","","11","","","","","","","","","","","","","","","","",""
"766.5","396072","SARL_v6","SARL_v6hcsmhe2v","63d156100e702f67d226f892","infreqPrac_resp","","","img/blue_2bandit_a.png","68","img/orange_2bandit_a.png","68","prac","","","11","","","","","","","","","","","","","","","","",""
"null","396232","SARL_v6","SARL_v6hcsmhe2v","63d156100e702f67d226f892","fixation","","","img/fixation.png","null","","","prac","","","","","","","","","","","","","","","","","","","",""
"706.0999999999767","396940","SARL_v6","SARL_v6hcsmhe2v","63d156100e702f67d226f892","mixRLPractice","","","img/black_2bandit_a2.png","75","img/black_2bandit_a2.png","","prac","","","11","","","","","","","","","","","","","","","","",""
"null","397696","SARL_v6","SARL_v6hcsmhe2v","63d156100e702f67d226f892","feedback","","","<div class=""veryhighPoints""> 5 </div>","null","","na","prac","","","12","5","-5","5","","","","","","","","","","","","","",""
"null","397857","SARL_v6","SARL_v6hcsmhe2v","63d156100e702f67d226f892","fixation","","","img/fixation.png","null","","","prac","","","","","","","","","","","","","","","","","","","",""
"23427.800000000047","421287","SARL_v6","SARL_v6hcsmhe2v","63d156100e702f67d226f892","","","","","","","","prac","","","","","","","","","","","","","","","","","","","",""
"566.2999999999302","421856","SARL_v6","SARL_v6hcsmhe2v","63d156100e702f67d226f892","freq","","","img/orange_2bandit_a2.png","70","","70","test","1","","1","","","","square","circle","1","1","1","1","","","","","","","",""
"null","422096","SARL_v6","SARL_v6hcsmhe2v","63d156100e702f67d226f892","freq_resp","","","img/orange_2bandit_a.png","70","img/orange_2bandit_a.png","70","test","","","","","","","","","","","1","","","","","","","","",""
"null","422256","SARL_v6","SARL_v6hcsmhe2v","63d156100e702f67d226f892","fixation","","","img/fixation.png","null","","","test","","","","","","","","","","","","","","","","","","","",""
"478","422737","SARL_v6","SARL_v6hcsmhe2v","63d156100e702f67d226f892","freq","","","img/orange_2bandit_a2.png","70","","70","test","1","","2","","","","square","circle","2","2","1","1","","","","","","","",""
"null","423064","SARL_v6","SARL_v6hcsmhe2v","63d156100e702f67d226f892","freq_resp","","","img/orange_2bandit_a.png","70","img/orange_2bandit_a.png","70","test","","","","","","","","","","","1","","","","","","","","",""
"null","423224","SARL_v6","SARL_v6hcsmhe2v","63d156100e702f67d226f892","fixation","","","img/fixation.png","null","","","test","","","","","","","","","","","","","","","","","","","",""
"506.80000000004657","423734","SARL_v6","SARL_v6hcsmhe2v","63d156100e702f67d226f892","freq","","","img/orange_2bandit_a2.png","70","","70","test","1","","3","","","","square","circle","3","3","1","1","","","","","","","",""
"null","424032","SARL_v6","SARL_v6hcsmhe2v","63d156100e702f67d226f892","freq_resp","","","img/orange_2bandit_a.png","70","img/orange_2bandit_a.png","70","test","","","","","","","","","","","1","","","","","","","","",""
"null","424192","SARL_v6","SARL_v6hcsmhe2v","63d156100e702f67d226f892","fixation","","","img/fixation.png","null","","","test","","","","","","","","","","","","","","","","","","","",""
"630.2999999999302","424826","SARL_v6","SARL_v6hcsmhe2v","63d156100e702f67d226f892","freq","","","img/orange_2bandit_a2.png","70","","70","test","1","","4","","","","square","circle","4","4","1","1","","","","","","","",""
"null","425000","SARL_v6","SARL_v6hcsmhe2v","63d156100e702f67d226f892","freq_resp","","","img/orange_2bandit_a.png","70","img/orange_2bandit_a.png","70","test","","","","","","","","","","","1","","","","","","","","",""
"null","425160","SARL_v6","SARL_v6hcsmhe2v","63d156100e702f67d226f892","fixation","","","img/fixation.png","null","","","test","","","","","","","","","","","","","","","","","","","",""
"636.4000000000233","425799","SARL_v6","SARL_v6hcsmhe2v","63d156100e702f67d226f892","freq","","","img/orange_2bandit_a2.png","70","","70","test","1","","5","","","","square","circle","5","5","1","1","","","","","","","",""
"null","425968","SARL_v6","SARL_v6hcsmhe2v","63d156100e702f67d226f892","freq_resp","","","img/orange_2bandit_a.png","70","img/orange_2bandit_a.png","70","test","","","","","","","","","","","1","","","","","","","","",""
"null","426128","SARL_v6","SARL_v6hcsmhe2v","63d156100e702f67d226f892","fixation","","","img/fixation.png","null","","","test","","","","","","","","","","","","","","","","","","","",""
"649.6000000000931","426781","SARL_v6","SARL_v6hcsmhe2v","63d156100e702f67d226f892","freq","","","img/orange_2bandit_a2.png","70","","70","test","1","","6","","","","square","circle","6","6","1","1","","","","","","","",""
"null","426936","SARL_v6","SARL_v6hcsmhe2v","63d156100e702f67d226f892","freq_resp","","","img/orange_2bandit_a.png","70","img/orange_2bandit_a.png","70","test","","","","","","","","","","","1","","","","","","","","",""
"null","427096","SARL_v6","SARL_v6hcsmhe2v","63d156100e702f67d226f892","fixation","","","img/fixation.png","null","","","test","","","","","","","","","","","","","","","","","","","",""
"599.9000000000233","427699","SARL_v6","SARL_v6hcsmhe2v","63d156100e702f67d226f892","freq","","","img/orange_2bandit_a2.png","70","","70","test","1","","7","","","","square","circle","7","7","1","1","","","","","","","",""
"null","427904","SARL_v6","SARL_v6hcsmhe2v","63d156100e702f67d226f892","freq_resp","","","img/orange_2bandit_a.png","70","img/orange_2bandit_a.png","70","test","","","","","","","","","","","1","","","","","","","","",""
"null","428064","SARL_v6","SARL_v6hcsmhe2v","63d156100e702f67d226f892","fixation","","","img/fixation.png","null","","","test","","","","","","","","","","","","","","","","","","","",""
"594.5","428662","SARL_v6","SARL_v6hcsmhe2v","63d156100e702f67d226f892","freq","","","img/orange_2bandit_a2.png","70","","70","test","1","","8","","","","square","circle","8","8","1","1","","","","","","","",""
"null","428872","SARL_v6","SARL_v6hcsmhe2v","63d156100e702f67d226f892","freq_resp","","","img/orange_2bandit_a.png","70","img/orange_2bandit_a.png","70","test","","","","","","","","","","","1","","","","","","","","",""
"null","429032","SARL_v6","SARL_v6hcsmhe2v","63d156100e702f67d226f892","fixation","","","img/fixation.png","null","","","test","","","","","","","","","","","","","","","","","","","",""
"489.89999999990687","429525","SARL_v6","SARL_v6hcsmhe2v","63d156100e702f67d226f892","freq","","","img/orange_2bandit_a2.png","70","","70","test","1","","9","","","","square","circle","9","9","1","1","","","","","","","",""
"null","429840","SARL_v6","SARL_v6hcsmhe2v","63d156100e702f67d226f892","freq_resp","","","img/orange_2bandit_a.png","70","img/orange_2bandit_a.png","70","test","","","","","","","","","","","1","","","","","","","","",""
"null","430000","SARL_v6","SARL_v6hcsmhe2v","63d156100e702f67d226f892","fixation","","","img/fixation.png","null","","","test","","","","","","","","","","","","","","","","","","","",""
"540.6999999999534","430544","SARL_v6","SARL_v6hcsmhe2v","63d156100e702f67d226f892","infreq","","","img/blue_2bandit_a2.png","68","","68","test","1","","10","","","","square","circle","10","10","1","1","","","","","","","",""
"null","430808","SARL_v6","SARL_v6hcsmhe2v","63d156100e702f67d226f892","infreq_resp","","","img/blue_2bandit_a.png","68","img/blue_2bandit_a.png","68","test","","","","","","","","","","","1","","","","","","","","",""
"null","430968","SARL_v6","SARL_v6hcsmhe2v","63d156100e702f67d226f892","fixation","","","img/fixation.png","null","","","test","","","","","","","","","","","","","","","","","","","",""
"488.4000000000233","431459","SARL_v6","SARL_v6hcsmhe2v","63d156100e702f67d226f892","freq","","","img/orange_2bandit_a2.png","70","","70","test","1","","11","","","","square","circle","11","11","1","1","","","","","","","",""
"null","431776","SARL_v6","SARL_v6hcsmhe2v","63d156100e702f67d226f892","freq_resp","","","img/orange_2bandit_a.png","70","img/orange_2bandit_a.png","70","test","","","","","","","","","","","1","","","","","","","","",""
"null","431936","SARL_v6","SARL_v6hcsmhe2v","63d156100e702f67d226f892","fixation","","","img/fixation.png","null","","","test","","","","","","","","","","","","","","","","","","","",""
"446","432385","SARL_v6","SARL_v6hcsmhe2v","63d156100e702f67d226f892","freq","","","img/orange_2bandit_a2.png","70","","70","test","1","","12","","","","square","circle","12","12","1","1","","","","","","","",""
"null","432744","SARL_v6","SARL_v6hcsmhe2v","63d156100e702f67d226f892","freq_resp","","","img/orange_2bandit_a.png","70","img/orange_2bandit_a.png","70","test","","","","","","","","","","","1","","","","","","","","",""
"null","432904","SARL_v6","SARL_v6hcsmhe2v","63d156100e702f67d226f892","fixation","","","img/fixation.png","null","","","test","","","","","","","","","","","","","","","","","","","",""
"529.7000000000698","433437","SARL_v6","SARL_v6hcsmhe2v","63d156100e702f67d226f892","freq","","","img/orange_2bandit_a2.png","70","","70","test","1","","13","","","","square","circle","13","13","1","1","","","","","","","",""
"null","433712","SARL_v6","SARL_v6hcsmhe2v","63d156100e702f67d226f892","freq_resp","","","img/orange_2bandit_a.png","70","img/orange_2bandit_a.png","70","test","","","","","","","","","","","1","","","","","","","","",""
"null","433872","SARL_v6","SARL_v6hcsmhe2v","63d156100e702f67d226f892","fixation","","","img/fixation.png","null","","","test","","","","","","","","","","","","","","","","","","","",""
"584.5999999999767","434460","SARL_v6","SARL_v6hcsmhe2v","63d156100e702f67d226f892","infreq","","","img/blue_2bandit_a2.png","68","","68","test","1","","14","","","","square","circle","14","14","1","1","","","","","","","",""
"null","434680","SARL_v6","SARL_v6hcsmhe2v","63d156100e702f67d226f892","infreq_resp","","","img/blue_2bandit_a.png","68","img/blue_2bandit_a.png","68","test","","","","","","","","","","","1","","","","","","","","",""
"null","434840","SARL_v6","SARL_v6hcsmhe2v","63d156100e702f67d226f892","fixation","","","img/fixation.png","null","","","test","","","","","","","","","","","","","","","","","","","",""
"542.0999999999767","435386","SARL_v6","SARL_v6hcsmhe2v","63d156100e702f67d226f892","freq","","","img/orange_2bandit_a2.png","70","","70","test","1","","15","","","","square","circle","15","15","1","1","","","","","","","",""
"null","435648","SARL_v6","SARL_v6hcsmhe2v","63d156100e702f67d226f892","freq_resp","","","img/orange_2bandit_a.png","70","img/orange_2bandit_a.png","70","test","","","","","","","","","","","1","","","","","","","","",""
"null","435808","SARL_v6","SARL_v6hcsmhe2v","63d156100e702f67d226f892","fixation","","","img/fixation.png","null","","","test","","","","","","","","","","","","","","","","","","","",""
"487.80000000004657","436299","SARL_v6","SARL_v6hcsmhe2v","63d156100e702f67d226f892","freq","","","img/orange_2bandit_a2.png","70","","70","test","1","","16","","","","square","circle","16","16","1","1","","","","","","","",""
"null","436616","SARL_v6","SARL_v6hcsmhe2v","63d156100e702f67d226f892","freq_resp","","","img/orange_2bandit_a.png","70","img/orange_2bandit_a.png","70","test","","","","","","","","","","","1","","","","","","","","",""
"null","436776","SARL_v6","SARL_v6hcsmhe2v","63d156100e702f67d226f892","fixation","","","img/fixation.png","null","","","test","","","","","","","","","","","","","","","","","","","",""
"400","437179","SARL_v6","SARL_v6hcsmhe2v","63d156100e702f67d226f892","freq","","","img/orange_2bandit_a2.png","70","","70","test","1","","17","","","","square","circle","17","17","1","1","","","","","","","",""
"null","437584","SARL_v6","SARL_v6hcsmhe2v","63d156100e702f67d226f892","freq_resp","","","img/orange_2bandit_a.png","70","img/orange_2bandit_a.png","70","test","","","","","","","","","","","1","","","","","","","","",""
"null","437744","SARL_v6","SARL_v6hcsmhe2v","63d156100e702f67d226f892","fixation","","","img/fixation.png","null","","","test","","","","","","","","","","","","","","","","","","","",""
"398.79999999993015","438146","SARL_v6","SARL_v6hcsmhe2v","63d156100e702f67d226f892","freq","","","img/orange_2bandit_a2.png","70","","70","test","1","","18","","","","square","circle","18","18","1","1","","","","","","","",""
"null","438552","SARL_v6","SARL_v6hcsmhe2v","63d156100e702f67d226f892","freq_resp","","","img/orange_2bandit_a.png","70","img/orange_2bandit_a.png","70","test","","","","","","","","","","","1","","","","","","","","",""
"null","438712","SARL_v6","SARL_v6hcsmhe2v","63d156100e702f67d226f892","fixation","","","img/fixation.png","null","","","test","","","","","","","","","","","","","","","","","","","",""
"685.2999999999302","439400","SARL_v6","SARL_v6hcsmhe2v","63d156100e702f67d226f892","freq","","","img/orange_2bandit_a2.png","70","","70","test","1","","19","","","","square","circle","19","19","1","1","","","","","","","",""
"null","439520","SARL_v6","SARL_v6hcsmhe2v","63d156100e702f67d226f892","freq_resp","","","img/orange_2bandit_a.png","70","img/orange_2bandit_a.png","70","test","","","","","","","","","","","1","","","","","","","","",""
"null","439680","SARL_v6","SARL_v6hcsmhe2v","63d156100e702f67d226f892","fixation","","","img/fixation.png","null","","","test","","","","","","","","","","","","","","","","","","","",""
"588.6999999999534","440272","SARL_v6","SARL_v6hcsmhe2v","63d156100e702f67d226f892","freq","","","img/orange_2bandit_a2.png","70","","70","test","1","","20","","","","square","circle","20","20","1","1","","","","","","","",""
"null","440488","SARL_v6","SARL_v6hcsmhe2v","63d156100e702f67d226f892","freq_resp","","","img/orange_2bandit_a.png","70","img/orange_2bandit_a.png","70","test","","","","","","","","","","","1","","","","","","","","",""
"null","440648","SARL_v6","SARL_v6hcsmhe2v","63d156100e702f67d226f892","fixation","","","img/fixation.png","null","","","test","","","","","","","","","","","","","","","","","","","",""
"392.5999999999767","441044","SARL_v6","SARL_v6hcsmhe2v","63d156100e702f67d226f892","freq","","","img/orange_2bandit_a2.png","70","","70","test","1","","21","","","","square","circle","21","21","1","1","","","","","","","",""
"null","441456","SARL_v6","SARL_v6hcsmhe2v","63d156100e702f67d226f892","freq_resp","","","img/orange_2bandit_a.png","70","img/orange_2bandit_a.png","70","test","","","","","","","","","","","1","","","","","","","","",""
"null","441616","SARL_v6","SARL_v6hcsmhe2v","63d156100e702f67d226f892","fixation","","","img/fixation.png","null","","","test","","","","","","","","","","","","","","","","","","","",""
"385.69999999995343","442005","SARL_v6","SARL_v6hcsmhe2v","63d156100e702f67d226f892","freq","","","img/orange_2bandit_a2.png","70","","70","test","1","","22","","","","square","circle","22","22","1","1","","","","","","","",""
"null","442424","SARL_v6","SARL_v6hcsmhe2v","63d156100e702f67d226f892","freq_resp","","","img/orange_2bandit_a.png","70","img/orange_2bandit_a.png","70","test","","","","","","","","","","","1","","","","","","","","",""
"null","442584","SARL_v6","SARL_v6hcsmhe2v","63d156100e702f67d226f892","fixation","","","img/fixation.png","null","","","test","","","","","","","","","","","","","","","","","","","",""
"595.5999999999767","443182","SARL_v6","SARL_v6hcsmhe2v","63d156100e702f67d226f892","rl","","","img/black_2bandit_a2.png","75","","0","test","","","23","","","-3","square","circle","","0","1","","75","-3","-3","-3","-3","circle","1","0"
"null","443936","SARL_v6","SARL_v6hcsmhe2v","63d156100e702f67d226f892","feedback","","","<div class=""verylowPoints""> -3 </div>","null","","na","test","","","NaN","","","","","","","","1","","75","","","","","","1",""
"580.8000000000466","444520","SARL_v6","SARL_v6hcsmhe2v","63d156100e702f67d226f892","freq","","","img/orange_2bandit_a2.png","70","","70","test","1","","24","","","","square","circle","23","1","2","1","","","","","","","",""
"null","444744","SARL_v6","SARL_v6hcsmhe2v","63d156100e702f67d226f892","freq_resp","","","img/orange_2bandit_a.png","70","img/orange_2bandit_a.png","70","test","","","","","","","","","","","2","","","","","","","","",""
"null","444904","SARL_v6","SARL_v6hcsmhe2v","63d156100e702f67d226f892","fixation","","","img/fixation.png","null","","","test","","","","","","","","","","","","","","","","","","","",""
"374.60000000009313","445282","SARL_v6","SARL_v6hcsmhe2v","63d156100e702f67d226f892","freq","","","img/orange_2bandit_a2.png","70","","70","test","1","","25","","","","square","circle","24","2","2","1","","","","","","","",""
"null","445712","SARL_v6","SARL_v6hcsmhe2v","63d156100e702f67d226f892","freq_resp","","","img/orange_2bandit_a.png","70","img/orange_2bandit_a.png","70","test","","","","","","","","","","","2","","","","","","","","",""
"null","445872","SARL_v6","SARL_v6hcsmhe2v","63d156100e702f67d226f892","fixation","","","img/fixation.png","null","","","test","","","","","","","","","","","","","","","","","","","",""
"548.4000000000233","446424","SARL_v6","SARL_v6hcsmhe2v","63d156100e702f67d226f892","infreq","","","img/blue_2bandit_a2.png","68","","68","test","1","","26","","","","square","circle","25","3","2","1","","","","","","","",""
"null","446681","SARL_v6","SARL_v6hcsmhe2v","63d156100e702f67d226f892","infreq_resp","","","img/blue_2bandit_a.png","68","img/blue_2bandit_a.png","68","test","","","","","","","","","","","2","","","","","","","","",""
"null","446840","SARL_v6","SARL_v6hcsmhe2v","63d156100e702f67d226f892","fixation","","","img/fixation.png","null","","","test","","","","","","","","","","","","","","","","","","","",""
"493.70000000006985","447337","SARL_v6","SARL_v6hcsmhe2v","63d156100e702f67d226f892","freq","","","img/orange_2bandit_a2.png","70","","70","test","1","","27","","","","square","circle","26","4","2","1","","","","","","","",""
"null","447648","SARL_v6","SARL_v6hcsmhe2v","63d156100e702f67d226f892","freq_resp","","","img/orange_2bandit_a.png","70","img/orange_2bandit_a.png","70","test","","","","","","","","","","","2","","","","","","","","",""
"null","447808","SARL_v6","SARL_v6hcsmhe2v","63d156100e702f67d226f892","fixation","","","img/fixation.png","null","","","test","","","","","","","","","","","","","","","","","","","",""
"364.20000000006985","448175","SARL_v6","SARL_v6hcsmhe2v","63d156100e702f67d226f892","freq","","","img/orange_2bandit_a2.png","70","","70","test","1","","28","","","","square","circle","27","5","2","1","","","","","","","",""
"null","448616","SARL_v6","SARL_v6hcsmhe2v","63d156100e702f67d226f892","freq_resp","","","img/orange_2bandit_a.png","70","img/orange_2bandit_a.png","70","test","","","","","","","","","","","2","","","","","","","","",""
"null","448776","SARL_v6","SARL_v6hcsmhe2v","63d156100e702f67d226f892","fixation","","","img/fixation.png","null","","","test","","","","","","","","","","","","","","","","","","","",""
"435.29999999993015","449214","SARL_v6","SARL_v6hcsmhe2v","63d156100e702f67d226f892","freq","","","img/orange_2bandit_a2.png","70","","70","test","1","","29","","","","square","circle","28","6","2","1","","","","","","","",""
"null","449584","SARL_v6","SARL_v6hcsmhe2v","63d156100e702f67d226f892","freq_resp","","","img/orange_2bandit_a.png","70","img/orange_2bandit_a.png","70","test","","","","","","","","","","","2","","","","","","","","",""
"null","449744","SARL_v6","SARL_v6hcsmhe2v","63d156100e702f67d226f892","fixation","","","img/fixation.png","null","","","test","","","","","","","","","","","","","","","","","","","",""
"408.80000000004657","450156","SARL_v6","SARL_v6hcsmhe2v","63d156100e702f67d226f892","freq","","","img/orange_2bandit_a2.png","70","","70","test","1","","30","","","","square","circle","29","7","2","1","","","","","","","",""
"null","450552","SARL_v6","SARL_v6hcsmhe2v","63d156100e702f67d226f892","freq_resp","","","img/orange_2bandit_a.png","70","img/orange_2bandit_a.png","70","test","","","","","","","","","","","2","","","","","","","","",""
"null","450712","SARL_v6","SARL_v6hcsmhe2v","63d156100e702f67d226f892","fixation","","","img/fixation.png","null","","","test","","","","","","","","","","","","","","","","","","","",""
"null","451520","SARL_v6","SARL_v6hcsmhe2v","63d156100e702f67d226f892","infreq","","","img/blue_2bandit_a2.png","null","","68","test","0","","31","","","","square","circle","30","8","2","0.9666666666666667","","","","","","","",""
"null","451680","SARL_v6","SARL_v6hcsmhe2v","63d156100e702f67d226f892","fixation","","","img/fixation.png","null","","","test","","","","","","","","","","","","","","","","","","","",""
"null","452488","SARL_v6","SARL_v6hcsmhe2v","63d156100e702f67d226f892","freq","","","img/orange_2bandit_a2.png","null","","70","test","0","","32","","","","square","circle","31","9","2","0.9354838709677419","","","","","","","",""
"null","452648","SARL_v6","SARL_v6hcsmhe2v","63d156100e702f67d226f892","fixation","","","img/fixation.png","null","","","test","","","","","","","","","","","","","","","","","","","",""
"434.29999999993015","453086","SARL_v6","SARL_v6hcsmhe2v","63d156100e702f67d226f892","freq","","","img/orange_2bandit_a2.png","70","","70","test","1","","33","","","","square","circle","32","10","2","0.9375","","","","","","","",""
"null","453456","SARL_v6","SARL_v6hcsmhe2v","63d156100e702f67d226f892","freq_resp","","","img/orange_2bandit_a.png","70","img/orange_2bandit_a.png","70","test","","","","","","","","","","","2","","","","","","","","",""
"null","453616","SARL_v6","SARL_v6hcsmhe2v","63d156100e702f67d226f892","fixation","","","img/fixation.png","null","","","test","","","","","","","","","","","","","","","","","","","",""
"329.70000000006985","453949","SARL_v6","SARL_v6hcsmhe2v","63d156100e702f67d226f892","freq","","","img/orange_2bandit_a2.png","70","","70","test","1","","34","","","","square","circle","33","11","2","0.9393939393939394","","","","","","","",""
"null","454424","SARL_v6","SARL_v6hcsmhe2v","63d156100e702f67d226f892","freq_resp","","","img/orange_2bandit_a.png","70","img/orange_2bandit_a.png","70","test","","","","","","","","","","","2","","","","","","","","",""
"null","454584","SARL_v6","SARL_v6hcsmhe2v","63d156100e702f67d226f892","fixation","","","img/fixation.png","null","","","test","","","","","","","","","","","","","","","","","","","",""
"318.70000000006985","454906","SARL_v6","SARL_v6hcsmhe2v","63d156100e702f67d226f892","freq","","","img/orange_2bandit_a2.png","70","","70","test","1","","35","","","","square","circle","34","12","2","0.9411764705882353","","","","","","","",""
"null","455392","SARL_v6","SARL_v6hcsmhe2v","63d156100e702f67d226f892","freq_resp","","","img/orange_2bandit_a.png","70","img/orange_2bandit_a.png","70","test","","","","","","","","","","","2","","","","","","","","",""
"null","455552","SARL_v6","SARL_v6hcsmhe2v","63d156100e702f67d226f892","fixation","","","img/fixation.png","null","","","test","","","","","","","","","","","","","","","","","","","",""
"341.69999999995343","455897","SARL_v6","SARL_v6hcsmhe2v","63d156100e702f67d226f892","freq","","","img/orange_2bandit_a2.png","70","","70","test","1","","36","","","","square","circle","35","13","2","0.9428571428571428","","","","","","","",""
"null","456360","SARL_v6","SARL_v6hcsmhe2v","63d156100e702f67d226f892","freq_resp","","","img/orange_2bandit_a.png","70","img/orange_2bandit_a.png","70","test","","","","","","","","","","","2","","","","","","","","",""
"null","456520","SARL_v6","SARL_v6hcsmhe2v","63d156100e702f67d226f892","fixation","","","img/fixation.png","null","","","test","","","","","","","","","","","","","","","","","","","",""
"335.10000000009313","456858","SARL_v6","SARL_v6hcsmhe2v","63d156100e702f67d226f892","freq","","","img/orange_2bandit_a2.png","70","","70","test","1","","37","","","","square","circle","36","14","2","0.9444444444444444","","","","","","","",""
"null","457328","SARL_v6","SARL_v6hcsmhe2v","63d156100e702f67d226f892","freq_resp","","","img/orange_2bandit_a.png","70","img/orange_2bandit_a.png","70","test","","","","","","","","","","","2","","","","","","","","",""
"null","457488","SARL_v6","SARL_v6hcsmhe2v","63d156100e702f67d226f892","fixation","","","img/fixation.png","null","","","test","","","","","","","","","","","","","","","","","","","",""
"342.5999999999767","457834","SARL_v6","SARL_v6hcsmhe2v","63d156100e702f67d226f892","freq","","","img/orange_2bandit_a2.png","70","","70","test","1","","38","","","","square","circle","37","15","2","0.9459459459459459","","","","","","","",""
"null","458297","SARL_v6","SARL_v6hcsmhe2v","63d156100e702f67d226f892","freq_resp","","","img/orange_2bandit_a.png","70","img/orange_2bandit_a.png","70","test","","","","","","","","","","","2","","","","","","","","",""
"null","458456","SARL_v6","SARL_v6hcsmhe2v","63d156100e702f67d226f892","fixation","","","img/fixation.png","null","","","test","","","","","","","","","","","","","","","","","","","",""
"285.5999999999767","458745","SARL_v6","SARL_v6hcsmhe2v","63d156100e702f67d226f892","freq","","","img/orange_2bandit_a2.png","70","","70","test","1","","39","","","","square","circle","38","16","2","0.9473684210526315","","","","","","","",""
"null","459264","SARL_v6","SARL_v6hcsmhe2v","63d156100e702f67d226f892","freq_resp","","","img/orange_2bandit_a.png","70","img/orange_2bandit_a.png","70","test","","","","","","","","","","","2","","","","","","","","",""
"null","459424","SARL_v6","SARL_v6hcsmhe2v","63d156100e702f67d226f892","fixation","","","img/fixation.png","null","","","test","","","","","","","","","","","","","","","","","","","",""
"271.4000000000233","459698","SARL_v6","SARL_v6hcsmhe2v","63d156100e702f67d226f892","freq","","","img/orange_2bandit_a2.png","70","","70","test","1","","40","","","","square","circle","39","17","2","0.9487179487179487","","","","","","","",""
"null","460232","SARL_v6","SARL_v6hcsmhe2v","63d156100e702f67d226f892","freq_resp","","","img/orange_2bandit_a.png","70","img/orange_2bandit_a.png","70","test","","","","","","","","","","","2","","","","","","","","",""
"null","460392","SARL_v6","SARL_v6hcsmhe2v","63d156100e702f67d226f892","fixation","","","img/fixation.png","null","","","test","","","","","","","","","","","","","","","","","","","",""
"269.4000000000233","460665","SARL_v6","SARL_v6hcsmhe2v","63d156100e702f67d226f892","freq","","","img/orange_2bandit_a2.png","70","","70","test","1","","41","","","","square","circle","40","18","2","0.95","","","","","","","",""
"null","461200","SARL_v6","SARL_v6hcsmhe2v","63d156100e702f67d226f892","freq_resp","","","img/orange_2bandit_a.png","70","img/orange_2bandit_a.png","70","test","","","","","","","","","","","2","","","","","","","","",""
"null","461360","SARL_v6","SARL_v6hcsmhe2v","63d156100e702f67d226f892","fixation","","","img/fixation.png","null","","","test","","","","","","","","","","","","","","","","","","","",""
"298.5","461662","SARL_v6","SARL_v6hcsmhe2v","63d156100e702f67d226f892","freq","","","img/orange_2bandit_a2.png","70","","70","test","1","","42","","","","square","circle","41","19","2","0.9512195121951219","","","","","","","",""
"null","462168","SARL_v6","SARL_v6hcsmhe2v","63d156100e702f67d226f892","freq_resp","","","img/orange_2bandit_a.png","70","img/orange_2bandit_a.png","70","test","","","","","","","","","","","2","","","","","","","","",""
"null","462328","SARL_v6","SARL_v6hcsmhe2v","63d156100e702f67d226f892","fixation","","","img/fixation.png","null","","","test","","","","","","","","","","","","","","","","","","","",""
"289.60000000009313","462621","SARL_v6","SARL_v6hcsmhe2v","63d156100e702f67d226f892","freq","","","img/orange_2bandit_a2.png","70","","70","test","1","","43","","","","square","circle","42","20","2","0.9523809523809523","","","","","","","",""
"null","463137","SARL_v6","SARL_v6hcsmhe2v","63d156100e702f67d226f892","freq_resp","","","img/orange_2bandit_a.png","70","img/orange_2bandit_a.png","70","test","","","","","","","","","","","2","","","","","","","","",""
"null","463296","SARL_v6","SARL_v6hcsmhe2v","63d156100e702f67d226f892","fixation","","","img/fixation.png","null","","","test","","","","","","","","","","","","","","","","","","","",""
"315.89999999990687","463615","SARL_v6","SARL_v6hcsmhe2v","63d156100e702f67d226f892","freq","","","img/orange_2bandit_a2.png","70","","70","test","1","","44","","","","square","circle","43","21","2","0.9534883720930233","","","","","","","",""
"null","464104","SARL_v6","SARL_v6hcsmhe2v","63d156100e702f67d226f892","freq_resp","","","img/orange_2bandit_a.png","70","img/orange_2bandit_a.png","70","test","","","","","","","","","","","2","","","","","","","","",""
"null","464264","SARL_v6","SARL_v6hcsmhe2v","63d156100e702f67d226f892","fixation","","","img/fixation.png","null","","","test","","","","","","","","","","","","","","","","","","","",""
"460.4000000000233","464728","SARL_v6","SARL_v6hcsmhe2v","63d156100e702f67d226f892","rl","","","img/black_2bandit_a2.png","75","","0","test","","","45","","","-5","square","circle","","0","2","","75","-5","-8","-8","-5","circle","2","0"
"null","465488","SARL_v6","SARL_v6hcsmhe2v","63d156100e702f67d226f892","feedback","","","<div class=""verylowPoints""> -5 </div>","null","","na","test","","","NaN","","","","","","","","2","","75","","","","","","2",""
"362","465853","SARL_v6","SARL_v6hcsmhe2v","63d156100e702f67d226f892","freq","","","img/orange_2bandit_a2.png","70","","70","test","1","","46","","","","square","circle","44","1","3","0.9545454545454546","","","","","","","",""
"null","466296","SARL_v6","SARL_v6hcsmhe2v","63d156100e702f67d226f892","freq_resp","","","img/orange_2bandit_a.png","70","img/orange_2bandit_a.png","70","test","","","","","","","","","","","3","","","","","","","","",""
"null","466456","SARL_v6","SARL_v6hcsmhe2v","63d156100e702f67d226f892","fixation","","","img/fixation.png","null","","","test","","","","","","","","","","","","","","","","","","","",""
"448.4000000000233","466908","SARL_v6","SARL_v6hcsmhe2v","63d156100e702f67d226f892","freq","","","img/orange_2bandit_a2.png","70","","70","test","1","","47","","","","square","circle","45","2","3","0.9555555555555556","","","","","","","",""
"null","467264","SARL_v6","SARL_v6hcsmhe2v","63d156100e702f67d226f892","freq_resp","","","img/orange_2bandit_a.png","70","img/orange_2bandit_a.png","70","test","","","","","","","","","","","3","","","","","","","","",""
"null","467424","SARL_v6","SARL_v6hcsmhe2v","63d156100e702f67d226f892","fixation","","","img/fixation.png","null","","","test","","","","","","","","","","","","","","","","","","","",""
"327.70000000006985","467755","SARL_v6","SARL_v6hcsmhe2v","63d156100e702f67d226f892","freq","","","img/orange_2bandit_a2.png","70","","70","test","1","","48","","","","square","circle","46","3","3","0.9565217391304348","","","","","","","",""
"null","468232","SARL_v6","SARL_v6hcsmhe2v","63d156100e702f67d226f892","freq_resp","","","img/orange_2bandit_a.png","70","img/orange_2bandit_a.png","70","test","","","","","","","","","","","3","","","","","","","","",""
"null","468392","SARL_v6","SARL_v6hcsmhe2v","63d156100e702f67d226f892","fixation","","","img/fixation.png","null","","","test","","","","","","","","","","","","","","","","","","","",""
"350.5","468747","SARL_v6","SARL_v6hcsmhe2v","63d156100e702f67d226f892","freq","","","img/orange_2bandit_a2.png","70","","70","test","1","","49","","","","square","circle","47","4","3","0.9574468085106383","","","","","","","",""
"null","469200","SARL_v6","SARL_v6hcsmhe2v","63d156100e702f67d226f892","freq_resp","","","img/orange_2bandit_a.png","70","img/orange_2bandit_a.png","70","test","","","","","","","","","","","3","","","","","","","","",""
"null","469360","SARL_v6","SARL_v6hcsmhe2v","63d156100e702f67d226f892","fixation","","","img/fixation.png","null","","","test","","","","","","","","","","","","","","","","","","","",""
"417.0999999999767","469780","SARL_v6","SARL_v6hcsmhe2v","63d156100e702f67d226f892","freq","","","img/orange_2bandit_a2.png","70","","70","test","1","","50","","","","square","circle","48","5","3","0.9583333333333334","","","","","","","",""
"null","470168","SARL_v6","SARL_v6hcsmhe2v","63d156100e702f67d226f892","freq_resp","","","img/orange_2bandit_a.png","70","img/orange_2bandit_a.png","70","test","","","","","","","","","","","3","","","","","","","","",""
"null","470328","SARL_v6","SARL_v6hcsmhe2v","63d156100e702f67d226f892","fixation","","","img/fixation.png","null","","","test","","","","","","","","","","","","","","","","","","","",""
"396.19999999995343","470727","SARL_v6","SARL_v6hcsmhe2v","63d156100e702f67d226f892","freq","","","img/orange_2bandit_a2.png","70","","70","test","1","","51","","","","square","circle","49","6","3","0.9591836734693877","","","","","","","",""
"null","471136","SARL_v6","SARL_v6hcsmhe2v","63d156100e702f67d226f892","freq_resp","","","img/orange_2bandit_a.png","70","img/orange_2bandit_a.png","70","test","","","","","","","","","","","3","","","","","","","","",""
"null","471296","SARL_v6","SARL_v6hcsmhe2v","63d156100e702f67d226f892","fixation","","","img/fixation.png","null","","","test","","","","","","","","","","","","","","","","","","","",""
"423.9000000000233","471723","SARL_v6","SARL_v6hcsmhe2v","63d156100e702f67d226f892","freq","","","img/orange_2bandit_a2.png","70","","70","test","1","","52","","","","square","circle","50","7","3","0.96","","","","","","","",""
"null","472104","SARL_v6","SARL_v6hcsmhe2v","63d156100e702f67d226f892","freq_resp","","","img/orange_2bandit_a.png","70","img/orange_2bandit_a.png","70","test","","","","","","","","","","","3","","","","","","","","",""
"null","472264","SARL_v6","SARL_v6hcsmhe2v","63d156100e702f67d226f892","fixation","","","img/fixation.png","null","","","test","","","","","","","","","","","","","","","","","","","",""
"440.19999999995343","472707","SARL_v6","SARL_v6hcsmhe2v","63d156100e702f67d226f892","freq","","","img/orange_2bandit_a2.png","70","","70","test","1","","53","","","","square","circle","51","8","3","0.9607843137254902","","","","","","","",""
"null","473072","SARL_v6","SARL_v6hcsmhe2v","63d156100e702f67d226f892","freq_resp","","","img/orange_2bandit_a.png","70","img/orange_2bandit_a.png","70","test","","","","","","","","","","","3","","","","","","","","",""
"null","473232","SARL_v6","SARL_v6hcsmhe2v","63d156100e702f67d226f892","fixation","","","img/fixation.png","null","","","test","","","","","","","","","","","","","","","","","","","",""
"413.5","473649","SARL_v6","SARL_v6hcsmhe2v","63d156100e702f67d226f892","freq","","","img/orange_2bandit_a2.png","70","","70","test","1","","54","","","","square","circle","52","9","3","0.9615384615384616","","","","","","","",""
"null","474040","SARL_v6","SARL_v6hcsmhe2v","63d156100e702f67d226f892","freq_resp","","","img/orange_2bandit_a.png","70","img/orange_2bandit_a.png","70","test","","","","","","","","","","","3","","","","","","","","",""
"null","474201","SARL_v6","SARL_v6hcsmhe2v","63d156100e702f67d226f892","fixation","","","img/fixation.png","null","","","test","","","","","","","","","","","","","","","","","","","",""
"451.69999999995343","474656","SARL_v6","SARL_v6hcsmhe2v","63d156100e702f67d226f892","freq","","","img/orange_2bandit_a2.png","70","","70","test","1","","55","","","","square","circle","53","10","3","0.9622641509433962","","","","","","","",""
"null","475008","SARL_v6","SARL_v6hcsmhe2v","63d156100e702f67d226f892","freq_resp","","","img/orange_2bandit_a.png","70","img/orange_2bandit_a.png","70","test","","","","","","","","","","","3","","","","","","","","",""
"null","475168","SARL_v6","SARL_v6hcsmhe2v","63d156100e702f67d226f892","fixation","","","img/fixation.png","null","","","test","","","","","","","","","","","","","","","","","","","",""
"458.10000000009313","475629","SARL_v6","SARL_v6hcsmhe2v","63d156100e702f67d226f892","freq","","","img/orange_2bandit_a2.png","70","","70","test","1","","56","","","","square","circle","54","11","3","0.9629629629629629","","","","","","","",""
"null","475976","SARL_v6","SARL_v6hcsmhe2v","63d156100e702f67d226f892","freq_resp","","","img/orange_2bandit_a.png","70","img/orange_2bandit_a.png","70","test","","","","","","","","","","","3","","","","","","","","",""
"null","476136","SARL_v6","SARL_v6hcsmhe2v","63d156100e702f67d226f892","fixation","","","img/fixation.png","null","","","test","","","","","","","","","","","","","","","","","","","",""
"491.69999999995343","476630","SARL_v6","SARL_v6hcsmhe2v","63d156100e702f67d226f892","freq","","","img/orange_2bandit_a2.png","70","","70","test","1","","57","","","","square","circle","55","12","3","0.9636363636363636","","","","","","","",""
"null","476944","SARL_v6","SARL_v6hcsmhe2v","63d156100e702f67d226f892","freq_resp","","","img/orange_2bandit_a.png","70","img/orange_2bandit_a.png","70","test","","","","","","","","","","","3","","","","","","","","",""
"null","477104","SARL_v6","SARL_v6hcsmhe2v","63d156100e702f67d226f892","fixation","","","img/fixation.png","null","","","test","","","","","","","","","","","","","","","","","","","",""
"471.39999999990687","477579","SARL_v6","SARL_v6hcsmhe2v","63d156100e702f67d226f892","freq","","","img/orange_2bandit_a2.png","70","","70","test","1","","58","","","","square","circle","56","13","3","0.9642857142857143","","","","","","","",""
"null","477912","SARL_v6","SARL_v6hcsmhe2v","63d156100e702f67d226f892","freq_resp","","","img/orange_2bandit_a.png","70","img/orange_2bandit_a.png","70","test","","","","","","","","","","","3","","","","","","","","",""
"null","478072","SARL_v6","SARL_v6hcsmhe2v","63d156100e702f67d226f892","fixation","","","img/fixation.png","null","","","test","","","","","","","","","","","","","","","","","","","",""
"641","478716","SARL_v6","SARL_v6hcsmhe2v","63d156100e702f67d226f892","infreq","","","img/blue_2bandit_a2.png","68","","68","test","1","","59","","","","square","circle","57","14","3","0.9649122807017544","","","","","","","",""
"null","478880","SARL_v6","SARL_v6hcsmhe2v","63d156100e702f67d226f892","infreq_resp","","","img/blue_2bandit_a.png","68","img/blue_2bandit_a.png","68","test","","","","","","","","","","","3","","","","","","","","",""
"null","479040","SARL_v6","SARL_v6hcsmhe2v","63d156100e702f67d226f892","fixation","","","img/fixation.png","null","","","test","","","","","","","","","","","","","","","","","","","",""
"462.19999999995343","479506","SARL_v6","SARL_v6hcsmhe2v","63d156100e702f67d226f892","freq","","","img/orange_2bandit_a2.png","70","","70","test","1","","60","","","","square","circle","58","15","3","0.9655172413793104","","","","","","","",""
"null","479848","SARL_v6","SARL_v6hcsmhe2v","63d156100e702f67d226f892","freq_resp","","","img/orange_2bandit_a.png","70","img/orange_2bandit_a.png","70","test","","","","","","","","","","","3","","","","","","","","",""
"null","480008","SARL_v6","SARL_v6hcsmhe2v","63d156100e702f67d226f892","fixation","","","img/fixation.png","null","","","test","","","","","","","","","","","","","","","","","","","",""
"371.89999999990687","480383","SARL_v6","SARL_v6hcsmhe2v","63d156100e702f67d226f892","freq","","","img/orange_2bandit_a2.png","70","","70","test","1","","61","","","","square","circle","59","16","3","0.9661016949152542","","","","","","","",""
"null","480816","SARL_v6","SARL_v6hcsmhe2v","63d156100e702f67d226f892","freq_resp","","","img/orange_2bandit_a.png","70","img/orange_2bandit_a.png","70","test","","","","","","","","","","","3","","","","","","","","",""
"null","480976","SARL_v6","SARL_v6hcsmhe2v","63d156100e702f67d226f892","fixation","","","img/fixation.png","null","","","test","","","","","","","","","","","","","","","","","","","",""
"396.9000000000233","481376","SARL_v6","SARL_v6hcsmhe2v","63d156100e702f67d226f892","freq","","","img/orange_2bandit_a2.png","70","","70","test","1","","62","","","","square","circle","60","17","3","0.9666666666666667","","","","","","","",""
"null","481784","SARL_v6","SARL_v6hcsmhe2v","63d156100e702f67d226f892","freq_resp","","","img/orange_2bandit_a.png","70","img/orange_2bandit_a.png","70","test","","","","","","","","","","","3","","","","","","","","",""
"null","481944","SARL_v6","SARL_v6hcsmhe2v","63d156100e702f67d226f892","fixation","","","img/fixation.png","null","","","test","","","","","","","","","","","","","","","","","","","",""
"289","482236","SARL_v6","SARL_v6hcsmhe2v","63d156100e702f67d226f892","freq","","","img/orange_2bandit_a2.png","70","","70","test","1","","63","","","","square","circle","61","18","3","0.9672131147540983","","","","","","","",""
"null","482753","SARL_v6","SARL_v6hcsmhe2v","63d156100e702f67d226f892","freq_resp","","","img/orange_2bandit_a.png","70","img/orange_2bandit_a.png","70","test","","","","","","","","","","","3","","","","","","","","",""
"null","482912","SARL_v6","SARL_v6hcsmhe2v","63d156100e702f67d226f892","fixation","","","img/fixation.png","null","","","test","","","","","","","","","","","","","","","","","","","",""
"276.19999999995343","483192","SARL_v6","SARL_v6hcsmhe2v","63d156100e702f67d226f892","freq","","","img/orange_2bandit_a2.png","70","","70","test","1","","64","","","","square","circle","62","19","3","0.967741935483871","","","","","","","",""
"null","483721","SARL_v6","SARL_v6hcsmhe2v","63d156100e702f67d226f892","freq_resp","","","img/orange_2bandit_a.png","70","img/orange_2bandit_a.png","70","test","","","","","","","","","","","3","","","","","","","","",""
"null","483880","SARL_v6","SARL_v6hcsmhe2v","63d156100e702f67d226f892","fixation","","","img/fixation.png","null","","","test","","","","","","","","","","","","","","","","","","","",""
"248.79999999993015","484132","SARL_v6","SARL_v6hcsmhe2v","63d156100e702f67d226f892","freq","","","img/orange_2bandit_a2.png","70","","70","test","1","","65","","","","square","circle","63","20","3","0.9682539682539683","","","","","","","",""
"null","484688","SARL_v6","SARL_v6hcsmhe2v","63d156100e702f67d226f892","freq_resp","","","img/orange_2bandit_a.png","70","img/orange_2bandit_a.png","70","test","","","","","","","","","","","3","","","","","","","","",""
"null","484848","SARL_v6","SARL_v6hcsmhe2v","63d156100e702f67d226f892","fixation","","","img/fixation.png","null","","","test","","","","","","","","","","","","","","","","","","","",""
"677.1999999999534","485528","SARL_v6","SARL_v6hcsmhe2v","63d156100e702f67d226f892","infreq","","","img/blue_2bandit_a2.png","68","","68","test","1","","66","","","","square","circle","64","21","3","0.96875","","","","","","","",""
"null","485656","SARL_v6","SARL_v6hcsmhe2v","63d156100e702f67d226f892","infreq_resp","","","img/blue_2bandit_a.png","68","img/blue_2bandit_a.png","68","test","","","","","","","","","","","3","","","","","","","","",""
"null","485816","SARL_v6","SARL_v6hcsmhe2v","63d156100e702f67d226f892","fixation","","","img/fixation.png","null","","","test","","","","","","","","","","","","","","","","","","","",""
"359.89999999990687","486179","SARL_v6","SARL_v6hcsmhe2v","63d156100e702f67d226f892","freq","","","img/orange_2bandit_a2.png","70","","70","test","1","","67","","","","square","circle","65","22","3","0.9692307692307692","","","","","","","",""
"null","486624","SARL_v6","SARL_v6hcsmhe2v","63d156100e702f67d226f892","freq_resp","","","img/orange_2bandit_a.png","70","img/orange_2bandit_a.png","70","test","","","","","","","","","","","3","","","","","","","","",""
"null","486785","SARL_v6","SARL_v6hcsmhe2v","63d156100e702f67d226f892","fixation","","","img/fixation.png","null","","","test","","","","","","","","","","","","","","","","","","","",""
"448.0999999999767","487235","SARL_v6","SARL_v6hcsmhe2v","63d156100e702f67d226f892","rl","","","img/black_2bandit_a2.png","74","","0","test","","","68","","","-8","square","circle","","0","3","","74","-4","-8","-8","-4","square","3","0"
"null","487993","SARL_v6","SARL_v6hcsmhe2v","63d156100e702f67d226f892","feedback","","","<div class=""verylowPoints_sq""> -8 </div>","null","","na","test","","","NaN","","","","","","","","3","","74","","","","","","3",""
"281.5","488277","SARL_v6","SARL_v6hcsmhe2v","63d156100e702f67d226f892","freq","","","img/orange_2bandit_a2.png","70","","70","test","1","","69","","","","square","circle","66","1","4","0.9696969696969697","","","","","","","",""
"null","488801","SARL_v6","SARL_v6hcsmhe2v","63d156100e702f67d226f892","freq_resp","","","img/orange_2bandit_a.png","70","img/orange_2bandit_a.png","70","test","","","","","","","","","","","4","","","","","","","","",""
"null","488960","SARL_v6","SARL_v6hcsmhe2v","63d156100e702f67d226f892","fixation","","","img/fixation.png","null","","","test","","","","","","","","","","","","","","","","","","","",""
"277.80000000004657","489241","SARL_v6","SARL_v6hcsmhe2v","63d156100e702f67d226f892","freq","","","img/orange_2bandit_a2.png","70","","70","test","1","","70","","","","square","circle","67","2","4","0.9701492537313433","","","","","","","",""
"null","489768","SARL_v6","SARL_v6hcsmhe2v","63d156100e702f67d226f892","freq_resp","","","img/orange_2bandit_a.png","70","img/orange_2bandit_a.png","70","test","","","","","","","","","","","4","","","","","","","","",""
"null","489928","SARL_v6","SARL_v6hcsmhe2v","63d156100e702f67d226f892","fixation","","","img/fixation.png","null","","","test","","","","","","","","","","","","","","","","","","","",""
"299.20000000006985","490230","SARL_v6","SARL_v6hcsmhe2v","63d156100e702f67d226f892","freq","","","img/orange_2bandit_a2.png","70","","70","test","1","","71","","","","square","circle","68","3","4","0.9705882352941176","","","","","","","",""
"null","490736","SARL_v6","SARL_v6hcsmhe2v","63d156100e702f67d226f892","freq_resp","","","img/orange_2bandit_a.png","70","img/orange_2bandit_a.png","70","test","","","","","","","","","","","4","","","","","","","","",""
"null","490896","SARL_v6","SARL_v6hcsmhe2v","63d156100e702f67d226f892","fixation","","","img/fixation.png","null","","","test","","","","","","","","","","","","","","","","","","","",""
"298.69999999995343","491198","SARL_v6","SARL_v6hcsmhe2v","63d156100e702f67d226f892","freq","","","img/orange_2bandit_a2.png","70","","70","test","1","","72","","","","square","circle","69","4","4","0.9710144927536232","","","","","","","",""
"null","491704","SARL_v6","SARL_v6hcsmhe2v","63d156100e702f67d226f892","freq_resp","","","img/orange_2bandit_a.png","70","img/orange_2bandit_a.png","70","test","","","","","","","","","","","4","","","","","","","","",""
"null","491864","SARL_v6","SARL_v6hcsmhe2v","63d156100e702f67d226f892","fixation","","","img/fixation.png","null","","","test","","","","","","","","","","","","","","","","","","","",""
"300.79999999993015","492168","SARL_v6","SARL_v6hcsmhe2v","63d156100e702f67d226f892","freq","","","img/orange_2bandit_a2.png","70","","70","test","1","","73","","","","square","circle","70","5","4","0.9714285714285714","","","","","","","",""
"null","492672","SARL_v6","SARL_v6hcsmhe2v","63d156100e702f67d226f892","freq_resp","","","img/orange_2bandit_a.png","70","img/orange_2bandit_a.png","70","test","","","","","","","","","","","4","","","","","","","","",""
"null","492833","SARL_v6","SARL_v6hcsmhe2v","63d156100e702f67d226f892","fixation","","","img/fixation.png","null","","","test","","","","","","","","","","","","","","","","","","","",""
"243.09999999997672","493079","SARL_v6","SARL_v6hcsmhe2v","63d156100e702f67d226f892","freq","","","img/orange_2bandit_a2.png","70","","70","test","1","","74","","","","square","circle","71","6","4","0.971830985915493","","","","","","","",""
"null","493640","SARL_v6","SARL_v6hcsmhe2v","63d156100e702f67d226f892","freq_resp","","","img/orange_2bandit_a.png","70","img/orange_2bandit_a.png","70","test","","","","","","","","","","","4","","","","","","","","",""
"null","493800","SARL_v6","SARL_v6hcsmhe2v","63d156100e702f67d226f892","fixation","","","img/fixation.png","null","","","test","","","","","","","","","","","","","","","","","","","",""
"260.69999999995343","494064","SARL_v6","SARL_v6hcsmhe2v","63d156100e702f67d226f892","freq","","","img/orange_2bandit_a2.png","70","","70","test","1","","75","","","","square","circle","72","7","4","0.9722222222222222","","","","","","","",""
"null","494608","SARL_v6","SARL_v6hcsmhe2v","63d156100e702f67d226f892","freq_resp","","","img/orange_2bandit_a.png","70","img/orange_2bandit_a.png","70","test","","","","","","","","","","","4","","","","","","","","",""
"null","494768","SARL_v6","SARL_v6hcsmhe2v","63d156100e702f67d226f892","fixation","","","img/fixation.png","null","","","test","","","","","","","","","","","","","","","","","","","",""
"280","495051","SARL_v6","SARL_v6hcsmhe2v","63d156100e702f67d226f892","freq","","","img/orange_2bandit_a2.png","70","","70","test","1","","76","","","","square","circle","73","8","4","0.9726027397260274","","","","","","","",""
"null","495576","SARL_v6","SARL_v6hcsmhe2v","63d156100e702f67d226f892","freq_resp","","","img/orange_2bandit_a.png","70","img/orange_2bandit_a.png","70","test","","","","","","","","","","","4","","","","","","","","",""
"null","495736","SARL_v6","SARL_v6hcsmhe2v","63d156100e702f67d226f892","fixation","","","img/fixation.png","null","","","test","","","","","","","","","","","","","","","","","","","",""
"274.5999999999767","496014","SARL_v6","SARL_v6hcsmhe2v","63d156100e702f67d226f892","freq","","","img/orange_2bandit_a2.png","70","","70","test","1","","77","","","","square","circle","74","9","4","0.972972972972973","","","","","","","",""
"null","496544","SARL_v6","SARL_v6hcsmhe2v","63d156100e702f67d226f892","freq_resp","","","img/orange_2bandit_a.png","70","img/orange_2bandit_a.png","70","test","","","","","","","","","","","4","","","","","","","","",""
"null","496704","SARL_v6","SARL_v6hcsmhe2v","63d156100e702f67d226f892","fixation","","","img/fixation.png","null","","","test","","","","","","","","","","","","","","","","","","","",""
"248","496955","SARL_v6","SARL_v6hcsmhe2v","63d156100e702f67d226f892","freq","","","img/orange_2bandit_a2.png","70","","70","test","1","","78","","","","square","circle","75","10","4","0.9733333333333334","","","","","","","",""
"null","497512","SARL_v6","SARL_v6hcsmhe2v","63d156100e702f67d226f892","freq_resp","","","img/orange_2bandit_a.png","70","img/orange_2bandit_a.png","70","test","","","","","","","","","","","4","","","","","","","","",""
"null","497672","SARL_v6","SARL_v6hcsmhe2v","63d156100e702f67d226f892","fixation","","","img/fixation.png","null","","","test","","","","","","","","","","","","","","","","","","","",""
"263.5","497939","SARL_v6","SARL_v6hcsmhe2v","63d156100e702f67d226f892","freq","","","img/orange_2bandit_a2.png","70","","70","test","1","","79","","","","square","circle","76","11","4","0.9736842105263158","","","","","","","",""
"null","498480","SARL_v6","SARL_v6hcsmhe2v","63d156100e702f67d226f892","freq_resp","","","img/orange_2bandit_a.png","70","img/orange_2bandit_a.png","70","test","","","","","","","","","","","4","","","","","","","","",""
"null","498641","SARL_v6","SARL_v6hcsmhe2v","63d156100e702f67d226f892","fixation","","","img/fixation.png","null","","","test","","","","","","","","","","","","","","","","","","","",""
"318.19999999995343","498961","SARL_v6","SARL_v6hcsmhe2v","63d156100e702f67d226f892","freq","","","img/orange_2bandit_a2.png","70","","70","test","1","","80","","","","square","circle","77","12","4","0.974025974025974","","","","","","","",""
"null","499449","SARL_v6","SARL_v6hcsmhe2v","63d156100e702f67d226f892","freq_resp","","","img/orange_2bandit_a.png","70","img/orange_2bandit_a.png","70","test","","","","","","","","","","","4","","","","","","","","",""
"null","499608","SARL_v6","SARL_v6hcsmhe2v","63d156100e702f67d226f892","fixation","","","img/fixation.png","null","","","test","","","","","","","","","","","","","","","","","","","",""
"298.69999999995343","499910","SARL_v6","SARL_v6hcsmhe2v","63d156100e702f67d226f892","freq","","","img/orange_2bandit_a2.png","70","","70","test","1","","81","","","","square","circle","78","13","4","0.9743589743589743","","","","","","","",""
"null","500416","SARL_v6","SARL_v6hcsmhe2v","63d156100e702f67d226f892","freq_resp","","","img/orange_2bandit_a.png","70","img/orange_2bandit_a.png","70","test","","","","","","","","","","","4","","","","","","","","",""
"null","500576","SARL_v6","SARL_v6hcsmhe2v","63d156100e702f67d226f892","fixation","","","img/fixation.png","null","","","test","","","","","","","","","","","","","","","","","","","",""
"296.79999999993015","500876","SARL_v6","SARL_v6hcsmhe2v","63d156100e702f67d226f892","freq","","","img/orange_2bandit_a2.png","70","","70","test","1","","82","","","","square","circle","79","14","4","0.9746835443037974","","","","","","","",""
"null","501384","SARL_v6","SARL_v6hcsmhe2v","63d156100e702f67d226f892","freq_resp","","","img/orange_2bandit_a.png","70","img/orange_2bandit_a.png","70","test","","","","","","","","","","","4","","","","","","","","",""
"null","501544","SARL_v6","SARL_v6hcsmhe2v","63d156100e702f67d226f892","fixation","","","img/fixation.png","null","","","test","","","","","","","","","","","","","","","","","","","",""
"319.0999999999767","501866","SARL_v6","SARL_v6hcsmhe2v","63d156100e702f67d226f892","freq","","","img/orange_2bandit_a2.png","70","","70","test","1","","83","","","","square","circle","80","15","4","0.975","","","","","","","",""
"null","502352","SARL_v6","SARL_v6hcsmhe2v","63d156100e702f67d226f892","freq_resp","","","img/orange_2bandit_a.png","70","img/orange_2bandit_a.png","70","test","","","","","","","","","","","4","","","","","","","","",""
"null","502513","SARL_v6","SARL_v6hcsmhe2v","63d156100e702f67d226f892","fixation","","","img/fixation.png","null","","","test","","","","","","","","","","","","","","","","","","","",""
"329.4000000000233","502845","SARL_v6","SARL_v6hcsmhe2v","63d156100e702f67d226f892","freq","","","img/orange_2bandit_a2.png","70","","70","test","1","","84","","","","square","circle","81","16","4","0.9753086419753086","","","","","","","",""
"null","503320","SARL_v6","SARL_v6hcsmhe2v","63d156100e702f67d226f892","freq_resp","","","img/orange_2bandit_a.png","70","img/orange_2bandit_a.png","70","test","","","","","","","","","","","4","","","","","","","","",""
"null","503480","SARL_v6","SARL_v6hcsmhe2v","63d156100e702f67d226f892","fixation","","","img/fixation.png","null","","","test","","","","","","","","","","","","","","","","","","","",""
"297","503780","SARL_v6","SARL_v6hcsmhe2v","63d156100e702f67d226f892","freq","","","img/orange_2bandit_a2.png","70","","70","test","1","","85","","","","square","circle","82","17","4","0.975609756097561","","","","","","","",""
"null","504289","SARL_v6","SARL_v6hcsmhe2v","63d156100e702f67d226f892","freq_resp","","","img/orange_2bandit_a.png","70","img/orange_2bandit_a.png","70","test","","","","","","","","","","","4","","","","","","","","",""
"null","504449","SARL_v6","SARL_v6hcsmhe2v","63d156100e702f67d226f892","fixation","","","img/fixation.png","null","","","test","","","","","","","","","","","","","","","","","","","",""
"296","504747","SARL_v6","SARL_v6hcsmhe2v","63d156100e702f67d226f892","freq","","","img/orange_2bandit_a2.png","70","","70","test","1","","86","","","","square","circle","83","18","4","0.9759036144578314","","","","","","","",""
"null","505256","SARL_v6","SARL_v6hcsmhe2v","63d156100e702f67d226f892","freq_resp","","","img/orange_2bandit_a.png","70","img/orange_2bandit_a.png","70","test","","","","","","","","","","","4","","","","","","","","",""
"null","505416","SARL_v6","SARL_v6hcsmhe2v","63d156100e702f67d226f892","fixation","","","img/fixation.png","null","","","test","","","","","","","","","","","","","","","","","","","",""
"287.29999999993015","505707","SARL_v6","SARL_v6hcsmhe2v","63d156100e702f67d226f892","freq","","","img/orange_2bandit_a2.png","70","","70","test","1","","87","","","","square","circle","84","19","4","0.9761904761904762","","","","","","","",""
"null","506224","SARL_v6","SARL_v6hcsmhe2v","63d156100e702f67d226f892","freq_resp","","","img/orange_2bandit_a.png","70","img/orange_2bandit_a.png","70","test","","","","","","","","","","","4","","","","","","","","",""
"null","506384","SARL_v6","SARL_v6hcsmhe2v","63d156100e702f67d226f892","fixation","","","img/fixation.png","null","","","test","","","","","","","","","","","","","","","","","","","",""
"459.30000000004657","506847","SARL_v6","SARL_v6hcsmhe2v","63d156100e702f67d226f892","freq","","","img/orange_2bandit_a2.png","70","","70","test","1","","88","","","","square","circle","85","20","4","0.9764705882352941","","","","","","","",""
"null","507192","SARL_v6","SARL_v6hcsmhe2v","63d156100e702f67d226f892","freq_resp","","","img/orange_2bandit_a.png","70","img/orange_2bandit_a.png","70","test","","","","","","","","","","","4","","","","","","","","",""
"null","507352","SARL_v6","SARL_v6hcsmhe2v","63d156100e702f67d226f892","fixation","","","img/fixation.png","null","","","test","","","","","","","","","","","","","","","","","","","",""
"436.5999999999767","507792","SARL_v6","SARL_v6hcsmhe2v","63d156100e702f67d226f892","infreq","","","img/blue_2bandit_a2.png","68","","68","test","1","","89","","","","square","circle","86","21","4","0.9767441860465116","","","","","","","",""
"null","508160","SARL_v6","SARL_v6hcsmhe2v","63d156100e702f67d226f892","infreq_resp","","","img/blue_2bandit_a.png","68","img/blue_2bandit_a.png","68","test","","","","","","","","","","","4","","","","","","","","",""
"null","508320","SARL_v6","SARL_v6hcsmhe2v","63d156100e702f67d226f892","fixation","","","img/fixation.png","null","","","test","","","","","","","","","","","","","","","","","","","",""
"369.5999999999767","508693","SARL_v6","SARL_v6hcsmhe2v","63d156100e702f67d226f892","freq","","","img/orange_2bandit_a2.png","70","","70","test","1","","90","","","","square","circle","87","22","4","0.9770114942528736","","","","","","","",""
"null","509128","SARL_v6","SARL_v6hcsmhe2v","63d156100e702f67d226f892","freq_resp","","","img/orange_2bandit_a.png","70","img/orange_2bandit_a.png","70","test","","","","","","","","","","","4","","","","","","","","",""
"null","509288","SARL_v6","SARL_v6hcsmhe2v","63d156100e702f67d226f892","fixation","","","img/fixation.png","null","","","test","","","","","","","","","","","","","","","","","","","",""
"299.30000000004657","509591","SARL_v6","SARL_v6hcsmhe2v","63d156100e702f67d226f892","infreq","","","img/blue_2bandit_a2.png","70","","68","test","0","","91","","","","square","circle","88","23","4","0.9659090909090909","","","","","","","",""
"null","510096","SARL_v6","SARL_v6hcsmhe2v","63d156100e702f67d226f892","infreq_resp","","","img/blue_2bandit_a.png","70","img/blue_2bandit_a.png","68","test","","","","","","","","","","","4","","","","","","","","",""
"null","510256","SARL_v6","SARL_v6hcsmhe2v","63d156100e702f67d226f892","fixation","","","img/fixation.png","null","","","test","","","","","","","","","","","","","","","","","","","",""
"287.0999999999767","510546","SARL_v6","SARL_v6hcsmhe2v","63d156100e702f67d226f892","freq","","","img/orange_2bandit_a2.png","70","","70","test","1","","92","","","","square","circle","89","24","4","0.9662921348314607","","","","","","","",""
"null","511065","SARL_v6","SARL_v6hcsmhe2v","63d156100e702f67d226f892","freq_resp","","","img/orange_2bandit_a.png","70","img/orange_2bandit_a.png","70","test","","","","","","","","","","","4","","","","","","","","",""
"null","511224","SARL_v6","SARL_v6hcsmhe2v","63d156100e702f67d226f892","fixation","","","img/fixation.png","null","","","test","","","","","","","","","","","","","","","","","","","",""
"282.89999999990687","511510","SARL_v6","SARL_v6hcsmhe2v","63d156100e702f67d226f892","freq","","","img/orange_2bandit_a2.png","70","","70","test","1","","93","","","","square","circle","90","25","4","0.9666666666666667","","","","","","","",""
"null","512032","SARL_v6","SARL_v6hcsmhe2v","63d156100e702f67d226f892","freq_resp","","","img/orange_2bandit_a.png","70","img/orange_2bandit_a.png","70","test","","","","","","","","","","","4","","","","","","","","",""
"null","512192","SARL_v6","SARL_v6hcsmhe2v","63d156100e702f67d226f892","fixation","","","img/fixation.png","null","","","test","","","","","","","","","","","","","","","","","","","",""
"578.5999999999767","512774","SARL_v6","SARL_v6hcsmhe2v","63d156100e702f67d226f892","rl","","","img/black_2bandit_a2.png","74","","0","test","","","94","","","-12","square","circle","","0","4","","74","0","-12","-12","0","square","4","0"
"null","513528","SARL_v6","SARL_v6hcsmhe2v","63d156100e702f67d226f892","feedback","","","<div class=""verylowPoints_sq""> -12 </div>","null","","na","test","","","NaN","","","","","","","","4","","74","","","","","","4",""
"287","513819","SARL_v6","SARL_v6hcsmhe2v","63d156100e702f67d226f892","freq","","","img/orange_2bandit_a2.png","70","","70","test","1","","95","","","","square","circle","91","1","5","0.967032967032967","","","","","","","",""
"null","514337","SARL_v6","SARL_v6hcsmhe2v","63d156100e702f67d226f892","freq_resp","","","img/orange_2bandit_a.png","70","img/orange_2bandit_a.png","70","test","","","","","","","","","","","5","","","","","","","","",""
"null","514496","SARL_v6","SARL_v6hcsmhe2v","63d156100e702f67d226f892","fixation","","","img/fixation.png","null","","","test","","","","","","","","","","","","","","","","","","","",""
"302.4000000000233","514802","SARL_v6","SARL_v6hcsmhe2v","63d156100e702f67d226f892","freq","","","img/orange_2bandit_a2.png","70","","70","test","1","","96","","","","square","circle","92","2","5","0.967391304347826","","","","","","","",""
"null","515304","SARL_v6","SARL_v6hcsmhe2v","63d156100e702f67d226f892","freq_resp","","","img/orange_2bandit_a.png","70","img/orange_2bandit_a.png","70","test","","","","","","","","","","","5","","","","","","","","",""
"null","515464","SARL_v6","SARL_v6hcsmhe2v","63d156100e702f67d226f892","fixation","","","img/fixation.png","null","","","test","","","","","","","","","","","","","","","","","","","",""
"363.0999999999767","515831","SARL_v6","SARL_v6hcsmhe2v","63d156100e702f67d226f892","freq","","","img/orange_2bandit_a2.png","70","","70","test","1","","97","","","","square","circle","93","3","5","0.967741935483871","","","","","","","",""
"null","516272","SARL_v6","SARL_v6hcsmhe2v","63d156100e702f67d226f892","freq_resp","","","img/orange_2bandit_a.png","70","img/orange_2bandit_a.png","70","test","","","","","","","","","","","5","","","","","","","","",""
"null","516432","SARL_v6","SARL_v6hcsmhe2v","63d156100e702f67d226f892","fixation","","","img/fixation.png","null","","","test","","","","","","","","","","","","","","","","","","","",""
"363.5999999999767","516799","SARL_v6","SARL_v6hcsmhe2v","63d156100e702f67d226f892","freq","","","img/orange_2bandit_a2.png","70","","70","test","1","","98","","","","square","circle","94","4","5","0.9680851063829787","","","","","","","",""
"null","517240","SARL_v6","SARL_v6hcsmhe2v","63d156100e702f67d226f892","freq_resp","","","img/orange_2bandit_a.png","70","img/orange_2bandit_a.png","70","test","","","","","","","","","","","5","","","","","","","","",""
"null","517400","SARL_v6","SARL_v6hcsmhe2v","63d156100e702f67d226f892","fixation","","","img/fixation.png","null","","","test","","","","","","","","","","","","","","","","","","","",""
"267.9000000000233","517671","SARL_v6","SARL_v6hcsmhe2v","63d156100e702f67d226f892","freq","","","img/orange_2bandit_a2.png","70","","70","test","1","","99","","","","square","circle","95","5","5","0.968421052631579","","","","","","","",""
"null","518208","SARL_v6","SARL_v6hcsmhe2v","63d156100e702f67d226f892","freq_resp","","","img/orange_2bandit_a.png","70","img/orange_2bandit_a.png","70","test","","","","","","","","","","","5","","","","","","","","",""
"null","518368","SARL_v6","SARL_v6hcsmhe2v","63d156100e702f67d226f892","fixation","","","img/fixation.png","null","","","test","","","","","","","","","","","","","","","","","","","",""
"293.70000000006985","518665","SARL_v6","SARL_v6hcsmhe2v","63d156100e702f67d226f892","freq","","","img/orange_2bandit_a2.png","70","","70","test","1","","100","","","","square","circle","96","6","5","0.96875","","","","","","","",""
"null","519176","SARL_v6","SARL_v6hcsmhe2v","63d156100e702f67d226f892","freq_resp","","","img/orange_2bandit_a.png","70","img/orange_2bandit_a.png","70","test","","","","","","","","","","","5","","","","","","","","",""
"null","519336","SARL_v6","SARL_v6hcsmhe2v","63d156100e702f67d226f892","fixation","","","img/fixation.png","null","","","test","","","","","","","","","","","","","","","","","","","",""
"289","519628","SARL_v6","SARL_v6hcsmhe2v","63d156100e702f67d226f892","freq","","","img/orange_2bandit_a2.png","70","","70","test","1","","101","","","","square","circle","97","7","5","0.9690721649484536","","","","","","","",""
"null","520145","SARL_v6","SARL_v6hcsmhe2v","63d156100e702f67d226f892","freq_resp","","","img/orange_2bandit_a.png","70","img/orange_2bandit_a.png","70","test","","","","","","","","","","","5","","","","","","","","",""
"null","520304","SARL_v6","SARL_v6hcsmhe2v","63d156100e702f67d226f892","fixation","","","img/fixation.png","null","","","test","","","","","","","","","","","","","","","","","","","",""
"273.5999999999767","520581","SARL_v6","SARL_v6hcsmhe2v","63d156100e702f67d226f892","freq","","","img/orange_2bandit_a2.png","70","","70","test","1","","102","","","","square","circle","98","8","5","0.9693877551020408","","","","","","","",""
"null","521112","SARL_v6","SARL_v6hcsmhe2v","63d156100e702f67d226f892","freq_resp","","","img/orange_2bandit_a.png","70","img/orange_2bandit_a.png","70","test","","","","","","","","","","","5","","","","","","","","",""
"null","521272","SARL_v6","SARL_v6hcsmhe2v","63d156100e702f67d226f892","fixation","","","img/fixation.png","null","","","test","","","","","","","","","","","","","","","","","","","",""
"264.29999999993015","521540","SARL_v6","SARL_v6hcsmhe2v","63d156100e702f67d226f892","freq","","","img/orange_2bandit_a2.png","70","","70","test","1","","103","","","","square","circle","99","9","5","0.9696969696969697","","","","","","","",""
"null","522080","SARL_v6","SARL_v6hcsmhe2v","63d156100e702f67d226f892","freq_resp","","","img/orange_2bandit_a.png","70","img/orange_2bandit_a.png","70","test","","","","","","","","","","","5","","","","","","","","",""
"null","522240","SARL_v6","SARL_v6hcsmhe2v","63d156100e702f67d226f892","fixation","","","img/fixation.png","null","","","test","","","","","","","","","","","","","","","","","","","",""
"297.20000000006985","522541","SARL_v6","SARL_v6hcsmhe2v","63d156100e702f67d226f892","freq","","","img/orange_2bandit_a2.png","70","","70","test","1","","104","","","","square","circle","100","10","5","0.97","","","","","","","",""
"null","523048","SARL_v6","SARL_v6hcsmhe2v","63d156100e702f67d226f892","freq_resp","","","img/orange_2bandit_a.png","70","img/orange_2bandit_a.png","70","test","","","","","","","","","","","5","","","","","","","","",""
"null","523208","SARL_v6","SARL_v6hcsmhe2v","63d156100e702f67d226f892","fixation","","","img/fixation.png","null","","","test","","","","","","","","","","","","","","","","","","","",""
"302.0999999999767","523514","SARL_v6","SARL_v6hcsmhe2v","63d156100e702f67d226f892","freq","","","img/orange_2bandit_a2.png","70","","70","test","1","","105","","","","square","circle","101","11","5","0.9702970297029703","","","","","","","",""
"null","524016","SARL_v6","SARL_v6hcsmhe2v","63d156100e702f67d226f892","freq_resp","","","img/orange_2bandit_a.png","70","img/orange_2bandit_a.png","70","test","","","","","","","","","","","5","","","","","","","","",""
"null","524176","SARL_v6","SARL_v6hcsmhe2v","63d156100e702f67d226f892","fixation","","","img/fixation.png","null","","","test","","","","","","","","","","","","","","","","","","","",""
"287.5999999999767","524467","SARL_v6","SARL_v6hcsmhe2v","63d156100e702f67d226f892","freq","","","img/orange_2bandit_a2.png","70","","70","test","1","","106","","","","square","circle","102","12","5","0.9705882352941176","","","","","","","",""
"null","524984","SARL_v6","SARL_v6hcsmhe2v","63d156100e702f67d226f892","freq_resp","","","img/orange_2bandit_a.png","70","img/orange_2bandit_a.png","70","test","","","","","","","","","","","5","","","","","","","","",""
"null","525144","SARL_v6","SARL_v6hcsmhe2v","63d156100e702f67d226f892","fixation","","","img/fixation.png","null","","","test","","","","","","","","","","","","","","","","","","","",""
"260","525407","SARL_v6","SARL_v6hcsmhe2v","63d156100e702f67d226f892","freq","","","img/orange_2bandit_a2.png","70","","70","test","1","","107","","","","square","circle","103","13","5","0.970873786407767","","","","","","","",""
"null","525952","SARL_v6","SARL_v6hcsmhe2v","63d156100e702f67d226f892","freq_resp","","","img/orange_2bandit_a.png","70","img/orange_2bandit_a.png","70","test","","","","","","","","","","","5","","","","","","","","",""
"null","526112","SARL_v6","SARL_v6hcsmhe2v","63d156100e702f67d226f892","fixation","","","img/fixation.png","null","","","test","","","","","","","","","","","","","","","","","","","",""
"318","526434","SARL_v6","SARL_v6hcsmhe2v","63d156100e702f67d226f892","freq","","","img/orange_2bandit_a2.png","70","","70","test","1","","108","","","","square","circle","104","14","5","0.9711538461538461","","","","","","","",""
"null","526920","SARL_v6","SARL_v6hcsmhe2v","63d156100e702f67d226f892","freq_resp","","","img/orange_2bandit_a.png","70","img/orange_2bandit_a.png","70","test","","","","","","","","","","","5","","","","","","","","",""
"null","527080","SARL_v6","SARL_v6hcsmhe2v","63d156100e702f67d226f892","fixation","","","img/fixation.png","null","","","test","","","","","","","","","","","","","","","","","","","",""
"349.79999999993015","527433","SARL_v6","SARL_v6hcsmhe2v","63d156100e702f67d226f892","freq","","","img/orange_2bandit_a2.png","70","","70","test","1","","109","","","","square","circle","105","15","5","0.9714285714285714","","","","","","","",""
"null","527888","SARL_v6","SARL_v6hcsmhe2v","63d156100e702f67d226f892","freq_resp","","","img/orange_2bandit_a.png","70","img/orange_2bandit_a.png","70","test","","","","","","","","","","","5","","","","","","","","",""
"null","528049","SARL_v6","SARL_v6hcsmhe2v","63d156100e702f67d226f892","fixation","","","img/fixation.png","null","","","test","","","","","","","","","","","","","","","","","","","",""
"322.5","528374","SARL_v6","SARL_v6hcsmhe2v","63d156100e702f67d226f892","freq","","","img/orange_2bandit_a2.png","70","","70","test","1","","110","","","","square","circle","106","16","5","0.9716981132075472","","","","","","","",""
"null","528856","SARL_v6","SARL_v6hcsmhe2v","63d156100e702f67d226f892","freq_resp","","","img/orange_2bandit_a.png","70","img/orange_2bandit_a.png","70","test","","","","","","","","","","","5","","","","","","","","",""
"null","529016","SARL_v6","SARL_v6hcsmhe2v","63d156100e702f67d226f892","fixation","","","img/fixation.png","null","","","test","","","","","","","","","","","","","","","","","","","",""
"269.89999999990687","529289","SARL_v6","SARL_v6hcsmhe2v","63d156100e702f67d226f892","freq","","","img/orange_2bandit_a2.png","70","","70","test","1","","111","","","","square","circle","107","17","5","0.9719626168224299","","","","","","","",""
"null","529824","SARL_v6","SARL_v6hcsmhe2v","63d156100e702f67d226f892","freq_resp","","","img/orange_2bandit_a.png","70","img/orange_2bandit_a.png","70","test","","","","","","","","","","","5","","","","","","","","",""
"null","529984","SARL_v6","SARL_v6hcsmhe2v","63d156100e702f67d226f892","fixation","","","img/fixation.png","null","","","test","","","","","","","","","","","","","","","","","","","",""
"255.59999999997672","530242","SARL_v6","SARL_v6hcsmhe2v","63d156100e702f67d226f892","freq","","","img/orange_2bandit_a2.png","70","","70","test","1","","112","","","","square","circle","108","18","5","0.9722222222222222","","","","","","","",""
"null","530792","SARL_v6","SARL_v6hcsmhe2v","63d156100e702f67d226f892","freq_resp","","","img/orange_2bandit_a.png","70","img/orange_2bandit_a.png","70","test","","","","","","","","","","","5","","","","","","","","",""
"null","530952","SARL_v6","SARL_v6hcsmhe2v","63d156100e702f67d226f892","fixation","","","img/fixation.png","null","","","test","","","","","","","","","","","","","","","","","","","",""
"346.5999999999767","531302","SARL_v6","SARL_v6hcsmhe2v","63d156100e702f67d226f892","freq","","","img/orange_2bandit_a2.png","70","","70","test","1","","113","","","","square","circle","109","19","5","0.9724770642201835","","","","","","","",""
"null","531760","SARL_v6","SARL_v6hcsmhe2v","63d156100e702f67d226f892","freq_resp","","","img/orange_2bandit_a.png","70","img/orange_2bandit_a.png","70","test","","","","","","","","","","","5","","","","","","","","",""
"null","531920","SARL_v6","SARL_v6hcsmhe2v","63d156100e702f67d226f892","fixation","","","img/fixation.png","null","","","test","","","","","","","","","","","","","","","","","","","",""
"319.0999999999767","532243","SARL_v6","SARL_v6hcsmhe2v","63d156100e702f67d226f892","freq","","","img/orange_2bandit_a2.png","70","","70","test","1","","114","","","","square","circle","110","20","5","0.9727272727272728","","","","","","","",""
"null","532728","SARL_v6","SARL_v6hcsmhe2v","63d156100e702f67d226f892","freq_resp","","","img/orange_2bandit_a.png","70","img/orange_2bandit_a.png","70","test","","","","","","","","","","","5","","","","","","","","",""
"null","532888","SARL_v6","SARL_v6hcsmhe2v","63d156100e702f67d226f892","fixation","","","img/fixation.png","null","","","test","","","","","","","","","","","","","","","","","","","",""
"430","533321","SARL_v6","SARL_v6hcsmhe2v","63d156100e702f67d226f892","infreq","","","img/blue_2bandit_a2.png","68","","68","test","1","","115","","","","square","circle","111","21","5","0.972972972972973","","","","","","","",""
"null","533696","SARL_v6","SARL_v6hcsmhe2v","63d156100e702f67d226f892","infreq_resp","","","img/blue_2bandit_a.png","68","img/blue_2bandit_a.png","68","test","","","","","","","","","","","5","","","","","","","","",""
"null","533857","SARL_v6","SARL_v6hcsmhe2v","63d156100e702f67d226f892","fixation","","","img/fixation.png","null","","","test","","","","","","","","","","","","","","","","","","","",""
"406.69999999995343","534266","SARL_v6","SARL_v6hcsmhe2v","63d156100e702f67d226f892","infreq","","","img/blue_2bandit_a2.png","68","","68","test","1","","116","","","","square","circle","112","22","5","0.9732142857142857","","","","","","","",""
"null","534664","SARL_v6","SARL_v6hcsmhe2v","63d156100e702f67d226f892","infreq_resp","","","img/blue_2bandit_a.png","68","img/blue_2bandit_a.png","68","test","","","","","","","","","","","5","","","","","","","","",""
"null","534824","SARL_v6","SARL_v6hcsmhe2v","63d156100e702f67d226f892","fixation","","","img/fixation.png","null","","","test","","","","","","","","","","","","","","","","","","","",""
"379.60000000009313","535207","SARL_v6","SARL_v6hcsmhe2v","63d156100e702f67d226f892","freq","","","img/orange_2bandit_a2.png","70","","70","test","1","","117","","","","square","circle","113","23","5","0.9734513274336283","","","","","","","",""
"null","535632","SARL_v6","SARL_v6hcsmhe2v","63d156100e702f67d226f892","freq_resp","","","img/orange_2bandit_a.png","70","img/orange_2bandit_a.png","70","test","","","","","","","","","","","5","","","","","","","","",""
"null","535792","SARL_v6","SARL_v6hcsmhe2v","63d156100e702f67d226f892","fixation","","","img/fixation.png","null","","","test","","","","","","","","","","","","","","","","","","","",""
"324.5999999999767","536119","SARL_v6","SARL_v6hcsmhe2v","63d156100e702f67d226f892","freq","","","img/orange_2bandit_a2.png","70","","70","test","1","","118","","","","square","circle","114","24","5","0.9736842105263158","","","","","","","",""
"null","536600","SARL_v6","SARL_v6hcsmhe2v","63d156100e702f67d226f892","freq_resp","","","img/orange_2bandit_a.png","70","img/orange_2bandit_a.png","70","test","","","","","","","","","","","5","","","","","","","","",""
"null","536760","SARL_v6","SARL_v6hcsmhe2v","63d156100e702f67d226f892","fixation","","","img/fixation.png","null","","","test","","","","","","","","","","","","","","","","","","","",""
"598.5","537362","SARL_v6","SARL_v6hcsmhe2v","63d156100e702f67d226f892","rl","","","img/black_2bandit_a2.png","74","","0","test","","","119","","","-7","square","circle","","0","5","","74","4","-7","-7","4","square","5","0"
"null","538121","SARL_v6","SARL_v6hcsmhe2v","63d156100e702f67d226f892","feedback","","","<div class=""verylowPoints_sq""> -7 </div>","null","","na","test","","","NaN","","","","","","","","5","","74","","","","","","5",""
"288.4000000000233","538412","SARL_v6","SARL_v6hcsmhe2v","63d156100e702f67d226f892","freq","","","img/orange_2bandit_a2.png","70","","70","test","1","","120","","","","square","circle","115","1","6","0.9739130434782609","","","","","","","",""
"null","538928","SARL_v6","SARL_v6hcsmhe2v","63d156100e702f67d226f892","freq_resp","","","img/orange_2bandit_a.png","70","img/orange_2bandit_a.png","70","test","","","","","","","","","","","6","","","","","","","","",""
"null","539088","SARL_v6","SARL_v6hcsmhe2v","63d156100e702f67d226f892","fixation","","","img/fixation.png","null","","","test","","","","","","","","","","","","","","","","","","","",""
"284.19999999995343","539375","SARL_v6","SARL_v6hcsmhe2v","63d156100e702f67d226f892","freq","","","img/orange_2bandit_a2.png","70","","70","test","1","","121","","","","square","circle","116","2","6","0.9741379310344828","","","","","","","",""
"null","539896","SARL_v6","SARL_v6hcsmhe2v","63d156100e702f67d226f892","freq_resp","","","img/orange_2bandit_a.png","70","img/orange_2bandit_a.png","70","test","","","","","","","","","","","6","","","","","","","","",""
"null","540056","SARL_v6","SARL_v6hcsmhe2v","63d156100e702f67d226f892","fixation","","","img/fixation.png","null","","","test","","","","","","","","","","","","","","","","","","","",""
"287.5","540347","SARL_v6","SARL_v6hcsmhe2v","63d156100e702f67d226f892","freq","","","img/orange_2bandit_a2.png","70","","70","test","1","","122","","","","square","circle","117","3","6","0.9743589743589743","","","","","","","",""
"null","540864","SARL_v6","SARL_v6hcsmhe2v","63d156100e702f67d226f892","freq_resp","","","img/orange_2bandit_a.png","70","img/orange_2bandit_a.png","70","test","","","","","","","","","","","6","","","","","","","","",""
"null","541024","SARL_v6","SARL_v6hcsmhe2v","63d156100e702f67d226f892","fixation","","","img/fixation.png","null","","","test","","","","","","","","","","","","","","","","","","","",""
"690.8000000000466","541718","SARL_v6","SARL_v6hcsmhe2v","63d156100e702f67d226f892","infreq","","","img/blue_2bandit_a2.png","68","","68","test","1","","123","","","","square","circle","118","4","6","0.9745762711864406","","","","","","","",""
"null","541832","SARL_v6","SARL_v6hcsmhe2v","63d156100e702f67d226f892","infreq_resp","","","img/blue_2bandit_a.png","68","img/blue_2bandit_a.png","68","test","","","","","","","","","","","6","","","","","","","","",""
"null","541992","SARL_v6","SARL_v6hcsmhe2v","63d156100e702f67d226f892","fixation","","","img/fixation.png","null","","","test","","","","","","","","","","","","","","","","","","","",""
"331.0999999999767","542326","SARL_v6","SARL_v6hcsmhe2v","63d156100e702f67d226f892","freq","","","img/orange_2bandit_a2.png","70","","70","test","1","","124","","","","square","circle","119","5","6","0.9747899159663865","","","","","","","",""
"null","542800","SARL_v6","SARL_v6hcsmhe2v","63d156100e702f67d226f892","freq_resp","","","img/orange_2bandit_a.png","70","img/orange_2bandit_a.png","70","test","","","","","","","","","","","6","","","","","","","","",""
"null","542960","SARL_v6","SARL_v6hcsmhe2v","63d156100e702f67d226f892","fixation","","","img/fixation.png","null","","","test","","","","","","","","","","","","","","","","","","","",""
"341.89999999990687","543305","SARL_v6","SARL_v6hcsmhe2v","63d156100e702f67d226f892","freq","","","img/orange_2bandit_a2.png","70","","70","test","1","","125","","","","square","circle","120","6","6","0.975","","","","","","","",""
"null","543768","SARL_v6","SARL_v6hcsmhe2v","63d156100e702f67d226f892","freq_resp","","","img/orange_2bandit_a.png","70","img/orange_2bandit_a.png","70","test","","","","","","","","","","","6","","","","","","","","",""
"null","543928","SARL_v6","SARL_v6hcsmhe2v","63d156100e702f67d226f892","fixation","","","img/fixation.png","null","","","test","","","","","","","","","","","","","","","","","","","",""
"300.79999999993015","544232","SARL_v6","SARL_v6hcsmhe2v","63d156100e702f67d226f892","freq","","","img/orange_2bandit_a2.png","70","","70","test","1","","126","","","","square","circle","121","7","6","0.9752066115702479","","","","","","","",""
"null","544736","SARL_v6","SARL_v6hcsmhe2v","63d156100e702f67d226f892","freq_resp","","","img/orange_2bandit_a.png","70","img/orange_2bandit_a.png","70","test","","","","","","","","","","","6","","","","","","","","",""
"null","544896","SARL_v6","SARL_v6hcsmhe2v","63d156100e702f67d226f892","fixation","","","img/fixation.png","null","","","test","","","","","","","","","","","","","","","","","","","",""
"266.5999999999767","545166","SARL_v6","SARL_v6hcsmhe2v","63d156100e702f67d226f892","freq","","","img/orange_2bandit_a2.png","70","","70","test","1","","127","","","","square","circle","122","8","6","0.9754098360655737","","","","","","","",""
"null","545705","SARL_v6","SARL_v6hcsmhe2v","63d156100e702f67d226f892","freq_resp","","","img/orange_2bandit_a.png","70","img/orange_2bandit_a.png","70","test","","","","","","","","","","","6","","","","","","","","",""
"null","545864","SARL_v6","SARL_v6hcsmhe2v","63d156100e702f67d226f892","fixation","","","img/fixation.png","null","","","test","","","","","","","","","","","","","","","","","","","",""
"495.69999999995343","546363","SARL_v6","SARL_v6hcsmhe2v","63d156100e702f67d226f892","infreq","","","img/blue_2bandit_a2.png","68","","68","test","1","","128","","","","square","circle","123","9","6","0.975609756097561","","","","","","","",""
"null","546672","SARL_v6","SARL_v6hcsmhe2v","63d156100e702f67d226f892","infreq_resp","","","img/blue_2bandit_a.png","68","img/blue_2bandit_a.png","68","test","","","","","","","","","","","6","","","","","","","","",""
"null","546833","SARL_v6","SARL_v6hcsmhe2v","63d156100e702f67d226f892","fixation","","","img/fixation.png","null","","","test","","","","","","","","","","","","","","","","","","","",""
"302.5999999999767","547138","SARL_v6","SARL_v6hcsmhe2v","63d156100e702f67d226f892","freq","","","img/orange_2bandit_a2.png","70","","70","test","1","","129","","","","square","circle","124","10","6","0.9758064516129032","","","","","","","",""
"null","547640","SARL_v6","SARL_v6hcsmhe2v","63d156100e702f67d226f892","freq_resp","","","img/orange_2bandit_a.png","70","img/orange_2bandit_a.png","70","test","","","","","","","","","","","6","","","","","","","","",""
"null","547800","SARL_v6","SARL_v6hcsmhe2v","63d156100e702f67d226f892","fixation","","","img/fixation.png","null","","","test","","","","","","","","","","","","","","","","","","","",""
"328.5999999999767","548132","SARL_v6","SARL_v6hcsmhe2v","63d156100e702f67d226f892","freq","","","img/orange_2bandit_a2.png","70","","70","test","1","","130","","","","square","circle","125","11","6","0.976","","","","","","","",""
