"rt","time_elapsed","expId","subject","prolificID","trialType","rlType","attType","stimulus","key_press","stim","corrresp","phase","corr","pracCounter","trialNum","rewardOne","rewardTwo","reward","bandOne","bandTwo","attentionNum","attentionRunNum","blockNum","performance","bandChosen","circleVal","squareVal","bandOneVal","bandTwoVal","shapeChosen","rlNum","badFlag"
"1781.7000000178814","1789","SARL_v6","SARL_v61v6xhxca","5f35554b3e58ff4e844795e9","","","","","","","","","","","","","","","","","","","","","","","","","","","",""
"","21074","SARL_v6","SARL_v61v6xhxca","5f35554b3e58ff4e844795e9","fullscreen","fullscreen","fullscreen","","","","","","","","","","","","","","","","","","","","","","","","",""
"99050","120133","SARL_v6","SARL_v61v6xhxca","5f35554b3e58ff4e844795e9","","","","","","","","","","","","","","","","","","","","","","","","","","","",""
"null","120940","SARL_v6","SARL_v61v6xhxca","5f35554b3e58ff4e844795e9","freqPrac","","","img/orange_2bandit_a2.png","null","img/orange_2bandit_a2.png","70","prac","0","1","","","","","","","","","","","","","","","","","",""
"null","121950","SARL_v6","SARL_v61v6xhxca","5f35554b3e58ff4e844795e9","feedback","","","img/tooSlow.png","null","","na","prac","","","","","","","","","","","","","","","","","","","",""
"null","122108","SARL_v6","SARL_v61v6xhxca","5f35554b3e58ff4e844795e9","fixation","","","img/fixation.png","null","","","prac","","","","","","","","","","","","","","","","","","","",""
"null","122923","SARL_v6","SARL_v61v6xhxca","5f35554b3e58ff4e844795e9","infreqPrac","","","img/blue_2bandit_a2.png","null","img/blue_2bandit_a2.png","68","prac","0","2","","","","","","","","","","","","","","","","","",""
"null","123939","SARL_v6","SARL_v61v6xhxca","5f35554b3e58ff4e844795e9","feedback","","","img/tooSlow.png","null","","na","prac","","","","","","","","","","","","","","","","","","","",""
"null","124100","SARL_v6","SARL_v61v6xhxca","5f35554b3e58ff4e844795e9","fixation","","","img/fixation.png","null","","","prac","","","","","","","","","","","","","","","","","","","",""
"435.80000001192093","124539","SARL_v6","SARL_v61v6xhxca","5f35554b3e58ff4e844795e9","freqPrac","","","img/orange_2bandit_a2.png","68","img/orange_2bandit_a2.png","70","prac","0","3","","","","","","","","","","","","","","","","","",""
"435.80000001192093","124906","SARL_v6","SARL_v61v6xhxca","5f35554b3e58ff4e844795e9","freqPrac_resp","","","img/orange_2bandit_a.png","68","img/orange_2bandit_a.png","70","prac","","","","","","","","","","","","","","","","","","","",""
"null","125927","SARL_v6","SARL_v61v6xhxca","5f35554b3e58ff4e844795e9","feedback","","","img/wrongKey.png","null","","na","prac","","","","","","","","","","","","","","","","","","","",""
"null","126099","SARL_v6","SARL_v61v6xhxca","5f35554b3e58ff4e844795e9","fixation","","","img/fixation.png","null","","","prac","","","","","","","","","","","","","","","","","","","",""
"null","126906","SARL_v6","SARL_v61v6xhxca","5f35554b3e58ff4e844795e9","infreqPrac","","","img/blue_2bandit_a2.png","null","img/blue_2bandit_a2.png","68","prac","0","4","","","","","","","","","","","","","","","","","",""
"null","127922","SARL_v6","SARL_v61v6xhxca","5f35554b3e58ff4e844795e9","feedback","","","img/tooSlow.png","null","","na","prac","","","","","","","","","","","","","","","","","","","",""
"null","128076","SARL_v6","SARL_v61v6xhxca","5f35554b3e58ff4e844795e9","fixation","","","img/fixation.png","null","","","prac","","","","","","","","","","","","","","","","","","","",""
"null","128881","SARL_v6","SARL_v61v6xhxca","5f35554b3e58ff4e844795e9","infreqPrac","","","img/blue_2bandit_a2.png","null","img/blue_2bandit_a2.png","68","prac","0","5","","","","","","","","","","","","","","","","","",""
"null","129892","SARL_v6","SARL_v61v6xhxca","5f35554b3e58ff4e844795e9","feedback","","","img/tooSlow.png","null","","na","prac","","","","","","","","","","","","","","","","","","","",""
"null","130045","SARL_v6","SARL_v61v6xhxca","5f35554b3e58ff4e844795e9","fixation","","","img/fixation.png","null","","","prac","","","","","","","","","","","","","","","","","","","",""
"511.5","130559","SARL_v6","SARL_v61v6xhxca","5f35554b3e58ff4e844795e9","infreqPrac","","","img/blue_2bandit_a2.png","68","img/blue_2bandit_a2.png","68","prac","1","5","","","","","","","","","","","","","","","","","",""
"511.5","130855","SARL_v6","SARL_v61v6xhxca","5f35554b3e58ff4e844795e9","infreqPrac_resp","","","img/blue_2bandit_a.png","68","img/blue_2bandit_a.png","68","prac","","","","","","","","","","","","","","","","","","","",""
"null","131015","SARL_v6","SARL_v61v6xhxca","5f35554b3e58ff4e844795e9","fixation","","","img/fixation.png","null","","","prac","","","","","","","","","","","","","","","","","","","",""
"null","131831","SARL_v6","SARL_v61v6xhxca","5f35554b3e58ff4e844795e9","freqPrac","","","img/orange_2bandit_a2.png","null","img/orange_2bandit_a2.png","70","prac","0","6","","","","","","","","","","","","","","","","","",""
"null","132843","SARL_v6","SARL_v61v6xhxca","5f35554b3e58ff4e844795e9","feedback","","","img/tooSlow.png","null","","na","prac","","","","","","","","","","","","","","","","","","","",""
"null","132996","SARL_v6","SARL_v61v6xhxca","5f35554b3e58ff4e844795e9","fixation","","","img/fixation.png","null","","","prac","","","","","","","","","","","","","","","","","","","",""
"null","133812","SARL_v6","SARL_v61v6xhxca","5f35554b3e58ff4e844795e9","infreqPrac","","","img/blue_2bandit_a2.png","null","img/blue_2bandit_a2.png","68","prac","0","7","","","","","","","","","","","","","","","","","",""
"null","134818","SARL_v6","SARL_v61v6xhxca","5f35554b3e58ff4e844795e9","feedback","","","img/tooSlow.png","null","","na","prac","","","","","","","","","","","","","","","","","","","",""
"null","134977","SARL_v6","SARL_v61v6xhxca","5f35554b3e58ff4e844795e9","fixation","","","img/fixation.png","null","","","prac","","","","","","","","","","","","","","","","","","","",""
"311.5","135292","SARL_v6","SARL_v61v6xhxca","5f35554b3e58ff4e844795e9","freqPrac","","","img/orange_2bandit_a2.png","70","img/orange_2bandit_a2.png","70","prac","1","7","","","","","","","","","","","","","","","","","",""
"311.5","135792","SARL_v6","SARL_v61v6xhxca","5f35554b3e58ff4e844795e9","freqPrac_resp","","","img/orange_2bandit_a.png","70","img/orange_2bandit_a.png","70","prac","","","","","","","","","","","","","","","","","","","",""
"null","135948","SARL_v6","SARL_v61v6xhxca","5f35554b3e58ff4e844795e9","fixation","","","img/fixation.png","null","","","prac","","","","","","","","","","","","","","","","","","","",""
"428.90000000596046","136380","SARL_v6","SARL_v61v6xhxca","5f35554b3e58ff4e844795e9","freqPrac","","","img/orange_2bandit_a2.png","70","img/orange_2bandit_a2.png","70","prac","1","7","","","","","","","","","","","","","","","","","",""
"428.90000000596046","136783","SARL_v6","SARL_v61v6xhxca","5f35554b3e58ff4e844795e9","freqPrac_resp","","","img/orange_2bandit_a.png","70","img/orange_2bandit_a.png","70","prac","","","","","","","","","","","","","","","","","","","",""
"null","136956","SARL_v6","SARL_v61v6xhxca","5f35554b3e58ff4e844795e9","fixation","","","img/fixation.png","null","","","prac","","","","","","","","","","","","","","","","","","","",""
"39122.09999999404","176080","SARL_v6","SARL_v61v6xhxca","5f35554b3e58ff4e844795e9","","","","","","","","prac","","","","","","","","","","","","","","","","","","","",""
"661.7999999821186","176745","SARL_v6","SARL_v61v6xhxca","5f35554b3e58ff4e844795e9","rlPractice","","","img/black_2bandit_a2.png","74","img/black_2bandit_a2.png","","prac","","","0","","","","","","","","","","","","","","","","",""
"null","177511","SARL_v6","SARL_v61v6xhxca","5f35554b3e58ff4e844795e9","feedback","","","<div class=""verylowPoints_sq""> -14 </div>","null","","na","prac","","","1","10","-14","10","","","","","","","","","","","","","",""
"null","177672","SARL_v6","SARL_v61v6xhxca","5f35554b3e58ff4e844795e9","fixation","","","img/fixation.png","null","","","prac","","","","","","","","","","","","","","","","","","","",""
"376.90000000596046","178052","SARL_v6","SARL_v61v6xhxca","5f35554b3e58ff4e844795e9","rlPractice","","","img/black_2bandit_a2.png","75","img/black_2bandit_a2.png","","prac","","","1","","","","","","","","","","","","","","","","",""
"null","178818","SARL_v6","SARL_v61v6xhxca","5f35554b3e58ff4e844795e9","feedback","","","<div class=""veryhighPoints""> 5 </div>","null","","na","prac","","","2","5","-5","5","","","","","","","","","","","","","",""
"null","178974","SARL_v6","SARL_v61v6xhxca","5f35554b3e58ff4e844795e9","fixation","","","img/fixation.png","null","","","prac","","","","","","","","","","","","","","","","","","","",""
"423.40000000596046","179400","SARL_v6","SARL_v61v6xhxca","5f35554b3e58ff4e844795e9","rlPractice","","","img/black_2bandit_a2.png","75","img/black_2bandit_a2.png","","prac","","","2","","","","","","","","","","","","","","","","",""
"null","180163","SARL_v6","SARL_v61v6xhxca","5f35554b3e58ff4e844795e9","feedback","","","<div class=""veryhighPoints""> 30 </div>","null","","na","prac","","","3","30","2","30","","","","","","","","","","","","","",""
"null","180327","SARL_v6","SARL_v61v6xhxca","5f35554b3e58ff4e844795e9","fixation","","","img/fixation.png","null","","","prac","","","","","","","","","","","","","","","","","","","",""
"350.2000000178814","180670","SARL_v6","SARL_v61v6xhxca","5f35554b3e58ff4e844795e9","rlPractice","","","img/black_2bandit_a2.png","74","img/black_2bandit_a2.png","","prac","","","3","","","","","","","","","","","","","","","","",""
"null","181435","SARL_v6","SARL_v61v6xhxca","5f35554b3e58ff4e844795e9","feedback","","","<div class=""veryhighPoints_sq""> 20 </div>","null","","na","prac","","","4","-2","20","-2","","","","","","","","","","","","","",""
"null","181612","SARL_v6","SARL_v61v6xhxca","5f35554b3e58ff4e844795e9","fixation","","","img/fixation.png","null","","","prac","","","","","","","","","","","","","","","","","","","",""
"19153.19999998808","200768","SARL_v6","SARL_v61v6xhxca","5f35554b3e58ff4e844795e9","","","","","","","","prac","","","","","","","","","","","","","","","","","","","",""
"null","201574","SARL_v6","SARL_v61v6xhxca","5f35554b3e58ff4e844795e9","mixAttFreqPrac","","","img/orange_2bandit_a2.png","null","img/orange_2bandit_a2.png","70","prac","","","1","","","","","","","","","","","","","","","","",""
"null","201732","SARL_v6","SARL_v61v6xhxca","5f35554b3e58ff4e844795e9","fixation","","","img/fixation.png","null","","","prac","","","","","","","","","","","","","","","","","","","",""
"null","202535","SARL_v6","SARL_v61v6xhxca","5f35554b3e58ff4e844795e9","mixAttInfreqPrac","","","img/blue_2bandit_a2.png","null","img/blue_2bandit_a2.png","68","prac","","","2","","","","","","","","","","","","","","","","",""
"null","202695","SARL_v6","SARL_v61v6xhxca","5f35554b3e58ff4e844795e9","fixation","","","img/fixation.png","null","","","prac","","","","","","","","","","","","","","","","","","","",""
"null","203511","SARL_v6","SARL_v61v6xhxca","5f35554b3e58ff4e844795e9","mixAttInfreqPrac","","","img/blue_2bandit_a2.png","null","img/blue_2bandit_a2.png","68","prac","","","3","","","","","","","","","","","","","","","","",""
"null","203674","SARL_v6","SARL_v61v6xhxca","5f35554b3e58ff4e844795e9","fixation","","","img/fixation.png","null","","","prac","","","","","","","","","","","","","","","","","","","",""
"null","204481","SARL_v6","SARL_v61v6xhxca","5f35554b3e58ff4e844795e9","mixAttInfreqPrac","","","img/blue_2bandit_a2.png","null","img/blue_2bandit_a2.png","68","prac","","","4","","","","","","","","","","","","","","","","",""
"null","204638","SARL_v6","SARL_v61v6xhxca","5f35554b3e58ff4e844795e9","fixation","","","img/fixation.png","null","","","prac","","","","","","","","","","","","","","","","","","","",""
"null","205441","SARL_v6","SARL_v61v6xhxca","5f35554b3e58ff4e844795e9","mixAttFreqPrac","","","img/orange_2bandit_a2.png","null","img/orange_2bandit_a2.png","70","prac","","","5","","","","","","","","","","","","","","","","",""
"null","205597","SARL_v6","SARL_v61v6xhxca","5f35554b3e58ff4e844795e9","fixation","","","img/fixation.png","null","","","prac","","","","","","","","","","","","","","","","","","","",""
"295.7999999821186","205896","SARL_v6","SARL_v61v6xhxca","5f35554b3e58ff4e844795e9","mixRLPractice","","","img/black_2bandit_a2.png","75","img/black_2bandit_a2.png","","prac","","","5","","","","","","","","","","","","","","","","",""
"null","206660","SARL_v6","SARL_v61v6xhxca","5f35554b3e58ff4e844795e9","feedback","","","<div class=""verylowPoints""> -14 </div>","null","","na","prac","","","6","-14","10","-14","","","","","","","","","","","","","",""
"null","206820","SARL_v6","SARL_v61v6xhxca","5f35554b3e58ff4e844795e9","fixation","","","img/fixation.png","null","","","prac","","","","","","","","","","","","","","","","","","","",""
"null","207631","SARL_v6","SARL_v61v6xhxca","5f35554b3e58ff4e844795e9","mixAttFreqPrac","","","img/orange_2bandit_a2.png","null","img/orange_2bandit_a2.png","70","prac","","","7","","","","","","","","","","","","","","","","",""
"null","207785","SARL_v6","SARL_v61v6xhxca","5f35554b3e58ff4e844795e9","fixation","","","img/fixation.png","null","","","prac","","","","","","","","","","","","","","","","","","","",""
"null","208593","SARL_v6","SARL_v61v6xhxca","5f35554b3e58ff4e844795e9","mixAttInfreqPrac","","","img/blue_2bandit_a2.png","null","img/blue_2bandit_a2.png","68","prac","","","8","","","","","","","","","","","","","","","","",""
"null","208754","SARL_v6","SARL_v61v6xhxca","5f35554b3e58ff4e844795e9","fixation","","","img/fixation.png","null","","","prac","","","","","","","","","","","","","","","","","","","",""
"null","209570","SARL_v6","SARL_v61v6xhxca","5f35554b3e58ff4e844795e9","mixAttFreqPrac","","","img/orange_2bandit_a2.png","null","img/orange_2bandit_a2.png","70","prac","","","9","","","","","","","","","","","","","","","","",""
"null","209724","SARL_v6","SARL_v61v6xhxca","5f35554b3e58ff4e844795e9","fixation","","","img/fixation.png","null","","","prac","","","","","","","","","","","","","","","","","","","",""
"null","210542","SARL_v6","SARL_v61v6xhxca","5f35554b3e58ff4e844795e9","mixAttFreqPrac","","","img/orange_2bandit_a2.png","null","img/orange_2bandit_a2.png","70","prac","","","10","","","","","","","","","","","","","","","","",""
"null","210707","SARL_v6","SARL_v61v6xhxca","5f35554b3e58ff4e844795e9","fixation","","","img/fixation.png","null","","","prac","","","","","","","","","","","","","","","","","","","",""
"null","211510","SARL_v6","SARL_v61v6xhxca","5f35554b3e58ff4e844795e9","mixAttInfreqPrac","","","img/blue_2bandit_a2.png","null","img/blue_2bandit_a2.png","68","prac","","","11","","","","","","","","","","","","","","","","",""
"null","211664","SARL_v6","SARL_v61v6xhxca","5f35554b3e58ff4e844795e9","fixation","","","img/fixation.png","null","","","prac","","","","","","","","","","","","","","","","","","","",""
"298.30000001192093","211965","SARL_v6","SARL_v61v6xhxca","5f35554b3e58ff4e844795e9","mixRLPractice","","","img/black_2bandit_a2.png","74","img/black_2bandit_a2.png","","prac","","","11","","","","","","","","","","","","","","","","",""
"null","212718","SARL_v6","SARL_v61v6xhxca","5f35554b3e58ff4e844795e9","feedback","","","<div class=""verylowPoints_sq""> -5 </div>","null","","na","prac","","","12","5","-5","5","","","","","","","","","","","","","",""
"null","212872","SARL_v6","SARL_v61v6xhxca","5f35554b3e58ff4e844795e9","fixation","","","img/fixation.png","null","","","prac","","","","","","","","","","","","","","","","","","","",""
"25851.59999999404","238726","SARL_v6","SARL_v61v6xhxca","5f35554b3e58ff4e844795e9","","","","","","","","prac","","","","","","","","","","","","","","","","","","","",""
"null","239539","SARL_v6","SARL_v61v6xhxca","5f35554b3e58ff4e844795e9","freq","","","img/orange_2bandit_a2.png","null","","70","test","0","","1","","","","square","circle","1","1","1","0","","","","","","","",""
"null","239692","SARL_v6","SARL_v61v6xhxca","5f35554b3e58ff4e844795e9","fixation","","","img/fixation.png","null","","","test","","","","","","","","","","","","","","","","","","","",""
"null","240496","SARL_v6","SARL_v61v6xhxca","5f35554b3e58ff4e844795e9","freq","","","img/orange_2bandit_a2.png","null","","70","test","0","","2","","","","square","circle","2","2","1","0","","","","","","","",""
"null","240662","SARL_v6","SARL_v61v6xhxca","5f35554b3e58ff4e844795e9","fixation","","","img/fixation.png","null","","","test","","","","","","","","","","","","","","","","","","","",""
"519.5","241190","SARL_v6","SARL_v61v6xhxca","5f35554b3e58ff4e844795e9","infreq","","","img/blue_2bandit_a2.png","68","","68","test","1","","3","","","","square","circle","3","3","1","0.3333333333333333","","","","","","","",""
"null","241486","SARL_v6","SARL_v61v6xhxca","5f35554b3e58ff4e844795e9","infreq_resp","","","img/blue_2bandit_a.png","68","img/blue_2bandit_a.png","68","test","","","","","","","","","","","1","","","","","","","","",""
"null","241649","SARL_v6","SARL_v61v6xhxca","5f35554b3e58ff4e844795e9","fixation","","","img/fixation.png","null","","","test","","","","","","","","","","","","","","","","","","","",""
"518","242170","SARL_v6","SARL_v61v6xhxca","5f35554b3e58ff4e844795e9","freq","","","img/orange_2bandit_a2.png","70","","70","test","1","","4","","","","square","circle","4","4","1","0.5","","","","","","","",""
"null","242469","SARL_v6","SARL_v61v6xhxca","5f35554b3e58ff4e844795e9","freq_resp","","","img/orange_2bandit_a.png","70","img/orange_2bandit_a.png","70","test","","","","","","","","","","","1","","","","","","","","",""
"null","242629","SARL_v6","SARL_v61v6xhxca","5f35554b3e58ff4e844795e9","fixation","","","img/fixation.png","null","","","test","","","","","","","","","","","","","","","","","","","",""
"430.90000000596046","243062","SARL_v6","SARL_v61v6xhxca","5f35554b3e58ff4e844795e9","freq","","","img/orange_2bandit_a2.png","70","","70","test","1","","5","","","","square","circle","5","5","1","0.6","","","","","","","",""
"null","243446","SARL_v6","SARL_v61v6xhxca","5f35554b3e58ff4e844795e9","freq_resp","","","img/orange_2bandit_a.png","70","img/orange_2bandit_a.png","70","test","","","","","","","","","","","1","","","","","","","","",""
"null","243599","SARL_v6","SARL_v61v6xhxca","5f35554b3e58ff4e844795e9","fixation","","","img/fixation.png","null","","","test","","","","","","","","","","","","","","","","","","","",""
"328.09999999403954","243930","SARL_v6","SARL_v61v6xhxca","5f35554b3e58ff4e844795e9","freq","","","img/orange_2bandit_a2.png","70","","70","test","1","","6","","","","square","circle","6","6","1","0.6666666666666666","","","","","","","",""
"null","244414","SARL_v6","SARL_v61v6xhxca","5f35554b3e58ff4e844795e9","freq_resp","","","img/orange_2bandit_a.png","70","img/orange_2bandit_a.png","70","test","","","","","","","","","","","1","","","","","","","","",""
"null","244579","SARL_v6","SARL_v61v6xhxca","5f35554b3e58ff4e844795e9","fixation","","","img/fixation.png","null","","","test","","","","","","","","","","","","","","","","","","","",""
"333.90000000596046","244915","SARL_v6","SARL_v61v6xhxca","5f35554b3e58ff4e844795e9","freq","","","img/orange_2bandit_a2.png","70","","70","test","1","","7","","","","square","circle","7","7","1","0.7142857142857143","","","","","","","",""
"null","245389","SARL_v6","SARL_v61v6xhxca","5f35554b3e58ff4e844795e9","freq_resp","","","img/orange_2bandit_a.png","70","img/orange_2bandit_a.png","70","test","","","","","","","","","","","1","","","","","","","","",""
"null","245549","SARL_v6","SARL_v61v6xhxca","5f35554b3e58ff4e844795e9","fixation","","","img/fixation.png","null","","","test","","","","","","","","","","","","","","","","","","","",""
"380.89999997615814","245933","SARL_v6","SARL_v61v6xhxca","5f35554b3e58ff4e844795e9","freq","","","img/orange_2bandit_a2.png","70","","70","test","1","","8","","","","square","circle","8","8","1","0.75","","","","","","","",""
"null","246359","SARL_v6","SARL_v61v6xhxca","5f35554b3e58ff4e844795e9","freq_resp","","","img/orange_2bandit_a.png","70","img/orange_2bandit_a.png","70","test","","","","","","","","","","","1","","","","","","","","",""
"null","246517","SARL_v6","SARL_v61v6xhxca","5f35554b3e58ff4e844795e9","fixation","","","img/fixation.png","null","","","test","","","","","","","","","","","","","","","","","","","",""
"379.5","246900","SARL_v6","SARL_v61v6xhxca","5f35554b3e58ff4e844795e9","freq","","","img/orange_2bandit_a2.png","70","","70","test","1","","9","","","","square","circle","9","9","1","0.7777777777777778","","","","","","","",""
"null","247327","SARL_v6","SARL_v61v6xhxca","5f35554b3e58ff4e844795e9","freq_resp","","","img/orange_2bandit_a.png","70","img/orange_2bandit_a.png","70","test","","","","","","","","","","","1","","","","","","","","",""
"null","247480","SARL_v6","SARL_v61v6xhxca","5f35554b3e58ff4e844795e9","fixation","","","img/fixation.png","null","","","test","","","","","","","","","","","","","","","","","","","",""
"391.7000000178814","247875","SARL_v6","SARL_v61v6xhxca","5f35554b3e58ff4e844795e9","freq","","","img/orange_2bandit_a2.png","70","","70","test","1","","10","","","","square","circle","10","10","1","0.8","","","","","","","",""
"null","248300","SARL_v6","SARL_v61v6xhxca","5f35554b3e58ff4e844795e9","freq_resp","","","img/orange_2bandit_a.png","70","img/orange_2bandit_a.png","70","test","","","","","","","","","","","1","","","","","","","","",""
"null","248453","SARL_v6","SARL_v61v6xhxca","5f35554b3e58ff4e844795e9","fixation","","","img/fixation.png","null","","","test","","","","","","","","","","","","","","","","","","","",""
"440.10000002384186","248895","SARL_v6","SARL_v61v6xhxca","5f35554b3e58ff4e844795e9","freq","","","img/orange_2bandit_a2.png","70","","70","test","1","","11","","","","square","circle","11","11","1","0.8181818181818182","","","","","","","",""
"null","249269","SARL_v6","SARL_v61v6xhxca","5f35554b3e58ff4e844795e9","freq_resp","","","img/orange_2bandit_a.png","70","img/orange_2bandit_a.png","70","test","","","","","","","","","","","1","","","","","","","","",""
"null","249426","SARL_v6","SARL_v61v6xhxca","5f35554b3e58ff4e844795e9","fixation","","","img/fixation.png","null","","","test","","","","","","","","","","","","","","","","","","","",""
"521.5","249950","SARL_v6","SARL_v61v6xhxca","5f35554b3e58ff4e844795e9","freq","","","img/orange_2bandit_a2.png","70","","70","test","1","","12","","","","square","circle","12","12","1","0.8333333333333334","","","","","","","",""
"null","250241","SARL_v6","SARL_v61v6xhxca","5f35554b3e58ff4e844795e9","freq_resp","","","img/orange_2bandit_a.png","70","img/orange_2bandit_a.png","70","test","","","","","","","","","","","1","","","","","","","","",""
"null","250394","SARL_v6","SARL_v61v6xhxca","5f35554b3e58ff4e844795e9","fixation","","","img/fixation.png","null","","","test","","","","","","","","","","","","","","","","","","","",""
"571.5","250968","SARL_v6","SARL_v61v6xhxca","5f35554b3e58ff4e844795e9","freq","","","img/orange_2bandit_a2.png","70","","70","test","1","","13","","","","square","circle","13","13","1","0.8461538461538461","","","","","","","",""
"null","251209","SARL_v6","SARL_v61v6xhxca","5f35554b3e58ff4e844795e9","freq_resp","","","img/orange_2bandit_a.png","70","img/orange_2bandit_a.png","70","test","","","","","","","","","","","1","","","","","","","","",""
"null","251368","SARL_v6","SARL_v61v6xhxca","5f35554b3e58ff4e844795e9","fixation","","","img/fixation.png","null","","","test","","","","","","","","","","","","","","","","","","","",""
"null","252177","SARL_v6","SARL_v61v6xhxca","5f35554b3e58ff4e844795e9","freq","","","img/orange_2bandit_a2.png","null","","70","test","0","","14","","","","square","circle","14","14","1","0.7857142857142857","","","","","","","",""
"null","252331","SARL_v6","SARL_v61v6xhxca","5f35554b3e58ff4e844795e9","fixation","","","img/fixation.png","null","","","test","","","","","","","","","","","","","","","","","","","",""
"null","253140","SARL_v6","SARL_v61v6xhxca","5f35554b3e58ff4e844795e9","freq","","","img/orange_2bandit_a2.png","null","","70","test","0","","15","","","","square","circle","15","15","1","0.7333333333333333","","","","","","","",""
"null","253305","SARL_v6","SARL_v61v6xhxca","5f35554b3e58ff4e844795e9","fixation","","","img/fixation.png","null","","","test","","","","","","","","","","","","","","","","","","","",""
"87.7999999821186","253396","SARL_v6","SARL_v61v6xhxca","5f35554b3e58ff4e844795e9","freq","","","img/orange_2bandit_a2.png","70","","70","test","1","","16","","","","square","circle","16","16","1","0.75","","","","","","","",""
"null","254126","SARL_v6","SARL_v61v6xhxca","5f35554b3e58ff4e844795e9","freq_resp","","","img/orange_2bandit_a.png","70","img/orange_2bandit_a.png","70","test","","","","","","","","","","","1","","","","","","","","",""
"null","254319","SARL_v6","SARL_v61v6xhxca","5f35554b3e58ff4e844795e9","fixation","","","img/fixation.png","null","","","test","","","","","","","","","","","","","","","","","","","",""
"184.90000000596046","254507","SARL_v6","SARL_v61v6xhxca","5f35554b3e58ff4e844795e9","freq","","","img/orange_2bandit_a2.png","70","","70","test","1","","17","","","","square","circle","17","17","1","0.7647058823529411","","","","","","","",""
"null","255125","SARL_v6","SARL_v61v6xhxca","5f35554b3e58ff4e844795e9","freq_resp","","","img/orange_2bandit_a.png","70","img/orange_2bandit_a.png","70","test","","","","","","","","","","","1","","","","","","","","",""
"null","255285","SARL_v6","SARL_v61v6xhxca","5f35554b3e58ff4e844795e9","fixation","","","img/fixation.png","null","","","test","","","","","","","","","","","","","","","","","","","",""
"559.0999999940395","255847","SARL_v6","SARL_v61v6xhxca","5f35554b3e58ff4e844795e9","infreq","","","img/blue_2bandit_a2.png","68","","68","test","1","","18","","","","square","circle","18","18","1","0.7777777777777778","","","","","","","",""
"null","256102","SARL_v6","SARL_v61v6xhxca","5f35554b3e58ff4e844795e9","infreq_resp","","","img/blue_2bandit_a.png","68","img/blue_2bandit_a.png","68","test","","","","","","","","","","","1","","","","","","","","",""
"null","256270","SARL_v6","SARL_v61v6xhxca","5f35554b3e58ff4e844795e9","fixation","","","img/fixation.png","null","","","test","","","","","","","","","","","","","","","","","","","",""
"546.5999999940395","256819","SARL_v6","SARL_v61v6xhxca","5f35554b3e58ff4e844795e9","freq","","","img/orange_2bandit_a2.png","70","","70","test","1","","19","","","","square","circle","19","19","1","0.7894736842105263","","","","","","","",""
"null","257084","SARL_v6","SARL_v61v6xhxca","5f35554b3e58ff4e844795e9","freq_resp","","","img/orange_2bandit_a.png","70","img/orange_2bandit_a.png","70","test","","","","","","","","","","","1","","","","","","","","",""
"null","257252","SARL_v6","SARL_v61v6xhxca","5f35554b3e58ff4e844795e9","fixation","","","img/fixation.png","null","","","test","","","","","","","","","","","","","","","","","","","",""
"499.2999999821186","257754","SARL_v6","SARL_v61v6xhxca","5f35554b3e58ff4e844795e9","freq","","","img/orange_2bandit_a2.png","70","","70","test","1","","20","","","","square","circle","20","20","1","0.8","","","","","","","",""
"null","258061","SARL_v6","SARL_v61v6xhxca","5f35554b3e58ff4e844795e9","freq_resp","","","img/orange_2bandit_a.png","70","img/orange_2bandit_a.png","70","test","","","","","","","","","","","1","","","","","","","","",""
"null","258217","SARL_v6","SARL_v61v6xhxca","5f35554b3e58ff4e844795e9","fixation","","","img/fixation.png","null","","","test","","","","","","","","","","","","","","","","","","","",""
"548.1999999880791","258768","SARL_v6","SARL_v61v6xhxca","5f35554b3e58ff4e844795e9","freq","","","img/orange_2bandit_a2.png","70","","70","test","1","","21","","","","square","circle","21","21","1","0.8095238095238095","","","","","","","",""
"null","259033","SARL_v6","SARL_v61v6xhxca","5f35554b3e58ff4e844795e9","freq_resp","","","img/orange_2bandit_a.png","70","img/orange_2bandit_a.png","70","test","","","","","","","","","","","1","","","","","","","","",""
"null","259198","SARL_v6","SARL_v61v6xhxca","5f35554b3e58ff4e844795e9","fixation","","","img/fixation.png","null","","","test","","","","","","","","","","","","","","","","","","","",""
"487.69999998807907","259689","SARL_v6","SARL_v61v6xhxca","5f35554b3e58ff4e844795e9","freq","","","img/orange_2bandit_a2.png","70","","70","test","1","","22","","","","square","circle","22","22","1","0.8181818181818182","","","","","","","",""
"null","260018","SARL_v6","SARL_v61v6xhxca","5f35554b3e58ff4e844795e9","freq_resp","","","img/orange_2bandit_a.png","70","img/orange_2bandit_a.png","70","test","","","","","","","","","","","1","","","","","","","","",""
"null","260171","SARL_v6","SARL_v61v6xhxca","5f35554b3e58ff4e844795e9","fixation","","","img/fixation.png","null","","","test","","","","","","","","","","","","","","","","","","","",""
"444.89999997615814","260619","SARL_v6","SARL_v61v6xhxca","5f35554b3e58ff4e844795e9","freq","","","img/orange_2bandit_a2.png","70","","70","test","1","","23","","","","square","circle","23","23","1","0.8260869565217391","","","","","","","",""
"null","260983","SARL_v6","SARL_v61v6xhxca","5f35554b3e58ff4e844795e9","freq_resp","","","img/orange_2bandit_a.png","70","img/orange_2bandit_a.png","70","test","","","","","","","","","","","1","","","","","","","","",""
"null","261151","SARL_v6","SARL_v61v6xhxca","5f35554b3e58ff4e844795e9","fixation","","","img/fixation.png","null","","","test","","","","","","","","","","","","","","","","","","","",""
"null","262654","SARL_v6","SARL_v61v6xhxca","5f35554b3e58ff4e844795e9","rl","","","img/black_2bandit_a2.png","null","","0","test","","","24","","","0","square","circle","","0","1","","null","-3","-3","-3","-3","too slow","1","0"
"null","263412","SARL_v6","SARL_v61v6xhxca","5f35554b3e58ff4e844795e9","feedback","","","<div font size = 80> TOO SLOW  </div>","null","","na","test","","","NaN","","","","","","","","1","","null","","","","","","1",""
"756.9000000059605","264172","SARL_v6","SARL_v61v6xhxca","5f35554b3e58ff4e844795e9","freq","","","img/orange_2bandit_a2.png","70","","70","test","1","","25","","","","square","circle","24","1","2","0.8333333333333334","","","","","","","",""
"null","264224","SARL_v6","SARL_v61v6xhxca","5f35554b3e58ff4e844795e9","freq_resp","","","img/orange_2bandit_a.png","70","img/orange_2bandit_a.png","70","test","","","","","","","","","","","2","","","","","","","","",""
"null","264389","SARL_v6","SARL_v61v6xhxca","5f35554b3e58ff4e844795e9","fixation","","","img/fixation.png","null","","","test","","","","","","","","","","","","","","","","","","","",""
"null","265205","SARL_v6","SARL_v61v6xhxca","5f35554b3e58ff4e844795e9","freq","","","img/orange_2bandit_a2.png","null","","70","test","0","","26","","","","square","circle","25","2","2","0.8","","","","","","","",""
"null","265364","SARL_v6","SARL_v61v6xhxca","5f35554b3e58ff4e844795e9","fixation","","","img/fixation.png","null","","","test","","","","","","","","","","","","","","","","","","","",""
"null","266181","SARL_v6","SARL_v61v6xhxca","5f35554b3e58ff4e844795e9","freq","","","img/orange_2bandit_a2.png","null","","70","test","0","","27","","","","square","circle","26","3","2","0.7692307692307693","","","","","","","",""
"null","266336","SARL_v6","SARL_v61v6xhxca","5f35554b3e58ff4e844795e9","fixation","","","img/fixation.png","null","","","test","","","","","","","","","","","","","","","","","","","",""
"725.1999999880791","267064","SARL_v6","SARL_v61v6xhxca","5f35554b3e58ff4e844795e9","freq","","","img/orange_2bandit_a2.png","70","","70","test","1","","28","","","","square","circle","27","4","2","0.7777777777777778","","","","","","","",""
"null","267156","SARL_v6","SARL_v61v6xhxca","5f35554b3e58ff4e844795e9","freq_resp","","","img/orange_2bandit_a.png","70","img/orange_2bandit_a.png","70","test","","","","","","","","","","","2","","","","","","","","",""
"null","267323","SARL_v6","SARL_v61v6xhxca","5f35554b3e58ff4e844795e9","fixation","","","img/fixation.png","null","","","test","","","","","","","","","","","","","","","","","","","",""
"571.8999999761581","267898","SARL_v6","SARL_v61v6xhxca","5f35554b3e58ff4e844795e9","infreq","","","img/blue_2bandit_a2.png","68","","68","test","1","","29","","","","square","circle","28","5","2","0.7857142857142857","","","","","","","",""
"null","268132","SARL_v6","SARL_v61v6xhxca","5f35554b3e58ff4e844795e9","infreq_resp","","","img/blue_2bandit_a.png","68","img/blue_2bandit_a.png","68","test","","","","","","","","","","","2","","","","","","","","",""
"null","268297","SARL_v6","SARL_v61v6xhxca","5f35554b3e58ff4e844795e9","fixation","","","img/fixation.png","null","","","test","","","","","","","","","","","","","","","","","","","",""
"null","269101","SARL_v6","SARL_v61v6xhxca","5f35554b3e58ff4e844795e9","freq","","","img/orange_2bandit_a2.png","null","","70","test","0","","30","","","","square","circle","29","6","2","0.7586206896551724","","","","","","","",""
"null","269268","SARL_v6","SARL_v61v6xhxca","5f35554b3e58ff4e844795e9","fixation","","","img/fixation.png","null","","","test","","","","","","","","","","","","","","","","","","","",""
"786.6999999880791","270058","SARL_v6","SARL_v61v6xhxca","5f35554b3e58ff4e844795e9","freq","","","img/orange_2bandit_a2.png","70","","70","test","1","","31","","","","square","circle","30","7","2","0.7666666666666667","","","","","","","",""
"null","270075","SARL_v6","SARL_v61v6xhxca","5f35554b3e58ff4e844795e9","freq_resp","","","img/orange_2bandit_a.png","70","img/orange_2bandit_a.png","70","test","","","","","","","","","","","2","","","","","","","","",""
"null","270243","SARL_v6","SARL_v61v6xhxca","5f35554b3e58ff4e844795e9","fixation","","","img/fixation.png","null","","","test","","","","","","","","","","","","","","","","","","","",""
"721.7000000178814","270968","SARL_v6","SARL_v61v6xhxca","5f35554b3e58ff4e844795e9","freq","","","img/orange_2bandit_a2.png","70","","70","test","1","","32","","","","square","circle","31","8","2","0.7741935483870968","","","","","","","",""
"null","271050","SARL_v6","SARL_v61v6xhxca","5f35554b3e58ff4e844795e9","freq_resp","","","img/orange_2bandit_a.png","70","img/orange_2bandit_a.png","70","test","","","","","","","","","","","2","","","","","","","","",""
"null","271214","SARL_v6","SARL_v61v6xhxca","5f35554b3e58ff4e844795e9","fixation","","","img/fixation.png","null","","","test","","","","","","","","","","","","","","","","","","","",""
"null","272027","SARL_v6","SARL_v61v6xhxca","5f35554b3e58ff4e844795e9","freq","","","img/orange_2bandit_a2.png","null","","70","test","0","","33","","","","square","circle","32","9","2","0.75","","","","","","","",""
"null","272181","SARL_v6","SARL_v61v6xhxca","5f35554b3e58ff4e844795e9","fixation","","","img/fixation.png","null","","","test","","","","","","","","","","","","","","","","","","","",""
"null","272987","SARL_v6","SARL_v61v6xhxca","5f35554b3e58ff4e844795e9","freq","","","img/orange_2bandit_a2.png","null","","70","test","0","","34","","","","square","circle","33","10","2","0.7272727272727273","","","","","","","",""
"null","273146","SARL_v6","SARL_v61v6xhxca","5f35554b3e58ff4e844795e9","fixation","","","img/fixation.png","null","","","test","","","","","","","","","","","","","","","","","","","",""
"157.40000000596046","273306","SARL_v6","SARL_v61v6xhxca","5f35554b3e58ff4e844795e9","freq","","","img/orange_2bandit_a2.png","70","","70","test","1","","35","","","","square","circle","34","11","2","0.7352941176470589","","","","","","","",""
"null","273956","SARL_v6","SARL_v61v6xhxca","5f35554b3e58ff4e844795e9","freq_resp","","","img/orange_2bandit_a.png","70","img/orange_2bandit_a.png","70","test","","","","","","","","","","","2","","","","","","","","",""
"null","274113","SARL_v6","SARL_v61v6xhxca","5f35554b3e58ff4e844795e9","fixation","","","img/fixation.png","null","","","test","","","","","","","","","","","","","","","","","","","",""
"237.30000001192093","274353","SARL_v6","SARL_v61v6xhxca","5f35554b3e58ff4e844795e9","freq","","","img/orange_2bandit_a2.png","70","","70","test","1","","36","","","","square","circle","35","12","2","0.7428571428571429","","","","","","","",""
"null","274922","SARL_v6","SARL_v61v6xhxca","5f35554b3e58ff4e844795e9","freq_resp","","","img/orange_2bandit_a.png","70","img/orange_2bandit_a.png","70","test","","","","","","","","","","","2","","","","","","","","",""
"null","275083","SARL_v6","SARL_v61v6xhxca","5f35554b3e58ff4e844795e9","fixation","","","img/fixation.png","null","","","test","","","","","","","","","","","","","","","","","","","",""
"310","275396","SARL_v6","SARL_v61v6xhxca","5f35554b3e58ff4e844795e9","freq","","","img/orange_2bandit_a2.png","70","","70","test","1","","37","","","","square","circle","36","13","2","0.75","","","","","","","",""
"null","275896","SARL_v6","SARL_v61v6xhxca","5f35554b3e58ff4e844795e9","freq_resp","","","img/orange_2bandit_a.png","70","img/orange_2bandit_a.png","70","test","","","","","","","","","","","2","","","","","","","","",""
"null","276057","SARL_v6","SARL_v61v6xhxca","5f35554b3e58ff4e844795e9","fixation","","","img/fixation.png","null","","","test","","","","","","","","","","","","","","","","","","","",""
"332.7000000178814","276392","SARL_v6","SARL_v61v6xhxca","5f35554b3e58ff4e844795e9","freq","","","img/orange_2bandit_a2.png","70","","70","test","1","","38","","","","square","circle","37","14","2","0.7567567567567568","","","","","","","",""
"null","276866","SARL_v6","SARL_v61v6xhxca","5f35554b3e58ff4e844795e9","freq_resp","","","img/orange_2bandit_a.png","70","img/orange_2bandit_a.png","70","test","","","","","","","","","","","2","","","","","","","","",""
"null","277023","SARL_v6","SARL_v61v6xhxca","5f35554b3e58ff4e844795e9","fixation","","","img/fixation.png","null","","","test","","","","","","","","","","","","","","","","","","","",""
"470.90000000596046","277497","SARL_v6","SARL_v61v6xhxca","5f35554b3e58ff4e844795e9","infreq","","","img/blue_2bandit_a2.png","68","","68","test","1","","39","","","","square","circle","38","15","2","0.7631578947368421","","","","","","","",""
"null","277838","SARL_v6","SARL_v61v6xhxca","5f35554b3e58ff4e844795e9","infreq_resp","","","img/blue_2bandit_a.png","68","img/blue_2bandit_a.png","68","test","","","","","","","","","","","2","","","","","","","","",""
"null","277998","SARL_v6","SARL_v61v6xhxca","5f35554b3e58ff4e844795e9","fixation","","","img/fixation.png","null","","","test","","","","","","","","","","","","","","","","","","","",""
"583.8000000119209","278585","SARL_v6","SARL_v61v6xhxca","5f35554b3e58ff4e844795e9","freq","","","img/orange_2bandit_a2.png","70","","70","test","1","","40","","","","square","circle","39","16","2","0.7692307692307693","","","","","","","",""
"null","278807","SARL_v6","SARL_v61v6xhxca","5f35554b3e58ff4e844795e9","freq_resp","","","img/orange_2bandit_a.png","70","img/orange_2bandit_a.png","70","test","","","","","","","","","","","2","","","","","","","","",""
"null","278972","SARL_v6","SARL_v61v6xhxca","5f35554b3e58ff4e844795e9","fixation","","","img/fixation.png","null","","","test","","","","","","","","","","","","","","","","","","","",""
"472.2999999821186","279447","SARL_v6","SARL_v61v6xhxca","5f35554b3e58ff4e844795e9","freq","","","img/orange_2bandit_a2.png","70","","70","test","1","","41","","","","square","circle","40","17","2","0.775","","","","","","","",""
"null","279787","SARL_v6","SARL_v61v6xhxca","5f35554b3e58ff4e844795e9","freq_resp","","","img/orange_2bandit_a.png","70","img/orange_2bandit_a.png","70","test","","","","","","","","","","","2","","","","","","","","",""
"null","279944","SARL_v6","SARL_v61v6xhxca","5f35554b3e58ff4e844795e9","fixation","","","img/fixation.png","null","","","test","","","","","","","","","","","","","","","","","","","",""
"446.90000000596046","280393","SARL_v6","SARL_v61v6xhxca","5f35554b3e58ff4e844795e9","freq","","","img/orange_2bandit_a2.png","70","","70","test","1","","42","","","","square","circle","41","18","2","0.7804878048780488","","","","","","","",""
"null","280753","SARL_v6","SARL_v61v6xhxca","5f35554b3e58ff4e844795e9","freq_resp","","","img/orange_2bandit_a.png","70","img/orange_2bandit_a.png","70","test","","","","","","","","","","","2","","","","","","","","",""
"null","280910","SARL_v6","SARL_v61v6xhxca","5f35554b3e58ff4e844795e9","fixation","","","img/fixation.png","null","","","test","","","","","","","","","","","","","","","","","","","",""
"354.89999997615814","281267","SARL_v6","SARL_v61v6xhxca","5f35554b3e58ff4e844795e9","freq","","","img/orange_2bandit_a2.png","70","","70","test","1","","43","","","","square","circle","42","19","2","0.7857142857142857","","","","","","","",""
"null","281716","SARL_v6","SARL_v61v6xhxca","5f35554b3e58ff4e844795e9","freq_resp","","","img/orange_2bandit_a.png","70","img/orange_2bandit_a.png","70","test","","","","","","","","","","","2","","","","","","","","",""
"null","281868","SARL_v6","SARL_v61v6xhxca","5f35554b3e58ff4e844795e9","fixation","","","img/fixation.png","null","","","test","","","","","","","","","","","","","","","","","","","",""
"360.40000000596046","282231","SARL_v6","SARL_v61v6xhxca","5f35554b3e58ff4e844795e9","freq","","","img/orange_2bandit_a2.png","70","","70","test","1","","44","","","","square","circle","43","20","2","0.7906976744186046","","","","","","","",""
"null","282690","SARL_v6","SARL_v61v6xhxca","5f35554b3e58ff4e844795e9","freq_resp","","","img/orange_2bandit_a.png","70","img/orange_2bandit_a.png","70","test","","","","","","","","","","","2","","","","","","","","",""
"null","282855","SARL_v6","SARL_v61v6xhxca","5f35554b3e58ff4e844795e9","fixation","","","img/fixation.png","null","","","test","","","","","","","","","","","","","","","","","","","",""
"383.5","283241","SARL_v6","SARL_v61v6xhxca","5f35554b3e58ff4e844795e9","freq","","","img/orange_2bandit_a2.png","70","","70","test","1","","45","","","","square","circle","44","21","2","0.7954545454545454","","","","","","","",""
"null","283666","SARL_v6","SARL_v61v6xhxca","5f35554b3e58ff4e844795e9","freq_resp","","","img/orange_2bandit_a.png","70","img/orange_2bandit_a.png","70","test","","","","","","","","","","","2","","","","","","","","",""
"null","283820","SARL_v6","SARL_v61v6xhxca","5f35554b3e58ff4e844795e9","fixation","","","img/fixation.png","null","","","test","","","","","","","","","","","","","","","","","","","",""
"363.69999998807907","284186","SARL_v6","SARL_v61v6xhxca","5f35554b3e58ff4e844795e9","freq","","","img/orange_2bandit_a2.png","70","","70","test","1","","46","","","","square","circle","45","22","2","0.8","","","","","","","",""
"null","284626","SARL_v6","SARL_v61v6xhxca","5f35554b3e58ff4e844795e9","freq_resp","","","img/orange_2bandit_a.png","70","img/orange_2bandit_a.png","70","test","","","","","","","","","","","2","","","","","","","","",""
"null","284784","SARL_v6","SARL_v61v6xhxca","5f35554b3e58ff4e844795e9","fixation","","","img/fixation.png","null","","","test","","","","","","","","","","","","","","","","","","","",""
"334.5","285121","SARL_v6","SARL_v61v6xhxca","5f35554b3e58ff4e844795e9","freq","","","img/orange_2bandit_a2.png","70","","70","test","1","","47","","","","square","circle","46","23","2","0.8043478260869565","","","","","","","",""
"null","285605","SARL_v6","SARL_v61v6xhxca","5f35554b3e58ff4e844795e9","freq_resp","","","img/orange_2bandit_a.png","70","img/orange_2bandit_a.png","70","test","","","","","","","","","","","2","","","","","","","","",""
"null","285762","SARL_v6","SARL_v61v6xhxca","5f35554b3e58ff4e844795e9","fixation","","","img/fixation.png","null","","","test","","","","","","","","","","","","","","","","","","","",""
"314.30000001192093","286079","SARL_v6","SARL_v61v6xhxca","5f35554b3e58ff4e844795e9","freq","","","img/orange_2bandit_a2.png","70","","70","test","1","","48","","","","square","circle","47","24","2","0.8085106382978723","","","","","","","",""
"null","286592","SARL_v6","SARL_v61v6xhxca","5f35554b3e58ff4e844795e9","freq_resp","","","img/orange_2bandit_a.png","70","img/orange_2bandit_a.png","70","test","","","","","","","","","","","2","","","","","","","","",""
"null","286779","SARL_v6","SARL_v61v6xhxca","5f35554b3e58ff4e844795e9","fixation","","","img/fixation.png","null","","","test","","","","","","","","","","","","","","","","","","","",""
"null","288297","SARL_v6","SARL_v61v6xhxca","5f35554b3e58ff4e844795e9","rl","","","img/black_2bandit_a2.png","null","","0","test","","","49","","","0","square","circle","","0","2","","null","-5","-8","-8","-5","too slow","2","0"
"null","289058","SARL_v6","SARL_v61v6xhxca","5f35554b3e58ff4e844795e9","feedback","","","<div font size = 80> TOO SLOW  </div>","null","","na","test","","","NaN","","","","","","","","2","","null","","","","","","2",""
"448.5","289509","SARL_v6","SARL_v61v6xhxca","5f35554b3e58ff4e844795e9","freq","","","img/orange_2bandit_a2.png","68","","70","test","0","","50","","","","square","circle","48","1","3","0.7916666666666666","","","","","","","",""
"null","289866","SARL_v6","SARL_v61v6xhxca","5f35554b3e58ff4e844795e9","freq_resp","","","img/orange_2bandit_a.png","68","img/orange_2bandit_a.png","70","test","","","","","","","","","","","3","","","","","","","","",""
"null","290026","SARL_v6","SARL_v61v6xhxca","5f35554b3e58ff4e844795e9","fixation","","","img/fixation.png","null","","","test","","","","","","","","","","","","","","","","","","","",""
"511.2999999821186","290540","SARL_v6","SARL_v61v6xhxca","5f35554b3e58ff4e844795e9","freq","","","img/orange_2bandit_a2.png","70","","70","test","1","","51","","","","square","circle","49","2","3","0.7959183673469388","","","","","","","",""
"null","290842","SARL_v6","SARL_v61v6xhxca","5f35554b3e58ff4e844795e9","freq_resp","","","img/orange_2bandit_a.png","70","img/orange_2bandit_a.png","70","test","","","","","","","","","","","3","","","","","","","","",""
"null","291000","SARL_v6","SARL_v61v6xhxca","5f35554b3e58ff4e844795e9","fixation","","","img/fixation.png","null","","","test","","","","","","","","","","","","","","","","","","","",""
"424.19999998807907","291428","SARL_v6","SARL_v61v6xhxca","5f35554b3e58ff4e844795e9","freq","","","img/orange_2bandit_a2.png","70","","70","test","1","","52","","","","square","circle","50","3","3","0.8","","","","","","","",""
"null","291813","SARL_v6","SARL_v61v6xhxca","5f35554b3e58ff4e844795e9","freq_resp","","","img/orange_2bandit_a.png","70","img/orange_2bandit_a.png","70","test","","","","","","","","","","","3","","","","","","","","",""
"null","291974","SARL_v6","SARL_v61v6xhxca","5f35554b3e58ff4e844795e9","fixation","","","img/fixation.png","null","","","test","","","","","","","","","","","","","","","","","","","",""
"644.0999999940395","292621","SARL_v6","SARL_v61v6xhxca","5f35554b3e58ff4e844795e9","freq","","","img/orange_2bandit_a2.png","70","","70","test","1","","53","","","","square","circle","51","4","3","0.803921568627451","","","","","","","",""
"null","292784","SARL_v6","SARL_v61v6xhxca","5f35554b3e58ff4e844795e9","freq_resp","","","img/orange_2bandit_a.png","70","img/orange_2bandit_a.png","70","test","","","","","","","","","","","3","","","","","","","","",""
"null","292947","SARL_v6","SARL_v61v6xhxca","5f35554b3e58ff4e844795e9","fixation","","","img/fixation.png","null","","","test","","","","","","","","","","","","","","","","","","","",""
"532.9000000059605","293483","SARL_v6","SARL_v61v6xhxca","5f35554b3e58ff4e844795e9","freq","","","img/orange_2bandit_a2.png","70","","70","test","1","","54","","","","square","circle","52","5","3","0.8076923076923077","","","","","","","",""
"null","293766","SARL_v6","SARL_v61v6xhxca","5f35554b3e58ff4e844795e9","freq_resp","","","img/orange_2bandit_a.png","70","img/orange_2bandit_a.png","70","test","","","","","","","","","","","3","","","","","","","","",""
"null","293928","SARL_v6","SARL_v61v6xhxca","5f35554b3e58ff4e844795e9","fixation","","","img/fixation.png","null","","","test","","","","","","","","","","","","","","","","","","","",""
"472.40000000596046","294403","SARL_v6","SARL_v61v6xhxca","5f35554b3e58ff4e844795e9","freq","","","img/orange_2bandit_a2.png","70","","70","test","1","","55","","","","square","circle","53","6","3","0.8113207547169812","","","","","","","",""
"null","294740","SARL_v6","SARL_v61v6xhxca","5f35554b3e58ff4e844795e9","freq_resp","","","img/orange_2bandit_a.png","70","img/orange_2bandit_a.png","70","test","","","","","","","","","","","3","","","","","","","","",""
"null","294907","SARL_v6","SARL_v61v6xhxca","5f35554b3e58ff4e844795e9","fixation","","","img/fixation.png","null","","","test","","","","","","","","","","","","","","","","","","","",""
"546.6000000238419","295457","SARL_v6","SARL_v61v6xhxca","5f35554b3e58ff4e844795e9","freq","","","img/orange_2bandit_a2.png","70","","70","test","1","","56","","","","square","circle","54","7","3","0.8148148148148148","","","","","","","",""
"null","295726","SARL_v6","SARL_v61v6xhxca","5f35554b3e58ff4e844795e9","freq_resp","","","img/orange_2bandit_a.png","70","img/orange_2bandit_a.png","70","test","","","","","","","","","","","3","","","","","","","","",""
"null","295879","SARL_v6","SARL_v61v6xhxca","5f35554b3e58ff4e844795e9","fixation","","","img/fixation.png","null","","","test","","","","","","","","","","","","","","","","","","","",""
"587.4000000059605","296469","SARL_v6","SARL_v61v6xhxca","5f35554b3e58ff4e844795e9","freq","","","img/orange_2bandit_a2.png","70","","70","test","1","","57","","","","square","circle","55","8","3","0.8181818181818182","","","","","","","",""
"null","296687","SARL_v6","SARL_v61v6xhxca","5f35554b3e58ff4e844795e9","freq_resp","","","img/orange_2bandit_a.png","70","img/orange_2bandit_a.png","70","test","","","","","","","","","","","3","","","","","","","","",""
"null","296840","SARL_v6","SARL_v61v6xhxca","5f35554b3e58ff4e844795e9","fixation","","","img/fixation.png","null","","","test","","","","","","","","","","","","","","","","","","","",""
"485.90000000596046","297329","SARL_v6","SARL_v61v6xhxca","5f35554b3e58ff4e844795e9","freq","","","img/orange_2bandit_a2.png","70","","70","test","1","","58","","","","square","circle","56","9","3","0.8214285714285714","","","","","","","",""
"null","297666","SARL_v6","SARL_v61v6xhxca","5f35554b3e58ff4e844795e9","freq_resp","","","img/orange_2bandit_a.png","70","img/orange_2bandit_a.png","70","test","","","","","","","","","","","3","","","","","","","","",""
"null","297850","SARL_v6","SARL_v61v6xhxca","5f35554b3e58ff4e844795e9","fixation","","","img/fixation.png","null","","","test","","","","","","","","","","","","","","","","","","","",""
"374.40000000596046","298226","SARL_v6","SARL_v61v6xhxca","5f35554b3e58ff4e844795e9","freq","","","img/orange_2bandit_a2.png","70","","70","test","1","","59","","","","square","circle","57","10","3","0.8245614035087719","","","","","","","",""
"null","298666","SARL_v6","SARL_v61v6xhxca","5f35554b3e58ff4e844795e9","freq_resp","","","img/orange_2bandit_a.png","70","img/orange_2bandit_a.png","70","test","","","","","","","","","","","3","","","","","","","","",""
"null","298819","SARL_v6","SARL_v61v6xhxca","5f35554b3e58ff4e844795e9","fixation","","","img/fixation.png","null","","","test","","","","","","","","","","","","","","","","","","","",""
"303.90000000596046","299126","SARL_v6","SARL_v61v6xhxca","5f35554b3e58ff4e844795e9","freq","","","img/orange_2bandit_a2.png","70","","70","test","1","","60","","","","square","circle","58","11","3","0.8275862068965517","","","","","","","",""
"null","299637","SARL_v6","SARL_v61v6xhxca","5f35554b3e58ff4e844795e9","freq_resp","","","img/orange_2bandit_a.png","70","img/orange_2bandit_a.png","70","test","","","","","","","","","","","3","","","","","","","","",""
"null","299801","SARL_v6","SARL_v61v6xhxca","5f35554b3e58ff4e844795e9","fixation","","","img/fixation.png","null","","","test","","","","","","","","","","","","","","","","","","","",""
"226.7000000178814","300031","SARL_v6","SARL_v61v6xhxca","5f35554b3e58ff4e844795e9","freq","","","img/orange_2bandit_a2.png","70","","70","test","1","","61","","","","square","circle","59","12","3","0.8305084745762712","","","","","","","",""
"null","300612","SARL_v6","SARL_v61v6xhxca","5f35554b3e58ff4e844795e9","freq_resp","","","img/orange_2bandit_a.png","70","img/orange_2bandit_a.png","70","test","","","","","","","","","","","3","","","","","","","","",""
"null","300775","SARL_v6","SARL_v61v6xhxca","5f35554b3e58ff4e844795e9","fixation","","","img/fixation.png","null","","","test","","","","","","","","","","","","","","","","","","","",""
"218.7000000178814","300997","SARL_v6","SARL_v61v6xhxca","5f35554b3e58ff4e844795e9","freq","","","img/orange_2bandit_a2.png","70","","70","test","1","","62","","","","square","circle","60","13","3","0.8333333333333334","","","","","","","",""
"null","301593","SARL_v6","SARL_v61v6xhxca","5f35554b3e58ff4e844795e9","freq_resp","","","img/orange_2bandit_a.png","70","img/orange_2bandit_a.png","70","test","","","","","","","","","","","3","","","","","","","","",""
"null","301756","SARL_v6","SARL_v61v6xhxca","5f35554b3e58ff4e844795e9","fixation","","","img/fixation.png","null","","","test","","","","","","","","","","","","","","","","","","","",""
"192.90000000596046","301951","SARL_v6","SARL_v61v6xhxca","5f35554b3e58ff4e844795e9","freq","","","img/orange_2bandit_a2.png","70","","70","test","1","","63","","","","square","circle","61","14","3","0.8360655737704918","","","","","","","",""
"null","302573","SARL_v6","SARL_v61v6xhxca","5f35554b3e58ff4e844795e9","freq_resp","","","img/orange_2bandit_a.png","70","img/orange_2bandit_a.png","70","test","","","","","","","","","","","3","","","","","","","","",""
"null","302728","SARL_v6","SARL_v61v6xhxca","5f35554b3e58ff4e844795e9","fixation","","","img/fixation.png","null","","","test","","","","","","","","","","","","","","","","","","","",""
"143.60000002384186","302874","SARL_v6","SARL_v61v6xhxca","5f35554b3e58ff4e844795e9","freq","","","img/orange_2bandit_a2.png","70","","70","test","1","","64","","","","square","circle","62","15","3","0.8387096774193549","","","","","","","",""
"null","303551","SARL_v6","SARL_v61v6xhxca","5f35554b3e58ff4e844795e9","freq_resp","","","img/orange_2bandit_a.png","70","img/orange_2bandit_a.png","70","test","","","","","","","","","","","3","","","","","","","","",""
"null","303723","SARL_v6","SARL_v61v6xhxca","5f35554b3e58ff4e844795e9","fixation","","","img/fixation.png","null","","","test","","","","","","","","","","","","","","","","","","","",""
"143.2000000178814","303869","SARL_v6","SARL_v61v6xhxca","5f35554b3e58ff4e844795e9","infreq","","","img/blue_2bandit_a2.png","70","","68","test","0","","65","","","","square","circle","63","16","3","0.8253968253968254","","","","","","","",""
"null","304529","SARL_v6","SARL_v61v6xhxca","5f35554b3e58ff4e844795e9","infreq_resp","","","img/blue_2bandit_a.png","70","img/blue_2bandit_a.png","68","test","","","","","","","","","","","3","","","","","","","","",""
"null","304693","SARL_v6","SARL_v61v6xhxca","5f35554b3e58ff4e844795e9","fixation","","","img/fixation.png","null","","","test","","","","","","","","","","","","","","","","","","","",""
"634.2000000178814","305330","SARL_v6","SARL_v61v6xhxca","5f35554b3e58ff4e844795e9","freq","","","img/orange_2bandit_a2.png","70","","70","test","1","","66","","","","square","circle","64","17","3","0.828125","","","","","","","",""
"null","305503","SARL_v6","SARL_v61v6xhxca","5f35554b3e58ff4e844795e9","freq_resp","","","img/orange_2bandit_a.png","70","img/orange_2bandit_a.png","70","test","","","","","","","","","","","3","","","","","","","","",""
"null","305660","SARL_v6","SARL_v61v6xhxca","5f35554b3e58ff4e844795e9","fixation","","","img/fixation.png","null","","","test","","","","","","","","","","","","","","","","","","","",""
"661.1999999880791","306324","SARL_v6","SARL_v61v6xhxca","5f35554b3e58ff4e844795e9","infreq","","","img/blue_2bandit_a2.png","68","","68","test","1","","67","","","","square","circle","65","18","3","0.8307692307692308","","","","","","","",""
"null","306467","SARL_v6","SARL_v61v6xhxca","5f35554b3e58ff4e844795e9","infreq_resp","","","img/blue_2bandit_a.png","68","img/blue_2bandit_a.png","68","test","","","","","","","","","","","3","","","","","","","","",""
"null","306620","SARL_v6","SARL_v61v6xhxca","5f35554b3e58ff4e844795e9","fixation","","","img/fixation.png","null","","","test","","","","","","","","","","","","","","","","","","","",""
"589.5","307213","SARL_v6","SARL_v61v6xhxca","5f35554b3e58ff4e844795e9","freq","","","img/orange_2bandit_a2.png","70","","70","test","1","","68","","","","square","circle","66","19","3","0.8333333333333334","","","","","","","",""
"null","307430","SARL_v6","SARL_v61v6xhxca","5f35554b3e58ff4e844795e9","freq_resp","","","img/orange_2bandit_a.png","70","img/orange_2bandit_a.png","70","test","","","","","","","","","","","3","","","","","","","","",""
"null","307595","SARL_v6","SARL_v61v6xhxca","5f35554b3e58ff4e844795e9","fixation","","","img/fixation.png","null","","","test","","","","","","","","","","","","","","","","","","","",""
"589.4000000059605","308187","SARL_v6","SARL_v61v6xhxca","5f35554b3e58ff4e844795e9","freq","","","img/orange_2bandit_a2.png","70","","70","test","1","","69","","","","square","circle","67","20","3","0.835820895522388","","","","","","","",""
"null","308400","SARL_v6","SARL_v61v6xhxca","5f35554b3e58ff4e844795e9","freq_resp","","","img/orange_2bandit_a.png","70","img/orange_2bandit_a.png","70","test","","","","","","","","","","","3","","","","","","","","",""
"null","308562","SARL_v6","SARL_v61v6xhxca","5f35554b3e58ff4e844795e9","fixation","","","img/fixation.png","null","","","test","","","","","","","","","","","","","","","","","","","",""
"435.60000002384186","309001","SARL_v6","SARL_v61v6xhxca","5f35554b3e58ff4e844795e9","freq","","","img/orange_2bandit_a2.png","70","","70","test","1","","70","","","","square","circle","68","21","3","0.8382352941176471","","","","","","","",""
"null","309368","SARL_v6","SARL_v61v6xhxca","5f35554b3e58ff4e844795e9","freq_resp","","","img/orange_2bandit_a.png","70","img/orange_2bandit_a.png","70","test","","","","","","","","","","","3","","","","","","","","",""
"null","309525","SARL_v6","SARL_v61v6xhxca","5f35554b3e58ff4e844795e9","fixation","","","img/fixation.png","null","","","test","","","","","","","","","","","","","","","","","","","",""
"null","311037","SARL_v6","SARL_v61v6xhxca","5f35554b3e58ff4e844795e9","rl","","","img/black_2bandit_a2.png","null","","0","test","","","71","","","0","square","circle","","0","3","","null","-4","-8","-8","-4","too slow","3","0"
"null","311802","SARL_v6","SARL_v61v6xhxca","5f35554b3e58ff4e844795e9","feedback","","","<div font size = 80> TOO SLOW  </div>","null","","na","test","","","NaN","","","","","","","","3","","null","","","","","","3",""
"531.5999999940395","312336","SARL_v6","SARL_v61v6xhxca","5f35554b3e58ff4e844795e9","freq","","","img/orange_2bandit_a2.png","70","","70","test","1","","72","","","","square","circle","69","1","4","0.8405797101449275","","","","","","","",""
"null","312608","SARL_v6","SARL_v61v6xhxca","5f35554b3e58ff4e844795e9","freq_resp","","","img/orange_2bandit_a.png","70","img/orange_2bandit_a.png","70","test","","","","","","","","","","","4","","","","","","","","",""
"null","312769","SARL_v6","SARL_v61v6xhxca","5f35554b3e58ff4e844795e9","fixation","","","img/fixation.png","null","","","test","","","","","","","","","","","","","","","","","","","",""
"570.1999999880791","313342","SARL_v6","SARL_v61v6xhxca","5f35554b3e58ff4e844795e9","freq","","","img/orange_2bandit_a2.png","70","","70","test","1","","73","","","","square","circle","70","2","4","0.8428571428571429","","","","","","","",""
"null","313579","SARL_v6","SARL_v61v6xhxca","5f35554b3e58ff4e844795e9","freq_resp","","","img/orange_2bandit_a.png","70","img/orange_2bandit_a.png","70","test","","","","","","","","","","","4","","","","","","","","",""
"null","313743","SARL_v6","SARL_v61v6xhxca","5f35554b3e58ff4e844795e9","fixation","","","img/fixation.png","null","","","test","","","","","","","","","","","","","","","","","","","",""
"402.5","314148","SARL_v6","SARL_v61v6xhxca","5f35554b3e58ff4e844795e9","freq","","","img/orange_2bandit_a2.png","70","","70","test","1","","74","","","","square","circle","71","3","4","0.8450704225352113","","","","","","","",""
"null","314561","SARL_v6","SARL_v61v6xhxca","5f35554b3e58ff4e844795e9","freq_resp","","","img/orange_2bandit_a.png","70","img/orange_2bandit_a.png","70","test","","","","","","","","","","","4","","","","","","","","",""
"null","314714","SARL_v6","SARL_v61v6xhxca","5f35554b3e58ff4e844795e9","fixation","","","img/fixation.png","null","","","test","","","","","","","","","","","","","","","","","","","",""
"610.5999999940395","315328","SARL_v6","SARL_v61v6xhxca","5f35554b3e58ff4e844795e9","infreq","","","img/blue_2bandit_a2.png","68","","68","test","1","","75","","","","square","circle","72","4","4","0.8472222222222222","","","","","","","",""
"null","315530","SARL_v6","SARL_v61v6xhxca","5f35554b3e58ff4e844795e9","infreq_resp","","","img/blue_2bandit_a.png","68","img/blue_2bandit_a.png","68","test","","","","","","","","","","","4","","","","","","","","",""
"null","315698","SARL_v6","SARL_v61v6xhxca","5f35554b3e58ff4e844795e9","fixation","","","img/fixation.png","null","","","test","","","","","","","","","","","","","","","","","","","",""
"534.7000000178814","316236","SARL_v6","SARL_v61v6xhxca","5f35554b3e58ff4e844795e9","freq","","","img/orange_2bandit_a2.png","70","","70","test","1","","76","","","","square","circle","73","5","4","0.8493150684931506","","","","","","","",""
"null","316516","SARL_v6","SARL_v61v6xhxca","5f35554b3e58ff4e844795e9","freq_resp","","","img/orange_2bandit_a.png","70","img/orange_2bandit_a.png","70","test","","","","","","","","","","","4","","","","","","","","",""
"null","316679","SARL_v6","SARL_v61v6xhxca","5f35554b3e58ff4e844795e9","fixation","","","img/fixation.png","null","","","test","","","","","","","","","","","","","","","","","","","",""
"366.5","317048","SARL_v6","SARL_v61v6xhxca","5f35554b3e58ff4e844795e9","freq","","","img/orange_2bandit_a2.png","70","","70","test","1","","77","","","","square","circle","74","6","4","0.8513513513513513","","","","","","","",""
"null","317498","SARL_v6","SARL_v61v6xhxca","5f35554b3e58ff4e844795e9","freq_resp","","","img/orange_2bandit_a.png","70","img/orange_2bandit_a.png","70","test","","","","","","","","","","","4","","","","","","","","",""
"null","317661","SARL_v6","SARL_v61v6xhxca","5f35554b3e58ff4e844795e9","fixation","","","img/fixation.png","null","","","test","","","","","","","","","","","","","","","","","","","",""
"420","318084","SARL_v6","SARL_v61v6xhxca","5f35554b3e58ff4e844795e9","freq","","","img/orange_2bandit_a2.png","70","","70","test","1","","78","","","","square","circle","75","7","4","0.8533333333333334","","","","","","","",""
"null","318470","SARL_v6","SARL_v61v6xhxca","5f35554b3e58ff4e844795e9","freq_resp","","","img/orange_2bandit_a.png","70","img/orange_2bandit_a.png","70","test","","","","","","","","","","","4","","","","","","","","",""
"null","318626","SARL_v6","SARL_v61v6xhxca","5f35554b3e58ff4e844795e9","fixation","","","img/fixation.png","null","","","test","","","","","","","","","","","","","","","","","","","",""
"341.5","318970","SARL_v6","SARL_v61v6xhxca","5f35554b3e58ff4e844795e9","freq","","","img/orange_2bandit_a2.png","70","","70","test","1","","79","","","","square","circle","76","8","4","0.8552631578947368","","","","","","","",""
"null","319434","SARL_v6","SARL_v61v6xhxca","5f35554b3e58ff4e844795e9","freq_resp","","","img/orange_2bandit_a.png","70","img/orange_2bandit_a.png","70","test","","","","","","","","","","","4","","","","","","","","",""
"null","319588","SARL_v6","SARL_v61v6xhxca","5f35554b3e58ff4e844795e9","fixation","","","img/fixation.png","null","","","test","","","","","","","","","","","","","","","","","","","",""
"434.5","320025","SARL_v6","SARL_v61v6xhxca","5f35554b3e58ff4e844795e9","freq","","","img/orange_2bandit_a2.png","70","","70","test","1","","80","","","","square","circle","77","9","4","0.8571428571428571","","","","","","","",""
"null","320400","SARL_v6","SARL_v61v6xhxca","5f35554b3e58ff4e844795e9","freq_resp","","","img/orange_2bandit_a.png","70","img/orange_2bandit_a.png","70","test","","","","","","","","","","","4","","","","","","","","",""
"null","320563","SARL_v6","SARL_v61v6xhxca","5f35554b3e58ff4e844795e9","fixation","","","img/fixation.png","null","","","test","","","","","","","","","","","","","","","","","","","",""
"374.7999999821186","320941","SARL_v6","SARL_v61v6xhxca","5f35554b3e58ff4e844795e9","freq","","","img/orange_2bandit_a2.png","70","","70","test","1","","81","","","","square","circle","78","10","4","0.8589743589743589","","","","","","","",""
"null","321378","SARL_v6","SARL_v61v6xhxca","5f35554b3e58ff4e844795e9","freq_resp","","","img/orange_2bandit_a.png","70","img/orange_2bandit_a.png","70","test","","","","","","","","","","","4","","","","","","","","",""
"null","321531","SARL_v6","SARL_v61v6xhxca","5f35554b3e58ff4e844795e9","fixation","","","img/fixation.png","null","","","test","","","","","","","","","","","","","","","","","","","",""
"null","322339","SARL_v6","SARL_v61v6xhxca","5f35554b3e58ff4e844795e9","freq","","","img/orange_2bandit_a2.png","null","","70","test","0","","82","","","","square","circle","79","11","4","0.8481012658227848","","","","","","","",""
"null","322498","SARL_v6","SARL_v61v6xhxca","5f35554b3e58ff4e844795e9","fixation","","","img/fixation.png","null","","","test","","","","","","","","","","","","","","","","","","","",""
"48.900000005960464","322549","SARL_v6","SARL_v61v6xhxca","5f35554b3e58ff4e844795e9","infreq","","","img/blue_2bandit_a2.png","70","","68","test","0","","83","","","","square","circle","80","12","4","0.8375","","","","","","","",""
"null","323317","SARL_v6","SARL_v61v6xhxca","5f35554b3e58ff4e844795e9","infreq_resp","","","img/blue_2bandit_a.png","70","img/blue_2bandit_a.png","68","test","","","","","","","","","","","4","","","","","","","","",""
"null","323470","SARL_v6","SARL_v61v6xhxca","5f35554b3e58ff4e844795e9","fixation","","","img/fixation.png","null","","","test","","","","","","","","","","","","","","","","","","","",""
"177.59999999403954","323650","SARL_v6","SARL_v61v6xhxca","5f35554b3e58ff4e844795e9","freq","","","img/orange_2bandit_a2.png","68","","70","test","0","","84","","","","square","circle","81","13","4","0.8271604938271605","","","","","","","",""
"null","324304","SARL_v6","SARL_v61v6xhxca","5f35554b3e58ff4e844795e9","freq_resp","","","img/orange_2bandit_a.png","68","img/orange_2bandit_a.png","70","test","","","","","","","","","","","4","","","","","","","","",""
"null","324487","SARL_v6","SARL_v61v6xhxca","5f35554b3e58ff4e844795e9","fixation","","","img/fixation.png","null","","","test","","","","","","","","","","","","","","","","","","","",""
"11.900000005960464","324502","SARL_v6","SARL_v61v6xhxca","5f35554b3e58ff4e844795e9","freq","","","img/orange_2bandit_a2.png","70","","70","test","1","","85","","","","square","circle","82","14","4","0.8292682926829268","","","","","","","",""
"null","325296","SARL_v6","SARL_v61v6xhxca","5f35554b3e58ff4e844795e9","freq_resp","","","img/orange_2bandit_a.png","70","img/orange_2bandit_a.png","70","test","","","","","","","","","","","4","","","","","","","","",""
"null","325454","SARL_v6","SARL_v61v6xhxca","5f35554b3e58ff4e844795e9","fixation","","","img/fixation.png","null","","","test","","","","","","","","","","","","","","","","","","","",""
"64.60000002384186","325521","SARL_v6","SARL_v61v6xhxca","5f35554b3e58ff4e844795e9","freq","","","img/orange_2bandit_a2.png","70","","70","test","1","","86","","","","square","circle","83","15","4","0.8313253012048193","","","","","","","",""
"null","326267","SARL_v6","SARL_v61v6xhxca","5f35554b3e58ff4e844795e9","freq_resp","","","img/orange_2bandit_a.png","70","img/orange_2bandit_a.png","70","test","","","","","","","","","","","4","","","","","","","","",""
"null","326436","SARL_v6","SARL_v61v6xhxca","5f35554b3e58ff4e844795e9","fixation","","","img/fixation.png","null","","","test","","","","","","","","","","","","","","","","","","","",""
"null","327240","SARL_v6","SARL_v61v6xhxca","5f35554b3e58ff4e844795e9","freq","","","img/orange_2bandit_a2.png","null","","70","test","0","","87","","","","square","circle","84","16","4","0.8214285714285714","","","","","","","",""
"null","327401","SARL_v6","SARL_v61v6xhxca","5f35554b3e58ff4e844795e9","fixation","","","img/fixation.png","null","","","test","","","","","","","","","","","","","","","","","","","",""
"null","328204","SARL_v6","SARL_v61v6xhxca","5f35554b3e58ff4e844795e9","freq","","","img/orange_2bandit_a2.png","null","","70","test","0","","88","","","","square","circle","85","17","4","0.8117647058823529","","","","","","","",""
"null","328365","SARL_v6","SARL_v61v6xhxca","5f35554b3e58ff4e844795e9","fixation","","","img/fixation.png","null","","","test","","","","","","","","","","","","","","","","","","","",""
"null","329174","SARL_v6","SARL_v61v6xhxca","5f35554b3e58ff4e844795e9","freq","","","img/orange_2bandit_a2.png","null","","70","test","0","","89","","","","square","circle","86","18","4","0.8023255813953488","","","","","","","",""
"null","329334","SARL_v6","SARL_v61v6xhxca","5f35554b3e58ff4e844795e9","fixation","","","img/fixation.png","null","","","test","","","","","","","","","","","","","","","","","","","",""
"273","329610","SARL_v6","SARL_v61v6xhxca","5f35554b3e58ff4e844795e9","freq","","","img/orange_2bandit_a2.png","70","","70","test","1","","90","","","","square","circle","87","19","4","0.8045977011494253","","","","","","","",""
"null","330141","SARL_v6","SARL_v61v6xhxca","5f35554b3e58ff4e844795e9","freq_resp","","","img/orange_2bandit_a.png","70","img/orange_2bandit_a.png","70","test","","","","","","","","","","","4","","","","","","","","",""
"null","330300","SARL_v6","SARL_v61v6xhxca","5f35554b3e58ff4e844795e9","fixation","","","img/fixation.png","null","","","test","","","","","","","","","","","","","","","","","","","",""
"379.69999998807907","330682","SARL_v6","SARL_v61v6xhxca","5f35554b3e58ff4e844795e9","freq","","","img/orange_2bandit_a2.png","70","","70","test","1","","91","","","","square","circle","88","20","4","0.8068181818181818","","","","","","","",""
"null","331117","SARL_v6","SARL_v61v6xhxca","5f35554b3e58ff4e844795e9","freq_resp","","","img/orange_2bandit_a.png","70","img/orange_2bandit_a.png","70","test","","","","","","","","","","","4","","","","","","","","",""
"null","331271","SARL_v6","SARL_v61v6xhxca","5f35554b3e58ff4e844795e9","fixation","","","img/fixation.png","null","","","test","","","","","","","","","","","","","","","","","","","",""
"670.7000000178814","331944","SARL_v6","SARL_v61v6xhxca","5f35554b3e58ff4e844795e9","freq","","","img/orange_2bandit_a2.png","70","","70","test","1","","92","","","","square","circle","89","21","4","0.8089887640449438","","","","","","","",""
"null","332088","SARL_v6","SARL_v61v6xhxca","5f35554b3e58ff4e844795e9","freq_resp","","","img/orange_2bandit_a.png","70","img/orange_2bandit_a.png","70","test","","","","","","","","","","","4","","","","","","","","",""
"null","332245","SARL_v6","SARL_v61v6xhxca","5f35554b3e58ff4e844795e9","fixation","","","img/fixation.png","null","","","test","","","","","","","","","","","","","","","","","","","",""
"683.0999999940395","332931","SARL_v6","SARL_v61v6xhxca","5f35554b3e58ff4e844795e9","freq","","","img/orange_2bandit_a2.png","70","","70","test","1","","93","","","","square","circle","90","22","4","0.8111111111111111","","","","","","","",""
"null","333062","SARL_v6","SARL_v61v6xhxca","5f35554b3e58ff4e844795e9","freq_resp","","","img/orange_2bandit_a.png","70","img/orange_2bandit_a.png","70","test","","","","","","","","","","","4","","","","","","","","",""
"null","333220","SARL_v6","SARL_v61v6xhxca","5f35554b3e58ff4e844795e9","fixation","","","img/fixation.png","null","","","test","","","","","","","","","","","","","","","","","","","",""
"582","333805","SARL_v6","SARL_v61v6xhxca","5f35554b3e58ff4e844795e9","freq","","","img/orange_2bandit_a2.png","70","","70","test","1","","94","","","","square","circle","91","23","4","0.8131868131868132","","","","","","","",""
"null","334033","SARL_v6","SARL_v61v6xhxca","5f35554b3e58ff4e844795e9","freq_resp","","","img/orange_2bandit_a.png","70","img/orange_2bandit_a.png","70","test","","","","","","","","","","","4","","","","","","","","",""
"null","334190","SARL_v6","SARL_v61v6xhxca","5f35554b3e58ff4e844795e9","fixation","","","img/fixation.png","null","","","test","","","","","","","","","","","","","","","","","","","",""
"630.3999999761581","334823","SARL_v6","SARL_v61v6xhxca","5f35554b3e58ff4e844795e9","freq","","","img/orange_2bandit_a2.png","70","","70","test","1","","95","","","","square","circle","92","24","4","0.8152173913043478","","","","","","","",""
"null","335008","SARL_v6","SARL_v61v6xhxca","5f35554b3e58ff4e844795e9","freq_resp","","","img/orange_2bandit_a.png","70","img/orange_2bandit_a.png","70","test","","","","","","","","","","","4","","","","","","","","",""
"null","335167","SARL_v6","SARL_v61v6xhxca","5f35554b3e58ff4e844795e9","fixation","","","img/fixation.png","null","","","test","","","","","","","","","","","","","","","","","","","",""
"694.6999999880791","335865","SARL_v6","SARL_v61v6xhxca","5f35554b3e58ff4e844795e9","freq","","","img/orange_2bandit_a2.png","70","","70","test","1","","96","","","","square","circle","93","25","4","0.8172043010752689","","","","","","","",""
"null","335981","SARL_v6","SARL_v61v6xhxca","5f35554b3e58ff4e844795e9","freq_resp","","","img/orange_2bandit_a.png","70","img/orange_2bandit_a.png","70","test","","","","","","","","","","","4","","","","","","","","",""
"null","336143","SARL_v6","SARL_v61v6xhxca","5f35554b3e58ff4e844795e9","fixation","","","img/fixation.png","null","","","test","","","","","","","","","","","","","","","","","","","",""
"null","337654","SARL_v6","SARL_v61v6xhxca","5f35554b3e58ff4e844795e9","rl","","","img/black_2bandit_a2.png","null","","0","test","","","97","","","0","square","circle","","0","4","","null","0","-12","-12","0","too slow","4","0"
"null","338410","SARL_v6","SARL_v61v6xhxca","5f35554b3e58ff4e844795e9","feedback","","","<div font size = 80> TOO SLOW  </div>","null","","na","test","","","NaN","","","","","","","","4","","null","","","","","","4",""
"551.9000000059605","338964","SARL_v6","SARL_v61v6xhxca","5f35554b3e58ff4e844795e9","freq","","","img/orange_2bandit_a2.png","70","","70","test","1","","98","","","","square","circle","94","1","5","0.8191489361702128","","","","","","","",""
"null","339223","SARL_v6","SARL_v61v6xhxca","5f35554b3e58ff4e844795e9","freq_resp","","","img/orange_2bandit_a.png","70","img/orange_2bandit_a.png","70","test","","","","","","","","","","","5","","","","","","","","",""
"null","339385","SARL_v6","SARL_v61v6xhxca","5f35554b3e58ff4e844795e9","fixation","","","img/fixation.png","null","","","test","","","","","","","","","","","","","","","","","","","",""
"511.80000001192093","339900","SARL_v6","SARL_v61v6xhxca","5f35554b3e58ff4e844795e9","infreq","","","img/blue_2bandit_a2.png","68","","68","test","1","","99","","","","square","circle","95","2","5","0.8210526315789474","","","","","","","",""
"null","340195","SARL_v6","SARL_v61v6xhxca","5f35554b3e58ff4e844795e9","infreq_resp","","","img/blue_2bandit_a.png","68","img/blue_2bandit_a.png","68","test","","","","","","","","","","","5","","","","","","","","",""
"null","340356","SARL_v6","SARL_v61v6xhxca","5f35554b3e58ff4e844795e9","fixation","","","img/fixation.png","null","","","test","","","","","","","","","","","","","","","","","","","",""
"514.7000000178814","340874","SARL_v6","SARL_v61v6xhxca","5f35554b3e58ff4e844795e9","freq","","","img/orange_2bandit_a2.png","70","","70","test","1","","100","","","","square","circle","96","3","5","0.8229166666666666","","","","","","","",""
"null","341169","SARL_v6","SARL_v61v6xhxca","5f35554b3e58ff4e844795e9","freq_resp","","","img/orange_2bandit_a.png","70","img/orange_2bandit_a.png","70","test","","","","","","","","","","","5","","","","","","","","",""
"null","341328","SARL_v6","SARL_v61v6xhxca","5f35554b3e58ff4e844795e9","fixation","","","img/fixation.png","null","","","test","","","","","","","","","","","","","","","","","","","",""
"532.5","341863","SARL_v6","SARL_v61v6xhxca","5f35554b3e58ff4e844795e9","freq","","","img/orange_2bandit_a2.png","70","","70","test","1","","101","","","","square","circle","97","4","5","0.8247422680412371","","","","","","","",""
"null","342134","SARL_v6","SARL_v61v6xhxca","5f35554b3e58ff4e844795e9","freq_resp","","","img/orange_2bandit_a.png","70","img/orange_2bandit_a.png","70","test","","","","","","","","","","","5","","","","","","","","",""
"null","342290","SARL_v6","SARL_v61v6xhxca","5f35554b3e58ff4e844795e9","fixation","","","img/fixation.png","null","","","test","","","","","","","","","","","","","","","","","","","",""
"null","343102","SARL_v6","SARL_v61v6xhxca","5f35554b3e58ff4e844795e9","freq","","","img/orange_2bandit_a2.png","null","","70","test","0","","102","","","","square","circle","98","5","5","0.8163265306122449","","","","","","","",""
"null","343262","SARL_v6","SARL_v61v6xhxca","5f35554b3e58ff4e844795e9","fixation","","","img/fixation.png","null","","","test","","","","","","","","","","","","","","","","","","","",""
"532.6999999880791","343797","SARL_v6","SARL_v61v6xhxca","5f35554b3e58ff4e844795e9","freq","","","img/orange_2bandit_a2.png","70","","70","test","1","","103","","","","square","circle","99","6","5","0.8181818181818182","","","","","","","",""
"null","344078","SARL_v6","SARL_v61v6xhxca","5f35554b3e58ff4e844795e9","freq_resp","","","img/orange_2bandit_a.png","70","img/orange_2bandit_a.png","70","test","","","","","","","","","","","5","","","","","","","","",""
"null","344242","SARL_v6","SARL_v61v6xhxca","5f35554b3e58ff4e844795e9","fixation","","","img/fixation.png","null","","","test","","","","","","","","","","","","","","","","","","","",""
"615.2000000178814","344860","SARL_v6","SARL_v61v6xhxca","5f35554b3e58ff4e844795e9","freq","","","img/orange_2bandit_a2.png","70","","70","test","1","","104","","","","square","circle","100","7","5","0.82","","","","","","","",""
"null","345064","SARL_v6","SARL_v61v6xhxca","5f35554b3e58ff4e844795e9","freq_resp","","","img/orange_2bandit_a.png","70","img/orange_2bandit_a.png","70","test","","","","","","","","","","","5","","","","","","","","",""
"null","345223","SARL_v6","SARL_v61v6xhxca","5f35554b3e58ff4e844795e9","fixation","","","img/fixation.png","null","","","test","","","","","","","","","","","","","","","","","","","",""
"556.9000000059605","345783","SARL_v6","SARL_v61v6xhxca","5f35554b3e58ff4e844795e9","freq","","","img/orange_2bandit_a2.png","70","","70","test","1","","105","","","","square","circle","101","8","5","0.8217821782178217","","","","","","","",""
"null","346038","SARL_v6","SARL_v61v6xhxca","5f35554b3e58ff4e844795e9","freq_resp","","","img/orange_2bandit_a.png","70","img/orange_2bandit_a.png","70","test","","","","","","","","","","","5","","","","","","","","",""
"null","346198","SARL_v6","SARL_v61v6xhxca","5f35554b3e58ff4e844795e9","fixation","","","img/fixation.png","null","","","test","","","","","","","","","","","","","","","","","","","",""
"null","347015","SARL_v6","SARL_v61v6xhxca","5f35554b3e58ff4e844795e9","freq","","","img/orange_2bandit_a2.png","null","","70","test","0","","106","","","","square","circle","102","9","5","0.8137254901960784","","","","","","","",""
"null","347175","SARL_v6","SARL_v61v6xhxca","5f35554b3e58ff4e844795e9","fixation","","","img/fixation.png","null","","","test","","","","","","","","","","","","","","","","","","","",""
"283.2999999821186","347461","SARL_v6","SARL_v61v6xhxca","5f35554b3e58ff4e844795e9","freq","","","img/orange_2bandit_a2.png","70","","70","test","1","","107","","","","square","circle","103","10","5","0.8155339805825242","","","","","","","",""
"null","347988","SARL_v6","SARL_v61v6xhxca","5f35554b3e58ff4e844795e9","freq_resp","","","img/orange_2bandit_a.png","70","img/orange_2bandit_a.png","70","test","","","","","","","","","","","5","","","","","","","","",""
"null","348144","SARL_v6","SARL_v61v6xhxca","5f35554b3e58ff4e844795e9","fixation","","","img/fixation.png","null","","","test","","","","","","","","","","","","","","","","","","","",""
"632.8000000119209","348781","SARL_v6","SARL_v61v6xhxca","5f35554b3e58ff4e844795e9","freq","","","img/orange_2bandit_a2.png","70","","70","test","1","","108","","","","square","circle","104","11","5","0.8173076923076923","","","","","","","",""
"null","348957","SARL_v6","SARL_v61v6xhxca","5f35554b3e58ff4e844795e9","freq_resp","","","img/orange_2bandit_a.png","70","img/orange_2bandit_a.png","70","test","","","","","","","","","","","5","","","","","","","","",""
"null","349113","SARL_v6","SARL_v61v6xhxca","5f35554b3e58ff4e844795e9","fixation","","","img/fixation.png","null","","","test","","","","","","","","","","","","","","","","","","","",""
"null","349922","SARL_v6","SARL_v61v6xhxca","5f35554b3e58ff4e844795e9","infreq","","","img/blue_2bandit_a2.png","null","","68","test","0","","109","","","","square","circle","105","12","5","0.8095238095238095","","","","","","","",""
"null","350085","SARL_v6","SARL_v61v6xhxca","5f35554b3e58ff4e844795e9","fixation","","","img/fixation.png","null","","","test","","","","","","","","","","","","","","","","","","","",""
"564.5","350652","SARL_v6","SARL_v61v6xhxca","5f35554b3e58ff4e844795e9","freq","","","img/orange_2bandit_a2.png","70","","70","test","1","","110","","","","square","circle","106","13","5","0.8113207547169812","","","","","","","",""
"null","350891","SARL_v6","SARL_v61v6xhxca","5f35554b3e58ff4e844795e9","freq_resp","","","img/orange_2bandit_a.png","70","img/orange_2bandit_a.png","70","test","","","","","","","","","","","5","","","","","","","","",""
"null","351054","SARL_v6","SARL_v61v6xhxca","5f35554b3e58ff4e844795e9","fixation","","","img/fixation.png","null","","","test","","","","","","","","","","","","","","","","","","","",""
"446.39999997615814","351503","SARL_v6","SARL_v61v6xhxca","5f35554b3e58ff4e844795e9","freq","","","img/orange_2bandit_a2.png","70","","70","test","1","","111","","","","square","circle","107","14","5","0.8130841121495327","","","","","","","",""
"null","351861","SARL_v6","SARL_v61v6xhxca","5f35554b3e58ff4e844795e9","freq_resp","","","img/orange_2bandit_a.png","70","img/orange_2bandit_a.png","70","test","","","","","","","","","","","5","","","","","","","","",""
"null","352019","SARL_v6","SARL_v61v6xhxca","5f35554b3e58ff4e844795e9","fixation","","","img/fixation.png","null","","","test","","","","","","","","","","","","","","","","","","","",""
"387.2000000178814","352409","SARL_v6","SARL_v61v6xhxca","5f35554b3e58ff4e844795e9","freq","","","img/orange_2bandit_a2.png","70","","70","test","1","","112","","","","square","circle","108","15","5","0.8148148148148148","","","","","","","",""
"null","352837","SARL_v6","SARL_v61v6xhxca","5f35554b3e58ff4e844795e9","freq_resp","","","img/orange_2bandit_a.png","70","img/orange_2bandit_a.png","70","test","","","","","","","","","","","5","","","","","","","","",""
"null","352991","SARL_v6","SARL_v61v6xhxca","5f35554b3e58ff4e844795e9","fixation","","","img/fixation.png","null","","","test","","","","","","","","","","","","","","","","","","","",""
"555.8000000119209","353549","SARL_v6","SARL_v61v6xhxca","5f35554b3e58ff4e844795e9","freq","","","img/orange_2bandit_a2.png","70","","70","test","1","","113","","","","square","circle","109","16","5","0.8165137614678899","","","","","","","",""
"null","353811","SARL_v6","SARL_v61v6xhxca","5f35554b3e58ff4e844795e9","freq_resp","","","img/orange_2bandit_a.png","70","img/orange_2bandit_a.png","70","test","","","","","","","","","","","5","","","","","","","","",""
"null","353963","SARL_v6","SARL_v61v6xhxca","5f35554b3e58ff4e844795e9","fixation","","","img/fixation.png","null","","","test","","","","","","","","","","","","","","","","","","","",""
"429.7999999821186","354396","SARL_v6","SARL_v61v6xhxca","5f35554b3e58ff4e844795e9","freq","","","img/orange_2bandit_a2.png","70","","70","test","1","","114","","","","square","circle","110","17","5","0.8181818181818182","","","","","","","",""
"null","354781","SARL_v6","SARL_v61v6xhxca","5f35554b3e58ff4e844795e9","freq_resp","","","img/orange_2bandit_a.png","70","img/orange_2bandit_a.png","70","test","","","","","","","","","","","5","","","","","","","","",""
"null","354937","SARL_v6","SARL_v61v6xhxca","5f35554b3e58ff4e844795e9","fixation","","","img/fixation.png","null","","","test","","","","","","","","","","","","","","","","","","","",""
"212.7999999821186","355153","SARL_v6","SARL_v61v6xhxca","5f35554b3e58ff4e844795e9","freq","","","img/orange_2bandit_a2.png","70","","70","test","1","","115","","","","square","circle","111","18","5","0.8198198198198198","","","","","","","",""
"null","355748","SARL_v6","SARL_v61v6xhxca","5f35554b3e58ff4e844795e9","freq_resp","","","img/orange_2bandit_a.png","70","img/orange_2bandit_a.png","70","test","","","","","","","","","","","5","","","","","","","","",""
"null","355923","SARL_v6","SARL_v61v6xhxca","5f35554b3e58ff4e844795e9","fixation","","","img/fixation.png","null","","","test","","","","","","","","","","","","","","","","","","","",""
"316.19999998807907","356242","SARL_v6","SARL_v61v6xhxca","5f35554b3e58ff4e844795e9","freq","","","img/orange_2bandit_a2.png","70","","70","test","1","","116","","","","square","circle","112","19","5","0.8214285714285714","","","","","","","",""
"null","356734","SARL_v6","SARL_v61v6xhxca","5f35554b3e58ff4e844795e9","freq_resp","","","img/orange_2bandit_a.png","70","img/orange_2bandit_a.png","70","test","","","","","","","","","","","5","","","","","","","","",""
"null","356891","SARL_v6","SARL_v61v6xhxca","5f35554b3e58ff4e844795e9","fixation","","","img/fixation.png","null","","","test","","","","","","","","","","","","","","","","","","","",""
"523.5","357417","SARL_v6","SARL_v61v6xhxca","5f35554b3e58ff4e844795e9","freq","","","img/orange_2bandit_a2.png","70","","70","test","1","","117","","","","square","circle","113","20","5","0.8230088495575221","","","","","","","",""
"null","357697","SARL_v6","SARL_v61v6xhxca","5f35554b3e58ff4e844795e9","freq_resp","","","img/orange_2bandit_a.png","70","img/orange_2bandit_a.png","70","test","","","","","","","","","","","5","","","","","","","","",""
"null","357854","SARL_v6","SARL_v61v6xhxca","5f35554b3e58ff4e844795e9","fixation","","","img/fixation.png","null","","","test","","","","","","","","","","","","","","","","","","","",""
"null","358658","SARL_v6","SARL_v61v6xhxca","5f35554b3e58ff4e844795e9","freq","","","img/orange_2bandit_a2.png","null","","70","test","0","","118","","","","square","circle","114","21","5","0.8157894736842105","","","","","","","",""
"null","358817","SARL_v6","SARL_v61v6xhxca","5f35554b3e58ff4e844795e9","fixation","","","img/fixation.png","null","","","test","","","","","","","","","","","","","","","","","","","",""
"null","360320","SARL_v6","SARL_v61v6xhxca","5f35554b3e58ff4e844795e9","rl","","","img/black_2bandit_a2.png","null","","0","test","","","119","","","0","square","circle","","0","5","","null","4","-7","-7","4","too slow","5","0"
"null","361084","SARL_v6","SARL_v61v6xhxca","5f35554b3e58ff4e844795e9","feedback","","","<div font size = 80> TOO SLOW  </div>","null","","na","test","","","NaN","","","","","","","","5","","null","","","","","","5",""
"526.5999999940395","361614","SARL_v6","SARL_v61v6xhxca","5f35554b3e58ff4e844795e9","freq","","","img/orange_2bandit_a2.png","70","","70","test","1","","120","","","","square","circle","115","1","6","0.8173913043478261","","","","","","","",""
"null","361890","SARL_v6","SARL_v61v6xhxca","5f35554b3e58ff4e844795e9","freq_resp","","","img/orange_2bandit_a.png","70","img/orange_2bandit_a.png","70","test","","","","","","","","","","","6","","","","","","","","",""
"null","362052","SARL_v6","SARL_v61v6xhxca","5f35554b3e58ff4e844795e9","fixation","","","img/fixation.png","null","","","test","","","","","","","","","","","","","","","","","","","",""
"608.0999999940395","362663","SARL_v6","SARL_v61v6xhxca","5f35554b3e58ff4e844795e9","freq","","","img/orange_2bandit_a2.png","70","","70","test","1","","121","","","","square","circle","116","2","6","0.8189655172413793","","","","","","","",""
"null","362857","SARL_v6","SARL_v61v6xhxca","5f35554b3e58ff4e844795e9","freq_resp","","","img/orange_2bandit_a.png","70","img/orange_2bandit_a.png","70","test","","","","","","","","","","","6","","","","","","","","",""
"null","363014","SARL_v6","SARL_v61v6xhxca","5f35554b3e58ff4e844795e9","fixation","","","img/fixation.png","null","","","test","","","","","","","","","","","","","","","","","","","",""
"606.6999999880791","363623","SARL_v6","SARL_v61v6xhxca","5f35554b3e58ff4e844795e9","freq","","","img/orange_2bandit_a2.png","70","","70","test","1","","122","","","","square","circle","117","3","6","0.8205128205128205","","","","","","","",""
"null","363822","SARL_v6","SARL_v61v6xhxca","5f35554b3e58ff4e844795e9","freq_resp","","","img/orange_2bandit_a.png","70","img/orange_2bandit_a.png","70","test","","","","","","","","","","","6","","","","","","","","",""
"null","363985","SARL_v6","SARL_v61v6xhxca","5f35554b3e58ff4e844795e9","fixation","","","img/fixation.png","null","","","test","","","","","","","","","","","","","","","","","","","",""
"758.0999999940395","364746","SARL_v6","SARL_v61v6xhxca","5f35554b3e58ff4e844795e9","freq","","","img/orange_2bandit_a2.png","70","","70","test","1","","123","","","","square","circle","118","4","6","0.8220338983050848","","","","","","","",""
"null","364790","SARL_v6","SARL_v61v6xhxca","5f35554b3e58ff4e844795e9","freq_resp","","","img/orange_2bandit_a.png","70","img/orange_2bandit_a.png","70","test","","","","","","","","","","","6","","","","","","","","",""
"null","364943","SARL_v6","SARL_v61v6xhxca","5f35554b3e58ff4e844795e9","fixation","","","img/fixation.png","null","","","test","","","","","","","","","","","","","","","","","","","",""
"null","365748","SARL_v6","SARL_v61v6xhxca","5f35554b3e58ff4e844795e9","freq","","","img/orange_2bandit_a2.png","null","","70","test","0","","124","","","","square","circle","119","5","6","0.8151260504201681","","","","","","","",""
"null","365906","SARL_v6","SARL_v61v6xhxca","5f35554b3e58ff4e844795e9","fixation","","","img/fixation.png","null","","","test","","","","","","","","","","","","","","","","","","","",""
"309.2999999821186","366219","SARL_v6","SARL_v61v6xhxca","5f35554b3e58ff4e844795e9","freq","","","img/orange_2bandit_a2.png","70","","70","test","1","","125","","","","square","circle","120","6","6","0.8166666666666667","","","","","","","",""
"null","366735","SARL_v6","SARL_v61v6xhxca","5f35554b3e58ff4e844795e9","freq_resp","","","img/orange_2bandit_a.png","70","img/orange_2bandit_a.png","70","test","","","","","","","","","","","6","","","","","","","","",""
"null","366913","SARL_v6","SARL_v61v6xhxca","5f35554b3e58ff4e844795e9","fixation","","","img/fixation.png","null","","","test","","","","","","","","","","","","","","","","","","","",""
"null","367743","SARL_v6","SARL_v61v6xhxca","5f35554b3e58ff4e844795e9","freq","","","img/orange_2bandit_a2.png","null","","70","test","0","","126","","","","square","circle","121","7","6","0.8099173553719008","","","","","","","",""
"null","367922","SARL_v6","SARL_v61v6xhxca","5f35554b3e58ff4e844795e9","fixation","","","img/fixation.png","null","","","test","","","","","","","","","","","","","","","","","","","",""
"null","368732","SARL_v6","SARL_v61v6xhxca","5f35554b3e58ff4e844795e9","freq","","","img/orange_2bandit_a2.png","null","","70","test","0","","127","","","","square","circle","122","8","6","0.8032786885245902","","","","","","","",""
"null","368923","SARL_v6","SARL_v61v6xhxca","5f35554b3e58ff4e844795e9","fixation","","","img/fixation.png","null","","","test","","","","","","","","","","","","","","","","","","","",""
"171","369097","SARL_v6","SARL_v61v6xhxca","5f35554b3e58ff4e844795e9","freq","","","img/orange_2bandit_a2.png","70","","70","test","1","","128","","","","square","circle","123","9","6","0.8048780487804879","","","","","","","",""
"null","369743","SARL_v6","SARL_v61v6xhxca","5f35554b3e58ff4e844795e9","freq_resp","","","img/orange_2bandit_a.png","70","img/orange_2bandit_a.png","70","test","","","","","","","","","","","6","","","","","","","","",""
"null","369906","SARL_v6","SARL_v61v6xhxca","5f35554b3e58ff4e844795e9","fixation","","","img/fixation.png","null","","","test","","","","","","","","","","","","","","","","","","","",""
"622","370531","SARL_v6","SARL_v61v6xhxca","5f35554b3e58ff4e844795e9","freq","","","img/orange_2bandit_a2.png","70","","70","test","1","","129","","","","square","circle","124","10","6","0.8064516129032258","","","","","","","",""
"null","370721","SARL_v6","SARL_v61v6xhxca","5f35554b3e58ff4e844795e9","freq_resp","","","img/orange_2bandit_a.png","70","img/orange_2bandit_a.png","70","test","","","","","","","","","","","6","","","","","","","","",""
"null","370884","SARL_v6","SARL_v61v6xhxca","5f35554b3e58ff4e844795e9","fixation","","","img/fixation.png","null","","","test","","","","","","","","","","","","","","","","","","","",""
"null","371692","SARL_v6","SARL_v61v6xhxca","5f35554b3e58ff4e844795e9","freq","","","img/orange_2bandit_a2.png","null","","70","test","0","","130","","","","square","circle","125","11","6","0.8","","","","","","","",""
"null","371850","SARL_v6","SARL_v61v6xhxca","5f35554b3e58ff4e844795e9","fixation","","","img/fixation.png","null","","","test","","","","","","","","","","","","","","","","","","","",""
"null","372654","SARL_v6","SARL_v61v6xhxca","5f35554b3e58ff4e844795e9","freq","","","img/orange_2bandit_a2.png","null","","70","test","0","","131","","","","square","circle","126","12","6","0.7936507936507936","","","","","","","",""
"null","372812","SARL_v6","SARL_v61v6xhxca","5f35554b3e58ff4e844795e9","fixation","","","img/fixation.png","null","","","test","","","","","","","","","","","","","","","","","","","",""
"538.5","373353","SARL_v6","SARL_v61v6xhxca","5f35554b3e58ff4e844795e9","infreq","","","img/blue_2bandit_a2.png","68","","68","test","1","","132","","","","square","circle","127","13","6","0.7952755905511811","","","","","","","",""
"null","373623","SARL_v6","SARL_v61v6xhxca","5f35554b3e58ff4e844795e9","infreq_resp","","","img/blue_2bandit_a.png","68","img/blue_2bandit_a.png","68","test","","","","","","","","","","","6","","","","","","","","",""
"null","373788","SARL_v6","SARL_v61v6xhxca","5f35554b3e58ff4e844795e9","fixation","","","img/fixation.png","null","","","test","","","","","","","","","","","","","","","","","","","",""
"null","374622","SARL_v6","SARL_v61v6xhxca","5f35554b3e58ff4e844795e9","freq","","","img/orange_2bandit_a2.png","null","","70","test","0","","133","","","","square","circle","128","14","6","0.7890625","","","","","","","",""
"null","374793","SARL_v6","SARL_v61v6xhxca","5f35554b3e58ff4e844795e9","fixation","","","img/fixation.png","null","","","test","","","","","","","","","","","","","","","","","","","",""
"536.4000000059605","375332","SARL_v6","SARL_v61v6xhxca","5f35554b3e58ff4e844795e9","freq","","","img/orange_2bandit_a2.png","70","","70","test","1","","134","","","","square","circle","129","15","6","0.7906976744186046","","","","","","","",""
"null","375605","SARL_v6","SARL_v61v6xhxca","5f35554b3e58ff4e844795e9","freq_resp","","","img/orange_2bandit_a.png","70","img/orange_2bandit_a.png","70","test","","","","","","","","","","","6","","","","","","","","",""
"null","375761","SARL_v6","SARL_v61v6xhxca","5f35554b3e58ff4e844795e9","fixation","","","img/fixation.png","null","","","test","","","","","","","","","","","","","","","","","","","",""
"345.90000000596046","376110","SARL_v6","SARL_v61v6xhxca","5f35554b3e58ff4e844795e9","infreq","","","img/blue_2bandit_a2.png","70","","68","test","0","","135","","","","square","circle","130","16","6","0.7846153846153846","","","","","","","",""
"null","376581","SARL_v6","SARL_v61v6xhxca","5f35554b3e58ff4e844795e9","infreq_resp","","","img/blue_2bandit_a.png","70","img/blue_2bandit_a.png","68","test","","","","","","","","","","","6","","","","","","","","",""
"null","376745","SARL_v6","SARL_v61v6xhxca","5f35554b3e58ff4e844795e9","fixation","","","img/fixation.png","null","","","test","","","","","","","","","","","","","","","","","","","",""
"606.5","377354","SARL_v6","SARL_v61v6xhxca","5f35554b3e58ff4e844795e9","freq","","","img/orange_2bandit_a2.png","70","","70","test","1","","136","","","","square","circle","131","17","6","0.7862595419847328","","","","","","","",""
"null","377561","SARL_v6","SARL_v61v6xhxca","5f35554b3e58ff4e844795e9","freq_resp","","","img/orange_2bandit_a.png","70","img/orange_2bandit_a.png","70","test","","","","","","","","","","","6","","","","","","","","",""
"null","377718","SARL_v6","SARL_v61v6xhxca","5f35554b3e58ff4e844795e9","fixation","","","img/fixation.png","null","","","test","","","","","","","","","","","","","","","","","","","",""
"null","378529","SARL_v6","SARL_v61v6xhxca","5f35554b3e58ff4e844795e9","freq","","","img/orange_2bandit_a2.png","null","","70","test","0","","137","","","","square","circle","132","18","6","0.7803030303030303","","","","","","","",""
"null","378693","SARL_v6","SARL_v61v6xhxca","5f35554b3e58ff4e844795e9","fixation","","","img/fixation.png","null","","","test","","","","","","","","","","","","","","","","","","","",""
"611.3000000119209","379308","SARL_v6","SARL_v61v6xhxca","5f35554b3e58ff4e844795e9","freq","","","img/orange_2bandit_a2.png","70","","70","test","1","","138","","","","square","circle","133","19","6","0.7819548872180451","","","","","","","",""
"null","379499","SARL_v6","SARL_v61v6xhxca","5f35554b3e58ff4e844795e9","freq_resp","","","img/orange_2bandit_a.png","70","img/orange_2bandit_a.png","70","test","","","","","","","","","","","6","","","","","","","","",""
"null","379667","SARL_v6","SARL_v61v6xhxca","5f35554b3e58ff4e844795e9","fixation","","","img/fixation.png","null","","","test","","","","","","","","","","","","","","","","","","","",""
"501.80000001192093","380172","SARL_v6","SARL_v61v6xhxca","5f35554b3e58ff4e844795e9","freq","","","img/orange_2bandit_a2.png","70","","70","test","1","","139","","","","square","circle","134","20","6","0.7835820895522388","","","","","","","",""
"null","380478","SARL_v6","SARL_v61v6xhxca","5f35554b3e58ff4e844795e9","freq_resp","","","img/orange_2bandit_a.png","70","img/orange_2bandit_a.png","70","test","","","","","","","","","","","6","","","","","","","","",""
"null","380639","SARL_v6","SARL_v61v6xhxca","5f35554b3e58ff4e844795e9","fixation","","","img/fixation.png","null","","","test","","","","","","","","","","","","","","","","","","","",""
"684","381326","SARL_v6","SARL_v61v6xhxca","5f35554b3e58ff4e844795e9","infreq","","","img/blue_2bandit_a2.png","68","","68","test","1","","140","","","","square","circle","135","21","6","0.7851851851851852","","","","","","","",""
"null","381451","SARL_v6","SARL_v61v6xhxca","5f35554b3e58ff4e844795e9","infreq_resp","","","img/blue_2bandit_a.png","68","img/blue_2bandit_a.png","68","test","","","","","","","","","","","6","","","","","","","","",""
"null","381605","SARL_v6","SARL_v61v6xhxca","5f35554b3e58ff4e844795e9","fixation","","","img/fixation.png","null","","","test","","","","","","","","","","","","","","","","","","","",""
"null","382417","SARL_v6","SARL_v61v6xhxca","5f35554b3e58ff4e844795e9","freq","","","img/orange_2bandit_a2.png","null","","70","test","0","","141","","","","square","circle","136","22","6","0.7794117647058824","","","","","","","",""
