"rt","time_elapsed","expId","subject","prolificID","trialType","rlType","attType","stimulus","key_press","stim","corrresp","phase","corr","pracCounter","trialNum","rewardOne","rewardTwo","reward","bandOne","bandTwo","attentionNum","attentionRunNum","blockNum","performance","bandChosen","circleVal","squareVal","bandOneVal","bandTwoVal","shapeChosen","rlNum","badFlag"
"10388.700000047684","10393","SARL_v6","SARL_v6xvkpqbg3","594a969df0ea1b0001558178","","","","","","","","","","","","","","","","","","","","","","","","","","","",""
"","12847","SARL_v6","SARL_v6xvkpqbg3","594a969df0ea1b0001558178","fullscreen","fullscreen","fullscreen","","","","","","","","","","","","","","","","","","","","","","","","",""
"2715150.899999857","2727999","SARL_v6","SARL_v6xvkpqbg3","594a969df0ea1b0001558178","","","","","","","","","","","","","","","","","","","","","","","","","","","",""
"null","2728811","SARL_v6","SARL_v6xvkpqbg3","594a969df0ea1b0001558178","freqPrac","","","img/blue_2bandit_a2.png","null","img/blue_2bandit_a2.png","70","prac","0","1","","","","","","","","","","","","","","","","","",""
"null","2729818","SARL_v6","SARL_v6xvkpqbg3","594a969df0ea1b0001558178","feedback","","","img/tooSlow.png","null","","na","prac","","","","","","","","","","","","","","","","","","","",""
"null","2729985","SARL_v6","SARL_v6xvkpqbg3","594a969df0ea1b0001558178","fixation","","","img/fixation.png","null","","","prac","","","","","","","","","","","","","","","","","","","",""
"379.90000009536743","2730367","SARL_v6","SARL_v6xvkpqbg3","594a969df0ea1b0001558178","infreqPrac","","","img/orange_2bandit_a2.png","68","img/orange_2bandit_a2.png","68","prac","1","1","","","","","","","","","","","","","","","","","",""
"379.90000009536743","2730800","SARL_v6","SARL_v6xvkpqbg3","594a969df0ea1b0001558178","infreqPrac_resp","","","img/orange_2bandit_a.png","68","img/orange_2bandit_a.png","68","prac","","","","","","","","","","","","","","","","","","","",""
"null","2730954","SARL_v6","SARL_v6xvkpqbg3","594a969df0ea1b0001558178","fixation","","","img/fixation.png","null","","","prac","","","","","","","","","","","","","","","","","","","",""
"418","2731374","SARL_v6","SARL_v6xvkpqbg3","594a969df0ea1b0001558178","freqPrac","","","img/blue_2bandit_a2.png","70","img/blue_2bandit_a2.png","70","prac","1","1","","","","","","","","","","","","","","","","","",""
"418","2731761","SARL_v6","SARL_v6xvkpqbg3","594a969df0ea1b0001558178","freqPrac_resp","","","img/blue_2bandit_a.png","70","img/blue_2bandit_a.png","70","prac","","","","","","","","","","","","","","","","","","","",""
"null","2731923","SARL_v6","SARL_v6xvkpqbg3","594a969df0ea1b0001558178","fixation","","","img/fixation.png","null","","","prac","","","","","","","","","","","","","","","","","","","",""
"357.5","2732282","SARL_v6","SARL_v6xvkpqbg3","594a969df0ea1b0001558178","infreqPrac","","","img/orange_2bandit_a2.png","68","img/orange_2bandit_a2.png","68","prac","1","1","","","","","","","","","","","","","","","","","",""
"357.5","2732734","SARL_v6","SARL_v6xvkpqbg3","594a969df0ea1b0001558178","infreqPrac_resp","","","img/orange_2bandit_a.png","68","img/orange_2bandit_a.png","68","prac","","","","","","","","","","","","","","","","","","","",""
"null","2732898","SARL_v6","SARL_v6xvkpqbg3","594a969df0ea1b0001558178","fixation","","","img/fixation.png","null","","","prac","","","","","","","","","","","","","","","","","","","",""
"336.2999999523163","2733237","SARL_v6","SARL_v6xvkpqbg3","594a969df0ea1b0001558178","infreqPrac","","","img/orange_2bandit_a2.png","68","img/orange_2bandit_a2.png","68","prac","1","1","","","","","","","","","","","","","","","","","",""
"336.2999999523163","2733712","SARL_v6","SARL_v6xvkpqbg3","594a969df0ea1b0001558178","infreqPrac_resp","","","img/orange_2bandit_a.png","68","img/orange_2bandit_a.png","68","prac","","","","","","","","","","","","","","","","","","","",""
"127","2733866","SARL_v6","SARL_v6xvkpqbg3","594a969df0ea1b0001558178","fixation","","","img/fixation.png","68","","","prac","","","","","","","","","","","","","","","","","","","",""
"449.09999990463257","2734317","SARL_v6","SARL_v6xvkpqbg3","594a969df0ea1b0001558178","infreqPrac","","","img/orange_2bandit_a2.png","68","img/orange_2bandit_a2.png","68","prac","1","1","","","","","","","","","","","","","","","","","",""
"449.09999990463257","2734672","SARL_v6","SARL_v6xvkpqbg3","594a969df0ea1b0001558178","infreqPrac_resp","","","img/orange_2bandit_a.png","68","img/orange_2bandit_a.png","68","prac","","","","","","","","","","","","","","","","","","","",""
"null","2734831","SARL_v6","SARL_v6xvkpqbg3","594a969df0ea1b0001558178","fixation","","","img/fixation.png","null","","","prac","","","","","","","","","","","","","","","","","","","",""
"303.89999985694885","2735137","SARL_v6","SARL_v6xvkpqbg3","594a969df0ea1b0001558178","freqPrac","","","img/blue_2bandit_a2.png","70","img/blue_2bandit_a2.png","70","prac","1","1","","","","","","","","","","","","","","","","","",""
"303.89999985694885","2735642","SARL_v6","SARL_v6xvkpqbg3","594a969df0ea1b0001558178","freqPrac_resp","","","img/blue_2bandit_a.png","70","img/blue_2bandit_a.png","70","prac","","","","","","","","","","","","","","","","","","","",""
"null","2735799","SARL_v6","SARL_v6xvkpqbg3","594a969df0ea1b0001558178","fixation","","","img/fixation.png","null","","","prac","","","","","","","","","","","","","","","","","","","",""
"229.09999990463257","2736030","SARL_v6","SARL_v6xvkpqbg3","594a969df0ea1b0001558178","infreqPrac","","","img/orange_2bandit_a2.png","68","img/orange_2bandit_a2.png","68","prac","1","1","","","","","","","","","","","","","","","","","",""
"229.09999990463257","2736607","SARL_v6","SARL_v6xvkpqbg3","594a969df0ea1b0001558178","infreqPrac_resp","","","img/orange_2bandit_a.png","68","img/orange_2bandit_a.png","68","prac","","","","","","","","","","","","","","","","","","","",""
"null","2736766","SARL_v6","SARL_v6xvkpqbg3","594a969df0ea1b0001558178","fixation","","","img/fixation.png","null","","","prac","","","","","","","","","","","","","","","","","","","",""
"425.59999990463257","2737194","SARL_v6","SARL_v6xvkpqbg3","594a969df0ea1b0001558178","freqPrac","","","img/blue_2bandit_a2.png","70","img/blue_2bandit_a2.png","70","prac","1","1","","","","","","","","","","","","","","","","","",""
"425.59999990463257","2737584","SARL_v6","SARL_v6xvkpqbg3","594a969df0ea1b0001558178","freqPrac_resp","","","img/blue_2bandit_a.png","70","img/blue_2bandit_a.png","70","prac","","","","","","","","","","","","","","","","","","","",""
"null","2737748","SARL_v6","SARL_v6xvkpqbg3","594a969df0ea1b0001558178","fixation","","","img/fixation.png","null","","","prac","","","","","","","","","","","","","","","","","","","",""
"297.89999985694885","2738048","SARL_v6","SARL_v6xvkpqbg3","594a969df0ea1b0001558178","freqPrac","","","img/blue_2bandit_a2.png","70","img/blue_2bandit_a2.png","70","prac","1","1","","","","","","","","","","","","","","","","","",""
"297.89999985694885","2738556","SARL_v6","SARL_v6xvkpqbg3","594a969df0ea1b0001558178","freqPrac_resp","","","img/blue_2bandit_a.png","70","img/blue_2bandit_a.png","70","prac","","","","","","","","","","","","","","","","","","","",""
"null","2738716","SARL_v6","SARL_v6xvkpqbg3","594a969df0ea1b0001558178","fixation","","","img/fixation.png","null","","","prac","","","","","","","","","","","","","","","","","","","",""
"17589","2756307","SARL_v6","SARL_v6xvkpqbg3","594a969df0ea1b0001558178","","","","","","","","prac","","","","","","","","","","","","","","","","","","","",""
"702.3999998569489","2757011","SARL_v6","SARL_v6xvkpqbg3","594a969df0ea1b0001558178","rlPractice","","","img/black_2bandit_a2.png","74","img/black_2bandit_a2.png","","prac","","","0","","","","","","","","","","","","","","","","",""
"null","2757779","SARL_v6","SARL_v6xvkpqbg3","594a969df0ea1b0001558178","feedback","","","<div class=""verylowPoints_sq""> -14 </div>","null","","na","prac","","","1","10","-14","10","","","","","","","","","","","","","",""
"null","2757948","SARL_v6","SARL_v6xvkpqbg3","594a969df0ea1b0001558178","fixation","","","img/fixation.png","null","","","prac","","","","","","","","","","","","","","","","","","","",""
"394.5","2758344","SARL_v6","SARL_v6xvkpqbg3","594a969df0ea1b0001558178","rlPractice","","","img/black_2bandit_a2.png","75","img/black_2bandit_a2.png","","prac","","","1","","","","","","","","","","","","","","","","",""
"null","2759108","SARL_v6","SARL_v6xvkpqbg3","594a969df0ea1b0001558178","feedback","","","<div class=""veryhighPoints""> 5 </div>","null","","na","prac","","","2","5","-5","5","","","","","","","","","","","","","",""
"null","2759265","SARL_v6","SARL_v6xvkpqbg3","594a969df0ea1b0001558178","fixation","","","img/fixation.png","null","","","prac","","","","","","","","","","","","","","","","","","","",""
"318","2759585","SARL_v6","SARL_v6xvkpqbg3","594a969df0ea1b0001558178","rlPractice","","","img/black_2bandit_a2.png","75","img/black_2bandit_a2.png","","prac","","","2","","","","","","","","","","","","","","","","",""
"null","2760345","SARL_v6","SARL_v6xvkpqbg3","594a969df0ea1b0001558178","feedback","","","<div class=""veryhighPoints""> 30 </div>","null","","na","prac","","","3","30","2","30","","","","","","","","","","","","","",""
"null","2760499","SARL_v6","SARL_v6xvkpqbg3","594a969df0ea1b0001558178","fixation","","","img/fixation.png","null","","","prac","","","","","","","","","","","","","","","","","","","",""
"516.5","2761018","SARL_v6","SARL_v6xvkpqbg3","594a969df0ea1b0001558178","rlPractice","","","img/black_2bandit_a2.png","74","img/black_2bandit_a2.png","","prac","","","3","","","","","","","","","","","","","","","","",""
"null","2761779","SARL_v6","SARL_v6xvkpqbg3","594a969df0ea1b0001558178","feedback","","","<div class=""veryhighPoints_sq""> 20 </div>","null","","na","prac","","","4","-2","20","-2","","","","","","","","","","","","","",""
"null","2761948","SARL_v6","SARL_v6xvkpqbg3","594a969df0ea1b0001558178","fixation","","","img/fixation.png","null","","","prac","","","","","","","","","","","","","","","","","","","",""
"6761.799999952316","2768711","SARL_v6","SARL_v6xvkpqbg3","594a969df0ea1b0001558178","","","","","","","","prac","","","","","","","","","","","","","","","","","","","",""
"380.89999985694885","2769093","SARL_v6","SARL_v6xvkpqbg3","594a969df0ea1b0001558178","mixAttFreqPrac","","","img/blue_2bandit_a2.png","70","img/blue_2bandit_a2.png","70","prac","","","1","","","","","","","","","","","","","","","","",""
"380.89999985694885","2769517","SARL_v6","SARL_v6xvkpqbg3","594a969df0ea1b0001558178","freqPrac_resp","","","img/blue_2bandit_a.png","70","img/blue_2bandit_a.png","70","prac","","","1","","","","","","","","","","","","","","","","",""
"null","2769682","SARL_v6","SARL_v6xvkpqbg3","594a969df0ea1b0001558178","fixation","","","img/fixation.png","null","","","prac","","","","","","","","","","","","","","","","","","","",""
"345.10000014305115","2770029","SARL_v6","SARL_v6xvkpqbg3","594a969df0ea1b0001558178","mixAttInfreqPrac","","","img/orange_2bandit_a2.png","68","img/orange_2bandit_a2.png","68","prac","","","2","","","","","","","","","","","","","","","","",""
"345.10000014305115","2770495","SARL_v6","SARL_v6xvkpqbg3","594a969df0ea1b0001558178","infreqPrac_resp","","","img/orange_2bandit_a.png","68","img/blue_2bandit_a.png","68","prac","","","2","","","","","","","","","","","","","","","","",""
"null","2770664","SARL_v6","SARL_v6xvkpqbg3","594a969df0ea1b0001558178","fixation","","","img/fixation.png","null","","","prac","","","","","","","","","","","","","","","","","","","",""
"295.7000000476837","2770962","SARL_v6","SARL_v6xvkpqbg3","594a969df0ea1b0001558178","mixAttInfreqPrac","","","img/orange_2bandit_a2.png","68","img/orange_2bandit_a2.png","68","prac","","","3","","","","","","","","","","","","","","","","",""
"295.7000000476837","2771476","SARL_v6","SARL_v6xvkpqbg3","594a969df0ea1b0001558178","infreqPrac_resp","","","img/orange_2bandit_a.png","68","img/blue_2bandit_a.png","68","prac","","","3","","","","","","","","","","","","","","","","",""
"null","2771632","SARL_v6","SARL_v6xvkpqbg3","594a969df0ea1b0001558178","fixation","","","img/fixation.png","null","","","prac","","","","","","","","","","","","","","","","","","","",""
"286.09999990463257","2771920","SARL_v6","SARL_v6xvkpqbg3","594a969df0ea1b0001558178","mixAttInfreqPrac","","","img/orange_2bandit_a2.png","68","img/orange_2bandit_a2.png","68","prac","","","4","","","","","","","","","","","","","","","","",""
"286.09999990463257","2772442","SARL_v6","SARL_v6xvkpqbg3","594a969df0ea1b0001558178","infreqPrac_resp","","","img/orange_2bandit_a.png","68","img/blue_2bandit_a.png","68","prac","","","4","","","","","","","","","","","","","","","","",""
"null","2772599","SARL_v6","SARL_v6xvkpqbg3","594a969df0ea1b0001558178","fixation","","","img/fixation.png","null","","","prac","","","","","","","","","","","","","","","","","","","",""
"436","2773037","SARL_v6","SARL_v6xvkpqbg3","594a969df0ea1b0001558178","mixAttFreqPrac","","","img/blue_2bandit_a2.png","70","img/blue_2bandit_a2.png","70","prac","","","5","","","","","","","","","","","","","","","","",""
"436","2773419","SARL_v6","SARL_v6xvkpqbg3","594a969df0ea1b0001558178","freqPrac_resp","","","img/blue_2bandit_a.png","70","img/blue_2bandit_a.png","70","prac","","","5","","","","","","","","","","","","","","","","",""
"null","2773582","SARL_v6","SARL_v6xvkpqbg3","594a969df0ea1b0001558178","fixation","","","img/fixation.png","null","","","prac","","","","","","","","","","","","","","","","","","","",""
"1002.5","2774587","SARL_v6","SARL_v6xvkpqbg3","594a969df0ea1b0001558178","mixRLPractice","","","img/black_2bandit_a2.png","74","img/black_2bandit_a2.png","","prac","","","5","","","","","","","","","","","","","","","","",""
"null","2775344","SARL_v6","SARL_v6xvkpqbg3","594a969df0ea1b0001558178","feedback","","","<div class=""veryhighPoints_sq""> 10 </div>","null","","na","prac","","","6","-14","10","-14","","","","","","","","","","","","","",""
"null","2775500","SARL_v6","SARL_v6xvkpqbg3","594a969df0ea1b0001558178","fixation","","","img/fixation.png","null","","","prac","","","","","","","","","","","","","","","","","","","",""
"651.2000000476837","2776153","SARL_v6","SARL_v6xvkpqbg3","594a969df0ea1b0001558178","mixAttFreqPrac","","","img/blue_2bandit_a2.png","70","img/blue_2bandit_a2.png","70","prac","","","7","","","","","","","","","","","","","","","","",""
"651.2000000476837","2776316","SARL_v6","SARL_v6xvkpqbg3","594a969df0ea1b0001558178","freqPrac_resp","","","img/blue_2bandit_a.png","70","img/blue_2bandit_a.png","70","prac","","","7","","","","","","","","","","","","","","","","",""
"null","2776482","SARL_v6","SARL_v6xvkpqbg3","594a969df0ea1b0001558178","fixation","","","img/fixation.png","null","","","prac","","","","","","","","","","","","","","","","","","","",""
"364.5","2776848","SARL_v6","SARL_v6xvkpqbg3","594a969df0ea1b0001558178","mixAttInfreqPrac","","","img/orange_2bandit_a2.png","68","img/orange_2bandit_a2.png","68","prac","","","8","","","","","","","","","","","","","","","","",""
"364.5","2777297","SARL_v6","SARL_v6xvkpqbg3","594a969df0ea1b0001558178","infreqPrac_resp","","","img/orange_2bandit_a.png","68","img/blue_2bandit_a.png","68","prac","","","8","","","","","","","","","","","","","","","","",""
"null","2777465","SARL_v6","SARL_v6xvkpqbg3","594a969df0ea1b0001558178","fixation","","","img/fixation.png","null","","","prac","","","","","","","","","","","","","","","","","","","",""
"363.2000000476837","2777831","SARL_v6","SARL_v6xvkpqbg3","594a969df0ea1b0001558178","mixAttFreqPrac","","","img/blue_2bandit_a2.png","70","img/blue_2bandit_a2.png","70","prac","","","9","","","","","","","","","","","","","","","","",""
"363.2000000476837","2778280","SARL_v6","SARL_v6xvkpqbg3","594a969df0ea1b0001558178","freqPrac_resp","","","img/blue_2bandit_a.png","70","img/blue_2bandit_a.png","70","prac","","","9","","","","","","","","","","","","","","","","",""
"null","2778447","SARL_v6","SARL_v6xvkpqbg3","594a969df0ea1b0001558178","fixation","","","img/fixation.png","null","","","prac","","","","","","","","","","","","","","","","","","","",""
"309.59999990463257","2778759","SARL_v6","SARL_v6xvkpqbg3","594a969df0ea1b0001558178","mixAttFreqPrac","","","img/blue_2bandit_a2.png","70","img/blue_2bandit_a2.png","70","prac","","","10","","","","","","","","","","","","","","","","",""
"309.59999990463257","2779257","SARL_v6","SARL_v6xvkpqbg3","594a969df0ea1b0001558178","freqPrac_resp","","","img/blue_2bandit_a.png","70","img/blue_2bandit_a.png","70","prac","","","10","","","","","","","","","","","","","","","","",""
"null","2779415","SARL_v6","SARL_v6xvkpqbg3","594a969df0ea1b0001558178","fixation","","","img/fixation.png","null","","","prac","","","","","","","","","","","","","","","","","","","",""
"237.69999980926514","2779655","SARL_v6","SARL_v6xvkpqbg3","594a969df0ea1b0001558178","mixAttInfreqPrac","","","img/orange_2bandit_a2.png","70","img/orange_2bandit_a2.png","68","prac","","","11","","","","","","","","","","","","","","","","",""
"237.69999980926514","2780222","SARL_v6","SARL_v6xvkpqbg3","594a969df0ea1b0001558178","infreqPrac_resp","","","img/orange_2bandit_a.png","70","img/blue_2bandit_a.png","68","prac","","","11","","","","","","","","","","","","","","","","",""
"null","2780381","SARL_v6","SARL_v6xvkpqbg3","594a969df0ea1b0001558178","fixation","","","img/fixation.png","null","","","prac","","","","","","","","","","","","","","","","","","","",""
"663.5999999046326","2781047","SARL_v6","SARL_v6xvkpqbg3","594a969df0ea1b0001558178","mixRLPractice","","","img/black_2bandit_a2.png","74","img/black_2bandit_a2.png","","prac","","","11","","","","","","","","","","","","","","","","",""
"null","2781801","SARL_v6","SARL_v6xvkpqbg3","594a969df0ea1b0001558178","feedback","","","<div class=""verylowPoints_sq""> -5 </div>","null","","na","prac","","","12","5","-5","5","","","","","","","","","","","","","",""
"null","2781954","SARL_v6","SARL_v6xvkpqbg3","594a969df0ea1b0001558178","fixation","","","img/fixation.png","null","","","prac","","","","","","","","","","","","","","","","","","","",""
"3320.5","2785277","SARL_v6","SARL_v6xvkpqbg3","594a969df0ea1b0001558178","","","","","","","","prac","","","","","","","","","","","","","","","","","","","",""
"543.9000000953674","2785823","SARL_v6","SARL_v6xvkpqbg3","594a969df0ea1b0001558178","freq","","","img/blue_2bandit_a2.png","70","","70","test","1","","1","","","","square","circle","1","1","1","1","","","","","","","",""
"null","2786092","SARL_v6","SARL_v6xvkpqbg3","594a969df0ea1b0001558178","freq_resp","","","img/blue_2bandit_a.png","70","img/blue_2bandit_a.png","70","test","","","","","","","","","","","1","","","","","","","","",""
"null","2786248","SARL_v6","SARL_v6xvkpqbg3","594a969df0ea1b0001558178","fixation","","","img/fixation.png","null","","","test","","","","","","","","","","","","","","","","","","","",""
"290.10000014305115","2786541","SARL_v6","SARL_v6xvkpqbg3","594a969df0ea1b0001558178","freq","","","img/blue_2bandit_a2.png","70","","70","test","1","","2","","","","square","circle","2","2","1","1","","","","","","","",""
"null","2787060","SARL_v6","SARL_v6xvkpqbg3","594a969df0ea1b0001558178","freq_resp","","","img/blue_2bandit_a.png","70","img/blue_2bandit_a.png","70","test","","","","","","","","","","","1","","","","","","","","",""
"null","2787215","SARL_v6","SARL_v6xvkpqbg3","594a969df0ea1b0001558178","fixation","","","img/fixation.png","null","","","test","","","","","","","","","","","","","","","","","","","",""
"297.10000014305115","2787514","SARL_v6","SARL_v6xvkpqbg3","594a969df0ea1b0001558178","freq","","","img/blue_2bandit_a2.png","70","","70","test","1","","3","","","","square","circle","3","3","1","1","","","","","","","",""
"null","2788027","SARL_v6","SARL_v6xvkpqbg3","594a969df0ea1b0001558178","freq_resp","","","img/blue_2bandit_a.png","70","img/blue_2bandit_a.png","70","test","","","","","","","","","","","1","","","","","","","","",""
"null","2788182","SARL_v6","SARL_v6xvkpqbg3","594a969df0ea1b0001558178","fixation","","","img/fixation.png","null","","","test","","","","","","","","","","","","","","","","","","","",""
"261.89999985694885","2788446","SARL_v6","SARL_v6xvkpqbg3","594a969df0ea1b0001558178","freq","","","img/blue_2bandit_a2.png","70","","70","test","1","","4","","","","square","circle","4","4","1","1","","","","","","","",""
"null","2788990","SARL_v6","SARL_v6xvkpqbg3","594a969df0ea1b0001558178","freq_resp","","","img/blue_2bandit_a.png","70","img/blue_2bandit_a.png","70","test","","","","","","","","","","","1","","","","","","","","",""
"null","2789149","SARL_v6","SARL_v6xvkpqbg3","594a969df0ea1b0001558178","fixation","","","img/fixation.png","null","","","test","","","","","","","","","","","","","","","","","","","",""
"286.7000000476837","2789438","SARL_v6","SARL_v6xvkpqbg3","594a969df0ea1b0001558178","freq","","","img/blue_2bandit_a2.png","70","","70","test","1","","5","","","","square","circle","5","5","1","1","","","","","","","",""
"null","2789958","SARL_v6","SARL_v6xvkpqbg3","594a969df0ea1b0001558178","freq_resp","","","img/blue_2bandit_a.png","70","img/blue_2bandit_a.png","70","test","","","","","","","","","","","1","","","","","","","","",""
"null","2790115","SARL_v6","SARL_v6xvkpqbg3","594a969df0ea1b0001558178","fixation","","","img/fixation.png","null","","","test","","","","","","","","","","","","","","","","","","","",""
"245.89999985694885","2790363","SARL_v6","SARL_v6xvkpqbg3","594a969df0ea1b0001558178","infreq","","","img/orange_2bandit_a2.png","70","","68","test","0","","6","","","","square","circle","6","6","1","0.8333333333333334","","","","","","","",""
"null","2790922","SARL_v6","SARL_v6xvkpqbg3","594a969df0ea1b0001558178","infreq_resp","","","img/orange_2bandit_a.png","70","img/orange_2bandit_a.png","68","test","","","","","","","","","","","1","","","","","","","","",""
"null","2791082","SARL_v6","SARL_v6xvkpqbg3","594a969df0ea1b0001558178","fixation","","","img/fixation.png","null","","","test","","","","","","","","","","","","","","","","","","","",""
"366","2791450","SARL_v6","SARL_v6xvkpqbg3","594a969df0ea1b0001558178","freq","","","img/blue_2bandit_a2.png","70","","70","test","1","","7","","","","square","circle","7","7","1","0.8571428571428571","","","","","","","",""
"null","2791898","SARL_v6","SARL_v6xvkpqbg3","594a969df0ea1b0001558178","freq_resp","","","img/blue_2bandit_a.png","70","img/blue_2bandit_a.png","70","test","","","","","","","","","","","1","","","","","","","","",""
"null","2792064","SARL_v6","SARL_v6xvkpqbg3","594a969df0ea1b0001558178","fixation","","","img/fixation.png","null","","","test","","","","","","","","","","","","","","","","","","","",""
"355.60000014305115","2792422","SARL_v6","SARL_v6xvkpqbg3","594a969df0ea1b0001558178","freq","","","img/blue_2bandit_a2.png","70","","70","test","1","","8","","","","square","circle","8","8","1","0.875","","","","","","","",""
"null","2792880","SARL_v6","SARL_v6xvkpqbg3","594a969df0ea1b0001558178","freq_resp","","","img/blue_2bandit_a.png","70","img/blue_2bandit_a.png","70","test","","","","","","","","","","","1","","","","","","","","",""
"null","2793048","SARL_v6","SARL_v6xvkpqbg3","594a969df0ea1b0001558178","fixation","","","img/fixation.png","null","","","test","","","","","","","","","","","","","","","","","","","",""
"304.2000000476837","2793354","SARL_v6","SARL_v6xvkpqbg3","594a969df0ea1b0001558178","freq","","","img/blue_2bandit_a2.png","70","","70","test","1","","9","","","","square","circle","9","9","1","0.8888888888888888","","","","","","","",""
"null","2793860","SARL_v6","SARL_v6xvkpqbg3","594a969df0ea1b0001558178","freq_resp","","","img/blue_2bandit_a.png","70","img/blue_2bandit_a.png","70","test","","","","","","","","","","","1","","","","","","","","",""
"null","2794016","SARL_v6","SARL_v6xvkpqbg3","594a969df0ea1b0001558178","fixation","","","img/fixation.png","null","","","test","","","","","","","","","","","","","","","","","","","",""
"302.09999990463257","2794320","SARL_v6","SARL_v6xvkpqbg3","594a969df0ea1b0001558178","freq","","","img/blue_2bandit_a2.png","70","","70","test","1","","10","","","","square","circle","10","10","1","0.9","","","","","","","",""
"null","2794828","SARL_v6","SARL_v6xvkpqbg3","594a969df0ea1b0001558178","freq_resp","","","img/blue_2bandit_a.png","70","img/blue_2bandit_a.png","70","test","","","","","","","","","","","1","","","","","","","","",""
"null","2794997","SARL_v6","SARL_v6xvkpqbg3","594a969df0ea1b0001558178","fixation","","","img/fixation.png","null","","","test","","","","","","","","","","","","","","","","","","","",""
"309","2795308","SARL_v6","SARL_v6xvkpqbg3","594a969df0ea1b0001558178","freq","","","img/blue_2bandit_a2.png","70","","70","test","1","","11","","","","square","circle","11","11","1","0.9090909090909091","","","","","","","",""
"null","2795803","SARL_v6","SARL_v6xvkpqbg3","594a969df0ea1b0001558178","freq_resp","","","img/blue_2bandit_a.png","70","img/blue_2bandit_a.png","70","test","","","","","","","","","","","1","","","","","","","","",""
"null","2795965","SARL_v6","SARL_v6xvkpqbg3","594a969df0ea1b0001558178","fixation","","","img/fixation.png","null","","","test","","","","","","","","","","","","","","","","","","","",""
"296.39999985694885","2796264","SARL_v6","SARL_v6xvkpqbg3","594a969df0ea1b0001558178","freq","","","img/blue_2bandit_a2.png","70","","70","test","1","","12","","","","square","circle","12","12","1","0.9166666666666666","","","","","","","",""
"null","2796776","SARL_v6","SARL_v6xvkpqbg3","594a969df0ea1b0001558178","freq_resp","","","img/blue_2bandit_a.png","70","img/blue_2bandit_a.png","70","test","","","","","","","","","","","1","","","","","","","","",""
"null","2796931","SARL_v6","SARL_v6xvkpqbg3","594a969df0ea1b0001558178","fixation","","","img/fixation.png","null","","","test","","","","","","","","","","","","","","","","","","","",""
"302.7999999523163","2797237","SARL_v6","SARL_v6xvkpqbg3","594a969df0ea1b0001558178","freq","","","img/blue_2bandit_a2.png","70","","70","test","1","","13","","","","square","circle","13","13","1","0.9230769230769231","","","","","","","",""
"null","2797745","SARL_v6","SARL_v6xvkpqbg3","594a969df0ea1b0001558178","freq_resp","","","img/blue_2bandit_a.png","70","img/blue_2bandit_a.png","70","test","","","","","","","","","","","1","","","","","","","","",""
"null","2797898","SARL_v6","SARL_v6xvkpqbg3","594a969df0ea1b0001558178","fixation","","","img/fixation.png","null","","","test","","","","","","","","","","","","","","","","","","","",""
"283.2999999523163","2798183","SARL_v6","SARL_v6xvkpqbg3","594a969df0ea1b0001558178","freq","","","img/blue_2bandit_a2.png","70","","70","test","1","","14","","","","square","circle","14","14","1","0.9285714285714286","","","","","","","",""
"null","2798713","SARL_v6","SARL_v6xvkpqbg3","594a969df0ea1b0001558178","freq_resp","","","img/blue_2bandit_a.png","70","img/blue_2bandit_a.png","70","test","","","","","","","","","","","1","","","","","","","","",""
"null","2798880","SARL_v6","SARL_v6xvkpqbg3","594a969df0ea1b0001558178","fixation","","","img/fixation.png","null","","","test","","","","","","","","","","","","","","","","","","","",""
"288.59999990463257","2799171","SARL_v6","SARL_v6xvkpqbg3","594a969df0ea1b0001558178","freq","","","img/blue_2bandit_a2.png","70","","70","test","1","","15","","","","square","circle","15","15","1","0.9333333333333333","","","","","","","",""
"null","2799692","SARL_v6","SARL_v6xvkpqbg3","594a969df0ea1b0001558178","freq_resp","","","img/blue_2bandit_a.png","70","img/blue_2bandit_a.png","70","test","","","","","","","","","","","1","","","","","","","","",""
"null","2799848","SARL_v6","SARL_v6xvkpqbg3","594a969df0ea1b0001558178","fixation","","","img/fixation.png","null","","","test","","","","","","","","","","","","","","","","","","","",""
"242.10000014305115","2800093","SARL_v6","SARL_v6xvkpqbg3","594a969df0ea1b0001558178","freq","","","img/blue_2bandit_a2.png","70","","70","test","1","","16","","","","square","circle","16","16","1","0.9375","","","","","","","",""
"null","2800657","SARL_v6","SARL_v6xvkpqbg3","594a969df0ea1b0001558178","freq_resp","","","img/blue_2bandit_a.png","70","img/blue_2bandit_a.png","70","test","","","","","","","","","","","1","","","","","","","","",""
"null","2800817","SARL_v6","SARL_v6xvkpqbg3","594a969df0ea1b0001558178","fixation","","","img/fixation.png","null","","","test","","","","","","","","","","","","","","","","","","","",""
"289","2801109","SARL_v6","SARL_v6xvkpqbg3","594a969df0ea1b0001558178","freq","","","img/blue_2bandit_a2.png","70","","70","test","1","","17","","","","square","circle","17","17","1","0.9411764705882353","","","","","","","",""
"null","2801627","SARL_v6","SARL_v6xvkpqbg3","594a969df0ea1b0001558178","freq_resp","","","img/blue_2bandit_a.png","70","img/blue_2bandit_a.png","70","test","","","","","","","","","","","1","","","","","","","","",""
"null","2801782","SARL_v6","SARL_v6xvkpqbg3","594a969df0ea1b0001558178","fixation","","","img/fixation.png","null","","","test","","","","","","","","","","","","","","","","","","","",""
"270.30000019073486","2802056","SARL_v6","SARL_v6xvkpqbg3","594a969df0ea1b0001558178","freq","","","img/blue_2bandit_a2.png","70","","70","test","1","","18","","","","square","circle","18","18","1","0.9444444444444444","","","","","","","",""
"null","2802589","SARL_v6","SARL_v6xvkpqbg3","594a969df0ea1b0001558178","freq_resp","","","img/blue_2bandit_a.png","70","img/blue_2bandit_a.png","70","test","","","","","","","","","","","1","","","","","","","","",""
"null","2802743","SARL_v6","SARL_v6xvkpqbg3","594a969df0ea1b0001558178","fixation","","","img/fixation.png","null","","","test","","","","","","","","","","","","","","","","","","","",""
"344.60000014305115","2803090","SARL_v6","SARL_v6xvkpqbg3","594a969df0ea1b0001558178","infreq","","","img/orange_2bandit_a2.png","68","","68","test","1","","19","","","","square","circle","19","19","1","0.9473684210526315","","","","","","","",""
"null","2803562","SARL_v6","SARL_v6xvkpqbg3","594a969df0ea1b0001558178","infreq_resp","","","img/orange_2bandit_a.png","68","img/orange_2bandit_a.png","68","test","","","","","","","","","","","1","","","","","","","","",""
"null","2803730","SARL_v6","SARL_v6xvkpqbg3","594a969df0ea1b0001558178","fixation","","","img/fixation.png","null","","","test","","","","","","","","","","","","","","","","","","","",""
"294.7000000476837","2804027","SARL_v6","SARL_v6xvkpqbg3","594a969df0ea1b0001558178","freq","","","img/blue_2bandit_a2.png","68","","70","test","0","","20","","","","square","circle","20","20","1","0.9","","","","","","","",""
"null","2804545","SARL_v6","SARL_v6xvkpqbg3","594a969df0ea1b0001558178","freq_resp","","","img/blue_2bandit_a.png","68","img/blue_2bandit_a.png","70","test","","","","","","","","","","","1","","","","","","","","",""
"null","2804710","SARL_v6","SARL_v6xvkpqbg3","594a969df0ea1b0001558178","fixation","","","img/fixation.png","null","","","test","","","","","","","","","","","","","","","","","","","",""
"317.10000014305115","2805029","SARL_v6","SARL_v6xvkpqbg3","594a969df0ea1b0001558178","freq","","","img/blue_2bandit_a2.png","70","","70","test","1","","21","","","","square","circle","21","21","1","0.9047619047619048","","","","","","","",""
"null","2805517","SARL_v6","SARL_v6xvkpqbg3","594a969df0ea1b0001558178","freq_resp","","","img/blue_2bandit_a.png","70","img/blue_2bandit_a.png","70","test","","","","","","","","","","","1","","","","","","","","",""
"null","2805670","SARL_v6","SARL_v6xvkpqbg3","594a969df0ea1b0001558178","fixation","","","img/fixation.png","null","","","test","","","","","","","","","","","","","","","","","","","",""
"266.90000009536743","2805939","SARL_v6","SARL_v6xvkpqbg3","594a969df0ea1b0001558178","freq","","","img/blue_2bandit_a2.png","70","","70","test","1","","22","","","","square","circle","22","22","1","0.9090909090909091","","","","","","","",""
"null","2806474","SARL_v6","SARL_v6xvkpqbg3","594a969df0ea1b0001558178","freq_resp","","","img/blue_2bandit_a.png","70","img/blue_2bandit_a.png","70","test","","","","","","","","","","","1","","","","","","","","",""
"null","2806631","SARL_v6","SARL_v6xvkpqbg3","594a969df0ea1b0001558178","fixation","","","img/fixation.png","null","","","test","","","","","","","","","","","","","","","","","","","",""
"235.19999980926514","2806869","SARL_v6","SARL_v6xvkpqbg3","594a969df0ea1b0001558178","freq","","","img/blue_2bandit_a2.png","70","","70","test","1","","23","","","","square","circle","23","23","1","0.9130434782608695","","","","","","","",""
"null","2807439","SARL_v6","SARL_v6xvkpqbg3","594a969df0ea1b0001558178","freq_resp","","","img/blue_2bandit_a.png","70","img/blue_2bandit_a.png","70","test","","","","","","","","","","","1","","","","","","","","",""
"null","2807598","SARL_v6","SARL_v6xvkpqbg3","594a969df0ea1b0001558178","fixation","","","img/fixation.png","null","","","test","","","","","","","","","","","","","","","","","","","",""
"283.80000019073486","2807884","SARL_v6","SARL_v6xvkpqbg3","594a969df0ea1b0001558178","freq","","","img/blue_2bandit_a2.png","70","","70","test","1","","24","","","","square","circle","24","24","1","0.9166666666666666","","","","","","","",""
"null","2808411","SARL_v6","SARL_v6xvkpqbg3","594a969df0ea1b0001558178","freq_resp","","","img/blue_2bandit_a.png","70","img/blue_2bandit_a.png","70","test","","","","","","","","","","","1","","","","","","","","",""
"null","2808579","SARL_v6","SARL_v6xvkpqbg3","594a969df0ea1b0001558178","fixation","","","img/fixation.png","null","","","test","","","","","","","","","","","","","","","","","","","",""
"349.39999985694885","2808930","SARL_v6","SARL_v6xvkpqbg3","594a969df0ea1b0001558178","freq","","","img/blue_2bandit_a2.png","70","","70","test","1","","25","","","","square","circle","25","25","1","0.92","","","","","","","",""
"null","2809385","SARL_v6","SARL_v6xvkpqbg3","594a969df0ea1b0001558178","freq_resp","","","img/blue_2bandit_a.png","70","img/blue_2bandit_a.png","70","test","","","","","","","","","","","1","","","","","","","","",""
"null","2809548","SARL_v6","SARL_v6xvkpqbg3","594a969df0ea1b0001558178","fixation","","","img/fixation.png","null","","","test","","","","","","","","","","","","","","","","","","","",""
"283.89999985694885","2809835","SARL_v6","SARL_v6xvkpqbg3","594a969df0ea1b0001558178","freq","","","img/blue_2bandit_a2.png","70","","70","test","1","","26","","","","square","circle","26","26","1","0.9230769230769231","","","","","","","",""
"null","2810358","SARL_v6","SARL_v6xvkpqbg3","594a969df0ea1b0001558178","freq_resp","","","img/blue_2bandit_a.png","70","img/blue_2bandit_a.png","70","test","","","","","","","","","","","1","","","","","","","","",""
"null","2810516","SARL_v6","SARL_v6xvkpqbg3","594a969df0ea1b0001558178","fixation","","","img/fixation.png","null","","","test","","","","","","","","","","","","","","","","","","","",""
"615.5","2811134","SARL_v6","SARL_v6xvkpqbg3","594a969df0ea1b0001558178","rl","","","img/black_2bandit_a2.png","74","","0","test","","","27","","","-3","square","circle","","0","1","","74","-3","-3","-3","-3","square","1","0"
"null","2811902","SARL_v6","SARL_v6xvkpqbg3","594a969df0ea1b0001558178","feedback","","","<div class=""verylowPoints_sq""> -3 </div>","null","","na","test","","","NaN","","","","","","","","1","","74","","","","","","1",""
"596.3999998569489","2812500","SARL_v6","SARL_v6xvkpqbg3","594a969df0ea1b0001558178","freq","","","img/blue_2bandit_a2.png","70","","70","test","1","","28","","","","square","circle","27","1","2","0.9259259259259259","","","","","","","",""
"null","2812714","SARL_v6","SARL_v6xvkpqbg3","594a969df0ea1b0001558178","freq_resp","","","img/blue_2bandit_a.png","70","img/blue_2bandit_a.png","70","test","","","","","","","","","","","2","","","","","","","","",""
"null","2812881","SARL_v6","SARL_v6xvkpqbg3","594a969df0ea1b0001558178","fixation","","","img/fixation.png","null","","","test","","","","","","","","","","","","","","","","","","","",""
"524.4000000953674","2813408","SARL_v6","SARL_v6xvkpqbg3","594a969df0ea1b0001558178","freq","","","img/blue_2bandit_a2.png","70","","70","test","1","","29","","","","square","circle","28","2","2","0.9285714285714286","","","","","","","",""
"null","2813691","SARL_v6","SARL_v6xvkpqbg3","594a969df0ea1b0001558178","freq_resp","","","img/blue_2bandit_a.png","70","img/blue_2bandit_a.png","70","test","","","","","","","","","","","2","","","","","","","","",""
"null","2813848","SARL_v6","SARL_v6xvkpqbg3","594a969df0ea1b0001558178","fixation","","","img/fixation.png","null","","","test","","","","","","","","","","","","","","","","","","","",""
"340.90000009536743","2814192","SARL_v6","SARL_v6xvkpqbg3","594a969df0ea1b0001558178","freq","","","img/blue_2bandit_a2.png","70","","70","test","1","","30","","","","square","circle","29","3","2","0.9310344827586207","","","","","","","",""
"null","2814665","SARL_v6","SARL_v6xvkpqbg3","594a969df0ea1b0001558178","freq_resp","","","img/blue_2bandit_a.png","70","img/blue_2bandit_a.png","70","test","","","","","","","","","","","2","","","","","","","","",""
"null","2814832","SARL_v6","SARL_v6xvkpqbg3","594a969df0ea1b0001558178","fixation","","","img/fixation.png","null","","","test","","","","","","","","","","","","","","","","","","","",""
"285.5","2815120","SARL_v6","SARL_v6xvkpqbg3","594a969df0ea1b0001558178","freq","","","img/blue_2bandit_a2.png","70","","70","test","1","","31","","","","square","circle","30","4","2","0.9333333333333333","","","","","","","",""
"null","2815649","SARL_v6","SARL_v6xvkpqbg3","594a969df0ea1b0001558178","freq_resp","","","img/blue_2bandit_a.png","70","img/blue_2bandit_a.png","70","test","","","","","","","","","","","2","","","","","","","","",""
"null","2815815","SARL_v6","SARL_v6xvkpqbg3","594a969df0ea1b0001558178","fixation","","","img/fixation.png","null","","","test","","","","","","","","","","","","","","","","","","","",""
"289.40000009536743","2816107","SARL_v6","SARL_v6xvkpqbg3","594a969df0ea1b0001558178","freq","","","img/blue_2bandit_a2.png","70","","70","test","1","","32","","","","square","circle","31","5","2","0.9354838709677419","","","","","","","",""
"null","2816622","SARL_v6","SARL_v6xvkpqbg3","594a969df0ea1b0001558178","freq_resp","","","img/blue_2bandit_a.png","70","img/blue_2bandit_a.png","70","test","","","","","","","","","","","2","","","","","","","","",""
"null","2816781","SARL_v6","SARL_v6xvkpqbg3","594a969df0ea1b0001558178","fixation","","","img/fixation.png","null","","","test","","","","","","","","","","","","","","","","","","","",""
"311.59999990463257","2817095","SARL_v6","SARL_v6xvkpqbg3","594a969df0ea1b0001558178","freq","","","img/blue_2bandit_a2.png","70","","70","test","1","","33","","","","square","circle","32","6","2","0.9375","","","","","","","",""
"null","2817586","SARL_v6","SARL_v6xvkpqbg3","594a969df0ea1b0001558178","freq_resp","","","img/blue_2bandit_a.png","70","img/blue_2bandit_a.png","70","test","","","","","","","","","","","2","","","","","","","","",""
"null","2817749","SARL_v6","SARL_v6xvkpqbg3","594a969df0ea1b0001558178","fixation","","","img/fixation.png","null","","","test","","","","","","","","","","","","","","","","","","","",""
"262.59999990463257","2818015","SARL_v6","SARL_v6xvkpqbg3","594a969df0ea1b0001558178","freq","","","img/blue_2bandit_a2.png","70","","70","test","1","","34","","","","square","circle","33","7","2","0.9393939393939394","","","","","","","",""
"null","2818556","SARL_v6","SARL_v6xvkpqbg3","594a969df0ea1b0001558178","freq_resp","","","img/blue_2bandit_a.png","70","img/blue_2bandit_a.png","70","test","","","","","","","","","","","2","","","","","","","","",""
"null","2818716","SARL_v6","SARL_v6xvkpqbg3","594a969df0ea1b0001558178","fixation","","","img/fixation.png","null","","","test","","","","","","","","","","","","","","","","","","","",""
"265","2818983","SARL_v6","SARL_v6xvkpqbg3","594a969df0ea1b0001558178","freq","","","img/blue_2bandit_a2.png","70","","70","test","1","","35","","","","square","circle","34","8","2","0.9411764705882353","","","","","","","",""
"null","2819523","SARL_v6","SARL_v6xvkpqbg3","594a969df0ea1b0001558178","freq_resp","","","img/blue_2bandit_a.png","70","img/blue_2bandit_a.png","70","test","","","","","","","","","","","2","","","","","","","","",""
"null","2819682","SARL_v6","SARL_v6xvkpqbg3","594a969df0ea1b0001558178","fixation","","","img/fixation.png","null","","","test","","","","","","","","","","","","","","","","","","","",""
"348.89999985694885","2820033","SARL_v6","SARL_v6xvkpqbg3","594a969df0ea1b0001558178","infreq","","","img/orange_2bandit_a2.png","68","","68","test","1","","36","","","","square","circle","35","9","2","0.9428571428571428","","","","","","","",""
"null","2820502","SARL_v6","SARL_v6xvkpqbg3","594a969df0ea1b0001558178","infreq_resp","","","img/orange_2bandit_a.png","68","img/orange_2bandit_a.png","68","test","","","","","","","","","","","2","","","","","","","","",""
"null","2820666","SARL_v6","SARL_v6xvkpqbg3","594a969df0ea1b0001558178","fixation","","","img/fixation.png","null","","","test","","","","","","","","","","","","","","","","","","","",""
"458","2821126","SARL_v6","SARL_v6xvkpqbg3","594a969df0ea1b0001558178","freq","","","img/blue_2bandit_a2.png","68","","70","test","0","","37","","","","square","circle","36","10","2","0.9166666666666666","","","","","","","",""
"null","2821480","SARL_v6","SARL_v6xvkpqbg3","594a969df0ea1b0001558178","freq_resp","","","img/blue_2bandit_a.png","68","img/blue_2bandit_a.png","70","test","","","","","","","","","","","2","","","","","","","","",""
"null","2821647","SARL_v6","SARL_v6xvkpqbg3","594a969df0ea1b0001558178","fixation","","","img/fixation.png","null","","","test","","","","","","","","","","","","","","","","","","","",""
"449.2999999523163","2822100","SARL_v6","SARL_v6xvkpqbg3","594a969df0ea1b0001558178","freq","","","img/blue_2bandit_a2.png","70","","70","test","1","","38","","","","square","circle","37","11","2","0.918918918918919","","","","","","","",""
"null","2822458","SARL_v6","SARL_v6xvkpqbg3","594a969df0ea1b0001558178","freq_resp","","","img/blue_2bandit_a.png","70","img/blue_2bandit_a.png","70","test","","","","","","","","","","","2","","","","","","","","",""
"null","2822616","SARL_v6","SARL_v6xvkpqbg3","594a969df0ea1b0001558178","fixation","","","img/fixation.png","null","","","test","","","","","","","","","","","","","","","","","","","",""
"264.2000000476837","2822882","SARL_v6","SARL_v6xvkpqbg3","594a969df0ea1b0001558178","freq","","","img/blue_2bandit_a2.png","70","","70","test","1","","39","","","","square","circle","38","12","2","0.9210526315789473","","","","","","","",""
"null","2823422","SARL_v6","SARL_v6xvkpqbg3","594a969df0ea1b0001558178","freq_resp","","","img/blue_2bandit_a.png","70","img/blue_2bandit_a.png","70","test","","","","","","","","","","","2","","","","","","","","",""
"null","2823581","SARL_v6","SARL_v6xvkpqbg3","594a969df0ea1b0001558178","fixation","","","img/fixation.png","null","","","test","","","","","","","","","","","","","","","","","","","",""
"269.30000019073486","2823852","SARL_v6","SARL_v6xvkpqbg3","594a969df0ea1b0001558178","freq","","","img/blue_2bandit_a2.png","70","","70","test","1","","40","","","","square","circle","39","13","2","0.9230769230769231","","","","","","","",""
"null","2824391","SARL_v6","SARL_v6xvkpqbg3","594a969df0ea1b0001558178","freq_resp","","","img/blue_2bandit_a.png","70","img/blue_2bandit_a.png","70","test","","","","","","","","","","","2","","","","","","","","",""
"null","2824547","SARL_v6","SARL_v6xvkpqbg3","594a969df0ea1b0001558178","fixation","","","img/fixation.png","null","","","test","","","","","","","","","","","","","","","","","","","",""
"269.09999990463257","2824819","SARL_v6","SARL_v6xvkpqbg3","594a969df0ea1b0001558178","freq","","","img/blue_2bandit_a2.png","70","","70","test","1","","41","","","","square","circle","40","14","2","0.925","","","","","","","",""
"null","2825357","SARL_v6","SARL_v6xvkpqbg3","594a969df0ea1b0001558178","freq_resp","","","img/blue_2bandit_a.png","70","img/blue_2bandit_a.png","70","test","","","","","","","","","","","2","","","","","","","","",""
"null","2825515","SARL_v6","SARL_v6xvkpqbg3","594a969df0ea1b0001558178","fixation","","","img/fixation.png","null","","","test","","","","","","","","","","","","","","","","","","","",""
"262","2825779","SARL_v6","SARL_v6xvkpqbg3","594a969df0ea1b0001558178","freq","","","img/blue_2bandit_a2.png","70","","70","test","1","","42","","","","square","circle","41","15","2","0.926829268292683","","","","","","","",""
"null","2826324","SARL_v6","SARL_v6xvkpqbg3","594a969df0ea1b0001558178","freq_resp","","","img/blue_2bandit_a.png","70","img/blue_2bandit_a.png","70","test","","","","","","","","","","","2","","","","","","","","",""
"null","2826481","SARL_v6","SARL_v6xvkpqbg3","594a969df0ea1b0001558178","fixation","","","img/fixation.png","null","","","test","","","","","","","","","","","","","","","","","","","",""
"259.59999990463257","2826743","SARL_v6","SARL_v6xvkpqbg3","594a969df0ea1b0001558178","freq","","","img/blue_2bandit_a2.png","70","","70","test","1","","43","","","","square","circle","42","16","2","0.9285714285714286","","","","","","","",""
"null","2827290","SARL_v6","SARL_v6xvkpqbg3","594a969df0ea1b0001558178","freq_resp","","","img/blue_2bandit_a.png","70","img/blue_2bandit_a.png","70","test","","","","","","","","","","","2","","","","","","","","",""
"null","2827447","SARL_v6","SARL_v6xvkpqbg3","594a969df0ea1b0001558178","fixation","","","img/fixation.png","null","","","test","","","","","","","","","","","","","","","","","","","",""
"233.89999985694885","2827683","SARL_v6","SARL_v6xvkpqbg3","594a969df0ea1b0001558178","infreq","","","img/orange_2bandit_a2.png","70","","68","test","0","","44","","","","square","circle","43","17","2","0.9069767441860465","","","","","","","",""
"null","2828256","SARL_v6","SARL_v6xvkpqbg3","594a969df0ea1b0001558178","infreq_resp","","","img/orange_2bandit_a.png","70","img/orange_2bandit_a.png","68","test","","","","","","","","","","","2","","","","","","","","",""
"null","2828414","SARL_v6","SARL_v6xvkpqbg3","594a969df0ea1b0001558178","fixation","","","img/fixation.png","null","","","test","","","","","","","","","","","","","","","","","","","",""
"383.60000014305115","2828800","SARL_v6","SARL_v6xvkpqbg3","594a969df0ea1b0001558178","infreq","","","img/orange_2bandit_a2.png","68","","68","test","1","","45","","","","square","circle","44","18","2","0.9090909090909091","","","","","","","",""
"null","2829230","SARL_v6","SARL_v6xvkpqbg3","594a969df0ea1b0001558178","infreq_resp","","","img/orange_2bandit_a.png","68","img/orange_2bandit_a.png","68","test","","","","","","","","","","","2","","","","","","","","",""
"null","2829397","SARL_v6","SARL_v6xvkpqbg3","594a969df0ea1b0001558178","fixation","","","img/fixation.png","null","","","test","","","","","","","","","","","","","","","","","","","",""
"382.89999985694885","2829783","SARL_v6","SARL_v6xvkpqbg3","594a969df0ea1b0001558178","freq","","","img/blue_2bandit_a2.png","70","","70","test","1","","46","","","","square","circle","45","19","2","0.9111111111111111","","","","","","","",""
"null","2830214","SARL_v6","SARL_v6xvkpqbg3","594a969df0ea1b0001558178","freq_resp","","","img/blue_2bandit_a.png","70","img/blue_2bandit_a.png","70","test","","","","","","","","","","","2","","","","","","","","",""
"null","2830380","SARL_v6","SARL_v6xvkpqbg3","594a969df0ea1b0001558178","fixation","","","img/fixation.png","null","","","test","","","","","","","","","","","","","","","","","","","",""
"298","2830680","SARL_v6","SARL_v6xvkpqbg3","594a969df0ea1b0001558178","freq","","","img/blue_2bandit_a2.png","70","","70","test","1","","47","","","","square","circle","46","20","2","0.9130434782608695","","","","","","","",""
"null","2831192","SARL_v6","SARL_v6xvkpqbg3","594a969df0ea1b0001558178","freq_resp","","","img/blue_2bandit_a.png","70","img/blue_2bandit_a.png","70","test","","","","","","","","","","","2","","","","","","","","",""
"null","2831348","SARL_v6","SARL_v6xvkpqbg3","594a969df0ea1b0001558178","fixation","","","img/fixation.png","null","","","test","","","","","","","","","","","","","","","","","","","",""
"265.2000000476837","2831615","SARL_v6","SARL_v6xvkpqbg3","594a969df0ea1b0001558178","freq","","","img/blue_2bandit_a2.png","70","","70","test","1","","48","","","","square","circle","47","21","2","0.9148936170212766","","","","","","","",""
"null","2832156","SARL_v6","SARL_v6xvkpqbg3","594a969df0ea1b0001558178","freq_resp","","","img/blue_2bandit_a.png","70","img/blue_2bandit_a.png","70","test","","","","","","","","","","","2","","","","","","","","",""
"null","2832314","SARL_v6","SARL_v6xvkpqbg3","594a969df0ea1b0001558178","fixation","","","img/fixation.png","null","","","test","","","","","","","","","","","","","","","","","","","",""
"629.6000001430511","2832946","SARL_v6","SARL_v6xvkpqbg3","594a969df0ea1b0001558178","rl","","","img/black_2bandit_a2.png","75","","0","test","","","49","","","-8","square","circle","","0","2","","75","-8","-5","-5","-8","circle","2","0"
"null","2833710","SARL_v6","SARL_v6xvkpqbg3","594a969df0ea1b0001558178","feedback","","","<div class=""verylowPoints""> -8 </div>","null","","na","test","","","NaN","","","","","","","","2","","75","","","","","","2",""
"539.3000001907349","2834252","SARL_v6","SARL_v6xvkpqbg3","594a969df0ea1b0001558178","freq","","","img/blue_2bandit_a2.png","70","","70","test","1","","50","","","","square","circle","48","1","3","0.9166666666666666","","","","","","","",""
"null","2834524","SARL_v6","SARL_v6xvkpqbg3","594a969df0ea1b0001558178","freq_resp","","","img/blue_2bandit_a.png","70","img/blue_2bandit_a.png","70","test","","","","","","","","","","","3","","","","","","","","",""
"null","2834681","SARL_v6","SARL_v6xvkpqbg3","594a969df0ea1b0001558178","fixation","","","img/fixation.png","null","","","test","","","","","","","","","","","","","","","","","","","",""
"388.60000014305115","2835072","SARL_v6","SARL_v6xvkpqbg3","594a969df0ea1b0001558178","freq","","","img/blue_2bandit_a2.png","70","","70","test","1","","51","","","","square","circle","49","2","3","0.9183673469387755","","","","","","","",""
"null","2835498","SARL_v6","SARL_v6xvkpqbg3","594a969df0ea1b0001558178","freq_resp","","","img/blue_2bandit_a.png","70","img/blue_2bandit_a.png","70","test","","","","","","","","","","","3","","","","","","","","",""
"null","2835665","SARL_v6","SARL_v6xvkpqbg3","594a969df0ea1b0001558178","fixation","","","img/fixation.png","null","","","test","","","","","","","","","","","","","","","","","","","",""
"291.80000019073486","2835959","SARL_v6","SARL_v6xvkpqbg3","594a969df0ea1b0001558178","freq","","","img/blue_2bandit_a2.png","70","","70","test","1","","52","","","","square","circle","50","3","3","0.92","","","","","","","",""
"null","2836475","SARL_v6","SARL_v6xvkpqbg3","594a969df0ea1b0001558178","freq_resp","","","img/blue_2bandit_a.png","70","img/blue_2bandit_a.png","70","test","","","","","","","","","","","3","","","","","","","","",""
"null","2836631","SARL_v6","SARL_v6xvkpqbg3","594a969df0ea1b0001558178","fixation","","","img/fixation.png","null","","","test","","","","","","","","","","","","","","","","","","","",""
"282.2999999523163","2836915","SARL_v6","SARL_v6xvkpqbg3","594a969df0ea1b0001558178","freq","","","img/blue_2bandit_a2.png","70","","70","test","1","","53","","","","square","circle","51","4","3","0.9215686274509803","","","","","","","",""
"null","2837441","SARL_v6","SARL_v6xvkpqbg3","594a969df0ea1b0001558178","freq_resp","","","img/blue_2bandit_a.png","70","img/blue_2bandit_a.png","70","test","","","","","","","","","","","3","","","","","","","","",""
"null","2837595","SARL_v6","SARL_v6xvkpqbg3","594a969df0ea1b0001558178","fixation","","","img/fixation.png","null","","","test","","","","","","","","","","","","","","","","","","","",""
"263.09999990463257","2837861","SARL_v6","SARL_v6xvkpqbg3","594a969df0ea1b0001558178","freq","","","img/blue_2bandit_a2.png","70","","70","test","1","","54","","","","square","circle","52","5","3","0.9230769230769231","","","","","","","",""
"null","2838406","SARL_v6","SARL_v6xvkpqbg3","594a969df0ea1b0001558178","freq_resp","","","img/blue_2bandit_a.png","70","img/blue_2bandit_a.png","70","test","","","","","","","","","","","3","","","","","","","","",""
"null","2838563","SARL_v6","SARL_v6xvkpqbg3","594a969df0ea1b0001558178","fixation","","","img/fixation.png","null","","","test","","","","","","","","","","","","","","","","","","","",""
"240.79999995231628","2838806","SARL_v6","SARL_v6xvkpqbg3","594a969df0ea1b0001558178","freq","","","img/blue_2bandit_a2.png","70","","70","test","1","","55","","","","square","circle","53","6","3","0.9245283018867925","","","","","","","",""
"null","2839372","SARL_v6","SARL_v6xvkpqbg3","594a969df0ea1b0001558178","freq_resp","","","img/blue_2bandit_a.png","70","img/blue_2bandit_a.png","70","test","","","","","","","","","","","3","","","","","","","","",""
"null","2839531","SARL_v6","SARL_v6xvkpqbg3","594a969df0ea1b0001558178","fixation","","","img/fixation.png","null","","","test","","","","","","","","","","","","","","","","","","","",""
"298.09999990463257","2839832","SARL_v6","SARL_v6xvkpqbg3","594a969df0ea1b0001558178","freq","","","img/blue_2bandit_a2.png","70","","70","test","1","","56","","","","square","circle","54","7","3","0.9259259259259259","","","","","","","",""
"null","2840344","SARL_v6","SARL_v6xvkpqbg3","594a969df0ea1b0001558178","freq_resp","","","img/blue_2bandit_a.png","70","img/blue_2bandit_a.png","70","test","","","","","","","","","","","3","","","","","","","","",""
"null","2840512","SARL_v6","SARL_v6xvkpqbg3","594a969df0ea1b0001558178","fixation","","","img/fixation.png","null","","","test","","","","","","","","","","","","","","","","","","","",""
"284.10000014305115","2840798","SARL_v6","SARL_v6xvkpqbg3","594a969df0ea1b0001558178","freq","","","img/blue_2bandit_a2.png","70","","70","test","1","","57","","","","square","circle","55","8","3","0.9272727272727272","","","","","","","",""
"null","2841324","SARL_v6","SARL_v6xvkpqbg3","594a969df0ea1b0001558178","freq_resp","","","img/blue_2bandit_a.png","70","img/blue_2bandit_a.png","70","test","","","","","","","","","","","3","","","","","","","","",""
"null","2841478","SARL_v6","SARL_v6xvkpqbg3","594a969df0ea1b0001558178","fixation","","","img/fixation.png","null","","","test","","","","","","","","","","","","","","","","","","","",""
"265.7999999523163","2841747","SARL_v6","SARL_v6xvkpqbg3","594a969df0ea1b0001558178","freq","","","img/blue_2bandit_a2.png","70","","70","test","1","","58","","","","square","circle","56","9","3","0.9285714285714286","","","","","","","",""
"null","2842289","SARL_v6","SARL_v6xvkpqbg3","594a969df0ea1b0001558178","freq_resp","","","img/blue_2bandit_a.png","70","img/blue_2bandit_a.png","70","test","","","","","","","","","","","3","","","","","","","","",""
"null","2842444","SARL_v6","SARL_v6xvkpqbg3","594a969df0ea1b0001558178","fixation","","","img/fixation.png","null","","","test","","","","","","","","","","","","","","","","","","","",""
"410.10000014305115","2842856","SARL_v6","SARL_v6xvkpqbg3","594a969df0ea1b0001558178","infreq","","","img/orange_2bandit_a2.png","68","","68","test","1","","59","","","","square","circle","57","10","3","0.9298245614035088","","","","","","","",""
"null","2843263","SARL_v6","SARL_v6xvkpqbg3","594a969df0ea1b0001558178","infreq_resp","","","img/orange_2bandit_a.png","68","img/orange_2bandit_a.png","68","test","","","","","","","","","","","3","","","","","","","","",""
"null","2843429","SARL_v6","SARL_v6xvkpqbg3","594a969df0ea1b0001558178","fixation","","","img/fixation.png","null","","","test","","","","","","","","","","","","","","","","","","","",""
"420.2999999523163","2843852","SARL_v6","SARL_v6xvkpqbg3","594a969df0ea1b0001558178","infreq","","","img/orange_2bandit_a2.png","68","","68","test","1","","60","","","","square","circle","58","11","3","0.9310344827586207","","","","","","","",""
"null","2844233","SARL_v6","SARL_v6xvkpqbg3","594a969df0ea1b0001558178","infreq_resp","","","img/orange_2bandit_a.png","68","img/orange_2bandit_a.png","68","test","","","","","","","","","","","3","","","","","","","","",""
"null","2844395","SARL_v6","SARL_v6xvkpqbg3","594a969df0ea1b0001558178","fixation","","","img/fixation.png","null","","","test","","","","","","","","","","","","","","","","","","","",""
"484.7999999523163","2844884","SARL_v6","SARL_v6xvkpqbg3","594a969df0ea1b0001558178","freq","","","img/blue_2bandit_a2.png","70","","70","test","1","","61","","","","square","circle","59","12","3","0.9322033898305084","","","","","","","",""
"null","2845203","SARL_v6","SARL_v6xvkpqbg3","594a969df0ea1b0001558178","freq_resp","","","img/blue_2bandit_a.png","70","img/blue_2bandit_a.png","70","test","","","","","","","","","","","3","","","","","","","","",""
"null","2845362","SARL_v6","SARL_v6xvkpqbg3","594a969df0ea1b0001558178","fixation","","","img/fixation.png","null","","","test","","","","","","","","","","","","","","","","","","","",""
"330.5","2845695","SARL_v6","SARL_v6xvkpqbg3","594a969df0ea1b0001558178","freq","","","img/blue_2bandit_a2.png","70","","70","test","1","","62","","","","square","circle","60","13","3","0.9333333333333333","","","","","","","",""
"null","2846175","SARL_v6","SARL_v6xvkpqbg3","594a969df0ea1b0001558178","freq_resp","","","img/blue_2bandit_a.png","70","img/blue_2bandit_a.png","70","test","","","","","","","","","","","3","","","","","","","","",""
"null","2846328","SARL_v6","SARL_v6xvkpqbg3","594a969df0ea1b0001558178","fixation","","","img/fixation.png","null","","","test","","","","","","","","","","","","","","","","","","","",""
"318.60000014305115","2846649","SARL_v6","SARL_v6xvkpqbg3","594a969df0ea1b0001558178","freq","","","img/blue_2bandit_a2.png","70","","70","test","1","","63","","","","square","circle","61","14","3","0.9344262295081968","","","","","","","",""
"null","2847142","SARL_v6","SARL_v6xvkpqbg3","594a969df0ea1b0001558178","freq_resp","","","img/blue_2bandit_a.png","70","img/blue_2bandit_a.png","70","test","","","","","","","","","","","3","","","","","","","","",""
"null","2847295","SARL_v6","SARL_v6xvkpqbg3","594a969df0ea1b0001558178","fixation","","","img/fixation.png","null","","","test","","","","","","","","","","","","","","","","","","","",""
"272.69999980926514","2847571","SARL_v6","SARL_v6xvkpqbg3","594a969df0ea1b0001558178","freq","","","img/blue_2bandit_a2.png","70","","70","test","1","","64","","","","square","circle","62","15","3","0.9354838709677419","","","","","","","",""
"null","2848108","SARL_v6","SARL_v6xvkpqbg3","594a969df0ea1b0001558178","freq_resp","","","img/blue_2bandit_a.png","70","img/blue_2bandit_a.png","70","test","","","","","","","","","","","3","","","","","","","","",""
"null","2848264","SARL_v6","SARL_v6xvkpqbg3","594a969df0ea1b0001558178","fixation","","","img/fixation.png","null","","","test","","","","","","","","","","","","","","","","","","","",""
"253.89999985694885","2848520","SARL_v6","SARL_v6xvkpqbg3","594a969df0ea1b0001558178","freq","","","img/blue_2bandit_a2.png","70","","70","test","1","","65","","","","square","circle","63","16","3","0.9365079365079365","","","","","","","",""
"null","2849071","SARL_v6","SARL_v6xvkpqbg3","594a969df0ea1b0001558178","freq_resp","","","img/blue_2bandit_a.png","70","img/blue_2bandit_a.png","70","test","","","","","","","","","","","3","","","","","","","","",""
"null","2849229","SARL_v6","SARL_v6xvkpqbg3","594a969df0ea1b0001558178","fixation","","","img/fixation.png","null","","","test","","","","","","","","","","","","","","","","","","","",""
"254.59999990463257","2849487","SARL_v6","SARL_v6xvkpqbg3","594a969df0ea1b0001558178","freq","","","img/blue_2bandit_a2.png","70","","70","test","1","","66","","","","square","circle","64","17","3","0.9375","","","","","","","",""
"null","2850037","SARL_v6","SARL_v6xvkpqbg3","594a969df0ea1b0001558178","freq_resp","","","img/blue_2bandit_a.png","70","img/blue_2bandit_a.png","70","test","","","","","","","","","","","3","","","","","","","","",""
"null","2850195","SARL_v6","SARL_v6xvkpqbg3","594a969df0ea1b0001558178","fixation","","","img/fixation.png","null","","","test","","","","","","","","","","","","","","","","","","","",""
"256.2999999523163","2850453","SARL_v6","SARL_v6xvkpqbg3","594a969df0ea1b0001558178","freq","","","img/blue_2bandit_a2.png","70","","70","test","1","","67","","","","square","circle","65","18","3","0.9384615384615385","","","","","","","",""
"null","2851007","SARL_v6","SARL_v6xvkpqbg3","594a969df0ea1b0001558178","freq_resp","","","img/blue_2bandit_a.png","70","img/blue_2bandit_a.png","70","test","","","","","","","","","","","3","","","","","","","","",""
"null","2851161","SARL_v6","SARL_v6xvkpqbg3","594a969df0ea1b0001558178","fixation","","","img/fixation.png","null","","","test","","","","","","","","","","","","","","","","","","","",""
"254.29999995231628","2851419","SARL_v6","SARL_v6xvkpqbg3","594a969df0ea1b0001558178","freq","","","img/blue_2bandit_a2.png","70","","70","test","1","","68","","","","square","circle","66","19","3","0.9393939393939394","","","","","","","",""
"null","2851972","SARL_v6","SARL_v6xvkpqbg3","594a969df0ea1b0001558178","freq_resp","","","img/blue_2bandit_a.png","70","img/blue_2bandit_a.png","70","test","","","","","","","","","","","3","","","","","","","","",""
"null","2852128","SARL_v6","SARL_v6xvkpqbg3","594a969df0ea1b0001558178","fixation","","","img/fixation.png","null","","","test","","","","","","","","","","","","","","","","","","","",""
"215","2852346","SARL_v6","SARL_v6xvkpqbg3","594a969df0ea1b0001558178","freq","","","img/blue_2bandit_a2.png","70","","70","test","1","","69","","","","square","circle","67","20","3","0.9402985074626866","","","","","","","",""
"null","2852945","SARL_v6","SARL_v6xvkpqbg3","594a969df0ea1b0001558178","freq_resp","","","img/blue_2bandit_a.png","70","img/blue_2bandit_a.png","70","test","","","","","","","","","","","3","","","","","","","","",""
"null","2853109","SARL_v6","SARL_v6xvkpqbg3","594a969df0ea1b0001558178","fixation","","","img/fixation.png","null","","","test","","","","","","","","","","","","","","","","","","","",""
"431.09999990463257","2853542","SARL_v6","SARL_v6xvkpqbg3","594a969df0ea1b0001558178","freq","","","img/blue_2bandit_a2.png","70","","70","test","1","","70","","","","square","circle","68","21","3","0.9411764705882353","","","","","","","",""
"null","2853914","SARL_v6","SARL_v6xvkpqbg3","594a969df0ea1b0001558178","freq_resp","","","img/blue_2bandit_a.png","70","img/blue_2bandit_a.png","70","test","","","","","","","","","","","3","","","","","","","","",""
"null","2854077","SARL_v6","SARL_v6xvkpqbg3","594a969df0ea1b0001558178","fixation","","","img/fixation.png","null","","","test","","","","","","","","","","","","","","","","","","","",""
"517.6000001430511","2854597","SARL_v6","SARL_v6xvkpqbg3","594a969df0ea1b0001558178","rl","","","img/black_2bandit_a2.png","75","","0","test","","","71","","","-8","square","circle","","0","3","","75","-8","-4","-4","-8","circle","3","0"
"null","2855357","SARL_v6","SARL_v6xvkpqbg3","594a969df0ea1b0001558178","feedback","","","<div class=""verylowPoints""> -8 </div>","null","","na","test","","","NaN","","","","","","","","3","","75","","","","","","3",""
"455.7000000476837","2855816","SARL_v6","SARL_v6xvkpqbg3","594a969df0ea1b0001558178","freq","","","img/blue_2bandit_a2.png","70","","70","test","1","","72","","","","square","circle","69","1","4","0.9420289855072463","","","","","","","",""
"null","2856167","SARL_v6","SARL_v6xvkpqbg3","594a969df0ea1b0001558178","freq_resp","","","img/blue_2bandit_a.png","70","img/blue_2bandit_a.png","70","test","","","","","","","","","","","4","","","","","","","","",""
"null","2856330","SARL_v6","SARL_v6xvkpqbg3","594a969df0ea1b0001558178","fixation","","","img/fixation.png","null","","","test","","","","","","","","","","","","","","","","","","","",""
"220","2856553","SARL_v6","SARL_v6xvkpqbg3","594a969df0ea1b0001558178","freq","","","img/blue_2bandit_a2.png","70","","70","test","1","","73","","","","square","circle","70","2","4","0.9428571428571428","","","","","","","",""
"null","2857151","SARL_v6","SARL_v6xvkpqbg3","594a969df0ea1b0001558178","freq_resp","","","img/blue_2bandit_a.png","70","img/blue_2bandit_a.png","70","test","","","","","","","","","","","4","","","","","","","","",""
"null","2857313","SARL_v6","SARL_v6xvkpqbg3","594a969df0ea1b0001558178","fixation","","","img/fixation.png","null","","","test","","","","","","","","","","","","","","","","","","","",""
"185.89999985694885","2857501","SARL_v6","SARL_v6xvkpqbg3","594a969df0ea1b0001558178","freq","","","img/blue_2bandit_a2.png","70","","70","test","1","","74","","","","square","circle","71","3","4","0.9436619718309859","","","","","","","",""
"null","2858131","SARL_v6","SARL_v6xvkpqbg3","594a969df0ea1b0001558178","freq_resp","","","img/blue_2bandit_a.png","70","img/blue_2bandit_a.png","70","test","","","","","","","","","","","4","","","","","","","","",""
"null","2858295","SARL_v6","SARL_v6xvkpqbg3","594a969df0ea1b0001558178","fixation","","","img/fixation.png","null","","","test","","","","","","","","","","","","","","","","","","","",""
"177.59999990463257","2858475","SARL_v6","SARL_v6xvkpqbg3","594a969df0ea1b0001558178","freq","","","img/blue_2bandit_a2.png","70","","70","test","1","","75","","","","square","circle","72","4","4","0.9444444444444444","","","","","","","",""
"null","2859102","SARL_v6","SARL_v6xvkpqbg3","594a969df0ea1b0001558178","freq_resp","","","img/blue_2bandit_a.png","70","img/blue_2bandit_a.png","70","test","","","","","","","","","","","4","","","","","","","","",""
"null","2859260","SARL_v6","SARL_v6xvkpqbg3","594a969df0ea1b0001558178","fixation","","","img/fixation.png","null","","","test","","","","","","","","","","","","","","","","","","","",""
"216.70000004768372","2859479","SARL_v6","SARL_v6xvkpqbg3","594a969df0ea1b0001558178","freq","","","img/blue_2bandit_a2.png","70","","70","test","1","","76","","","","square","circle","73","5","4","0.9452054794520548","","","","","","","",""
"null","2860067","SARL_v6","SARL_v6xvkpqbg3","594a969df0ea1b0001558178","freq_resp","","","img/blue_2bandit_a.png","70","img/blue_2bandit_a.png","70","test","","","","","","","","","","","4","","","","","","","","",""
"null","2860228","SARL_v6","SARL_v6xvkpqbg3","594a969df0ea1b0001558178","fixation","","","img/fixation.png","null","","","test","","","","","","","","","","","","","","","","","","","",""
"270.7999999523163","2860501","SARL_v6","SARL_v6xvkpqbg3","594a969df0ea1b0001558178","freq","","","img/blue_2bandit_a2.png","70","","70","test","1","","77","","","","square","circle","74","6","4","0.9459459459459459","","","","","","","",""
"null","2861039","SARL_v6","SARL_v6xvkpqbg3","594a969df0ea1b0001558178","freq_resp","","","img/blue_2bandit_a.png","70","img/blue_2bandit_a.png","70","test","","","","","","","","","","","4","","","","","","","","",""
"null","2861195","SARL_v6","SARL_v6xvkpqbg3","594a969df0ea1b0001558178","fixation","","","img/fixation.png","null","","","test","","","","","","","","","","","","","","","","","","","",""
"387.7000000476837","2861585","SARL_v6","SARL_v6xvkpqbg3","594a969df0ea1b0001558178","infreq","","","img/orange_2bandit_a2.png","68","","68","test","1","","78","","","","square","circle","75","7","4","0.9466666666666667","","","","","","","",""
"null","2862012","SARL_v6","SARL_v6xvkpqbg3","594a969df0ea1b0001558178","infreq_resp","","","img/orange_2bandit_a.png","68","img/orange_2bandit_a.png","68","test","","","","","","","","","","","4","","","","","","","","",""
"null","2862179","SARL_v6","SARL_v6xvkpqbg3","594a969df0ea1b0001558178","fixation","","","img/fixation.png","null","","","test","","","","","","","","","","","","","","","","","","","",""
"284.5","2862465","SARL_v6","SARL_v6xvkpqbg3","594a969df0ea1b0001558178","freq","","","img/blue_2bandit_a2.png","70","","70","test","1","","79","","","","square","circle","76","8","4","0.9473684210526315","","","","","","","",""
"null","2862989","SARL_v6","SARL_v6xvkpqbg3","594a969df0ea1b0001558178","freq_resp","","","img/blue_2bandit_a.png","70","img/blue_2bandit_a.png","70","test","","","","","","","","","","","4","","","","","","","","",""
"null","2863145","SARL_v6","SARL_v6xvkpqbg3","594a969df0ea1b0001558178","fixation","","","img/fixation.png","null","","","test","","","","","","","","","","","","","","","","","","","",""
"293.7999999523163","2863442","SARL_v6","SARL_v6xvkpqbg3","594a969df0ea1b0001558178","freq","","","img/blue_2bandit_a2.png","70","","70","test","1","","80","","","","square","circle","77","9","4","0.948051948051948","","","","","","","",""
"null","2863965","SARL_v6","SARL_v6xvkpqbg3","594a969df0ea1b0001558178","freq_resp","","","img/blue_2bandit_a.png","70","img/blue_2bandit_a.png","70","test","","","","","","","","","","","4","","","","","","","","",""
"null","2864128","SARL_v6","SARL_v6xvkpqbg3","594a969df0ea1b0001558178","fixation","","","img/fixation.png","null","","","test","","","","","","","","","","","","","","","","","","","",""
"331.5","2864461","SARL_v6","SARL_v6xvkpqbg3","594a969df0ea1b0001558178","freq","","","img/blue_2bandit_a2.png","68","","70","test","0","","81","","","","square","circle","78","10","4","0.9358974358974359","","","","","","","",""
"null","2864932","SARL_v6","SARL_v6xvkpqbg3","594a969df0ea1b0001558178","freq_resp","","","img/blue_2bandit_a.png","68","img/blue_2bandit_a.png","70","test","","","","","","","","","","","4","","","","","","","","",""
"null","2865096","SARL_v6","SARL_v6xvkpqbg3","594a969df0ea1b0001558178","fixation","","","img/fixation.png","null","","","test","","","","","","","","","","","","","","","","","","","",""
"325.10000014305115","2865423","SARL_v6","SARL_v6xvkpqbg3","594a969df0ea1b0001558178","freq","","","img/blue_2bandit_a2.png","70","","70","test","1","","82","","","","square","circle","79","11","4","0.9367088607594937","","","","","","","",""
"null","2865913","SARL_v6","SARL_v6xvkpqbg3","594a969df0ea1b0001558178","freq_resp","","","img/blue_2bandit_a.png","70","img/blue_2bandit_a.png","70","test","","","","","","","","","","","4","","","","","","","","",""
"null","2866079","SARL_v6","SARL_v6xvkpqbg3","594a969df0ea1b0001558178","fixation","","","img/fixation.png","null","","","test","","","","","","","","","","","","","","","","","","","",""
"277.30000019073486","2866359","SARL_v6","SARL_v6xvkpqbg3","594a969df0ea1b0001558178","freq","","","img/blue_2bandit_a2.png","70","","70","test","1","","83","","","","square","circle","80","12","4","0.9375","","","","","","","",""
"null","2866893","SARL_v6","SARL_v6xvkpqbg3","594a969df0ea1b0001558178","freq_resp","","","img/blue_2bandit_a.png","70","img/blue_2bandit_a.png","70","test","","","","","","","","","","","4","","","","","","","","",""
"null","2867062","SARL_v6","SARL_v6xvkpqbg3","594a969df0ea1b0001558178","fixation","","","img/fixation.png","null","","","test","","","","","","","","","","","","","","","","","","","",""
"267.59999990463257","2867331","SARL_v6","SARL_v6xvkpqbg3","594a969df0ea1b0001558178","freq","","","img/blue_2bandit_a2.png","70","","70","test","1","","84","","","","square","circle","81","13","4","0.9382716049382716","","","","","","","",""
"null","2867876","SARL_v6","SARL_v6xvkpqbg3","594a969df0ea1b0001558178","freq_resp","","","img/blue_2bandit_a.png","70","img/blue_2bandit_a.png","70","test","","","","","","","","","","","4","","","","","","","","",""
"null","2868044","SARL_v6","SARL_v6xvkpqbg3","594a969df0ea1b0001558178","fixation","","","img/fixation.png","null","","","test","","","","","","","","","","","","","","","","","","","",""
"383.5","2868429","SARL_v6","SARL_v6xvkpqbg3","594a969df0ea1b0001558178","infreq","","","img/orange_2bandit_a2.png","68","","68","test","1","","85","","","","square","circle","82","14","4","0.9390243902439024","","","","","","","",""
"null","2868861","SARL_v6","SARL_v6xvkpqbg3","594a969df0ea1b0001558178","infreq_resp","","","img/orange_2bandit_a.png","68","img/orange_2bandit_a.png","68","test","","","","","","","","","","","4","","","","","","","","",""
"null","2869026","SARL_v6","SARL_v6xvkpqbg3","594a969df0ea1b0001558178","fixation","","","img/fixation.png","null","","","test","","","","","","","","","","","","","","","","","","","",""
"344.2000000476837","2869373","SARL_v6","SARL_v6xvkpqbg3","594a969df0ea1b0001558178","freq","","","img/blue_2bandit_a2.png","70","","70","test","1","","86","","","","square","circle","83","15","4","0.9397590361445783","","","","","","","",""
"null","2869842","SARL_v6","SARL_v6xvkpqbg3","594a969df0ea1b0001558178","freq_resp","","","img/blue_2bandit_a.png","70","img/blue_2bandit_a.png","70","test","","","","","","","","","","","4","","","","","","","","",""
"null","2870010","SARL_v6","SARL_v6xvkpqbg3","594a969df0ea1b0001558178","fixation","","","img/fixation.png","null","","","test","","","","","","","","","","","","","","","","","","","",""
"369.2000000476837","2870381","SARL_v6","SARL_v6xvkpqbg3","594a969df0ea1b0001558178","freq","","","img/blue_2bandit_a2.png","70","","70","test","1","","87","","","","square","circle","84","16","4","0.9404761904761905","","","","","","","",""
"null","2870828","SARL_v6","SARL_v6xvkpqbg3","594a969df0ea1b0001558178","freq_resp","","","img/blue_2bandit_a.png","70","img/blue_2bandit_a.png","70","test","","","","","","","","","","","4","","","","","","","","",""
"null","2870993","SARL_v6","SARL_v6xvkpqbg3","594a969df0ea1b0001558178","fixation","","","img/fixation.png","null","","","test","","","","","","","","","","","","","","","","","","","",""
"281.5","2871277","SARL_v6","SARL_v6xvkpqbg3","594a969df0ea1b0001558178","freq","","","img/blue_2bandit_a2.png","70","","70","test","1","","88","","","","square","circle","85","17","4","0.9411764705882353","","","","","","","",""
"null","2871800","SARL_v6","SARL_v6xvkpqbg3","594a969df0ea1b0001558178","freq_resp","","","img/blue_2bandit_a.png","70","img/blue_2bandit_a.png","70","test","","","","","","","","","","","4","","","","","","","","",""
"null","2871961","SARL_v6","SARL_v6xvkpqbg3","594a969df0ea1b0001558178","fixation","","","img/fixation.png","null","","","test","","","","","","","","","","","","","","","","","","","",""
"256.5","2872220","SARL_v6","SARL_v6xvkpqbg3","594a969df0ea1b0001558178","freq","","","img/blue_2bandit_a2.png","70","","70","test","1","","89","","","","square","circle","86","18","4","0.9418604651162791","","","","","","","",""
"null","2872770","SARL_v6","SARL_v6xvkpqbg3","594a969df0ea1b0001558178","freq_resp","","","img/blue_2bandit_a.png","70","img/blue_2bandit_a.png","70","test","","","","","","","","","","","4","","","","","","","","",""
"null","2872928","SARL_v6","SARL_v6xvkpqbg3","594a969df0ea1b0001558178","fixation","","","img/fixation.png","null","","","test","","","","","","","","","","","","","","","","","","","",""
"249.5","2873180","SARL_v6","SARL_v6xvkpqbg3","594a969df0ea1b0001558178","freq","","","img/blue_2bandit_a2.png","70","","70","test","1","","90","","","","square","circle","87","19","4","0.9425287356321839","","","","","","","",""
"null","2873738","SARL_v6","SARL_v6xvkpqbg3","594a969df0ea1b0001558178","freq_resp","","","img/blue_2bandit_a.png","70","img/blue_2bandit_a.png","70","test","","","","","","","","","","","4","","","","","","","","",""
"null","2873895","SARL_v6","SARL_v6xvkpqbg3","594a969df0ea1b0001558178","fixation","","","img/fixation.png","null","","","test","","","","","","","","","","","","","","","","","","","",""
"265.59999990463257","2874162","SARL_v6","SARL_v6xvkpqbg3","594a969df0ea1b0001558178","freq","","","img/blue_2bandit_a2.png","70","","70","test","1","","91","","","","square","circle","88","20","4","0.9431818181818182","","","","","","","",""
"null","2874709","SARL_v6","SARL_v6xvkpqbg3","594a969df0ea1b0001558178","freq_resp","","","img/blue_2bandit_a.png","70","img/blue_2bandit_a.png","70","test","","","","","","","","","","","4","","","","","","","","",""
"null","2874877","SARL_v6","SARL_v6xvkpqbg3","594a969df0ea1b0001558178","fixation","","","img/fixation.png","null","","","test","","","","","","","","","","","","","","","","","","","",""
"250.10000014305115","2875128","SARL_v6","SARL_v6xvkpqbg3","594a969df0ea1b0001558178","freq","","","img/blue_2bandit_a2.png","70","","70","test","1","","92","","","","square","circle","89","21","4","0.9438202247191011","","","","","","","",""
"null","2875692","SARL_v6","SARL_v6xvkpqbg3","594a969df0ea1b0001558178","freq_resp","","","img/blue_2bandit_a.png","70","img/blue_2bandit_a.png","70","test","","","","","","","","","","","4","","","","","","","","",""
"null","2875860","SARL_v6","SARL_v6xvkpqbg3","594a969df0ea1b0001558178","fixation","","","img/fixation.png","null","","","test","","","","","","","","","","","","","","","","","","","",""
"525.9000000953674","2876388","SARL_v6","SARL_v6xvkpqbg3","594a969df0ea1b0001558178","rl","","","img/black_2bandit_a2.png","75","","0","test","","","93","","","-12","square","circle","","0","4","","75","-12","0","0","-12","circle","4","0"
"null","2877147","SARL_v6","SARL_v6xvkpqbg3","594a969df0ea1b0001558178","feedback","","","<div class=""verylowPoints""> -12 </div>","null","","na","test","","","NaN","","","","","","","","4","","75","","","","","","4",""
"373.7000000476837","2877523","SARL_v6","SARL_v6xvkpqbg3","594a969df0ea1b0001558178","freq","","","img/blue_2bandit_a2.png","70","","70","test","1","","94","","","","square","circle","90","1","5","0.9444444444444444","","","","","","","",""
"null","2877960","SARL_v6","SARL_v6xvkpqbg3","594a969df0ea1b0001558178","freq_resp","","","img/blue_2bandit_a.png","70","img/blue_2bandit_a.png","70","test","","","","","","","","","","","5","","","","","","","","",""
"null","2878127","SARL_v6","SARL_v6xvkpqbg3","594a969df0ea1b0001558178","fixation","","","img/fixation.png","null","","","test","","","","","","","","","","","","","","","","","","","",""
"341.5","2878470","SARL_v6","SARL_v6xvkpqbg3","594a969df0ea1b0001558178","freq","","","img/blue_2bandit_a2.png","70","","70","test","1","","95","","","","square","circle","91","2","5","0.945054945054945","","","","","","","",""
"null","2878941","SARL_v6","SARL_v6xvkpqbg3","594a969df0ea1b0001558178","freq_resp","","","img/blue_2bandit_a.png","70","img/blue_2bandit_a.png","70","test","","","","","","","","","","","5","","","","","","","","",""
"null","2879095","SARL_v6","SARL_v6xvkpqbg3","594a969df0ea1b0001558178","fixation","","","img/fixation.png","null","","","test","","","","","","","","","","","","","","","","","","","",""
"290.09999990463257","2879387","SARL_v6","SARL_v6xvkpqbg3","594a969df0ea1b0001558178","freq","","","img/blue_2bandit_a2.png","70","","70","test","1","","96","","","","square","circle","92","3","5","0.9456521739130435","","","","","","","",""
"null","2879913","SARL_v6","SARL_v6xvkpqbg3","594a969df0ea1b0001558178","freq_resp","","","img/blue_2bandit_a.png","70","img/blue_2bandit_a.png","70","test","","","","","","","","","","","5","","","","","","","","",""
"null","2880082","SARL_v6","SARL_v6xvkpqbg3","594a969df0ea1b0001558178","fixation","","","img/fixation.png","null","","","test","","","","","","","","","","","","","","","","","","","",""
"294.09999990463257","2880379","SARL_v6","SARL_v6xvkpqbg3","594a969df0ea1b0001558178","freq","","","img/blue_2bandit_a2.png","70","","70","test","1","","97","","","","square","circle","93","4","5","0.946236559139785","","","","","","","",""
"null","2880890","SARL_v6","SARL_v6xvkpqbg3","594a969df0ea1b0001558178","freq_resp","","","img/blue_2bandit_a.png","70","img/blue_2bandit_a.png","70","test","","","","","","","","","","","5","","","","","","","","",""
"null","2881046","SARL_v6","SARL_v6xvkpqbg3","594a969df0ea1b0001558178","fixation","","","img/fixation.png","null","","","test","","","","","","","","","","","","","","","","","","","",""
"252.5","2881301","SARL_v6","SARL_v6xvkpqbg3","594a969df0ea1b0001558178","infreq","","","img/orange_2bandit_a2.png","70","","68","test","0","","98","","","","square","circle","94","5","5","0.9361702127659575","","","","","","","",""
"null","2881855","SARL_v6","SARL_v6xvkpqbg3","594a969df0ea1b0001558178","infreq_resp","","","img/orange_2bandit_a.png","70","img/orange_2bandit_a.png","68","test","","","","","","","","","","","5","","","","","","","","",""
"null","2882016","SARL_v6","SARL_v6xvkpqbg3","594a969df0ea1b0001558178","fixation","","","img/fixation.png","null","","","test","","","","","","","","","","","","","","","","","","","",""
"380.5","2882399","SARL_v6","SARL_v6xvkpqbg3","594a969df0ea1b0001558178","infreq","","","img/orange_2bandit_a2.png","68","","68","test","1","","99","","","","square","circle","95","6","5","0.9368421052631579","","","","","","","",""
"null","2882830","SARL_v6","SARL_v6xvkpqbg3","594a969df0ea1b0001558178","infreq_resp","","","img/orange_2bandit_a.png","68","img/orange_2bandit_a.png","68","test","","","","","","","","","","","5","","","","","","","","",""
"null","2882984","SARL_v6","SARL_v6xvkpqbg3","594a969df0ea1b0001558178","fixation","","","img/fixation.png","null","","","test","","","","","","","","","","","","","","","","","","","",""
"348.90000009536743","2883335","SARL_v6","SARL_v6xvkpqbg3","594a969df0ea1b0001558178","freq","","","img/blue_2bandit_a2.png","70","","70","test","1","","100","","","","square","circle","96","7","5","0.9375","","","","","","","",""
"null","2883793","SARL_v6","SARL_v6xvkpqbg3","594a969df0ea1b0001558178","freq_resp","","","img/blue_2bandit_a.png","70","img/blue_2bandit_a.png","70","test","","","","","","","","","","","5","","","","","","","","",""
"null","2883959","SARL_v6","SARL_v6xvkpqbg3","594a969df0ea1b0001558178","fixation","","","img/fixation.png","null","","","test","","","","","","","","","","","","","","","","","","","",""
"293.7000000476837","2884256","SARL_v6","SARL_v6xvkpqbg3","594a969df0ea1b0001558178","freq","","","img/blue_2bandit_a2.png","70","","70","test","1","","101","","","","square","circle","97","8","5","0.9381443298969072","","","","","","","",""
"null","2884771","SARL_v6","SARL_v6xvkpqbg3","594a969df0ea1b0001558178","freq_resp","","","img/blue_2bandit_a.png","70","img/blue_2bandit_a.png","70","test","","","","","","","","","","","5","","","","","","","","",""
"null","2884927","SARL_v6","SARL_v6xvkpqbg3","594a969df0ea1b0001558178","fixation","","","img/fixation.png","null","","","test","","","","","","","","","","","","","","","","","","","",""
"282","2885211","SARL_v6","SARL_v6xvkpqbg3","594a969df0ea1b0001558178","freq","","","img/blue_2bandit_a2.png","70","","70","test","1","","102","","","","square","circle","98","9","5","0.9387755102040817","","","","","","","",""
"null","2885736","SARL_v6","SARL_v6xvkpqbg3","594a969df0ea1b0001558178","freq_resp","","","img/blue_2bandit_a.png","70","img/blue_2bandit_a.png","70","test","","","","","","","","","","","5","","","","","","","","",""
"null","2885893","SARL_v6","SARL_v6xvkpqbg3","594a969df0ea1b0001558178","fixation","","","img/fixation.png","null","","","test","","","","","","","","","","","","","","","","","","","",""
"274.59999990463257","2886169","SARL_v6","SARL_v6xvkpqbg3","594a969df0ea1b0001558178","freq","","","img/blue_2bandit_a2.png","70","","70","test","1","","103","","","","square","circle","99","10","5","0.9393939393939394","","","","","","","",""
"null","2886705","SARL_v6","SARL_v6xvkpqbg3","594a969df0ea1b0001558178","freq_resp","","","img/blue_2bandit_a.png","70","img/blue_2bandit_a.png","70","test","","","","","","","","","","","5","","","","","","","","",""
"null","2886860","SARL_v6","SARL_v6xvkpqbg3","594a969df0ea1b0001558178","fixation","","","img/fixation.png","null","","","test","","","","","","","","","","","","","","","","","","","",""
"272","2887134","SARL_v6","SARL_v6xvkpqbg3","594a969df0ea1b0001558178","freq","","","img/blue_2bandit_a2.png","70","","70","test","1","","104","","","","square","circle","100","11","5","0.94","","","","","","","",""
"null","2887670","SARL_v6","SARL_v6xvkpqbg3","594a969df0ea1b0001558178","freq_resp","","","img/blue_2bandit_a.png","70","img/blue_2bandit_a.png","70","test","","","","","","","","","","","5","","","","","","","","",""
"null","2887827","SARL_v6","SARL_v6xvkpqbg3","594a969df0ea1b0001558178","fixation","","","img/fixation.png","null","","","test","","","","","","","","","","","","","","","","","","","",""
"285.90000009536743","2888115","SARL_v6","SARL_v6xvkpqbg3","594a969df0ea1b0001558178","freq","","","img/blue_2bandit_a2.png","70","","70","test","1","","105","","","","square","circle","101","12","5","0.9405940594059405","","","","","","","",""
"null","2888638","SARL_v6","SARL_v6xvkpqbg3","594a969df0ea1b0001558178","freq_resp","","","img/blue_2bandit_a.png","70","img/blue_2bandit_a.png","70","test","","","","","","","","","","","5","","","","","","","","",""
"null","2888794","SARL_v6","SARL_v6xvkpqbg3","594a969df0ea1b0001558178","fixation","","","img/fixation.png","null","","","test","","","","","","","","","","","","","","","","","","","",""
"297","2889093","SARL_v6","SARL_v6xvkpqbg3","594a969df0ea1b0001558178","freq","","","img/blue_2bandit_a2.png","70","","70","test","1","","106","","","","square","circle","102","13","5","0.9411764705882353","","","","","","","",""
"null","2889605","SARL_v6","SARL_v6xvkpqbg3","594a969df0ea1b0001558178","freq_resp","","","img/blue_2bandit_a.png","70","img/blue_2bandit_a.png","70","test","","","","","","","","","","","5","","","","","","","","",""
"null","2889760","SARL_v6","SARL_v6xvkpqbg3","594a969df0ea1b0001558178","fixation","","","img/fixation.png","null","","","test","","","","","","","","","","","","","","","","","","","",""
"293","2890056","SARL_v6","SARL_v6xvkpqbg3","594a969df0ea1b0001558178","freq","","","img/blue_2bandit_a2.png","70","","70","test","1","","107","","","","square","circle","103","14","5","0.941747572815534","","","","","","","",""
"null","2890571","SARL_v6","SARL_v6xvkpqbg3","594a969df0ea1b0001558178","freq_resp","","","img/blue_2bandit_a.png","70","img/blue_2bandit_a.png","70","test","","","","","","","","","","","5","","","","","","","","",""
"null","2890727","SARL_v6","SARL_v6xvkpqbg3","594a969df0ea1b0001558178","fixation","","","img/fixation.png","null","","","test","","","","","","","","","","","","","","","","","","","",""
"280.7000000476837","2891010","SARL_v6","SARL_v6xvkpqbg3","594a969df0ea1b0001558178","freq","","","img/blue_2bandit_a2.png","70","","70","test","1","","108","","","","square","circle","104","15","5","0.9423076923076923","","","","","","","",""
"null","2891537","SARL_v6","SARL_v6xvkpqbg3","594a969df0ea1b0001558178","freq_resp","","","img/blue_2bandit_a.png","70","img/blue_2bandit_a.png","70","test","","","","","","","","","","","5","","","","","","","","",""
"null","2891694","SARL_v6","SARL_v6xvkpqbg3","594a969df0ea1b0001558178","fixation","","","img/fixation.png","null","","","test","","","","","","","","","","","","","","","","","","","",""
"336.19999980926514","2892033","SARL_v6","SARL_v6xvkpqbg3","594a969df0ea1b0001558178","freq","","","img/blue_2bandit_a2.png","70","","70","test","1","","109","","","","square","circle","105","16","5","0.9428571428571428","","","","","","","",""
"null","2892506","SARL_v6","SARL_v6xvkpqbg3","594a969df0ea1b0001558178","freq_resp","","","img/blue_2bandit_a.png","70","img/blue_2bandit_a.png","70","test","","","","","","","","","","","5","","","","","","","","",""
"null","2892660","SARL_v6","SARL_v6xvkpqbg3","594a969df0ea1b0001558178","fixation","","","img/fixation.png","null","","","test","","","","","","","","","","","","","","","","","","","",""
"338.7000000476837","2893001","SARL_v6","SARL_v6xvkpqbg3","594a969df0ea1b0001558178","freq","","","img/blue_2bandit_a2.png","70","","70","test","1","","110","","","","square","circle","106","17","5","0.9433962264150944","","","","","","","",""
"null","2893473","SARL_v6","SARL_v6xvkpqbg3","594a969df0ea1b0001558178","freq_resp","","","img/blue_2bandit_a.png","70","img/blue_2bandit_a.png","70","test","","","","","","","","","","","5","","","","","","","","",""
"null","2893627","SARL_v6","SARL_v6xvkpqbg3","594a969df0ea1b0001558178","fixation","","","img/fixation.png","null","","","test","","","","","","","","","","","","","","","","","","","",""
"285.7999999523163","2893916","SARL_v6","SARL_v6xvkpqbg3","594a969df0ea1b0001558178","freq","","","img/blue_2bandit_a2.png","70","","70","test","1","","111","","","","square","circle","107","18","5","0.9439252336448598","","","","","","","",""
"null","2894441","SARL_v6","SARL_v6xvkpqbg3","594a969df0ea1b0001558178","freq_resp","","","img/blue_2bandit_a.png","70","img/blue_2bandit_a.png","70","test","","","","","","","","","","","5","","","","","","","","",""
"null","2894609","SARL_v6","SARL_v6xvkpqbg3","594a969df0ea1b0001558178","fixation","","","img/fixation.png","null","","","test","","","","","","","","","","","","","","","","","","","",""
"276.09999990463257","2894888","SARL_v6","SARL_v6xvkpqbg3","594a969df0ea1b0001558178","freq","","","img/blue_2bandit_a2.png","70","","70","test","1","","112","","","","square","circle","108","19","5","0.9444444444444444","","","","","","","",""
"null","2895419","SARL_v6","SARL_v6xvkpqbg3","594a969df0ea1b0001558178","freq_resp","","","img/blue_2bandit_a.png","70","img/blue_2bandit_a.png","70","test","","","","","","","","","","","5","","","","","","","","",""
"null","2895577","SARL_v6","SARL_v6xvkpqbg3","594a969df0ea1b0001558178","fixation","","","img/fixation.png","null","","","test","","","","","","","","","","","","","","","","","","","",""
"245.5","2895825","SARL_v6","SARL_v6xvkpqbg3","594a969df0ea1b0001558178","freq","","","img/blue_2bandit_a2.png","70","","70","test","1","","113","","","","square","circle","109","20","5","0.944954128440367","","","","","","","",""
"null","2896385","SARL_v6","SARL_v6xvkpqbg3","594a969df0ea1b0001558178","freq_resp","","","img/blue_2bandit_a.png","70","img/blue_2bandit_a.png","70","test","","","","","","","","","","","5","","","","","","","","",""
"null","2896544","SARL_v6","SARL_v6xvkpqbg3","594a969df0ea1b0001558178","fixation","","","img/fixation.png","null","","","test","","","","","","","","","","","","","","","","","","","",""
"277.2999999523163","2896824","SARL_v6","SARL_v6xvkpqbg3","594a969df0ea1b0001558178","freq","","","img/blue_2bandit_a2.png","70","","70","test","1","","114","","","","square","circle","110","21","5","0.9454545454545454","","","","","","","",""
"null","2897354","SARL_v6","SARL_v6xvkpqbg3","594a969df0ea1b0001558178","freq_resp","","","img/blue_2bandit_a.png","70","img/blue_2bandit_a.png","70","test","","","","","","","","","","","5","","","","","","","","",""
"null","2897510","SARL_v6","SARL_v6xvkpqbg3","594a969df0ea1b0001558178","fixation","","","img/fixation.png","null","","","test","","","","","","","","","","","","","","","","","","","",""
"291.7000000476837","2897804","SARL_v6","SARL_v6xvkpqbg3","594a969df0ea1b0001558178","freq","","","img/blue_2bandit_a2.png","70","","70","test","1","","115","","","","square","circle","111","22","5","0.9459459459459459","","","","","","","",""
"null","2898321","SARL_v6","SARL_v6xvkpqbg3","594a969df0ea1b0001558178","freq_resp","","","img/blue_2bandit_a.png","70","img/blue_2bandit_a.png","70","test","","","","","","","","","","","5","","","","","","","","",""
"null","2898477","SARL_v6","SARL_v6xvkpqbg3","594a969df0ea1b0001558178","fixation","","","img/fixation.png","null","","","test","","","","","","","","","","","","","","","","","","","",""
"291.7999999523163","2898771","SARL_v6","SARL_v6xvkpqbg3","594a969df0ea1b0001558178","freq","","","img/blue_2bandit_a2.png","70","","70","test","1","","116","","","","square","circle","112","23","5","0.9464285714285714","","","","","","","",""
"null","2899290","SARL_v6","SARL_v6xvkpqbg3","594a969df0ea1b0001558178","freq_resp","","","img/blue_2bandit_a.png","70","img/blue_2bandit_a.png","70","test","","","","","","","","","","","5","","","","","","","","",""
"null","2899444","SARL_v6","SARL_v6xvkpqbg3","594a969df0ea1b0001558178","fixation","","","img/fixation.png","null","","","test","","","","","","","","","","","","","","","","","","","",""
"395","2899841","SARL_v6","SARL_v6xvkpqbg3","594a969df0ea1b0001558178","infreq","","","img/orange_2bandit_a2.png","68","","68","test","1","","117","","","","square","circle","113","24","5","0.9469026548672567","","","","","","","",""
"null","2900255","SARL_v6","SARL_v6xvkpqbg3","594a969df0ea1b0001558178","infreq_resp","","","img/orange_2bandit_a.png","68","img/orange_2bandit_a.png","68","test","","","","","","","","","","","5","","","","","","","","",""
"null","2900410","SARL_v6","SARL_v6xvkpqbg3","594a969df0ea1b0001558178","fixation","","","img/fixation.png","null","","","test","","","","","","","","","","","","","","","","","","","",""
"347","2900759","SARL_v6","SARL_v6xvkpqbg3","594a969df0ea1b0001558178","freq","","","img/blue_2bandit_a2.png","70","","70","test","1","","118","","","","square","circle","114","25","5","0.9473684210526315","","","","","","","",""
"null","2901224","SARL_v6","SARL_v6xvkpqbg3","594a969df0ea1b0001558178","freq_resp","","","img/blue_2bandit_a.png","70","img/blue_2bandit_a.png","70","test","","","","","","","","","","","5","","","","","","","","",""
"null","2901392","SARL_v6","SARL_v6xvkpqbg3","594a969df0ea1b0001558178","fixation","","","img/fixation.png","null","","","test","","","","","","","","","","","","","","","","","","","",""
"555.0999999046326","2901949","SARL_v6","SARL_v6xvkpqbg3","594a969df0ea1b0001558178","rl","","","img/black_2bandit_a2.png","75","","0","test","","","119","","","-7","square","circle","","0","5","","75","-7","4","4","-7","circle","5","0"
"null","2902709","SARL_v6","SARL_v6xvkpqbg3","594a969df0ea1b0001558178","feedback","","","<div class=""verylowPoints""> -7 </div>","null","","na","test","","","NaN","","","","","","","","5","","75","","","","","","5",""
"374.60000014305115","2903086","SARL_v6","SARL_v6xvkpqbg3","594a969df0ea1b0001558178","freq","","","img/blue_2bandit_a2.png","70","","70","test","1","","120","","","","square","circle","115","1","6","0.9478260869565217","","","","","","","",""
"null","2903514","SARL_v6","SARL_v6xvkpqbg3","594a969df0ea1b0001558178","freq_resp","","","img/blue_2bandit_a.png","70","img/blue_2bandit_a.png","70","test","","","","","","","","","","","6","","","","","","","","",""
"null","2903677","SARL_v6","SARL_v6xvkpqbg3","594a969df0ea1b0001558178","fixation","","","img/fixation.png","null","","","test","","","","","","","","","","","","","","","","","","","",""
"400","2904079","SARL_v6","SARL_v6xvkpqbg3","594a969df0ea1b0001558178","freq","","","img/blue_2bandit_a2.png","70","","70","test","1","","121","","","","square","circle","116","2","6","0.9482758620689655","","","","","","","",""
"null","2904495","SARL_v6","SARL_v6xvkpqbg3","594a969df0ea1b0001558178","freq_resp","","","img/blue_2bandit_a.png","70","img/blue_2bandit_a.png","70","test","","","","","","","","","","","6","","","","","","","","",""
"null","2904662","SARL_v6","SARL_v6xvkpqbg3","594a969df0ea1b0001558178","fixation","","","img/fixation.png","null","","","test","","","","","","","","","","","","","","","","","","","",""
"269.60000014305115","2904933","SARL_v6","SARL_v6xvkpqbg3","594a969df0ea1b0001558178","freq","","","img/blue_2bandit_a2.png","70","","70","test","1","","122","","","","square","circle","117","3","6","0.9487179487179487","","","","","","","",""
"null","2905472","SARL_v6","SARL_v6xvkpqbg3","594a969df0ea1b0001558178","freq_resp","","","img/blue_2bandit_a.png","70","img/blue_2bandit_a.png","70","test","","","","","","","","","","","6","","","","","","","","",""
"null","2905627","SARL_v6","SARL_v6xvkpqbg3","594a969df0ea1b0001558178","fixation","","","img/fixation.png","null","","","test","","","","","","","","","","","","","","","","","","","",""
"312.5","2905943","SARL_v6","SARL_v6xvkpqbg3","594a969df0ea1b0001558178","freq","","","img/blue_2bandit_a2.png","70","","70","test","1","","123","","","","square","circle","118","4","6","0.9491525423728814","","","","","","","",""
"null","2906439","SARL_v6","SARL_v6xvkpqbg3","594a969df0ea1b0001558178","freq_resp","","","img/blue_2bandit_a.png","70","img/blue_2bandit_a.png","70","test","","","","","","","","","","","6","","","","","","","","",""
"null","2906594","SARL_v6","SARL_v6xvkpqbg3","594a969df0ea1b0001558178","fixation","","","img/fixation.png","null","","","test","","","","","","","","","","","","","","","","","","","",""
"297.90000009536743","2906894","SARL_v6","SARL_v6xvkpqbg3","594a969df0ea1b0001558178","freq","","","img/blue_2bandit_a2.png","70","","70","test","1","","124","","","","square","circle","119","5","6","0.9495798319327731","","","","","","","",""
"null","2907404","SARL_v6","SARL_v6xvkpqbg3","594a969df0ea1b0001558178","freq_resp","","","img/blue_2bandit_a.png","70","img/blue_2bandit_a.png","70","test","","","","","","","","","","","6","","","","","","","","",""
"null","2907562","SARL_v6","SARL_v6xvkpqbg3","594a969df0ea1b0001558178","fixation","","","img/fixation.png","null","","","test","","","","","","","","","","","","","","","","","","","",""
"300.7000000476837","2907865","SARL_v6","SARL_v6xvkpqbg3","594a969df0ea1b0001558178","freq","","","img/blue_2bandit_a2.png","70","","70","test","1","","125","","","","square","circle","120","6","6","0.95","","","","","","","",""
"null","2908372","SARL_v6","SARL_v6xvkpqbg3","594a969df0ea1b0001558178","freq_resp","","","img/blue_2bandit_a.png","70","img/blue_2bandit_a.png","70","test","","","","","","","","","","","6","","","","","","","","",""
"null","2908527","SARL_v6","SARL_v6xvkpqbg3","594a969df0ea1b0001558178","fixation","","","img/fixation.png","null","","","test","","","","","","","","","","","","","","","","","","","",""
"282.7000000476837","2908812","SARL_v6","SARL_v6xvkpqbg3","594a969df0ea1b0001558178","freq","","","img/blue_2bandit_a2.png","70","","70","test","1","","126","","","","square","circle","121","7","6","0.9504132231404959","","","","","","","",""
"null","2909345","SARL_v6","SARL_v6xvkpqbg3","594a969df0ea1b0001558178","freq_resp","","","img/blue_2bandit_a.png","70","img/blue_2bandit_a.png","70","test","","","","","","","","","","","6","","","","","","","","",""
"null","2909510","SARL_v6","SARL_v6xvkpqbg3","594a969df0ea1b0001558178","fixation","","","img/fixation.png","null","","","test","","","","","","","","","","","","","","","","","","","",""
"269.90000009536743","2909783","SARL_v6","SARL_v6xvkpqbg3","594a969df0ea1b0001558178","freq","","","img/blue_2bandit_a2.png","70","","70","test","1","","127","","","","square","circle","122","8","6","0.9508196721311475","","","","","","","",""
"null","2910324","SARL_v6","SARL_v6xvkpqbg3","594a969df0ea1b0001558178","freq_resp","","","img/blue_2bandit_a.png","70","img/blue_2bandit_a.png","70","test","","","","","","","","","","","6","","","","","","","","",""
"null","2910479","SARL_v6","SARL_v6xvkpqbg3","594a969df0ea1b0001558178","fixation","","","img/fixation.png","null","","","test","","","","","","","","","","","","","","","","","","","",""
"273.09999990463257","2910755","SARL_v6","SARL_v6xvkpqbg3","594a969df0ea1b0001558178","infreq","","","img/orange_2bandit_a2.png","70","","68","test","0","","128","","","","square","circle","123","9","6","0.943089430894309","","","","","","","",""
"null","2911287","SARL_v6","SARL_v6xvkpqbg3","594a969df0ea1b0001558178","infreq_resp","","","img/orange_2bandit_a.png","70","img/orange_2bandit_a.png","68","test","","","","","","","","","","","6","","","","","","","","",""
"null","2911443","SARL_v6","SARL_v6xvkpqbg3","594a969df0ea1b0001558178","fixation","","","img/fixation.png","null","","","test","","","","","","","","","","","","","","","","","","","",""
