"rt","time_elapsed","expId","subject","prolificID","trialType","rlType","attType","stimulus","key_press","stim","corrresp","phase","corr","pracCounter","trialNum","rewardOne","rewardTwo","reward","bandOne","bandTwo","attentionNum","attentionRunNum","blockNum","performance","bandChosen","circleVal","squareVal","bandOneVal","bandTwoVal","shapeChosen","rlNum","badFlag"
"49856","49866","SARL_v6","SARL_v6udkb8tu5","641361ae9b3296f4b5ff78ed","","","","","","","","","","","","","","","","","","","","","","","","","","","",""
"","55140","SARL_v6","SARL_v6udkb8tu5","641361ae9b3296f4b5ff78ed","fullscreen","fullscreen","fullscreen","","","","","","","","","","","","","","","","","","","","","","","","",""
"73415.5","128571","SARL_v6","SARL_v6udkb8tu5","641361ae9b3296f4b5ff78ed","","","","","","","","","","","","","","","","","","","","","","","","","","","",""
"null","129388","SARL_v6","SARL_v6udkb8tu5","641361ae9b3296f4b5ff78ed","freqPrac","","","img/blue_2bandit_a2.png","null","img/blue_2bandit_a2.png","70","prac","0","1","","","","","","","","","","","","","","","","","",""
"null","130402","SARL_v6","SARL_v6udkb8tu5","641361ae9b3296f4b5ff78ed","feedback","","","img/tooSlow.png","null","","na","prac","","","","","","","","","","","","","","","","","","","",""
"null","130561","SARL_v6","SARL_v6udkb8tu5","641361ae9b3296f4b5ff78ed","fixation","","","img/fixation.png","null","","","prac","","","","","","","","","","","","","","","","","","","",""
"743.7999999970198","131312","SARL_v6","SARL_v6udkb8tu5","641361ae9b3296f4b5ff78ed","infreqPrac","","","img/orange_2bandit_a2.png","68","img/orange_2bandit_a2.png","68","prac","1","1","","","","","","","","","","","","","","","","","",""
"743.7999999970198","131377","SARL_v6","SARL_v6udkb8tu5","641361ae9b3296f4b5ff78ed","infreqPrac_resp","","","img/orange_2bandit_a.png","68","img/orange_2bandit_a.png","68","prac","","","","","","","","","","","","","","","","","","","",""
"null","131537","SARL_v6","SARL_v6udkb8tu5","641361ae9b3296f4b5ff78ed","fixation","","","img/fixation.png","null","","","prac","","","","","","","","","","","","","","","","","","","",""
"593.3999999985099","132138","SARL_v6","SARL_v6udkb8tu5","641361ae9b3296f4b5ff78ed","freqPrac","","","img/blue_2bandit_a2.png","70","img/blue_2bandit_a2.png","70","prac","1","1","","","","","","","","","","","","","","","","","",""
"593.3999999985099","132354","SARL_v6","SARL_v6udkb8tu5","641361ae9b3296f4b5ff78ed","freqPrac_resp","","","img/blue_2bandit_a.png","70","img/blue_2bandit_a.png","70","prac","","","","","","","","","","","","","","","","","","","",""
"null","132513","SARL_v6","SARL_v6udkb8tu5","641361ae9b3296f4b5ff78ed","fixation","","","img/fixation.png","null","","","prac","","","","","","","","","","","","","","","","","","","",""
"393.70000000298023","132913","SARL_v6","SARL_v6udkb8tu5","641361ae9b3296f4b5ff78ed","infreqPrac","","","img/orange_2bandit_a2.png","68","img/orange_2bandit_a2.png","68","prac","1","1","","","","","","","","","","","","","","","","","",""
"393.70000000298023","133329","SARL_v6","SARL_v6udkb8tu5","641361ae9b3296f4b5ff78ed","infreqPrac_resp","","","img/orange_2bandit_a.png","68","img/orange_2bandit_a.png","68","prac","","","","","","","","","","","","","","","","","","","",""
"null","133489","SARL_v6","SARL_v6udkb8tu5","641361ae9b3296f4b5ff78ed","fixation","","","img/fixation.png","null","","","prac","","","","","","","","","","","","","","","","","","","",""
"369.20000000298023","133865","SARL_v6","SARL_v6udkb8tu5","641361ae9b3296f4b5ff78ed","infreqPrac","","","img/orange_2bandit_a2.png","68","img/orange_2bandit_a2.png","68","prac","1","1","","","","","","","","","","","","","","","","","",""
"369.20000000298023","134305","SARL_v6","SARL_v6udkb8tu5","641361ae9b3296f4b5ff78ed","infreqPrac_resp","","","img/orange_2bandit_a.png","68","img/orange_2bandit_a.png","68","prac","","","","","","","","","","","","","","","","","","","",""
"null","134466","SARL_v6","SARL_v6udkb8tu5","641361ae9b3296f4b5ff78ed","fixation","","","img/fixation.png","null","","","prac","","","","","","","","","","","","","","","","","","","",""
"347.5","134819","SARL_v6","SARL_v6udkb8tu5","641361ae9b3296f4b5ff78ed","infreqPrac","","","img/orange_2bandit_a2.png","70","img/orange_2bandit_a2.png","68","prac","0","2","","","","","","","","","","","","","","","","","",""
"347.5","135282","SARL_v6","SARL_v6udkb8tu5","641361ae9b3296f4b5ff78ed","infreqPrac_resp","","","img/orange_2bandit_a.png","70","img/orange_2bandit_a.png","68","prac","","","","","","","","","","","","","","","","","","","",""
"null","136289","SARL_v6","SARL_v6udkb8tu5","641361ae9b3296f4b5ff78ed","feedback","","","img/wrongKey.png","null","","na","prac","","","","","","","","","","","","","","","","","","","",""
"null","136449","SARL_v6","SARL_v6udkb8tu5","641361ae9b3296f4b5ff78ed","fixation","","","img/fixation.png","null","","","prac","","","","","","","","","","","","","","","","","","","",""
"701.0999999940395","137157","SARL_v6","SARL_v6udkb8tu5","641361ae9b3296f4b5ff78ed","freqPrac","","","img/blue_2bandit_a2.png","70","img/blue_2bandit_a2.png","70","prac","1","2","","","","","","","","","","","","","","","","","",""
"701.0999999940395","137266","SARL_v6","SARL_v6udkb8tu5","641361ae9b3296f4b5ff78ed","freqPrac_resp","","","img/blue_2bandit_a.png","70","img/blue_2bandit_a.png","70","prac","","","","","","","","","","","","","","","","","","","",""
"null","137426","SARL_v6","SARL_v6udkb8tu5","641361ae9b3296f4b5ff78ed","fixation","","","img/fixation.png","null","","","prac","","","","","","","","","","","","","","","","","","","",""
"423.6000000014901","137855","SARL_v6","SARL_v6udkb8tu5","641361ae9b3296f4b5ff78ed","infreqPrac","","","img/orange_2bandit_a2.png","68","img/orange_2bandit_a2.png","68","prac","1","2","","","","","","","","","","","","","","","","","",""
"423.6000000014901","138241","SARL_v6","SARL_v6udkb8tu5","641361ae9b3296f4b5ff78ed","infreqPrac_resp","","","img/orange_2bandit_a.png","68","img/orange_2bandit_a.png","68","prac","","","","","","","","","","","","","","","","","","","",""
"null","138401","SARL_v6","SARL_v6udkb8tu5","641361ae9b3296f4b5ff78ed","fixation","","","img/fixation.png","null","","","prac","","","","","","","","","","","","","","","","","","","",""
"460.59999999403954","138868","SARL_v6","SARL_v6udkb8tu5","641361ae9b3296f4b5ff78ed","freqPrac","","","img/blue_2bandit_a2.png","70","img/blue_2bandit_a2.png","70","prac","1","2","","","","","","","","","","","","","","","","","",""
"460.59999999403954","139217","SARL_v6","SARL_v6udkb8tu5","641361ae9b3296f4b5ff78ed","freqPrac_resp","","","img/blue_2bandit_a.png","70","img/blue_2bandit_a.png","70","prac","","","","","","","","","","","","","","","","","","","",""
"null","139377","SARL_v6","SARL_v6udkb8tu5","641361ae9b3296f4b5ff78ed","fixation","","","img/fixation.png","null","","","prac","","","","","","","","","","","","","","","","","","","",""
"549.3999999985099","139933","SARL_v6","SARL_v6udkb8tu5","641361ae9b3296f4b5ff78ed","freqPrac","","","img/blue_2bandit_a2.png","70","img/blue_2bandit_a2.png","70","prac","1","2","","","","","","","","","","","","","","","","","",""
"549.3999999985099","140193","SARL_v6","SARL_v6udkb8tu5","641361ae9b3296f4b5ff78ed","freqPrac_resp","","","img/blue_2bandit_a.png","70","img/blue_2bandit_a.png","70","prac","","","","","","","","","","","","","","","","","","","",""
"null","140353","SARL_v6","SARL_v6udkb8tu5","641361ae9b3296f4b5ff78ed","fixation","","","img/fixation.png","null","","","prac","","","","","","","","","","","","","","","","","","","",""
"35585","175944","SARL_v6","SARL_v6udkb8tu5","641361ae9b3296f4b5ff78ed","","","","","","","","prac","","","","","","","","","","","","","","","","","","","",""
"1167.1999999955297","177119","SARL_v6","SARL_v6udkb8tu5","641361ae9b3296f4b5ff78ed","rlPractice","","","img/black_2bandit_a2.png","74","img/black_2bandit_a2.png","","prac","","","0","","","","","","","","","","","","","","","","",""
"null","177882","SARL_v6","SARL_v6udkb8tu5","641361ae9b3296f4b5ff78ed","feedback","","","<div class=""verylowPoints_sq""> -14 </div>","null","","na","prac","","","1","10","-14","10","","","","","","","","","","","","","",""
"null","178042","SARL_v6","SARL_v6udkb8tu5","641361ae9b3296f4b5ff78ed","fixation","","","img/fixation.png","null","","","prac","","","","","","","","","","","","","","","","","","","",""
"732.7000000029802","178781","SARL_v6","SARL_v6udkb8tu5","641361ae9b3296f4b5ff78ed","rlPractice","","","img/black_2bandit_a2.png","75","img/black_2bandit_a2.png","","prac","","","1","","","","","","","","","","","","","","","","",""
"null","179537","SARL_v6","SARL_v6udkb8tu5","641361ae9b3296f4b5ff78ed","feedback","","","<div class=""veryhighPoints""> 5 </div>","null","","na","prac","","","2","5","-5","5","","","","","","","","","","","","","",""
"null","179698","SARL_v6","SARL_v6udkb8tu5","641361ae9b3296f4b5ff78ed","fixation","","","img/fixation.png","null","","","prac","","","","","","","","","","","","","","","","","","","",""
"355.6000000014901","180060","SARL_v6","SARL_v6udkb8tu5","641361ae9b3296f4b5ff78ed","rlPractice","","","img/black_2bandit_a2.png","75","img/black_2bandit_a2.png","","prac","","","2","","","","","","","","","","","","","","","","",""
"null","180817","SARL_v6","SARL_v6udkb8tu5","641361ae9b3296f4b5ff78ed","feedback","","","<div class=""veryhighPoints""> 30 </div>","null","","na","prac","","","3","30","2","30","","","","","","","","","","","","","",""
"null","180978","SARL_v6","SARL_v6udkb8tu5","641361ae9b3296f4b5ff78ed","fixation","","","img/fixation.png","null","","","prac","","","","","","","","","","","","","","","","","","","",""
"359.30000000447035","181343","SARL_v6","SARL_v6udkb8tu5","641361ae9b3296f4b5ff78ed","rlPractice","","","img/black_2bandit_a2.png","75","img/black_2bandit_a2.png","","prac","","","3","","","","","","","","","","","","","","","","",""
"null","182105","SARL_v6","SARL_v6udkb8tu5","641361ae9b3296f4b5ff78ed","feedback","","","<div class=""verylowPoints""> -2 </div>","null","","na","prac","","","4","-2","20","-2","","","","","","","","","","","","","",""
"null","182266","SARL_v6","SARL_v6udkb8tu5","641361ae9b3296f4b5ff78ed","fixation","","","img/fixation.png","null","","","prac","","","","","","","","","","","","","","","","","","","",""
"17477","199748","SARL_v6","SARL_v6udkb8tu5","641361ae9b3296f4b5ff78ed","","","","","","","","prac","","","","","","","","","","","","","","","","","","","",""
"null","200561","SARL_v6","SARL_v6udkb8tu5","641361ae9b3296f4b5ff78ed","mixAttFreqPrac","","","img/blue_2bandit_a2.png","null","img/blue_2bandit_a2.png","70","prac","","","1","","","","","","","","","","","","","","","","",""
"null","200721","SARL_v6","SARL_v6udkb8tu5","641361ae9b3296f4b5ff78ed","fixation","","","img/fixation.png","null","","","prac","","","","","","","","","","","","","","","","","","","",""
"30.399999998509884","200758","SARL_v6","SARL_v6udkb8tu5","641361ae9b3296f4b5ff78ed","mixAttInfreqPrac","","","img/orange_2bandit_a2.png","70","img/orange_2bandit_a2.png","68","prac","","","2","","","","","","","","","","","","","","","","",""
"30.399999998509884","201537","SARL_v6","SARL_v6udkb8tu5","641361ae9b3296f4b5ff78ed","infreqPrac_resp","","","img/orange_2bandit_a.png","70","img/blue_2bandit_a.png","68","prac","","","2","","","","","","","","","","","","","","","","",""
"null","201697","SARL_v6","SARL_v6udkb8tu5","641361ae9b3296f4b5ff78ed","fixation","","","img/fixation.png","null","","","prac","","","","","","","","","","","","","","","","","","","",""
"385.8999999985099","202089","SARL_v6","SARL_v6udkb8tu5","641361ae9b3296f4b5ff78ed","mixAttInfreqPrac","","","img/orange_2bandit_a2.png","68","img/orange_2bandit_a2.png","68","prac","","","3","","","","","","","","","","","","","","","","",""
"385.8999999985099","202513","SARL_v6","SARL_v6udkb8tu5","641361ae9b3296f4b5ff78ed","infreqPrac_resp","","","img/orange_2bandit_a.png","68","img/blue_2bandit_a.png","68","prac","","","3","","","","","","","","","","","","","","","","",""
"null","202673","SARL_v6","SARL_v6udkb8tu5","641361ae9b3296f4b5ff78ed","fixation","","","img/fixation.png","null","","","prac","","","","","","","","","","","","","","","","","","","",""
"269.6000000014901","202949","SARL_v6","SARL_v6udkb8tu5","641361ae9b3296f4b5ff78ed","mixAttInfreqPrac","","","img/orange_2bandit_a2.png","68","img/orange_2bandit_a2.png","68","prac","","","4","","","","","","","","","","","","","","","","",""
"269.6000000014901","203497","SARL_v6","SARL_v6udkb8tu5","641361ae9b3296f4b5ff78ed","infreqPrac_resp","","","img/orange_2bandit_a.png","68","img/blue_2bandit_a.png","68","prac","","","4","","","","","","","","","","","","","","","","",""
"null","203657","SARL_v6","SARL_v6udkb8tu5","641361ae9b3296f4b5ff78ed","fixation","","","img/fixation.png","null","","","prac","","","","","","","","","","","","","","","","","","","",""
"312.20000000298023","203976","SARL_v6","SARL_v6udkb8tu5","641361ae9b3296f4b5ff78ed","mixAttFreqPrac","","","img/blue_2bandit_a2.png","68","img/blue_2bandit_a2.png","70","prac","","","5","","","","","","","","","","","","","","","","",""
"312.20000000298023","204474","SARL_v6","SARL_v6udkb8tu5","641361ae9b3296f4b5ff78ed","freqPrac_resp","","","img/blue_2bandit_a.png","68","img/blue_2bandit_a.png","70","prac","","","5","","","","","","","","","","","","","","","","",""
"null","204633","SARL_v6","SARL_v6udkb8tu5","641361ae9b3296f4b5ff78ed","fixation","","","img/fixation.png","null","","","prac","","","","","","","","","","","","","","","","","","","",""
"694.6000000014901","205334","SARL_v6","SARL_v6udkb8tu5","641361ae9b3296f4b5ff78ed","mixRLPractice","","","img/black_2bandit_a2.png","75","img/black_2bandit_a2.png","","prac","","","5","","","","","","","","","","","","","","","","",""
"null","206097","SARL_v6","SARL_v6udkb8tu5","641361ae9b3296f4b5ff78ed","feedback","","","<div class=""verylowPoints""> -14 </div>","null","","na","prac","","","6","-14","10","-14","","","","","","","","","","","","","",""
"null","206257","SARL_v6","SARL_v6udkb8tu5","641361ae9b3296f4b5ff78ed","fixation","","","img/fixation.png","null","","","prac","","","","","","","","","","","","","","","","","","","",""
"474.20000000298023","206737","SARL_v6","SARL_v6udkb8tu5","641361ae9b3296f4b5ff78ed","mixAttFreqPrac","","","img/blue_2bandit_a2.png","68","img/blue_2bandit_a2.png","70","prac","","","7","","","","","","","","","","","","","","","","",""
"474.20000000298023","207073","SARL_v6","SARL_v6udkb8tu5","641361ae9b3296f4b5ff78ed","freqPrac_resp","","","img/blue_2bandit_a.png","68","img/blue_2bandit_a.png","70","prac","","","7","","","","","","","","","","","","","","","","",""
"120.20000000298023","207233","SARL_v6","SARL_v6udkb8tu5","641361ae9b3296f4b5ff78ed","fixation","","","img/fixation.png","70","","","prac","","","","","","","","","","","","","","","","","","","",""
"null","208041","SARL_v6","SARL_v6udkb8tu5","641361ae9b3296f4b5ff78ed","mixAttInfreqPrac","","","img/orange_2bandit_a2.png","null","img/orange_2bandit_a2.png","68","prac","","","8","","","","","","","","","","","","","","","","",""
"32.20000000298023","208201","SARL_v6","SARL_v6udkb8tu5","641361ae9b3296f4b5ff78ed","fixation","","","img/fixation.png","68","","","prac","","","","","","","","","","","","","","","","","","","",""
"641.3999999985099","208849","SARL_v6","SARL_v6udkb8tu5","641361ae9b3296f4b5ff78ed","mixAttFreqPrac","","","img/blue_2bandit_a2.png","70","img/blue_2bandit_a2.png","70","prac","","","9","","","","","","","","","","","","","","","","",""
"641.3999999985099","209017","SARL_v6","SARL_v6udkb8tu5","641361ae9b3296f4b5ff78ed","freqPrac_resp","","","img/blue_2bandit_a.png","70","img/blue_2bandit_a.png","70","prac","","","9","","","","","","","","","","","","","","","","",""
"null","209177","SARL_v6","SARL_v6udkb8tu5","641361ae9b3296f4b5ff78ed","fixation","","","img/fixation.png","null","","","prac","","","","","","","","","","","","","","","","","","","",""
"475.69999999552965","209659","SARL_v6","SARL_v6udkb8tu5","641361ae9b3296f4b5ff78ed","mixAttFreqPrac","","","img/blue_2bandit_a2.png","70","img/blue_2bandit_a2.png","70","prac","","","10","","","","","","","","","","","","","","","","",""
"475.69999999552965","209993","SARL_v6","SARL_v6udkb8tu5","641361ae9b3296f4b5ff78ed","freqPrac_resp","","","img/blue_2bandit_a.png","70","img/blue_2bandit_a.png","70","prac","","","10","","","","","","","","","","","","","","","","",""
"null","210153","SARL_v6","SARL_v6udkb8tu5","641361ae9b3296f4b5ff78ed","fixation","","","img/fixation.png","null","","","prac","","","","","","","","","","","","","","","","","","","",""
"144.89999999850988","210304","SARL_v6","SARL_v6udkb8tu5","641361ae9b3296f4b5ff78ed","mixAttInfreqPrac","","","img/orange_2bandit_a2.png","70","img/orange_2bandit_a2.png","68","prac","","","11","","","","","","","","","","","","","","","","",""
"144.89999999850988","210969","SARL_v6","SARL_v6udkb8tu5","641361ae9b3296f4b5ff78ed","infreqPrac_resp","","","img/orange_2bandit_a.png","70","img/blue_2bandit_a.png","68","prac","","","11","","","","","","","","","","","","","","","","",""
"null","211129","SARL_v6","SARL_v6udkb8tu5","641361ae9b3296f4b5ff78ed","fixation","","","img/fixation.png","null","","","prac","","","","","","","","","","","","","","","","","","","",""
"540.2999999970198","211676","SARL_v6","SARL_v6udkb8tu5","641361ae9b3296f4b5ff78ed","mixRLPractice","","","img/black_2bandit_a2.png","75","img/black_2bandit_a2.png","","prac","","","11","","","","","","","","","","","","","","","","",""
"null","212434","SARL_v6","SARL_v6udkb8tu5","641361ae9b3296f4b5ff78ed","feedback","","","<div class=""veryhighPoints""> 5 </div>","null","","na","prac","","","12","5","-5","5","","","","","","","","","","","","","",""
"null","212594","SARL_v6","SARL_v6udkb8tu5","641361ae9b3296f4b5ff78ed","fixation","","","img/fixation.png","null","","","prac","","","","","","","","","","","","","","","","","","","",""
"2114.60000000149","214714","SARL_v6","SARL_v6udkb8tu5","641361ae9b3296f4b5ff78ed","","","","","","","","prac","","","","","","","","","","","","","","","","","","","",""
"756.5","215478","SARL_v6","SARL_v6udkb8tu5","641361ae9b3296f4b5ff78ed","freq","","","img/blue_2bandit_a2.png","68","","70","test","0","","1","","","","square","circle","1","1","1","0","","","","","","","",""
"null","215531","SARL_v6","SARL_v6udkb8tu5","641361ae9b3296f4b5ff78ed","freq_resp","","","img/blue_2bandit_a.png","68","img/blue_2bandit_a.png","70","test","","","","","","","","","","","1","","","","","","","","",""
"null","215691","SARL_v6","SARL_v6udkb8tu5","641361ae9b3296f4b5ff78ed","fixation","","","img/fixation.png","null","","","test","","","","","","","","","","","","","","","","","","","",""
"450.20000000298023","216148","SARL_v6","SARL_v6udkb8tu5","641361ae9b3296f4b5ff78ed","freq","","","img/blue_2bandit_a2.png","70","","70","test","1","","2","","","","square","circle","2","2","1","0.5","","","","","","","",""
"null","216505","SARL_v6","SARL_v6udkb8tu5","641361ae9b3296f4b5ff78ed","freq_resp","","","img/blue_2bandit_a.png","70","img/blue_2bandit_a.png","70","test","","","","","","","","","","","1","","","","","","","","",""
"null","216665","SARL_v6","SARL_v6udkb8tu5","641361ae9b3296f4b5ff78ed","fixation","","","img/fixation.png","null","","","test","","","","","","","","","","","","","","","","","","","",""
"324.6000000014901","216996","SARL_v6","SARL_v6udkb8tu5","641361ae9b3296f4b5ff78ed","freq","","","img/blue_2bandit_a2.png","70","","70","test","1","","3","","","","square","circle","3","3","1","0.6666666666666666","","","","","","","",""
"null","217481","SARL_v6","SARL_v6udkb8tu5","641361ae9b3296f4b5ff78ed","freq_resp","","","img/blue_2bandit_a.png","70","img/blue_2bandit_a.png","70","test","","","","","","","","","","","1","","","","","","","","",""
"null","217641","SARL_v6","SARL_v6udkb8tu5","641361ae9b3296f4b5ff78ed","fixation","","","img/fixation.png","null","","","test","","","","","","","","","","","","","","","","","","","",""
"235.39999999850988","217883","SARL_v6","SARL_v6udkb8tu5","641361ae9b3296f4b5ff78ed","infreq","","","img/orange_2bandit_a2.png","70","","68","test","0","","4","","","","square","circle","4","4","1","0.5","","","","","","","",""
"null","218457","SARL_v6","SARL_v6udkb8tu5","641361ae9b3296f4b5ff78ed","infreq_resp","","","img/orange_2bandit_a.png","70","img/orange_2bandit_a.png","68","test","","","","","","","","","","","1","","","","","","","","",""
"null","218617","SARL_v6","SARL_v6udkb8tu5","641361ae9b3296f4b5ff78ed","fixation","","","img/fixation.png","null","","","test","","","","","","","","","","","","","","","","","","","",""
"760.1000000014901","219384","SARL_v6","SARL_v6udkb8tu5","641361ae9b3296f4b5ff78ed","freq","","","img/blue_2bandit_a2.png","70","","70","test","1","","5","","","","square","circle","5","5","1","0.6","","","","","","","",""
"null","219434","SARL_v6","SARL_v6udkb8tu5","641361ae9b3296f4b5ff78ed","freq_resp","","","img/blue_2bandit_a.png","70","img/blue_2bandit_a.png","70","test","","","","","","","","","","","1","","","","","","","","",""
"null","219593","SARL_v6","SARL_v6udkb8tu5","641361ae9b3296f4b5ff78ed","fixation","","","img/fixation.png","null","","","test","","","","","","","","","","","","","","","","","","","",""
"449","220048","SARL_v6","SARL_v6udkb8tu5","641361ae9b3296f4b5ff78ed","freq","","","img/blue_2bandit_a2.png","70","","70","test","1","","6","","","","square","circle","6","6","1","0.6666666666666666","","","","","","","",""
"null","220409","SARL_v6","SARL_v6udkb8tu5","641361ae9b3296f4b5ff78ed","freq_resp","","","img/blue_2bandit_a.png","70","img/blue_2bandit_a.png","70","test","","","","","","","","","","","1","","","","","","","","",""
"null","220569","SARL_v6","SARL_v6udkb8tu5","641361ae9b3296f4b5ff78ed","fixation","","","img/fixation.png","null","","","test","","","","","","","","","","","","","","","","","","","",""
"423.1000000014901","220999","SARL_v6","SARL_v6udkb8tu5","641361ae9b3296f4b5ff78ed","infreq","","","img/orange_2bandit_a2.png","68","","68","test","1","","7","","","","square","circle","7","7","1","0.7142857142857143","","","","","","","",""
"null","221385","SARL_v6","SARL_v6udkb8tu5","641361ae9b3296f4b5ff78ed","infreq_resp","","","img/orange_2bandit_a.png","68","img/orange_2bandit_a.png","68","test","","","","","","","","","","","1","","","","","","","","",""
"null","221546","SARL_v6","SARL_v6udkb8tu5","641361ae9b3296f4b5ff78ed","fixation","","","img/fixation.png","null","","","test","","","","","","","","","","","","","","","","","","","",""
"402.59999999403954","221954","SARL_v6","SARL_v6udkb8tu5","641361ae9b3296f4b5ff78ed","freq","","","img/blue_2bandit_a2.png","70","","70","test","1","","8","","","","square","circle","8","8","1","0.75","","","","","","","",""
"null","222361","SARL_v6","SARL_v6udkb8tu5","641361ae9b3296f4b5ff78ed","freq_resp","","","img/blue_2bandit_a.png","70","img/blue_2bandit_a.png","70","test","","","","","","","","","","","1","","","","","","","","",""
"null","222521","SARL_v6","SARL_v6udkb8tu5","641361ae9b3296f4b5ff78ed","fixation","","","img/fixation.png","null","","","test","","","","","","","","","","","","","","","","","","","",""
"400.80000000447035","222928","SARL_v6","SARL_v6udkb8tu5","641361ae9b3296f4b5ff78ed","freq","","","img/blue_2bandit_a2.png","70","","70","test","1","","9","","","","square","circle","9","9","1","0.7777777777777778","","","","","","","",""
"null","223337","SARL_v6","SARL_v6udkb8tu5","641361ae9b3296f4b5ff78ed","freq_resp","","","img/blue_2bandit_a.png","70","img/blue_2bandit_a.png","70","test","","","","","","","","","","","1","","","","","","","","",""
"null","223497","SARL_v6","SARL_v6udkb8tu5","641361ae9b3296f4b5ff78ed","fixation","","","img/fixation.png","null","","","test","","","","","","","","","","","","","","","","","","","",""
"242.70000000298023","223747","SARL_v6","SARL_v6udkb8tu5","641361ae9b3296f4b5ff78ed","freq","","","img/blue_2bandit_a2.png","70","","70","test","1","","10","","","","square","circle","10","10","1","0.8","","","","","","","",""
"null","224313","SARL_v6","SARL_v6udkb8tu5","641361ae9b3296f4b5ff78ed","freq_resp","","","img/blue_2bandit_a.png","70","img/blue_2bandit_a.png","70","test","","","","","","","","","","","1","","","","","","","","",""
"null","224473","SARL_v6","SARL_v6udkb8tu5","641361ae9b3296f4b5ff78ed","fixation","","","img/fixation.png","null","","","test","","","","","","","","","","","","","","","","","","","",""
"177.20000000298023","224657","SARL_v6","SARL_v6udkb8tu5","641361ae9b3296f4b5ff78ed","freq","","","img/blue_2bandit_a2.png","70","","70","test","1","","11","","","","square","circle","11","11","1","0.8181818181818182","","","","","","","",""
"null","225290","SARL_v6","SARL_v6udkb8tu5","641361ae9b3296f4b5ff78ed","freq_resp","","","img/blue_2bandit_a.png","70","img/blue_2bandit_a.png","70","test","","","","","","","","","","","1","","","","","","","","",""
"null","225450","SARL_v6","SARL_v6udkb8tu5","641361ae9b3296f4b5ff78ed","fixation","","","img/fixation.png","null","","","test","","","","","","","","","","","","","","","","","","","",""
"253.5","225710","SARL_v6","SARL_v6udkb8tu5","641361ae9b3296f4b5ff78ed","freq","","","img/blue_2bandit_a2.png","70","","70","test","1","","12","","","","square","circle","12","12","1","0.8333333333333334","","","","","","","",""
"null","226266","SARL_v6","SARL_v6udkb8tu5","641361ae9b3296f4b5ff78ed","freq_resp","","","img/blue_2bandit_a.png","70","img/blue_2bandit_a.png","70","test","","","","","","","","","","","1","","","","","","","","",""
"null","226426","SARL_v6","SARL_v6udkb8tu5","641361ae9b3296f4b5ff78ed","fixation","","","img/fixation.png","null","","","test","","","","","","","","","","","","","","","","","","","",""
"299.6000000014901","226732","SARL_v6","SARL_v6udkb8tu5","641361ae9b3296f4b5ff78ed","freq","","","img/blue_2bandit_a2.png","70","","70","test","1","","13","","","","square","circle","13","13","1","0.8461538461538461","","","","","","","",""
"null","227241","SARL_v6","SARL_v6udkb8tu5","641361ae9b3296f4b5ff78ed","freq_resp","","","img/blue_2bandit_a.png","70","img/blue_2bandit_a.png","70","test","","","","","","","","","","","1","","","","","","","","",""
"null","227401","SARL_v6","SARL_v6udkb8tu5","641361ae9b3296f4b5ff78ed","fixation","","","img/fixation.png","null","","","test","","","","","","","","","","","","","","","","","","","",""
"259","227666","SARL_v6","SARL_v6udkb8tu5","641361ae9b3296f4b5ff78ed","freq","","","img/blue_2bandit_a2.png","70","","70","test","1","","14","","","","square","circle","14","14","1","0.8571428571428571","","","","","","","",""
"null","228217","SARL_v6","SARL_v6udkb8tu5","641361ae9b3296f4b5ff78ed","freq_resp","","","img/blue_2bandit_a.png","70","img/blue_2bandit_a.png","70","test","","","","","","","","","","","1","","","","","","","","",""
"null","228377","SARL_v6","SARL_v6udkb8tu5","641361ae9b3296f4b5ff78ed","fixation","","","img/fixation.png","null","","","test","","","","","","","","","","","","","","","","","","","",""
"180.10000000149012","228563","SARL_v6","SARL_v6udkb8tu5","641361ae9b3296f4b5ff78ed","freq","","","img/blue_2bandit_a2.png","70","","70","test","1","","15","","","","square","circle","15","15","1","0.8666666666666667","","","","","","","",""
"null","229193","SARL_v6","SARL_v6udkb8tu5","641361ae9b3296f4b5ff78ed","freq_resp","","","img/blue_2bandit_a.png","70","img/blue_2bandit_a.png","70","test","","","","","","","","","","","1","","","","","","","","",""
"null","229353","SARL_v6","SARL_v6udkb8tu5","641361ae9b3296f4b5ff78ed","fixation","","","img/fixation.png","null","","","test","","","","","","","","","","","","","","","","","","","",""
"255.89999999850988","229616","SARL_v6","SARL_v6udkb8tu5","641361ae9b3296f4b5ff78ed","infreq","","","img/orange_2bandit_a2.png","70","","68","test","0","","16","","","","square","circle","16","16","1","0.8125","","","","","","","",""
"null","230170","SARL_v6","SARL_v6udkb8tu5","641361ae9b3296f4b5ff78ed","infreq_resp","","","img/orange_2bandit_a.png","70","img/orange_2bandit_a.png","68","test","","","","","","","","","","","1","","","","","","","","",""
"null","230329","SARL_v6","SARL_v6udkb8tu5","641361ae9b3296f4b5ff78ed","fixation","","","img/fixation.png","null","","","test","","","","","","","","","","","","","","","","","","","",""
"441.6000000014901","230777","SARL_v6","SARL_v6udkb8tu5","641361ae9b3296f4b5ff78ed","freq","","","img/blue_2bandit_a2.png","70","","70","test","1","","17","","","","square","circle","17","17","1","0.8235294117647058","","","","","","","",""
"null","231145","SARL_v6","SARL_v6udkb8tu5","641361ae9b3296f4b5ff78ed","freq_resp","","","img/blue_2bandit_a.png","70","img/blue_2bandit_a.png","70","test","","","","","","","","","","","1","","","","","","","","",""
"null","231306","SARL_v6","SARL_v6udkb8tu5","641361ae9b3296f4b5ff78ed","fixation","","","img/fixation.png","null","","","test","","","","","","","","","","","","","","","","","","","",""
"307.3999999985099","231619","SARL_v6","SARL_v6udkb8tu5","641361ae9b3296f4b5ff78ed","freq","","","img/blue_2bandit_a2.png","70","","70","test","1","","18","","","","square","circle","18","18","1","0.8333333333333334","","","","","","","",""
"null","232121","SARL_v6","SARL_v6udkb8tu5","641361ae9b3296f4b5ff78ed","freq_resp","","","img/blue_2bandit_a.png","70","img/blue_2bandit_a.png","70","test","","","","","","","","","","","1","","","","","","","","",""
"null","232281","SARL_v6","SARL_v6udkb8tu5","641361ae9b3296f4b5ff78ed","fixation","","","img/fixation.png","null","","","test","","","","","","","","","","","","","","","","","","","",""
"260.1000000014901","232548","SARL_v6","SARL_v6udkb8tu5","641361ae9b3296f4b5ff78ed","freq","","","img/blue_2bandit_a2.png","70","","70","test","1","","19","","","","square","circle","19","19","1","0.8421052631578947","","","","","","","",""
"null","233097","SARL_v6","SARL_v6udkb8tu5","641361ae9b3296f4b5ff78ed","freq_resp","","","img/blue_2bandit_a.png","70","img/blue_2bandit_a.png","70","test","","","","","","","","","","","1","","","","","","","","",""
"null","233257","SARL_v6","SARL_v6udkb8tu5","641361ae9b3296f4b5ff78ed","fixation","","","img/fixation.png","null","","","test","","","","","","","","","","","","","","","","","","","",""
"284.40000000596046","233548","SARL_v6","SARL_v6udkb8tu5","641361ae9b3296f4b5ff78ed","freq","","","img/blue_2bandit_a2.png","70","","70","test","1","","20","","","","square","circle","20","20","1","0.85","","","","","","","",""
"null","234073","SARL_v6","SARL_v6udkb8tu5","641361ae9b3296f4b5ff78ed","freq_resp","","","img/blue_2bandit_a.png","70","img/blue_2bandit_a.png","70","test","","","","","","","","","","","1","","","","","","","","",""
"null","234233","SARL_v6","SARL_v6udkb8tu5","641361ae9b3296f4b5ff78ed","fixation","","","img/fixation.png","null","","","test","","","","","","","","","","","","","","","","","","","",""
"796.2999999970198","235036","SARL_v6","SARL_v6udkb8tu5","641361ae9b3296f4b5ff78ed","rl","","","img/black_2bandit_a2.png","75","","0","test","","","21","","","-3","square","circle","","0","1","","75","-3","-3","-3","-3","circle","1","0"
"null","235793","SARL_v6","SARL_v6udkb8tu5","641361ae9b3296f4b5ff78ed","feedback","","","<div class=""verylowPoints""> -3 </div>","null","","na","test","","","NaN","","","","","","","","1","","75","","","","","","1",""
"478.3999999985099","236279","SARL_v6","SARL_v6udkb8tu5","641361ae9b3296f4b5ff78ed","freq","","","img/blue_2bandit_a2.png","70","","70","test","1","","22","","","","square","circle","21","1","2","0.8571428571428571","","","","","","","",""
"null","236609","SARL_v6","SARL_v6udkb8tu5","641361ae9b3296f4b5ff78ed","freq_resp","","","img/blue_2bandit_a.png","70","img/blue_2bandit_a.png","70","test","","","","","","","","","","","2","","","","","","","","",""
"null","236769","SARL_v6","SARL_v6udkb8tu5","641361ae9b3296f4b5ff78ed","fixation","","","img/fixation.png","null","","","test","","","","","","","","","","","","","","","","","","","",""
"317.1000000014901","237092","SARL_v6","SARL_v6udkb8tu5","641361ae9b3296f4b5ff78ed","freq","","","img/blue_2bandit_a2.png","70","","70","test","1","","23","","","","square","circle","22","2","2","0.8636363636363636","","","","","","","",""
"null","237586","SARL_v6","SARL_v6udkb8tu5","641361ae9b3296f4b5ff78ed","freq_resp","","","img/blue_2bandit_a.png","70","img/blue_2bandit_a.png","70","test","","","","","","","","","","","2","","","","","","","","",""
"null","237745","SARL_v6","SARL_v6udkb8tu5","641361ae9b3296f4b5ff78ed","fixation","","","img/fixation.png","null","","","test","","","","","","","","","","","","","","","","","","","",""
"267.69999999552965","238019","SARL_v6","SARL_v6udkb8tu5","641361ae9b3296f4b5ff78ed","freq","","","img/blue_2bandit_a2.png","70","","70","test","1","","24","","","","square","circle","23","3","2","0.8695652173913043","","","","","","","",""
"null","238561","SARL_v6","SARL_v6udkb8tu5","641361ae9b3296f4b5ff78ed","freq_resp","","","img/blue_2bandit_a.png","70","img/blue_2bandit_a.png","70","test","","","","","","","","","","","2","","","","","","","","",""
"null","238721","SARL_v6","SARL_v6udkb8tu5","641361ae9b3296f4b5ff78ed","fixation","","","img/fixation.png","null","","","test","","","","","","","","","","","","","","","","","","","",""
"288.6000000014901","239016","SARL_v6","SARL_v6udkb8tu5","641361ae9b3296f4b5ff78ed","freq","","","img/blue_2bandit_a2.png","70","","70","test","1","","25","","","","square","circle","24","4","2","0.875","","","","","","","",""
"null","239537","SARL_v6","SARL_v6udkb8tu5","641361ae9b3296f4b5ff78ed","freq_resp","","","img/blue_2bandit_a.png","70","img/blue_2bandit_a.png","70","test","","","","","","","","","","","2","","","","","","","","",""
"null","239698","SARL_v6","SARL_v6udkb8tu5","641361ae9b3296f4b5ff78ed","fixation","","","img/fixation.png","null","","","test","","","","","","","","","","","","","","","","","","","",""
"322.30000000447035","240026","SARL_v6","SARL_v6udkb8tu5","641361ae9b3296f4b5ff78ed","freq","","","img/blue_2bandit_a2.png","70","","70","test","1","","26","","","","square","circle","25","5","2","0.88","","","","","","","",""
"null","240513","SARL_v6","SARL_v6udkb8tu5","641361ae9b3296f4b5ff78ed","freq_resp","","","img/blue_2bandit_a.png","70","img/blue_2bandit_a.png","70","test","","","","","","","","","","","2","","","","","","","","",""
"null","240673","SARL_v6","SARL_v6udkb8tu5","641361ae9b3296f4b5ff78ed","fixation","","","img/fixation.png","null","","","test","","","","","","","","","","","","","","","","","","","",""
"321","241001","SARL_v6","SARL_v6udkb8tu5","641361ae9b3296f4b5ff78ed","freq","","","img/blue_2bandit_a2.png","70","","70","test","1","","27","","","","square","circle","26","6","2","0.8846153846153846","","","","","","","",""
"null","241489","SARL_v6","SARL_v6udkb8tu5","641361ae9b3296f4b5ff78ed","freq_resp","","","img/blue_2bandit_a.png","70","img/blue_2bandit_a.png","70","test","","","","","","","","","","","2","","","","","","","","",""
"null","241649","SARL_v6","SARL_v6udkb8tu5","641361ae9b3296f4b5ff78ed","fixation","","","img/fixation.png","null","","","test","","","","","","","","","","","","","","","","","","","",""
"228","241883","SARL_v6","SARL_v6udkb8tu5","641361ae9b3296f4b5ff78ed","freq","","","img/blue_2bandit_a2.png","70","","70","test","1","","28","","","","square","circle","27","7","2","0.8888888888888888","","","","","","","",""
"null","242465","SARL_v6","SARL_v6udkb8tu5","641361ae9b3296f4b5ff78ed","freq_resp","","","img/blue_2bandit_a.png","70","img/blue_2bandit_a.png","70","test","","","","","","","","","","","2","","","","","","","","",""
"null","242625","SARL_v6","SARL_v6udkb8tu5","641361ae9b3296f4b5ff78ed","fixation","","","img/fixation.png","null","","","test","","","","","","","","","","","","","","","","","","","",""
"305.8999999985099","242937","SARL_v6","SARL_v6udkb8tu5","641361ae9b3296f4b5ff78ed","freq","","","img/blue_2bandit_a2.png","70","","70","test","1","","29","","","","square","circle","28","8","2","0.8928571428571429","","","","","","","",""
"null","243441","SARL_v6","SARL_v6udkb8tu5","641361ae9b3296f4b5ff78ed","freq_resp","","","img/blue_2bandit_a.png","70","img/blue_2bandit_a.png","70","test","","","","","","","","","","","2","","","","","","","","",""
"null","243602","SARL_v6","SARL_v6udkb8tu5","641361ae9b3296f4b5ff78ed","fixation","","","img/fixation.png","null","","","test","","","","","","","","","","","","","","","","","","","",""
"247.30000000447035","243855","SARL_v6","SARL_v6udkb8tu5","641361ae9b3296f4b5ff78ed","freq","","","img/blue_2bandit_a2.png","70","","70","test","1","","30","","","","square","circle","29","9","2","0.896551724137931","","","","","","","",""
"null","244418","SARL_v6","SARL_v6udkb8tu5","641361ae9b3296f4b5ff78ed","freq_resp","","","img/blue_2bandit_a.png","70","img/blue_2bandit_a.png","70","test","","","","","","","","","","","2","","","","","","","","",""
"null","244577","SARL_v6","SARL_v6udkb8tu5","641361ae9b3296f4b5ff78ed","fixation","","","img/fixation.png","null","","","test","","","","","","","","","","","","","","","","","","","",""
"283.6000000014901","244867","SARL_v6","SARL_v6udkb8tu5","641361ae9b3296f4b5ff78ed","freq","","","img/blue_2bandit_a2.png","70","","70","test","1","","31","","","","square","circle","30","10","2","0.9","","","","","","","",""
"null","245393","SARL_v6","SARL_v6udkb8tu5","641361ae9b3296f4b5ff78ed","freq_resp","","","img/blue_2bandit_a.png","70","img/blue_2bandit_a.png","70","test","","","","","","","","","","","2","","","","","","","","",""
"null","245553","SARL_v6","SARL_v6udkb8tu5","641361ae9b3296f4b5ff78ed","fixation","","","img/fixation.png","null","","","test","","","","","","","","","","","","","","","","","","","",""
"135.69999999552965","245696","SARL_v6","SARL_v6udkb8tu5","641361ae9b3296f4b5ff78ed","freq","","","img/blue_2bandit_a2.png","70","","70","test","1","","32","","","","square","circle","31","11","2","0.9032258064516129","","","","","","","",""
"null","246369","SARL_v6","SARL_v6udkb8tu5","641361ae9b3296f4b5ff78ed","freq_resp","","","img/blue_2bandit_a.png","70","img/blue_2bandit_a.png","70","test","","","","","","","","","","","2","","","","","","","","",""
"null","246529","SARL_v6","SARL_v6udkb8tu5","641361ae9b3296f4b5ff78ed","fixation","","","img/fixation.png","null","","","test","","","","","","","","","","","","","","","","","","","",""
"306.70000000298023","246842","SARL_v6","SARL_v6udkb8tu5","641361ae9b3296f4b5ff78ed","freq","","","img/blue_2bandit_a2.png","70","","70","test","1","","33","","","","square","circle","32","12","2","0.90625","","","","","","","",""
"null","247345","SARL_v6","SARL_v6udkb8tu5","641361ae9b3296f4b5ff78ed","freq_resp","","","img/blue_2bandit_a.png","70","img/blue_2bandit_a.png","70","test","","","","","","","","","","","2","","","","","","","","",""
"null","247505","SARL_v6","SARL_v6udkb8tu5","641361ae9b3296f4b5ff78ed","fixation","","","img/fixation.png","null","","","test","","","","","","","","","","","","","","","","","","","",""
"293.8999999985099","247805","SARL_v6","SARL_v6udkb8tu5","641361ae9b3296f4b5ff78ed","freq","","","img/blue_2bandit_a2.png","70","","70","test","1","","34","","","","square","circle","33","13","2","0.9090909090909091","","","","","","","",""
"null","248321","SARL_v6","SARL_v6udkb8tu5","641361ae9b3296f4b5ff78ed","freq_resp","","","img/blue_2bandit_a.png","70","img/blue_2bandit_a.png","70","test","","","","","","","","","","","2","","","","","","","","",""
"null","248481","SARL_v6","SARL_v6udkb8tu5","641361ae9b3296f4b5ff78ed","fixation","","","img/fixation.png","null","","","test","","","","","","","","","","","","","","","","","","","",""
"106.70000000298023","248595","SARL_v6","SARL_v6udkb8tu5","641361ae9b3296f4b5ff78ed","freq","","","img/blue_2bandit_a2.png","70","","70","test","1","","35","","","","square","circle","34","14","2","0.9117647058823529","","","","","","","",""
"null","249297","SARL_v6","SARL_v6udkb8tu5","641361ae9b3296f4b5ff78ed","freq_resp","","","img/blue_2bandit_a.png","70","img/blue_2bandit_a.png","70","test","","","","","","","","","","","2","","","","","","","","",""
"null","249458","SARL_v6","SARL_v6udkb8tu5","641361ae9b3296f4b5ff78ed","fixation","","","img/fixation.png","null","","","test","","","","","","","","","","","","","","","","","","","",""
"109.30000000447035","249573","SARL_v6","SARL_v6udkb8tu5","641361ae9b3296f4b5ff78ed","freq","","","img/blue_2bandit_a2.png","70","","70","test","1","","36","","","","square","circle","35","15","2","0.9142857142857143","","","","","","","",""
"null","250273","SARL_v6","SARL_v6udkb8tu5","641361ae9b3296f4b5ff78ed","freq_resp","","","img/blue_2bandit_a.png","70","img/blue_2bandit_a.png","70","test","","","","","","","","","","","2","","","","","","","","",""
"null","250434","SARL_v6","SARL_v6udkb8tu5","641361ae9b3296f4b5ff78ed","fixation","","","img/fixation.png","null","","","test","","","","","","","","","","","","","","","","","","","",""
"293.6000000014901","250734","SARL_v6","SARL_v6udkb8tu5","641361ae9b3296f4b5ff78ed","freq","","","img/blue_2bandit_a2.png","70","","70","test","1","","37","","","","square","circle","36","16","2","0.9166666666666666","","","","","","","",""
"null","251249","SARL_v6","SARL_v6udkb8tu5","641361ae9b3296f4b5ff78ed","freq_resp","","","img/blue_2bandit_a.png","70","img/blue_2bandit_a.png","70","test","","","","","","","","","","","2","","","","","","","","",""
"null","251409","SARL_v6","SARL_v6udkb8tu5","641361ae9b3296f4b5ff78ed","fixation","","","img/fixation.png","null","","","test","","","","","","","","","","","","","","","","","","","",""
"472.09999999403954","251888","SARL_v6","SARL_v6udkb8tu5","641361ae9b3296f4b5ff78ed","infreq","","","img/orange_2bandit_a2.png","68","","68","test","1","","38","","","","square","circle","37","17","2","0.918918918918919","","","","","","","",""
"null","252225","SARL_v6","SARL_v6udkb8tu5","641361ae9b3296f4b5ff78ed","infreq_resp","","","img/orange_2bandit_a.png","68","img/orange_2bandit_a.png","68","test","","","","","","","","","","","2","","","","","","","","",""
"null","252385","SARL_v6","SARL_v6udkb8tu5","641361ae9b3296f4b5ff78ed","fixation","","","img/fixation.png","null","","","test","","","","","","","","","","","","","","","","","","","",""
"510","252902","SARL_v6","SARL_v6udkb8tu5","641361ae9b3296f4b5ff78ed","freq","","","img/blue_2bandit_a2.png","70","","70","test","1","","39","","","","square","circle","38","18","2","0.9210526315789473","","","","","","","",""
"null","253202","SARL_v6","SARL_v6udkb8tu5","641361ae9b3296f4b5ff78ed","freq_resp","","","img/blue_2bandit_a.png","70","img/blue_2bandit_a.png","70","test","","","","","","","","","","","2","","","","","","","","",""
"null","253370","SARL_v6","SARL_v6udkb8tu5","641361ae9b3296f4b5ff78ed","fixation","","","img/fixation.png","null","","","test","","","","","","","","","","","","","","","","","","","",""
"292","253668","SARL_v6","SARL_v6udkb8tu5","641361ae9b3296f4b5ff78ed","freq","","","img/blue_2bandit_a2.png","70","","70","test","1","","40","","","","square","circle","39","19","2","0.9230769230769231","","","","","","","",""
"null","254186","SARL_v6","SARL_v6udkb8tu5","641361ae9b3296f4b5ff78ed","freq_resp","","","img/blue_2bandit_a.png","70","img/blue_2bandit_a.png","70","test","","","","","","","","","","","2","","","","","","","","",""
"null","254345","SARL_v6","SARL_v6udkb8tu5","641361ae9b3296f4b5ff78ed","fixation","","","img/fixation.png","null","","","test","","","","","","","","","","","","","","","","","","","",""
"90.60000000149012","254442","SARL_v6","SARL_v6udkb8tu5","641361ae9b3296f4b5ff78ed","freq","","","img/blue_2bandit_a2.png","70","","70","test","1","","41","","","","square","circle","40","20","2","0.925","","","","","","","",""
"null","255162","SARL_v6","SARL_v6udkb8tu5","641361ae9b3296f4b5ff78ed","freq_resp","","","img/blue_2bandit_a.png","70","img/blue_2bandit_a.png","70","test","","","","","","","","","","","2","","","","","","","","",""
"null","255321","SARL_v6","SARL_v6udkb8tu5","641361ae9b3296f4b5ff78ed","fixation","","","img/fixation.png","null","","","test","","","","","","","","","","","","","","","","","","","",""
"93.39999999850988","255420","SARL_v6","SARL_v6udkb8tu5","641361ae9b3296f4b5ff78ed","freq","","","img/blue_2bandit_a2.png","70","","70","test","1","","42","","","","square","circle","41","21","2","0.926829268292683","","","","","","","",""
"null","256137","SARL_v6","SARL_v6udkb8tu5","641361ae9b3296f4b5ff78ed","freq_resp","","","img/blue_2bandit_a.png","70","img/blue_2bandit_a.png","70","test","","","","","","","","","","","2","","","","","","","","",""
"null","256297","SARL_v6","SARL_v6udkb8tu5","641361ae9b3296f4b5ff78ed","fixation","","","img/fixation.png","null","","","test","","","","","","","","","","","","","","","","","","","",""
"345","256649","SARL_v6","SARL_v6udkb8tu5","641361ae9b3296f4b5ff78ed","freq","","","img/blue_2bandit_a2.png","70","","70","test","1","","43","","","","square","circle","42","22","2","0.9285714285714286","","","","","","","",""
"null","257113","SARL_v6","SARL_v6udkb8tu5","641361ae9b3296f4b5ff78ed","freq_resp","","","img/blue_2bandit_a.png","70","img/blue_2bandit_a.png","70","test","","","","","","","","","","","2","","","","","","","","",""
"null","257273","SARL_v6","SARL_v6udkb8tu5","641361ae9b3296f4b5ff78ed","fixation","","","img/fixation.png","null","","","test","","","","","","","","","","","","","","","","","","","",""
"292.8999999985099","257573","SARL_v6","SARL_v6udkb8tu5","641361ae9b3296f4b5ff78ed","freq","","","img/blue_2bandit_a2.png","70","","70","test","1","","44","","","","square","circle","43","23","2","0.9302325581395349","","","","","","","",""
"null","258089","SARL_v6","SARL_v6udkb8tu5","641361ae9b3296f4b5ff78ed","freq_resp","","","img/blue_2bandit_a.png","70","img/blue_2bandit_a.png","70","test","","","","","","","","","","","2","","","","","","","","",""
"null","258249","SARL_v6","SARL_v6udkb8tu5","641361ae9b3296f4b5ff78ed","fixation","","","img/fixation.png","null","","","test","","","","","","","","","","","","","","","","","","","",""
"310.30000000447035","258566","SARL_v6","SARL_v6udkb8tu5","641361ae9b3296f4b5ff78ed","freq","","","img/blue_2bandit_a2.png","70","","70","test","1","","45","","","","square","circle","44","24","2","0.9318181818181818","","","","","","","",""
"null","259065","SARL_v6","SARL_v6udkb8tu5","641361ae9b3296f4b5ff78ed","freq_resp","","","img/blue_2bandit_a.png","70","img/blue_2bandit_a.png","70","test","","","","","","","","","","","2","","","","","","","","",""
"null","259225","SARL_v6","SARL_v6udkb8tu5","641361ae9b3296f4b5ff78ed","fixation","","","img/fixation.png","null","","","test","","","","","","","","","","","","","","","","","","","",""
"516.6000000014901","259748","SARL_v6","SARL_v6udkb8tu5","641361ae9b3296f4b5ff78ed","infreq","","","img/orange_2bandit_a2.png","68","","68","test","1","","46","","","","square","circle","45","25","2","0.9333333333333333","","","","","","","",""
"null","260041","SARL_v6","SARL_v6udkb8tu5","641361ae9b3296f4b5ff78ed","infreq_resp","","","img/orange_2bandit_a.png","68","img/orange_2bandit_a.png","68","test","","","","","","","","","","","2","","","","","","","","",""
"null","260201","SARL_v6","SARL_v6udkb8tu5","641361ae9b3296f4b5ff78ed","fixation","","","img/fixation.png","null","","","test","","","","","","","","","","","","","","","","","","","",""
"385.5","260593","SARL_v6","SARL_v6udkb8tu5","641361ae9b3296f4b5ff78ed","freq","","","img/blue_2bandit_a2.png","70","","70","test","1","","47","","","","square","circle","46","26","2","0.9347826086956522","","","","","","","",""
"null","261018","SARL_v6","SARL_v6udkb8tu5","641361ae9b3296f4b5ff78ed","freq_resp","","","img/blue_2bandit_a.png","70","img/blue_2bandit_a.png","70","test","","","","","","","","","","","2","","","","","","","","",""
"null","261177","SARL_v6","SARL_v6udkb8tu5","641361ae9b3296f4b5ff78ed","fixation","","","img/fixation.png","null","","","test","","","","","","","","","","","","","","","","","","","",""
"686.8999999985099","261871","SARL_v6","SARL_v6udkb8tu5","641361ae9b3296f4b5ff78ed","rl","","","img/black_2bandit_a2.png","75","","0","test","","","48","","","-5","square","circle","","0","2","","75","-5","-8","-8","-5","circle","2","0"
"null","262633","SARL_v6","SARL_v6udkb8tu5","641361ae9b3296f4b5ff78ed","feedback","","","<div class=""verylowPoints""> -5 </div>","null","","na","test","","","NaN","","","","","","","","2","","75","","","","","","2",""
"666.5","263306","SARL_v6","SARL_v6udkb8tu5","641361ae9b3296f4b5ff78ed","freq","","","img/blue_2bandit_a2.png","70","","70","test","1","","49","","","","square","circle","47","1","3","0.9361702127659575","","","","","","","",""
"null","263449","SARL_v6","SARL_v6udkb8tu5","641361ae9b3296f4b5ff78ed","freq_resp","","","img/blue_2bandit_a.png","70","img/blue_2bandit_a.png","70","test","","","","","","","","","","","3","","","","","","","","",""
"null","263609","SARL_v6","SARL_v6udkb8tu5","641361ae9b3296f4b5ff78ed","fixation","","","img/fixation.png","null","","","test","","","","","","","","","","","","","","","","","","","",""
"412","264028","SARL_v6","SARL_v6udkb8tu5","641361ae9b3296f4b5ff78ed","freq","","","img/blue_2bandit_a2.png","70","","70","test","1","","50","","","","square","circle","48","2","3","0.9375","","","","","","","",""
"null","264425","SARL_v6","SARL_v6udkb8tu5","641361ae9b3296f4b5ff78ed","freq_resp","","","img/blue_2bandit_a.png","70","img/blue_2bandit_a.png","70","test","","","","","","","","","","","3","","","","","","","","",""
"null","264585","SARL_v6","SARL_v6udkb8tu5","641361ae9b3296f4b5ff78ed","fixation","","","img/fixation.png","null","","","test","","","","","","","","","","","","","","","","","","","",""
"361.79999999701977","264953","SARL_v6","SARL_v6udkb8tu5","641361ae9b3296f4b5ff78ed","freq","","","img/blue_2bandit_a2.png","70","","70","test","1","","51","","","","square","circle","49","3","3","0.9387755102040817","","","","","","","",""
"null","265402","SARL_v6","SARL_v6udkb8tu5","641361ae9b3296f4b5ff78ed","freq_resp","","","img/blue_2bandit_a.png","70","img/blue_2bandit_a.png","70","test","","","","","","","","","","","3","","","","","","","","",""
"null","265561","SARL_v6","SARL_v6udkb8tu5","641361ae9b3296f4b5ff78ed","fixation","","","img/fixation.png","null","","","test","","","","","","","","","","","","","","","","","","","",""
"338.90000000596046","265907","SARL_v6","SARL_v6udkb8tu5","641361ae9b3296f4b5ff78ed","freq","","","img/blue_2bandit_a2.png","70","","70","test","1","","52","","","","square","circle","50","4","3","0.94","","","","","","","",""
"null","266377","SARL_v6","SARL_v6udkb8tu5","641361ae9b3296f4b5ff78ed","freq_resp","","","img/blue_2bandit_a.png","70","img/blue_2bandit_a.png","70","test","","","","","","","","","","","3","","","","","","","","",""
"null","266537","SARL_v6","SARL_v6udkb8tu5","641361ae9b3296f4b5ff78ed","fixation","","","img/fixation.png","null","","","test","","","","","","","","","","","","","","","","","","","",""
"317.1000000014901","266860","SARL_v6","SARL_v6udkb8tu5","641361ae9b3296f4b5ff78ed","freq","","","img/blue_2bandit_a2.png","70","","70","test","1","","53","","","","square","circle","51","5","3","0.9411764705882353","","","","","","","",""
"null","267353","SARL_v6","SARL_v6udkb8tu5","641361ae9b3296f4b5ff78ed","freq_resp","","","img/blue_2bandit_a.png","70","img/blue_2bandit_a.png","70","test","","","","","","","","","","","3","","","","","","","","",""
"null","267513","SARL_v6","SARL_v6udkb8tu5","641361ae9b3296f4b5ff78ed","fixation","","","img/fixation.png","null","","","test","","","","","","","","","","","","","","","","","","","",""
"427.5","267947","SARL_v6","SARL_v6udkb8tu5","641361ae9b3296f4b5ff78ed","freq","","","img/blue_2bandit_a2.png","70","","70","test","1","","54","","","","square","circle","52","6","3","0.9423076923076923","","","","","","","",""
"null","268329","SARL_v6","SARL_v6udkb8tu5","641361ae9b3296f4b5ff78ed","freq_resp","","","img/blue_2bandit_a.png","70","img/blue_2bandit_a.png","70","test","","","","","","","","","","","3","","","","","","","","",""
"null","268489","SARL_v6","SARL_v6udkb8tu5","641361ae9b3296f4b5ff78ed","fixation","","","img/fixation.png","null","","","test","","","","","","","","","","","","","","","","","","","",""
"318.69999999552965","268814","SARL_v6","SARL_v6udkb8tu5","641361ae9b3296f4b5ff78ed","freq","","","img/blue_2bandit_a2.png","70","","70","test","1","","55","","","","square","circle","53","7","3","0.9433962264150944","","","","","","","",""
"null","269305","SARL_v6","SARL_v6udkb8tu5","641361ae9b3296f4b5ff78ed","freq_resp","","","img/blue_2bandit_a.png","70","img/blue_2bandit_a.png","70","test","","","","","","","","","","","3","","","","","","","","",""
"null","269465","SARL_v6","SARL_v6udkb8tu5","641361ae9b3296f4b5ff78ed","fixation","","","img/fixation.png","null","","","test","","","","","","","","","","","","","","","","","","","",""
"429.79999999701977","269902","SARL_v6","SARL_v6udkb8tu5","641361ae9b3296f4b5ff78ed","infreq","","","img/orange_2bandit_a2.png","68","","68","test","1","","56","","","","square","circle","54","8","3","0.9444444444444444","","","","","","","",""
"null","270281","SARL_v6","SARL_v6udkb8tu5","641361ae9b3296f4b5ff78ed","infreq_resp","","","img/orange_2bandit_a.png","68","img/orange_2bandit_a.png","68","test","","","","","","","","","","","3","","","","","","","","",""
"null","270441","SARL_v6","SARL_v6udkb8tu5","641361ae9b3296f4b5ff78ed","fixation","","","img/fixation.png","null","","","test","","","","","","","","","","","","","","","","","","","",""
"502.20000000298023","270950","SARL_v6","SARL_v6udkb8tu5","641361ae9b3296f4b5ff78ed","freq","","","img/blue_2bandit_a2.png","70","","70","test","1","","57","","","","square","circle","55","9","3","0.9454545454545454","","","","","","","",""
"null","271257","SARL_v6","SARL_v6udkb8tu5","641361ae9b3296f4b5ff78ed","freq_resp","","","img/blue_2bandit_a.png","70","img/blue_2bandit_a.png","70","test","","","","","","","","","","","3","","","","","","","","",""
"null","271417","SARL_v6","SARL_v6udkb8tu5","641361ae9b3296f4b5ff78ed","fixation","","","img/fixation.png","null","","","test","","","","","","","","","","","","","","","","","","","",""
"292.1000000014901","271715","SARL_v6","SARL_v6udkb8tu5","641361ae9b3296f4b5ff78ed","freq","","","img/blue_2bandit_a2.png","70","","70","test","1","","58","","","","square","circle","56","10","3","0.9464285714285714","","","","","","","",""
"null","272234","SARL_v6","SARL_v6udkb8tu5","641361ae9b3296f4b5ff78ed","freq_resp","","","img/blue_2bandit_a.png","70","img/blue_2bandit_a.png","70","test","","","","","","","","","","","3","","","","","","","","",""
"null","272393","SARL_v6","SARL_v6udkb8tu5","641361ae9b3296f4b5ff78ed","fixation","","","img/fixation.png","null","","","test","","","","","","","","","","","","","","","","","","","",""
"343.70000000298023","272743","SARL_v6","SARL_v6udkb8tu5","641361ae9b3296f4b5ff78ed","freq","","","img/blue_2bandit_a2.png","70","","70","test","1","","59","","","","square","circle","57","11","3","0.9473684210526315","","","","","","","",""
"null","273209","SARL_v6","SARL_v6udkb8tu5","641361ae9b3296f4b5ff78ed","freq_resp","","","img/blue_2bandit_a.png","70","img/blue_2bandit_a.png","70","test","","","","","","","","","","","3","","","","","","","","",""
"null","273370","SARL_v6","SARL_v6udkb8tu5","641361ae9b3296f4b5ff78ed","fixation","","","img/fixation.png","null","","","test","","","","","","","","","","","","","","","","","","","",""
"354.8999999985099","273731","SARL_v6","SARL_v6udkb8tu5","641361ae9b3296f4b5ff78ed","freq","","","img/blue_2bandit_a2.png","70","","70","test","1","","60","","","","square","circle","58","12","3","0.9482758620689655","","","","","","","",""
"null","274185","SARL_v6","SARL_v6udkb8tu5","641361ae9b3296f4b5ff78ed","freq_resp","","","img/blue_2bandit_a.png","70","img/blue_2bandit_a.png","70","test","","","","","","","","","","","3","","","","","","","","",""
"null","274345","SARL_v6","SARL_v6udkb8tu5","641361ae9b3296f4b5ff78ed","fixation","","","img/fixation.png","null","","","test","","","","","","","","","","","","","","","","","","","",""
"326","274677","SARL_v6","SARL_v6udkb8tu5","641361ae9b3296f4b5ff78ed","freq","","","img/blue_2bandit_a2.png","70","","70","test","1","","61","","","","square","circle","59","13","3","0.9491525423728814","","","","","","","",""
"null","275161","SARL_v6","SARL_v6udkb8tu5","641361ae9b3296f4b5ff78ed","freq_resp","","","img/blue_2bandit_a.png","70","img/blue_2bandit_a.png","70","test","","","","","","","","","","","3","","","","","","","","",""
"null","275321","SARL_v6","SARL_v6udkb8tu5","641361ae9b3296f4b5ff78ed","fixation","","","img/fixation.png","null","","","test","","","","","","","","","","","","","","","","","","","",""
"293.20000000298023","275621","SARL_v6","SARL_v6udkb8tu5","641361ae9b3296f4b5ff78ed","freq","","","img/blue_2bandit_a2.png","70","","70","test","1","","62","","","","square","circle","60","14","3","0.95","","","","","","","",""
"null","276137","SARL_v6","SARL_v6udkb8tu5","641361ae9b3296f4b5ff78ed","freq_resp","","","img/blue_2bandit_a.png","70","img/blue_2bandit_a.png","70","test","","","","","","","","","","","3","","","","","","","","",""
"null","276297","SARL_v6","SARL_v6udkb8tu5","641361ae9b3296f4b5ff78ed","fixation","","","img/fixation.png","null","","","test","","","","","","","","","","","","","","","","","","","",""
"366.8999999985099","276670","SARL_v6","SARL_v6udkb8tu5","641361ae9b3296f4b5ff78ed","freq","","","img/blue_2bandit_a2.png","70","","70","test","1","","63","","","","square","circle","61","15","3","0.9508196721311475","","","","","","","",""
"null","277113","SARL_v6","SARL_v6udkb8tu5","641361ae9b3296f4b5ff78ed","freq_resp","","","img/blue_2bandit_a.png","70","img/blue_2bandit_a.png","70","test","","","","","","","","","","","3","","","","","","","","",""
"null","277273","SARL_v6","SARL_v6udkb8tu5","641361ae9b3296f4b5ff78ed","fixation","","","img/fixation.png","null","","","test","","","","","","","","","","","","","","","","","","","",""
"318.6000000014901","277598","SARL_v6","SARL_v6udkb8tu5","641361ae9b3296f4b5ff78ed","freq","","","img/blue_2bandit_a2.png","70","","70","test","1","","64","","","","square","circle","62","16","3","0.9516129032258065","","","","","","","",""
"null","278089","SARL_v6","SARL_v6udkb8tu5","641361ae9b3296f4b5ff78ed","freq_resp","","","img/blue_2bandit_a.png","70","img/blue_2bandit_a.png","70","test","","","","","","","","","","","3","","","","","","","","",""
"null","278249","SARL_v6","SARL_v6udkb8tu5","641361ae9b3296f4b5ff78ed","fixation","","","img/fixation.png","null","","","test","","","","","","","","","","","","","","","","","","","",""
"422.30000000447035","278678","SARL_v6","SARL_v6udkb8tu5","641361ae9b3296f4b5ff78ed","freq","","","img/blue_2bandit_a2.png","70","","70","test","1","","65","","","","square","circle","63","17","3","0.9523809523809523","","","","","","","",""
"null","279065","SARL_v6","SARL_v6udkb8tu5","641361ae9b3296f4b5ff78ed","freq_resp","","","img/blue_2bandit_a.png","70","img/blue_2bandit_a.png","70","test","","","","","","","","","","","3","","","","","","","","",""
"null","279225","SARL_v6","SARL_v6udkb8tu5","641361ae9b3296f4b5ff78ed","fixation","","","img/fixation.png","null","","","test","","","","","","","","","","","","","","","","","","","",""
"624.7000000029802","279856","SARL_v6","SARL_v6udkb8tu5","641361ae9b3296f4b5ff78ed","freq","","","img/blue_2bandit_a2.png","70","","70","test","1","","66","","","","square","circle","64","18","3","0.953125","","","","","","","",""
"null","280041","SARL_v6","SARL_v6udkb8tu5","641361ae9b3296f4b5ff78ed","freq_resp","","","img/blue_2bandit_a.png","70","img/blue_2bandit_a.png","70","test","","","","","","","","","","","3","","","","","","","","",""
"null","280202","SARL_v6","SARL_v6udkb8tu5","641361ae9b3296f4b5ff78ed","fixation","","","img/fixation.png","null","","","test","","","","","","","","","","","","","","","","","","","",""
"null","281009","SARL_v6","SARL_v6udkb8tu5","641361ae9b3296f4b5ff78ed","freq","","","img/blue_2bandit_a2.png","null","","70","test","0","","67","","","","square","circle","65","19","3","0.9384615384615385","","","","","","","",""
"null","281169","SARL_v6","SARL_v6udkb8tu5","641361ae9b3296f4b5ff78ed","fixation","","","img/fixation.png","null","","","test","","","","","","","","","","","","","","","","","","","",""
"372.1000000014901","281548","SARL_v6","SARL_v6udkb8tu5","641361ae9b3296f4b5ff78ed","freq","","","img/blue_2bandit_a2.png","70","","70","test","1","","68","","","","square","circle","66","20","3","0.9393939393939394","","","","","","","",""
"null","281986","SARL_v6","SARL_v6udkb8tu5","641361ae9b3296f4b5ff78ed","freq_resp","","","img/blue_2bandit_a.png","70","img/blue_2bandit_a.png","70","test","","","","","","","","","","","3","","","","","","","","",""
"null","282145","SARL_v6","SARL_v6udkb8tu5","641361ae9b3296f4b5ff78ed","fixation","","","img/fixation.png","null","","","test","","","","","","","","","","","","","","","","","","","",""
"424.5","282576","SARL_v6","SARL_v6udkb8tu5","641361ae9b3296f4b5ff78ed","infreq","","","img/orange_2bandit_a2.png","68","","68","test","1","","69","","","","square","circle","67","21","3","0.9402985074626866","","","","","","","",""
"null","282961","SARL_v6","SARL_v6udkb8tu5","641361ae9b3296f4b5ff78ed","infreq_resp","","","img/orange_2bandit_a.png","68","img/orange_2bandit_a.png","68","test","","","","","","","","","","","3","","","","","","","","",""
"null","283121","SARL_v6","SARL_v6udkb8tu5","641361ae9b3296f4b5ff78ed","fixation","","","img/fixation.png","null","","","test","","","","","","","","","","","","","","","","","","","",""
"391","283519","SARL_v6","SARL_v6udkb8tu5","641361ae9b3296f4b5ff78ed","freq","","","img/blue_2bandit_a2.png","70","","70","test","1","","70","","","","square","circle","68","22","3","0.9411764705882353","","","","","","","",""
"null","283938","SARL_v6","SARL_v6udkb8tu5","641361ae9b3296f4b5ff78ed","freq_resp","","","img/blue_2bandit_a.png","70","img/blue_2bandit_a.png","70","test","","","","","","","","","","","3","","","","","","","","",""
"null","284097","SARL_v6","SARL_v6udkb8tu5","641361ae9b3296f4b5ff78ed","fixation","","","img/fixation.png","null","","","test","","","","","","","","","","","","","","","","","","","",""
"160.10000000149012","284264","SARL_v6","SARL_v6udkb8tu5","641361ae9b3296f4b5ff78ed","freq","","","img/blue_2bandit_a2.png","70","","70","test","1","","71","","","","square","circle","69","23","3","0.9420289855072463","","","","","","","",""
"null","284913","SARL_v6","SARL_v6udkb8tu5","641361ae9b3296f4b5ff78ed","freq_resp","","","img/blue_2bandit_a.png","70","img/blue_2bandit_a.png","70","test","","","","","","","","","","","3","","","","","","","","",""
"null","285073","SARL_v6","SARL_v6udkb8tu5","641361ae9b3296f4b5ff78ed","fixation","","","img/fixation.png","null","","","test","","","","","","","","","","","","","","","","","","","",""
"622.1000000014901","285702","SARL_v6","SARL_v6udkb8tu5","641361ae9b3296f4b5ff78ed","rl","","","img/black_2bandit_a2.png","75","","0","test","","","72","","","-4","square","circle","","0","3","","75","-4","-8","-8","-4","circle","3","0"
"null","286465","SARL_v6","SARL_v6udkb8tu5","641361ae9b3296f4b5ff78ed","feedback","","","<div class=""verylowPoints""> -4 </div>","null","","na","test","","","NaN","","","","","","","","3","","75","","","","","","3",""
"null","287273","SARL_v6","SARL_v6udkb8tu5","641361ae9b3296f4b5ff78ed","freq","","","img/blue_2bandit_a2.png","null","","70","test","0","","73","","","","square","circle","70","1","4","0.9285714285714286","","","","","","","",""
"null","287434","SARL_v6","SARL_v6udkb8tu5","641361ae9b3296f4b5ff78ed","fixation","","","img/fixation.png","null","","","test","","","","","","","","","","","","","","","","","","","",""
"104.89999999850988","287545","SARL_v6","SARL_v6udkb8tu5","641361ae9b3296f4b5ff78ed","freq","","","img/blue_2bandit_a2.png","70","","70","test","1","","74","","","","square","circle","71","2","4","0.9295774647887324","","","","","","","",""
"null","288249","SARL_v6","SARL_v6udkb8tu5","641361ae9b3296f4b5ff78ed","freq_resp","","","img/blue_2bandit_a.png","70","img/blue_2bandit_a.png","70","test","","","","","","","","","","","4","","","","","","","","",""
"null","288409","SARL_v6","SARL_v6udkb8tu5","641361ae9b3296f4b5ff78ed","fixation","","","img/fixation.png","null","","","test","","","","","","","","","","","","","","","","","","","",""
"405.30000000447035","288821","SARL_v6","SARL_v6udkb8tu5","641361ae9b3296f4b5ff78ed","freq","","","img/blue_2bandit_a2.png","70","","70","test","1","","75","","","","square","circle","72","3","4","0.9305555555555556","","","","","","","",""
"null","289225","SARL_v6","SARL_v6udkb8tu5","641361ae9b3296f4b5ff78ed","freq_resp","","","img/blue_2bandit_a.png","70","img/blue_2bandit_a.png","70","test","","","","","","","","","","","4","","","","","","","","",""
"null","289386","SARL_v6","SARL_v6udkb8tu5","641361ae9b3296f4b5ff78ed","fixation","","","img/fixation.png","null","","","test","","","","","","","","","","","","","","","","","","","",""
"299.5","289692","SARL_v6","SARL_v6udkb8tu5","641361ae9b3296f4b5ff78ed","freq","","","img/blue_2bandit_a2.png","70","","70","test","1","","76","","","","square","circle","73","4","4","0.9315068493150684","","","","","","","",""
"null","290202","SARL_v6","SARL_v6udkb8tu5","641361ae9b3296f4b5ff78ed","freq_resp","","","img/blue_2bandit_a.png","70","img/blue_2bandit_a.png","70","test","","","","","","","","","","","4","","","","","","","","",""
"null","290361","SARL_v6","SARL_v6udkb8tu5","641361ae9b3296f4b5ff78ed","fixation","","","img/fixation.png","null","","","test","","","","","","","","","","","","","","","","","","","",""
"298.6000000014901","290666","SARL_v6","SARL_v6udkb8tu5","641361ae9b3296f4b5ff78ed","freq","","","img/blue_2bandit_a2.png","70","","70","test","1","","77","","","","square","circle","74","5","4","0.9324324324324325","","","","","","","",""
"null","291177","SARL_v6","SARL_v6udkb8tu5","641361ae9b3296f4b5ff78ed","freq_resp","","","img/blue_2bandit_a.png","70","img/blue_2bandit_a.png","70","test","","","","","","","","","","","4","","","","","","","","",""
"null","291337","SARL_v6","SARL_v6udkb8tu5","641361ae9b3296f4b5ff78ed","fixation","","","img/fixation.png","null","","","test","","","","","","","","","","","","","","","","","","","",""
"93","291437","SARL_v6","SARL_v6udkb8tu5","641361ae9b3296f4b5ff78ed","freq","","","img/blue_2bandit_a2.png","70","","70","test","1","","78","","","","square","circle","75","6","4","0.9333333333333333","","","","","","","",""
"null","292153","SARL_v6","SARL_v6udkb8tu5","641361ae9b3296f4b5ff78ed","freq_resp","","","img/blue_2bandit_a.png","70","img/blue_2bandit_a.png","70","test","","","","","","","","","","","4","","","","","","","","",""
"null","292313","SARL_v6","SARL_v6udkb8tu5","641361ae9b3296f4b5ff78ed","fixation","","","img/fixation.png","null","","","test","","","","","","","","","","","","","","","","","","","",""
"85.20000000298023","292405","SARL_v6","SARL_v6udkb8tu5","641361ae9b3296f4b5ff78ed","freq","","","img/blue_2bandit_a2.png","70","","70","test","1","","79","","","","square","circle","76","7","4","0.9342105263157895","","","","","","","",""
"null","293129","SARL_v6","SARL_v6udkb8tu5","641361ae9b3296f4b5ff78ed","freq_resp","","","img/blue_2bandit_a.png","70","img/blue_2bandit_a.png","70","test","","","","","","","","","","","4","","","","","","","","",""
"null","293289","SARL_v6","SARL_v6udkb8tu5","641361ae9b3296f4b5ff78ed","fixation","","","img/fixation.png","null","","","test","","","","","","","","","","","","","","","","","","","",""
"184.5","293480","SARL_v6","SARL_v6udkb8tu5","641361ae9b3296f4b5ff78ed","infreq","","","img/orange_2bandit_a2.png","70","","68","test","0","","80","","","","square","circle","77","8","4","0.922077922077922","","","","","","","",""
"null","294105","SARL_v6","SARL_v6udkb8tu5","641361ae9b3296f4b5ff78ed","infreq_resp","","","img/orange_2bandit_a.png","70","img/orange_2bandit_a.png","68","test","","","","","","","","","","","4","","","","","","","","",""
"null","294265","SARL_v6","SARL_v6udkb8tu5","641361ae9b3296f4b5ff78ed","fixation","","","img/fixation.png","null","","","test","","","","","","","","","","","","","","","","","","","",""
"440.20000000298023","294712","SARL_v6","SARL_v6udkb8tu5","641361ae9b3296f4b5ff78ed","freq","","","img/blue_2bandit_a2.png","70","","70","test","1","","81","","","","square","circle","78","9","4","0.9230769230769231","","","","","","","",""
"null","295081","SARL_v6","SARL_v6udkb8tu5","641361ae9b3296f4b5ff78ed","freq_resp","","","img/blue_2bandit_a.png","70","img/blue_2bandit_a.png","70","test","","","","","","","","","","","4","","","","","","","","",""
"null","295241","SARL_v6","SARL_v6udkb8tu5","641361ae9b3296f4b5ff78ed","fixation","","","img/fixation.png","null","","","test","","","","","","","","","","","","","","","","","","","",""
"348.1000000014901","295596","SARL_v6","SARL_v6udkb8tu5","641361ae9b3296f4b5ff78ed","freq","","","img/blue_2bandit_a2.png","70","","70","test","1","","82","","","","square","circle","79","10","4","0.9240506329113924","","","","","","","",""
"null","296057","SARL_v6","SARL_v6udkb8tu5","641361ae9b3296f4b5ff78ed","freq_resp","","","img/blue_2bandit_a.png","70","img/blue_2bandit_a.png","70","test","","","","","","","","","","","4","","","","","","","","",""
"null","296217","SARL_v6","SARL_v6udkb8tu5","641361ae9b3296f4b5ff78ed","fixation","","","img/fixation.png","null","","","test","","","","","","","","","","","","","","","","","","","",""
"106.89999999850988","296330","SARL_v6","SARL_v6udkb8tu5","641361ae9b3296f4b5ff78ed","freq","","","img/blue_2bandit_a2.png","70","","70","test","1","","83","","","","square","circle","80","11","4","0.925","","","","","","","",""
"null","297033","SARL_v6","SARL_v6udkb8tu5","641361ae9b3296f4b5ff78ed","freq_resp","","","img/blue_2bandit_a.png","70","img/blue_2bandit_a.png","70","test","","","","","","","","","","","4","","","","","","","","",""
"null","297194","SARL_v6","SARL_v6udkb8tu5","641361ae9b3296f4b5ff78ed","fixation","","","img/fixation.png","null","","","test","","","","","","","","","","","","","","","","","","","",""
"93.80000000447035","297293","SARL_v6","SARL_v6udkb8tu5","641361ae9b3296f4b5ff78ed","freq","","","img/blue_2bandit_a2.png","70","","70","test","1","","84","","","","square","circle","81","12","4","0.9259259259259259","","","","","","","",""
"null","298009","SARL_v6","SARL_v6udkb8tu5","641361ae9b3296f4b5ff78ed","freq_resp","","","img/blue_2bandit_a.png","70","img/blue_2bandit_a.png","70","test","","","","","","","","","","","4","","","","","","","","",""
"null","298169","SARL_v6","SARL_v6udkb8tu5","641361ae9b3296f4b5ff78ed","fixation","","","img/fixation.png","null","","","test","","","","","","","","","","","","","","","","","","","",""
"110.39999999850988","298286","SARL_v6","SARL_v6udkb8tu5","641361ae9b3296f4b5ff78ed","freq","","","img/blue_2bandit_a2.png","70","","70","test","1","","85","","","","square","circle","82","13","4","0.926829268292683","","","","","","","",""
"null","298985","SARL_v6","SARL_v6udkb8tu5","641361ae9b3296f4b5ff78ed","freq_resp","","","img/blue_2bandit_a.png","70","img/blue_2bandit_a.png","70","test","","","","","","","","","","","4","","","","","","","","",""
"null","299145","SARL_v6","SARL_v6udkb8tu5","641361ae9b3296f4b5ff78ed","fixation","","","img/fixation.png","null","","","test","","","","","","","","","","","","","","","","","","","",""
"329.30000000447035","299481","SARL_v6","SARL_v6udkb8tu5","641361ae9b3296f4b5ff78ed","freq","","","img/blue_2bandit_a2.png","70","","70","test","1","","86","","","","square","circle","83","14","4","0.927710843373494","","","","","","","",""
"null","299961","SARL_v6","SARL_v6udkb8tu5","641361ae9b3296f4b5ff78ed","freq_resp","","","img/blue_2bandit_a.png","70","img/blue_2bandit_a.png","70","test","","","","","","","","","","","4","","","","","","","","",""
"null","300121","SARL_v6","SARL_v6udkb8tu5","641361ae9b3296f4b5ff78ed","fixation","","","img/fixation.png","null","","","test","","","","","","","","","","","","","","","","","","","",""
"292.79999999701977","300421","SARL_v6","SARL_v6udkb8tu5","641361ae9b3296f4b5ff78ed","freq","","","img/blue_2bandit_a2.png","70","","70","test","1","","87","","","","square","circle","84","15","4","0.9285714285714286","","","","","","","",""
"null","300937","SARL_v6","SARL_v6udkb8tu5","641361ae9b3296f4b5ff78ed","freq_resp","","","img/blue_2bandit_a.png","70","img/blue_2bandit_a.png","70","test","","","","","","","","","","","4","","","","","","","","",""
"null","301097","SARL_v6","SARL_v6udkb8tu5","641361ae9b3296f4b5ff78ed","fixation","","","img/fixation.png","null","","","test","","","","","","","","","","","","","","","","","","","",""
"392.1000000014901","301496","SARL_v6","SARL_v6udkb8tu5","641361ae9b3296f4b5ff78ed","infreq","","","img/orange_2bandit_a2.png","68","","68","test","1","","88","","","","square","circle","85","16","4","0.9294117647058824","","","","","","","",""
"null","301913","SARL_v6","SARL_v6udkb8tu5","641361ae9b3296f4b5ff78ed","infreq_resp","","","img/orange_2bandit_a.png","68","img/orange_2bandit_a.png","68","test","","","","","","","","","","","4","","","","","","","","",""
"null","302073","SARL_v6","SARL_v6udkb8tu5","641361ae9b3296f4b5ff78ed","fixation","","","img/fixation.png","null","","","test","","","","","","","","","","","","","","","","","","","",""
"332.5","302412","SARL_v6","SARL_v6udkb8tu5","641361ae9b3296f4b5ff78ed","freq","","","img/blue_2bandit_a2.png","70","","70","test","1","","89","","","","square","circle","86","17","4","0.9302325581395349","","","","","","","",""
"null","302889","SARL_v6","SARL_v6udkb8tu5","641361ae9b3296f4b5ff78ed","freq_resp","","","img/blue_2bandit_a.png","70","img/blue_2bandit_a.png","70","test","","","","","","","","","","","4","","","","","","","","",""
"null","303049","SARL_v6","SARL_v6udkb8tu5","641361ae9b3296f4b5ff78ed","fixation","","","img/fixation.png","null","","","test","","","","","","","","","","","","","","","","","","","",""
"264","303319","SARL_v6","SARL_v6udkb8tu5","641361ae9b3296f4b5ff78ed","freq","","","img/blue_2bandit_a2.png","70","","70","test","1","","90","","","","square","circle","87","18","4","0.9310344827586207","","","","","","","",""
"null","303866","SARL_v6","SARL_v6udkb8tu5","641361ae9b3296f4b5ff78ed","freq_resp","","","img/blue_2bandit_a.png","70","img/blue_2bandit_a.png","70","test","","","","","","","","","","","4","","","","","","","","",""
"null","304025","SARL_v6","SARL_v6udkb8tu5","641361ae9b3296f4b5ff78ed","fixation","","","img/fixation.png","null","","","test","","","","","","","","","","","","","","","","","","","",""
"149.79999999701977","304181","SARL_v6","SARL_v6udkb8tu5","641361ae9b3296f4b5ff78ed","freq","","","img/blue_2bandit_a2.png","70","","70","test","1","","91","","","","square","circle","88","19","4","0.9318181818181818","","","","","","","",""
"null","304842","SARL_v6","SARL_v6udkb8tu5","641361ae9b3296f4b5ff78ed","freq_resp","","","img/blue_2bandit_a.png","70","img/blue_2bandit_a.png","70","test","","","","","","","","","","","4","","","","","","","","",""
"null","305002","SARL_v6","SARL_v6udkb8tu5","641361ae9b3296f4b5ff78ed","fixation","","","img/fixation.png","null","","","test","","","","","","","","","","","","","","","","","","","",""
"121.39999999850988","305130","SARL_v6","SARL_v6udkb8tu5","641361ae9b3296f4b5ff78ed","freq","","","img/blue_2bandit_a2.png","70","","70","test","1","","92","","","","square","circle","89","20","4","0.9325842696629213","","","","","","","",""
"null","305818","SARL_v6","SARL_v6udkb8tu5","641361ae9b3296f4b5ff78ed","freq_resp","","","img/blue_2bandit_a.png","70","img/blue_2bandit_a.png","70","test","","","","","","","","","","","4","","","","","","","","",""
"null","305977","SARL_v6","SARL_v6udkb8tu5","641361ae9b3296f4b5ff78ed","fixation","","","img/fixation.png","null","","","test","","","","","","","","","","","","","","","","","","","",""
"549.7999999970198","306533","SARL_v6","SARL_v6udkb8tu5","641361ae9b3296f4b5ff78ed","rl","","","img/black_2bandit_a2.png","75","","0","test","","","93","","","0","square","circle","","0","4","","75","0","-12","-12","0","circle","4","0"
"null","307297","SARL_v6","SARL_v6udkb8tu5","641361ae9b3296f4b5ff78ed","feedback","","","<div class=""verylowPoints""> 0 </div>","null","","na","test","","","NaN","","","","","","","","4","","75","","","","","","4",""
"null","308105","SARL_v6","SARL_v6udkb8tu5","641361ae9b3296f4b5ff78ed","freq","","","img/blue_2bandit_a2.png","null","","70","test","0","","94","","","","square","circle","90","1","5","0.9222222222222223","","","","","","","",""
"null","308265","SARL_v6","SARL_v6udkb8tu5","641361ae9b3296f4b5ff78ed","fixation","","","img/fixation.png","null","","","test","","","","","","","","","","","","","","","","","","","",""
"392.8999999985099","308664","SARL_v6","SARL_v6udkb8tu5","641361ae9b3296f4b5ff78ed","freq","","","img/blue_2bandit_a2.png","70","","70","test","1","","95","","","","square","circle","91","2","5","0.9230769230769231","","","","","","","",""
"null","309081","SARL_v6","SARL_v6udkb8tu5","641361ae9b3296f4b5ff78ed","freq_resp","","","img/blue_2bandit_a.png","70","img/blue_2bandit_a.png","70","test","","","","","","","","","","","5","","","","","","","","",""
"null","309241","SARL_v6","SARL_v6udkb8tu5","641361ae9b3296f4b5ff78ed","fixation","","","img/fixation.png","null","","","test","","","","","","","","","","","","","","","","","","","",""
"155.90000000596046","309404","SARL_v6","SARL_v6udkb8tu5","641361ae9b3296f4b5ff78ed","freq","","","img/blue_2bandit_a2.png","70","","70","test","1","","96","","","","square","circle","92","3","5","0.9239130434782609","","","","","","","",""
"null","310057","SARL_v6","SARL_v6udkb8tu5","641361ae9b3296f4b5ff78ed","freq_resp","","","img/blue_2bandit_a.png","70","img/blue_2bandit_a.png","70","test","","","","","","","","","","","5","","","","","","","","",""
"null","310217","SARL_v6","SARL_v6udkb8tu5","641361ae9b3296f4b5ff78ed","fixation","","","img/fixation.png","null","","","test","","","","","","","","","","","","","","","","","","","",""
"80.10000000149012","310303","SARL_v6","SARL_v6udkb8tu5","641361ae9b3296f4b5ff78ed","freq","","","img/blue_2bandit_a2.png","70","","70","test","1","","97","","","","square","circle","93","4","5","0.9247311827956989","","","","","","","",""
"null","311033","SARL_v6","SARL_v6udkb8tu5","641361ae9b3296f4b5ff78ed","freq_resp","","","img/blue_2bandit_a.png","70","img/blue_2bandit_a.png","70","test","","","","","","","","","","","5","","","","","","","","",""
"null","311193","SARL_v6","SARL_v6udkb8tu5","641361ae9b3296f4b5ff78ed","fixation","","","img/fixation.png","null","","","test","","","","","","","","","","","","","","","","","","","",""
"93.30000000447035","311293","SARL_v6","SARL_v6udkb8tu5","641361ae9b3296f4b5ff78ed","freq","","","img/blue_2bandit_a2.png","70","","70","test","1","","98","","","","square","circle","94","5","5","0.925531914893617","","","","","","","",""
"null","312009","SARL_v6","SARL_v6udkb8tu5","641361ae9b3296f4b5ff78ed","freq_resp","","","img/blue_2bandit_a.png","70","img/blue_2bandit_a.png","70","test","","","","","","","","","","","5","","","","","","","","",""
"null","312169","SARL_v6","SARL_v6udkb8tu5","641361ae9b3296f4b5ff78ed","fixation","","","img/fixation.png","null","","","test","","","","","","","","","","","","","","","","","","","",""
"312.79999999701977","312489","SARL_v6","SARL_v6udkb8tu5","641361ae9b3296f4b5ff78ed","freq","","","img/blue_2bandit_a2.png","70","","70","test","1","","99","","","","square","circle","95","6","5","0.9263157894736842","","","","","","","",""
"null","312985","SARL_v6","SARL_v6udkb8tu5","641361ae9b3296f4b5ff78ed","freq_resp","","","img/blue_2bandit_a.png","70","img/blue_2bandit_a.png","70","test","","","","","","","","","","","5","","","","","","","","",""
"null","313145","SARL_v6","SARL_v6udkb8tu5","641361ae9b3296f4b5ff78ed","fixation","","","img/fixation.png","null","","","test","","","","","","","","","","","","","","","","","","","",""
"389.59999999403954","313541","SARL_v6","SARL_v6udkb8tu5","641361ae9b3296f4b5ff78ed","freq","","","img/blue_2bandit_a2.png","70","","70","test","1","","100","","","","square","circle","96","7","5","0.9270833333333334","","","","","","","",""
"null","313961","SARL_v6","SARL_v6udkb8tu5","641361ae9b3296f4b5ff78ed","freq_resp","","","img/blue_2bandit_a.png","70","img/blue_2bandit_a.png","70","test","","","","","","","","","","","5","","","","","","","","",""
"null","314121","SARL_v6","SARL_v6udkb8tu5","641361ae9b3296f4b5ff78ed","fixation","","","img/fixation.png","null","","","test","","","","","","","","","","","","","","","","","","","",""
"305.29999999701977","314433","SARL_v6","SARL_v6udkb8tu5","641361ae9b3296f4b5ff78ed","freq","","","img/blue_2bandit_a2.png","70","","70","test","1","","101","","","","square","circle","97","8","5","0.9278350515463918","","","","","","","",""
"null","314938","SARL_v6","SARL_v6udkb8tu5","641361ae9b3296f4b5ff78ed","freq_resp","","","img/blue_2bandit_a.png","70","img/blue_2bandit_a.png","70","test","","","","","","","","","","","5","","","","","","","","",""
"null","315098","SARL_v6","SARL_v6udkb8tu5","641361ae9b3296f4b5ff78ed","fixation","","","img/fixation.png","null","","","test","","","","","","","","","","","","","","","","","","","",""
"335.40000000596046","315439","SARL_v6","SARL_v6udkb8tu5","641361ae9b3296f4b5ff78ed","freq","","","img/blue_2bandit_a2.png","70","","70","test","1","","102","","","","square","circle","98","9","5","0.9285714285714286","","","","","","","",""
"null","315913","SARL_v6","SARL_v6udkb8tu5","641361ae9b3296f4b5ff78ed","freq_resp","","","img/blue_2bandit_a.png","70","img/blue_2bandit_a.png","70","test","","","","","","","","","","","5","","","","","","","","",""
"null","316073","SARL_v6","SARL_v6udkb8tu5","641361ae9b3296f4b5ff78ed","fixation","","","img/fixation.png","null","","","test","","","","","","","","","","","","","","","","","","","",""
"375.5","316455","SARL_v6","SARL_v6udkb8tu5","641361ae9b3296f4b5ff78ed","freq","","","img/blue_2bandit_a2.png","70","","70","test","1","","103","","","","square","circle","99","10","5","0.9292929292929293","","","","","","","",""
"null","316889","SARL_v6","SARL_v6udkb8tu5","641361ae9b3296f4b5ff78ed","freq_resp","","","img/blue_2bandit_a.png","70","img/blue_2bandit_a.png","70","test","","","","","","","","","","","5","","","","","","","","",""
"null","317049","SARL_v6","SARL_v6udkb8tu5","641361ae9b3296f4b5ff78ed","fixation","","","img/fixation.png","null","","","test","","","","","","","","","","","","","","","","","","","",""
"398.79999999701977","317454","SARL_v6","SARL_v6udkb8tu5","641361ae9b3296f4b5ff78ed","freq","","","img/blue_2bandit_a2.png","70","","70","test","1","","104","","","","square","circle","100","11","5","0.93","","","","","","","",""
"null","317865","SARL_v6","SARL_v6udkb8tu5","641361ae9b3296f4b5ff78ed","freq_resp","","","img/blue_2bandit_a.png","70","img/blue_2bandit_a.png","70","test","","","","","","","","","","","5","","","","","","","","",""
"null","318025","SARL_v6","SARL_v6udkb8tu5","641361ae9b3296f4b5ff78ed","fixation","","","img/fixation.png","null","","","test","","","","","","","","","","","","","","","","","","","",""
"446.8999999985099","318478","SARL_v6","SARL_v6udkb8tu5","641361ae9b3296f4b5ff78ed","freq","","","img/blue_2bandit_a2.png","70","","70","test","1","","105","","","","square","circle","101","12","5","0.9306930693069307","","","","","","","",""
"null","318841","SARL_v6","SARL_v6udkb8tu5","641361ae9b3296f4b5ff78ed","freq_resp","","","img/blue_2bandit_a.png","70","img/blue_2bandit_a.png","70","test","","","","","","","","","","","5","","","","","","","","",""
"null","319001","SARL_v6","SARL_v6udkb8tu5","641361ae9b3296f4b5ff78ed","fixation","","","img/fixation.png","null","","","test","","","","","","","","","","","","","","","","","","","",""
"285","319293","SARL_v6","SARL_v6udkb8tu5","641361ae9b3296f4b5ff78ed","freq","","","img/blue_2bandit_a2.png","70","","70","test","1","","106","","","","square","circle","102","13","5","0.9313725490196079","","","","","","","",""
"null","319817","SARL_v6","SARL_v6udkb8tu5","641361ae9b3296f4b5ff78ed","freq_resp","","","img/blue_2bandit_a.png","70","img/blue_2bandit_a.png","70","test","","","","","","","","","","","5","","","","","","","","",""
"null","319978","SARL_v6","SARL_v6udkb8tu5","641361ae9b3296f4b5ff78ed","fixation","","","img/fixation.png","null","","","test","","","","","","","","","","","","","","","","","","","",""
"309.5","320294","SARL_v6","SARL_v6udkb8tu5","641361ae9b3296f4b5ff78ed","freq","","","img/blue_2bandit_a2.png","70","","70","test","1","","107","","","","square","circle","103","14","5","0.9320388349514563","","","","","","","",""
"null","320793","SARL_v6","SARL_v6udkb8tu5","641361ae9b3296f4b5ff78ed","freq_resp","","","img/blue_2bandit_a.png","70","img/blue_2bandit_a.png","70","test","","","","","","","","","","","5","","","","","","","","",""
"null","320953","SARL_v6","SARL_v6udkb8tu5","641361ae9b3296f4b5ff78ed","fixation","","","img/fixation.png","null","","","test","","","","","","","","","","","","","","","","","","","",""
"266.5","321226","SARL_v6","SARL_v6udkb8tu5","641361ae9b3296f4b5ff78ed","freq","","","img/blue_2bandit_a2.png","70","","70","test","1","","108","","","","square","circle","104","15","5","0.9326923076923077","","","","","","","",""
"null","321769","SARL_v6","SARL_v6udkb8tu5","641361ae9b3296f4b5ff78ed","freq_resp","","","img/blue_2bandit_a.png","70","img/blue_2bandit_a.png","70","test","","","","","","","","","","","5","","","","","","","","",""
"null","321929","SARL_v6","SARL_v6udkb8tu5","641361ae9b3296f4b5ff78ed","fixation","","","img/fixation.png","null","","","test","","","","","","","","","","","","","","","","","","","",""
"288.79999999701977","322224","SARL_v6","SARL_v6udkb8tu5","641361ae9b3296f4b5ff78ed","freq","","","img/blue_2bandit_a2.png","70","","70","test","1","","109","","","","square","circle","105","16","5","0.9333333333333333","","","","","","","",""
"null","322745","SARL_v6","SARL_v6udkb8tu5","641361ae9b3296f4b5ff78ed","freq_resp","","","img/blue_2bandit_a.png","70","img/blue_2bandit_a.png","70","test","","","","","","","","","","","5","","","","","","","","",""
"null","322905","SARL_v6","SARL_v6udkb8tu5","641361ae9b3296f4b5ff78ed","fixation","","","img/fixation.png","null","","","test","","","","","","","","","","","","","","","","","","","",""
"394.20000000298023","323306","SARL_v6","SARL_v6udkb8tu5","641361ae9b3296f4b5ff78ed","freq","","","img/blue_2bandit_a2.png","70","","70","test","1","","110","","","","square","circle","106","17","5","0.9339622641509434","","","","","","","",""
"null","323721","SARL_v6","SARL_v6udkb8tu5","641361ae9b3296f4b5ff78ed","freq_resp","","","img/blue_2bandit_a.png","70","img/blue_2bandit_a.png","70","test","","","","","","","","","","","5","","","","","","","","",""
"null","323881","SARL_v6","SARL_v6udkb8tu5","641361ae9b3296f4b5ff78ed","fixation","","","img/fixation.png","null","","","test","","","","","","","","","","","","","","","","","","","",""
"null","324689","SARL_v6","SARL_v6udkb8tu5","641361ae9b3296f4b5ff78ed","freq","","","img/blue_2bandit_a2.png","null","","70","test","0","","111","","","","square","circle","107","18","5","0.9252336448598131","","","","","","","",""
"null","324849","SARL_v6","SARL_v6udkb8tu5","641361ae9b3296f4b5ff78ed","fixation","","","img/fixation.png","null","","","test","","","","","","","","","","","","","","","","","","","",""
"452.5","325309","SARL_v6","SARL_v6udkb8tu5","641361ae9b3296f4b5ff78ed","infreq","","","img/orange_2bandit_a2.png","68","","68","test","1","","112","","","","square","circle","108","19","5","0.9259259259259259","","","","","","","",""
"null","325665","SARL_v6","SARL_v6udkb8tu5","641361ae9b3296f4b5ff78ed","infreq_resp","","","img/orange_2bandit_a.png","68","img/orange_2bandit_a.png","68","test","","","","","","","","","","","5","","","","","","","","",""
"null","325826","SARL_v6","SARL_v6udkb8tu5","641361ae9b3296f4b5ff78ed","fixation","","","img/fixation.png","null","","","test","","","","","","","","","","","","","","","","","","","",""
"334.80000000447035","326166","SARL_v6","SARL_v6udkb8tu5","641361ae9b3296f4b5ff78ed","infreq","","","img/orange_2bandit_a2.png","68","","68","test","1","","113","","","","square","circle","109","20","5","0.926605504587156","","","","","","","",""
"null","326641","SARL_v6","SARL_v6udkb8tu5","641361ae9b3296f4b5ff78ed","infreq_resp","","","img/orange_2bandit_a.png","68","img/orange_2bandit_a.png","68","test","","","","","","","","","","","5","","","","","","","","",""
"null","326802","SARL_v6","SARL_v6udkb8tu5","641361ae9b3296f4b5ff78ed","fixation","","","img/fixation.png","null","","","test","","","","","","","","","","","","","","","","","","","",""
"322.5","327130","SARL_v6","SARL_v6udkb8tu5","641361ae9b3296f4b5ff78ed","freq","","","img/blue_2bandit_a2.png","68","","70","test","0","","114","","","","square","circle","110","21","5","0.9181818181818182","","","","","","","",""
"null","327617","SARL_v6","SARL_v6udkb8tu5","641361ae9b3296f4b5ff78ed","freq_resp","","","img/blue_2bandit_a.png","68","img/blue_2bandit_a.png","70","test","","","","","","","","","","","5","","","","","","","","",""
"null","327777","SARL_v6","SARL_v6udkb8tu5","641361ae9b3296f4b5ff78ed","fixation","","","img/fixation.png","null","","","test","","","","","","","","","","","","","","","","","","","",""
"449","328233","SARL_v6","SARL_v6udkb8tu5","641361ae9b3296f4b5ff78ed","freq","","","img/blue_2bandit_a2.png","70","","70","test","1","","115","","","","square","circle","111","22","5","0.918918918918919","","","","","","","",""
"null","328593","SARL_v6","SARL_v6udkb8tu5","641361ae9b3296f4b5ff78ed","freq_resp","","","img/blue_2bandit_a.png","70","img/blue_2bandit_a.png","70","test","","","","","","","","","","","5","","","","","","","","",""
"null","328753","SARL_v6","SARL_v6udkb8tu5","641361ae9b3296f4b5ff78ed","fixation","","","img/fixation.png","null","","","test","","","","","","","","","","","","","","","","","","","",""
"226.69999999552965","328987","SARL_v6","SARL_v6udkb8tu5","641361ae9b3296f4b5ff78ed","freq","","","img/blue_2bandit_a2.png","70","","70","test","1","","116","","","","square","circle","112","23","5","0.9196428571428571","","","","","","","",""
"null","329570","SARL_v6","SARL_v6udkb8tu5","641361ae9b3296f4b5ff78ed","freq_resp","","","img/blue_2bandit_a.png","70","img/blue_2bandit_a.png","70","test","","","","","","","","","","","5","","","","","","","","",""
"null","329729","SARL_v6","SARL_v6udkb8tu5","641361ae9b3296f4b5ff78ed","fixation","","","img/fixation.png","null","","","test","","","","","","","","","","","","","","","","","","","",""
"120.5","329856","SARL_v6","SARL_v6udkb8tu5","641361ae9b3296f4b5ff78ed","freq","","","img/blue_2bandit_a2.png","70","","70","test","1","","117","","","","square","circle","113","24","5","0.9203539823008849","","","","","","","",""
"null","330546","SARL_v6","SARL_v6udkb8tu5","641361ae9b3296f4b5ff78ed","freq_resp","","","img/blue_2bandit_a.png","70","img/blue_2bandit_a.png","70","test","","","","","","","","","","","5","","","","","","","","",""
"null","330706","SARL_v6","SARL_v6udkb8tu5","641361ae9b3296f4b5ff78ed","fixation","","","img/fixation.png","null","","","test","","","","","","","","","","","","","","","","","","","",""
"486.79999999701977","331199","SARL_v6","SARL_v6udkb8tu5","641361ae9b3296f4b5ff78ed","rl","","","img/black_2bandit_a2.png","75","","0","test","","","118","","","4","square","circle","","0","5","","75","4","-7","-7","4","circle","5","0"
"null","331961","SARL_v6","SARL_v6udkb8tu5","641361ae9b3296f4b5ff78ed","feedback","","","<div class=""veryhighPoints""> 4 </div>","null","","na","test","","","NaN","","","","","","","","5","","75","","","","","","5",""
"322.1000000014901","332290","SARL_v6","SARL_v6udkb8tu5","641361ae9b3296f4b5ff78ed","freq","","","img/blue_2bandit_a2.png","70","","70","test","1","","119","","","","square","circle","114","1","6","0.9210526315789473","","","","","","","",""
"null","332777","SARL_v6","SARL_v6udkb8tu5","641361ae9b3296f4b5ff78ed","freq_resp","","","img/blue_2bandit_a.png","70","img/blue_2bandit_a.png","70","test","","","","","","","","","","","6","","","","","","","","",""
"null","332938","SARL_v6","SARL_v6udkb8tu5","641361ae9b3296f4b5ff78ed","fixation","","","img/fixation.png","null","","","test","","","","","","","","","","","","","","","","","","","",""
"233.89999999850988","333178","SARL_v6","SARL_v6udkb8tu5","641361ae9b3296f4b5ff78ed","infreq","","","img/orange_2bandit_a2.png","70","","68","test","0","","120","","","","square","circle","115","2","6","0.9130434782608695","","","","","","","",""
"null","333753","SARL_v6","SARL_v6udkb8tu5","641361ae9b3296f4b5ff78ed","infreq_resp","","","img/orange_2bandit_a.png","70","img/orange_2bandit_a.png","68","test","","","","","","","","","","","6","","","","","","","","",""
"null","333913","SARL_v6","SARL_v6udkb8tu5","641361ae9b3296f4b5ff78ed","fixation","","","img/fixation.png","null","","","test","","","","","","","","","","","","","","","","","","","",""
"269.8999999985099","334190","SARL_v6","SARL_v6udkb8tu5","641361ae9b3296f4b5ff78ed","infreq","","","img/orange_2bandit_a2.png","68","","68","test","1","","121","","","","square","circle","116","3","6","0.9137931034482759","","","","","","","",""
"null","334729","SARL_v6","SARL_v6udkb8tu5","641361ae9b3296f4b5ff78ed","infreq_resp","","","img/orange_2bandit_a.png","68","img/orange_2bandit_a.png","68","test","","","","","","","","","","","6","","","","","","","","",""
"null","334889","SARL_v6","SARL_v6udkb8tu5","641361ae9b3296f4b5ff78ed","fixation","","","img/fixation.png","null","","","test","","","","","","","","","","","","","","","","","","","",""
"333.30000000447035","335229","SARL_v6","SARL_v6udkb8tu5","641361ae9b3296f4b5ff78ed","freq","","","img/blue_2bandit_a2.png","68","","70","test","0","","122","","","","square","circle","117","4","6","0.905982905982906","","","","","","","",""
"null","335705","SARL_v6","SARL_v6udkb8tu5","641361ae9b3296f4b5ff78ed","freq_resp","","","img/blue_2bandit_a.png","68","img/blue_2bandit_a.png","70","test","","","","","","","","","","","6","","","","","","","","",""
"null","335865","SARL_v6","SARL_v6udkb8tu5","641361ae9b3296f4b5ff78ed","fixation","","","img/fixation.png","null","","","test","","","","","","","","","","","","","","","","","","","",""
"425.3999999985099","336297","SARL_v6","SARL_v6udkb8tu5","641361ae9b3296f4b5ff78ed","freq","","","img/blue_2bandit_a2.png","70","","70","test","1","","123","","","","square","circle","118","5","6","0.9067796610169492","","","","","","","",""
"null","336681","SARL_v6","SARL_v6udkb8tu5","641361ae9b3296f4b5ff78ed","freq_resp","","","img/blue_2bandit_a.png","70","img/blue_2bandit_a.png","70","test","","","","","","","","","","","6","","","","","","","","",""
"null","336841","SARL_v6","SARL_v6udkb8tu5","641361ae9b3296f4b5ff78ed","fixation","","","img/fixation.png","null","","","test","","","","","","","","","","","","","","","","","","","",""
"314.69999999552965","337162","SARL_v6","SARL_v6udkb8tu5","641361ae9b3296f4b5ff78ed","freq","","","img/blue_2bandit_a2.png","70","","70","test","1","","124","","","","square","circle","119","6","6","0.907563025210084","","","","","","","",""
"null","337657","SARL_v6","SARL_v6udkb8tu5","641361ae9b3296f4b5ff78ed","freq_resp","","","img/blue_2bandit_a.png","70","img/blue_2bandit_a.png","70","test","","","","","","","","","","","6","","","","","","","","",""
"null","337817","SARL_v6","SARL_v6udkb8tu5","641361ae9b3296f4b5ff78ed","fixation","","","img/fixation.png","null","","","test","","","","","","","","","","","","","","","","","","","",""
"157.30000000447035","337981","SARL_v6","SARL_v6udkb8tu5","641361ae9b3296f4b5ff78ed","freq","","","img/blue_2bandit_a2.png","70","","70","test","1","","125","","","","square","circle","120","7","6","0.9083333333333333","","","","","","","",""
"null","338633","SARL_v6","SARL_v6udkb8tu5","641361ae9b3296f4b5ff78ed","freq_resp","","","img/blue_2bandit_a.png","70","img/blue_2bandit_a.png","70","test","","","","","","","","","","","6","","","","","","","","",""
"null","338793","SARL_v6","SARL_v6udkb8tu5","641361ae9b3296f4b5ff78ed","fixation","","","img/fixation.png","null","","","test","","","","","","","","","","","","","","","","","","","",""
"5.600000001490116","338807","SARL_v6","SARL_v6udkb8tu5","641361ae9b3296f4b5ff78ed","freq","","","img/blue_2bandit_a2.png","70","","70","test","1","","126","","","","square","circle","121","8","6","0.9090909090909091","","","","","","","",""
"null","339609","SARL_v6","SARL_v6udkb8tu5","641361ae9b3296f4b5ff78ed","freq_resp","","","img/blue_2bandit_a.png","70","img/blue_2bandit_a.png","70","test","","","","","","","","","","","6","","","","","","","","",""
"null","339770","SARL_v6","SARL_v6udkb8tu5","641361ae9b3296f4b5ff78ed","fixation","","","img/fixation.png","null","","","test","","","","","","","","","","","","","","","","","","","",""
"null","340577","SARL_v6","SARL_v6udkb8tu5","641361ae9b3296f4b5ff78ed","freq","","","img/blue_2bandit_a2.png","null","","70","test","0","","127","","","","square","circle","122","9","6","0.9016393442622951","","","","","","","",""
"null","340738","SARL_v6","SARL_v6udkb8tu5","641361ae9b3296f4b5ff78ed","fixation","","","img/fixation.png","null","","","test","","","","","","","","","","","","","","","","","","","",""
"null","341545","SARL_v6","SARL_v6udkb8tu5","641361ae9b3296f4b5ff78ed","freq","","","img/blue_2bandit_a2.png","null","","70","test","0","","128","","","","square","circle","123","10","6","0.8943089430894309","","","","","","","",""
"null","341705","SARL_v6","SARL_v6udkb8tu5","641361ae9b3296f4b5ff78ed","fixation","","","img/fixation.png","null","","","test","","","","","","","","","","","","","","","","","","","",""
"37.600000001490116","341749","SARL_v6","SARL_v6udkb8tu5","641361ae9b3296f4b5ff78ed","freq","","","img/blue_2bandit_a2.png","70","","70","test","1","","129","","","","square","circle","124","11","6","0.8951612903225806","","","","","","","",""
"null","342521","SARL_v6","SARL_v6udkb8tu5","641361ae9b3296f4b5ff78ed","freq_resp","","","img/blue_2bandit_a.png","70","img/blue_2bandit_a.png","70","test","","","","","","","","","","","6","","","","","","","","",""
"null","342682","SARL_v6","SARL_v6udkb8tu5","641361ae9b3296f4b5ff78ed","fixation","","","img/fixation.png","null","","","test","","","","","","","","","","","","","","","","","","","",""
"null","343489","SARL_v6","SARL_v6udkb8tu5","641361ae9b3296f4b5ff78ed","freq","","","img/blue_2bandit_a2.png","null","","70","test","0","","130","","","","square","circle","125","12","6","0.888","","","","","","","",""
"null","343649","SARL_v6","SARL_v6udkb8tu5","641361ae9b3296f4b5ff78ed","fixation","","","img/fixation.png","null","","","test","","","","","","","","","","","","","","","","","","","",""
"48.19999999552965","343704","SARL_v6","SARL_v6udkb8tu5","641361ae9b3296f4b5ff78ed","freq","","","img/blue_2bandit_a2.png","70","","70","test","1","","131","","","","square","circle","126","13","6","0.8888888888888888","","","","","","","",""
"null","344465","SARL_v6","SARL_v6udkb8tu5","641361ae9b3296f4b5ff78ed","freq_resp","","","img/blue_2bandit_a.png","70","img/blue_2bandit_a.png","70","test","","","","","","","","","","","6","","","","","","","","",""
"null","344625","SARL_v6","SARL_v6udkb8tu5","641361ae9b3296f4b5ff78ed","fixation","","","img/fixation.png","null","","","test","","","","","","","","","","","","","","","","","","","",""
"121.09999999403954","344752","SARL_v6","SARL_v6udkb8tu5","641361ae9b3296f4b5ff78ed","freq","","","img/blue_2bandit_a2.png","70","","70","test","1","","132","","","","square","circle","127","14","6","0.889763779527559","","","","","","","",""
"null","345441","SARL_v6","SARL_v6udkb8tu5","641361ae9b3296f4b5ff78ed","freq_resp","","","img/blue_2bandit_a.png","70","img/blue_2bandit_a.png","70","test","","","","","","","","","","","6","","","","","","","","",""
