"rt","time_elapsed","expId","subject","prolificID","trialType","rlType","attType","stimulus","key_press","stim","corrresp","phase","corr","pracCounter","trialNum","rewardOne","rewardTwo","reward","bandOne","bandTwo","attentionNum","attentionRunNum","blockNum","performance","bandChosen","circleVal","squareVal","bandOneVal","bandTwoVal","shapeChosen","rlNum","badFlag"
"13051.599999999627","13055","SARL_v6","SARL_v6tkxoh2lz","603862f99e00971c55fe0874","","","","","","","","","","","","","","","","","","","","","","","","","","","",""
"","15325","SARL_v6","SARL_v6tkxoh2lz","603862f99e00971c55fe0874","fullscreen","fullscreen","fullscreen","","","","","","","","","","","","","","","","","","","","","","","","",""
"31190.100000000093","46518","SARL_v6","SARL_v6tkxoh2lz","603862f99e00971c55fe0874","","","","","","","","","","","","","","","","","","","","","","","","","","","",""
"null","47337","SARL_v6","SARL_v6tkxoh2lz","603862f99e00971c55fe0874","freqPrac","","","img/blue_2bandit_a2.png","null","img/blue_2bandit_a2.png","70","prac","0","1","","","","","","","","","","","","","","","","","",""
"null","48351","SARL_v6","SARL_v6tkxoh2lz","603862f99e00971c55fe0874","feedback","","","img/tooSlow.png","null","","na","prac","","","","","","","","","","","","","","","","","","","",""
"null","48507","SARL_v6","SARL_v6tkxoh2lz","603862f99e00971c55fe0874","fixation","","","img/fixation.png","null","","","prac","","","","","","","","","","","","","","","","","","","",""
"null","49325","SARL_v6","SARL_v6tkxoh2lz","603862f99e00971c55fe0874","infreqPrac","","","img/orange_2bandit_a2.png","null","img/orange_2bandit_a2.png","68","prac","0","2","","","","","","","","","","","","","","","","","",""
"null","50338","SARL_v6","SARL_v6tkxoh2lz","603862f99e00971c55fe0874","feedback","","","img/tooSlow.png","null","","na","prac","","","","","","","","","","","","","","","","","","","",""
"null","50493","SARL_v6","SARL_v6tkxoh2lz","603862f99e00971c55fe0874","fixation","","","img/fixation.png","null","","","prac","","","","","","","","","","","","","","","","","","","",""
"95.89999999990687","50591","SARL_v6","SARL_v6tkxoh2lz","603862f99e00971c55fe0874","freqPrac","","","img/blue_2bandit_a2.png","68","img/blue_2bandit_a2.png","70","prac","0","3","","","","","","","","","","","","","","","","","",""
"95.89999999990687","51305","SARL_v6","SARL_v6tkxoh2lz","603862f99e00971c55fe0874","freqPrac_resp","","","img/blue_2bandit_a.png","68","img/blue_2bandit_a.png","70","prac","","","","","","","","","","","","","","","","","","","",""
"null","52310","SARL_v6","SARL_v6tkxoh2lz","603862f99e00971c55fe0874","feedback","","","img/wrongKey.png","null","","na","prac","","","","","","","","","","","","","","","","","","","",""
"null","52465","SARL_v6","SARL_v6tkxoh2lz","603862f99e00971c55fe0874","fixation","","","img/fixation.png","null","","","prac","","","","","","","","","","","","","","","","","","","",""
"541.3999999999069","53012","SARL_v6","SARL_v6tkxoh2lz","603862f99e00971c55fe0874","infreqPrac","","","img/orange_2bandit_a2.png","70","img/orange_2bandit_a2.png","68","prac","0","4","","","","","","","","","","","","","","","","","",""
"541.3999999999069","53275","SARL_v6","SARL_v6tkxoh2lz","603862f99e00971c55fe0874","infreqPrac_resp","","","img/orange_2bandit_a.png","70","img/orange_2bandit_a.png","68","prac","","","","","","","","","","","","","","","","","","","",""
"null","54288","SARL_v6","SARL_v6tkxoh2lz","603862f99e00971c55fe0874","feedback","","","img/wrongKey.png","null","","na","prac","","","","","","","","","","","","","","","","","","","",""
"null","54458","SARL_v6","SARL_v6tkxoh2lz","603862f99e00971c55fe0874","fixation","","","img/fixation.png","null","","","prac","","","","","","","","","","","","","","","","","","","",""
"684.6000000000931","55147","SARL_v6","SARL_v6tkxoh2lz","603862f99e00971c55fe0874","infreqPrac","","","img/orange_2bandit_a2.png","68","img/orange_2bandit_a2.png","68","prac","1","4","","","","","","","","","","","","","","","","","",""
"684.6000000000931","55277","SARL_v6","SARL_v6tkxoh2lz","603862f99e00971c55fe0874","infreqPrac_resp","","","img/orange_2bandit_a.png","68","img/orange_2bandit_a.png","68","prac","","","","","","","","","","","","","","","","","","","",""
"null","55438","SARL_v6","SARL_v6tkxoh2lz","603862f99e00971c55fe0874","fixation","","","img/fixation.png","null","","","prac","","","","","","","","","","","","","","","","","","","",""
"503.60000000009313","55946","SARL_v6","SARL_v6tkxoh2lz","603862f99e00971c55fe0874","infreqPrac","","","img/orange_2bandit_a2.png","68","img/orange_2bandit_a2.png","68","prac","1","4","","","","","","","","","","","","","","","","","",""
"503.60000000009313","56258","SARL_v6","SARL_v6tkxoh2lz","603862f99e00971c55fe0874","infreqPrac_resp","","","img/orange_2bandit_a.png","68","img/orange_2bandit_a.png","68","prac","","","","","","","","","","","","","","","","","","","",""
"null","56416","SARL_v6","SARL_v6tkxoh2lz","603862f99e00971c55fe0874","fixation","","","img/fixation.png","null","","","prac","","","","","","","","","","","","","","","","","","","",""
"449.1999999997206","56870","SARL_v6","SARL_v6tkxoh2lz","603862f99e00971c55fe0874","freqPrac","","","img/blue_2bandit_a2.png","70","img/blue_2bandit_a2.png","70","prac","1","4","","","","","","","","","","","","","","","","","",""
"449.1999999997206","57237","SARL_v6","SARL_v6tkxoh2lz","603862f99e00971c55fe0874","freqPrac_resp","","","img/blue_2bandit_a.png","70","img/blue_2bandit_a.png","70","prac","","","","","","","","","","","","","","","","","","","",""
"null","57393","SARL_v6","SARL_v6tkxoh2lz","603862f99e00971c55fe0874","fixation","","","img/fixation.png","null","","","prac","","","","","","","","","","","","","","","","","","","",""
"376.5","57772","SARL_v6","SARL_v6tkxoh2lz","603862f99e00971c55fe0874","infreqPrac","","","img/orange_2bandit_a2.png","68","img/orange_2bandit_a2.png","68","prac","1","4","","","","","","","","","","","","","","","","","",""
"376.5","58205","SARL_v6","SARL_v6tkxoh2lz","603862f99e00971c55fe0874","infreqPrac_resp","","","img/orange_2bandit_a.png","68","img/orange_2bandit_a.png","68","prac","","","","","","","","","","","","","","","","","","","",""
"null","58360","SARL_v6","SARL_v6tkxoh2lz","603862f99e00971c55fe0874","fixation","","","img/fixation.png","null","","","prac","","","","","","","","","","","","","","","","","","","",""
"249.6999999997206","58614","SARL_v6","SARL_v6tkxoh2lz","603862f99e00971c55fe0874","freqPrac","","","img/blue_2bandit_a2.png","70","img/blue_2bandit_a2.png","70","prac","1","4","","","","","","","","","","","","","","","","","",""
"249.6999999997206","59170","SARL_v6","SARL_v6tkxoh2lz","603862f99e00971c55fe0874","freqPrac_resp","","","img/blue_2bandit_a.png","70","img/blue_2bandit_a.png","70","prac","","","","","","","","","","","","","","","","","","","",""
"null","59325","SARL_v6","SARL_v6tkxoh2lz","603862f99e00971c55fe0874","fixation","","","img/fixation.png","null","","","prac","","","","","","","","","","","","","","","","","","","",""
"340.09999999962747","59669","SARL_v6","SARL_v6tkxoh2lz","603862f99e00971c55fe0874","freqPrac","","","img/blue_2bandit_a2.png","70","img/blue_2bandit_a2.png","70","prac","1","4","","","","","","","","","","","","","","","","","",""
"340.09999999962747","60137","SARL_v6","SARL_v6tkxoh2lz","603862f99e00971c55fe0874","freqPrac_resp","","","img/blue_2bandit_a.png","70","img/blue_2bandit_a.png","70","prac","","","","","","","","","","","","","","","","","","","",""
"null","60305","SARL_v6","SARL_v6tkxoh2lz","603862f99e00971c55fe0874","fixation","","","img/fixation.png","null","","","prac","","","","","","","","","","","","","","","","","","","",""
"17837.899999999907","78146","SARL_v6","SARL_v6tkxoh2lz","603862f99e00971c55fe0874","","","","","","","","prac","","","","","","","","","","","","","","","","","","","",""
"510.10000000009313","78660","SARL_v6","SARL_v6tkxoh2lz","603862f99e00971c55fe0874","rlPractice","","","img/black_2bandit_a2.png","74","img/black_2bandit_a2.png","","prac","","","0","","","","","","","","","","","","","","","","",""
"null","79416","SARL_v6","SARL_v6tkxoh2lz","603862f99e00971c55fe0874","feedback","","","<div class=""verylowPoints_sq""> -14 </div>","null","","na","prac","","","1","10","-14","10","","","","","","","","","","","","","",""
"null","79587","SARL_v6","SARL_v6tkxoh2lz","603862f99e00971c55fe0874","fixation","","","img/fixation.png","null","","","prac","","","","","","","","","","","","","","","","","","","",""
"495.8000000002794","80087","SARL_v6","SARL_v6tkxoh2lz","603862f99e00971c55fe0874","rlPractice","","","img/black_2bandit_a2.png","75","img/black_2bandit_a2.png","","prac","","","1","","","","","","","","","","","","","","","","",""
"null","80844","SARL_v6","SARL_v6tkxoh2lz","603862f99e00971c55fe0874","feedback","","","<div class=""veryhighPoints""> 5 </div>","null","","na","prac","","","2","5","-5","5","","","","","","","","","","","","","",""
"null","81001","SARL_v6","SARL_v6tkxoh2lz","603862f99e00971c55fe0874","fixation","","","img/fixation.png","null","","","prac","","","","","","","","","","","","","","","","","","","",""
"390.79999999981374","81396","SARL_v6","SARL_v6tkxoh2lz","603862f99e00971c55fe0874","rlPractice","","","img/black_2bandit_a2.png","75","img/black_2bandit_a2.png","","prac","","","2","","","","","","","","","","","","","","","","",""
"null","82160","SARL_v6","SARL_v6tkxoh2lz","603862f99e00971c55fe0874","feedback","","","<div class=""veryhighPoints""> 30 </div>","null","","na","prac","","","3","30","2","30","","","","","","","","","","","","","",""
"null","82318","SARL_v6","SARL_v6tkxoh2lz","603862f99e00971c55fe0874","fixation","","","img/fixation.png","null","","","prac","","","","","","","","","","","","","","","","","","","",""
"345","82668","SARL_v6","SARL_v6tkxoh2lz","603862f99e00971c55fe0874","rlPractice","","","img/black_2bandit_a2.png","75","img/black_2bandit_a2.png","","prac","","","3","","","","","","","","","","","","","","","","",""
"null","83433","SARL_v6","SARL_v6tkxoh2lz","603862f99e00971c55fe0874","feedback","","","<div class=""verylowPoints""> -2 </div>","null","","na","prac","","","4","-2","20","-2","","","","","","","","","","","","","",""
"null","83589","SARL_v6","SARL_v6tkxoh2lz","603862f99e00971c55fe0874","fixation","","","img/fixation.png","null","","","prac","","","","","","","","","","","","","","","","","","","",""
"5039.5999999996275","88632","SARL_v6","SARL_v6tkxoh2lz","603862f99e00971c55fe0874","","","","","","","","prac","","","","","","","","","","","","","","","","","","","",""
"597.6000000000931","89233","SARL_v6","SARL_v6tkxoh2lz","603862f99e00971c55fe0874","mixAttFreqPrac","","","img/blue_2bandit_a2.png","68","img/blue_2bandit_a2.png","70","prac","","","1","","","","","","","","","","","","","","","","",""
"597.6000000000931","89449","SARL_v6","SARL_v6tkxoh2lz","603862f99e00971c55fe0874","freqPrac_resp","","","img/blue_2bandit_a.png","68","img/blue_2bandit_a.png","70","prac","","","1","","","","","","","","","","","","","","","","",""
"null","89606","SARL_v6","SARL_v6tkxoh2lz","603862f99e00971c55fe0874","fixation","","","img/fixation.png","null","","","prac","","","","","","","","","","","","","","","","","","","",""
"698.5","90309","SARL_v6","SARL_v6tkxoh2lz","603862f99e00971c55fe0874","mixAttInfreqPrac","","","img/orange_2bandit_a2.png","70","img/orange_2bandit_a2.png","68","prac","","","2","","","","","","","","","","","","","","","","",""
"698.5","90427","SARL_v6","SARL_v6tkxoh2lz","603862f99e00971c55fe0874","infreqPrac_resp","","","img/orange_2bandit_a.png","70","img/blue_2bandit_a.png","68","prac","","","2","","","","","","","","","","","","","","","","",""
"null","90582","SARL_v6","SARL_v6tkxoh2lz","603862f99e00971c55fe0874","fixation","","","img/fixation.png","null","","","prac","","","","","","","","","","","","","","","","","","","",""
"566.2000000001863","91152","SARL_v6","SARL_v6tkxoh2lz","603862f99e00971c55fe0874","mixAttInfreqPrac","","","img/orange_2bandit_a2.png","70","img/orange_2bandit_a2.png","68","prac","","","3","","","","","","","","","","","","","","","","",""
"566.2000000001863","91393","SARL_v6","SARL_v6tkxoh2lz","603862f99e00971c55fe0874","infreqPrac_resp","","","img/orange_2bandit_a.png","70","img/blue_2bandit_a.png","68","prac","","","3","","","","","","","","","","","","","","","","",""
"null","91560","SARL_v6","SARL_v6tkxoh2lz","603862f99e00971c55fe0874","fixation","","","img/fixation.png","null","","","prac","","","","","","","","","","","","","","","","","","","",""
"463.8000000002794","92027","SARL_v6","SARL_v6tkxoh2lz","603862f99e00971c55fe0874","mixAttInfreqPrac","","","img/orange_2bandit_a2.png","70","img/orange_2bandit_a2.png","68","prac","","","4","","","","","","","","","","","","","","","","",""
"463.8000000002794","92378","SARL_v6","SARL_v6tkxoh2lz","603862f99e00971c55fe0874","infreqPrac_resp","","","img/orange_2bandit_a.png","70","img/blue_2bandit_a.png","68","prac","","","4","","","","","","","","","","","","","","","","",""
"null","92535","SARL_v6","SARL_v6tkxoh2lz","603862f99e00971c55fe0874","fixation","","","img/fixation.png","null","","","prac","","","","","","","","","","","","","","","","","","","",""
"592.8999999999069","93132","SARL_v6","SARL_v6tkxoh2lz","603862f99e00971c55fe0874","mixAttFreqPrac","","","img/blue_2bandit_a2.png","68","img/blue_2bandit_a2.png","70","prac","","","5","","","","","","","","","","","","","","","","",""
"592.8999999999069","93345","SARL_v6","SARL_v6tkxoh2lz","603862f99e00971c55fe0874","freqPrac_resp","","","img/blue_2bandit_a.png","68","img/blue_2bandit_a.png","70","prac","","","5","","","","","","","","","","","","","","","","",""
"null","93501","SARL_v6","SARL_v6tkxoh2lz","603862f99e00971c55fe0874","fixation","","","img/fixation.png","null","","","prac","","","","","","","","","","","","","","","","","","","",""
"615.8999999999069","94121","SARL_v6","SARL_v6tkxoh2lz","603862f99e00971c55fe0874","mixRLPractice","","","img/black_2bandit_a2.png","74","img/black_2bandit_a2.png","","prac","","","5","","","","","","","","","","","","","","","","",""
"null","94881","SARL_v6","SARL_v6tkxoh2lz","603862f99e00971c55fe0874","feedback","","","<div class=""veryhighPoints_sq""> 10 </div>","null","","na","prac","","","6","-14","10","-14","","","","","","","","","","","","","",""
"null","95049","SARL_v6","SARL_v6tkxoh2lz","603862f99e00971c55fe0874","fixation","","","img/fixation.png","null","","","prac","","","","","","","","","","","","","","","","","","","",""
"null","95854","SARL_v6","SARL_v6tkxoh2lz","603862f99e00971c55fe0874","mixAttFreqPrac","","","img/blue_2bandit_a2.png","null","img/blue_2bandit_a2.png","70","prac","","","7","","","","","","","","","","","","","","","","",""
"48","96010","SARL_v6","SARL_v6tkxoh2lz","603862f99e00971c55fe0874","fixation","","","img/fixation.png","70","","","prac","","","","","","","","","","","","","","","","","","","",""
"null","96818","SARL_v6","SARL_v6tkxoh2lz","603862f99e00971c55fe0874","mixAttInfreqPrac","","","img/orange_2bandit_a2.png","null","img/orange_2bandit_a2.png","68","prac","","","8","","","","","","","","","","","","","","","","",""
"58","96973","SARL_v6","SARL_v6tkxoh2lz","603862f99e00971c55fe0874","fixation","","","img/fixation.png","70","","","prac","","","","","","","","","","","","","","","","","","","",""
"721.0999999996275","97699","SARL_v6","SARL_v6tkxoh2lz","603862f99e00971c55fe0874","mixAttFreqPrac","","","img/blue_2bandit_a2.png","68","img/blue_2bandit_a2.png","70","prac","","","9","","","","","","","","","","","","","","","","",""
"721.0999999996275","97781","SARL_v6","SARL_v6tkxoh2lz","603862f99e00971c55fe0874","freqPrac_resp","","","img/blue_2bandit_a.png","68","img/blue_2bandit_a.png","70","prac","","","9","","","","","","","","","","","","","","","","",""
"null","97936","SARL_v6","SARL_v6tkxoh2lz","603862f99e00971c55fe0874","fixation","","","img/fixation.png","null","","","prac","","","","","","","","","","","","","","","","","","","",""
"525.8999999999069","98467","SARL_v6","SARL_v6tkxoh2lz","603862f99e00971c55fe0874","mixAttFreqPrac","","","img/blue_2bandit_a2.png","68","img/blue_2bandit_a2.png","70","prac","","","10","","","","","","","","","","","","","","","","",""
"525.8999999999069","98761","SARL_v6","SARL_v6tkxoh2lz","603862f99e00971c55fe0874","freqPrac_resp","","","img/blue_2bandit_a.png","68","img/blue_2bandit_a.png","70","prac","","","10","","","","","","","","","","","","","","","","",""
"null","98918","SARL_v6","SARL_v6tkxoh2lz","603862f99e00971c55fe0874","fixation","","","img/fixation.png","null","","","prac","","","","","","","","","","","","","","","","","","","",""
"577.6999999997206","99498","SARL_v6","SARL_v6tkxoh2lz","603862f99e00971c55fe0874","mixAttInfreqPrac","","","img/orange_2bandit_a2.png","70","img/orange_2bandit_a2.png","68","prac","","","11","","","","","","","","","","","","","","","","",""
"577.6999999997206","99726","SARL_v6","SARL_v6tkxoh2lz","603862f99e00971c55fe0874","infreqPrac_resp","","","img/orange_2bandit_a.png","70","img/blue_2bandit_a.png","68","prac","","","11","","","","","","","","","","","","","","","","",""
"null","99895","SARL_v6","SARL_v6tkxoh2lz","603862f99e00971c55fe0874","fixation","","","img/fixation.png","null","","","prac","","","","","","","","","","","","","","","","","","","",""
"812.6000000000931","100712","SARL_v6","SARL_v6tkxoh2lz","603862f99e00971c55fe0874","mixRLPractice","","","img/black_2bandit_a2.png","74","img/black_2bandit_a2.png","","prac","","","11","","","","","","","","","","","","","","","","",""
"null","101476","SARL_v6","SARL_v6tkxoh2lz","603862f99e00971c55fe0874","feedback","","","<div class=""verylowPoints_sq""> -5 </div>","null","","na","prac","","","12","5","-5","5","","","","","","","","","","","","","",""
"null","101632","SARL_v6","SARL_v6tkxoh2lz","603862f99e00971c55fe0874","fixation","","","img/fixation.png","null","","","prac","","","","","","","","","","","","","","","","","","","",""
"4595.9000000003725","106232","SARL_v6","SARL_v6tkxoh2lz","603862f99e00971c55fe0874","","","","","","","","prac","","","","","","","","","","","","","","","","","","","",""
"null","107040","SARL_v6","SARL_v6tkxoh2lz","603862f99e00971c55fe0874","freq","","","img/blue_2bandit_a2.png","null","","70","test","0","","1","","","","square","circle","1","1","1","0","","","","","","","",""
"null","107193","SARL_v6","SARL_v6tkxoh2lz","603862f99e00971c55fe0874","fixation","","","img/fixation.png","null","","","test","","","","","","","","","","","","","","","","","","","",""
"580.5999999996275","107776","SARL_v6","SARL_v6tkxoh2lz","603862f99e00971c55fe0874","freq","","","img/blue_2bandit_a2.png","70","","70","test","1","","2","","","","square","circle","2","2","1","0.5","","","","","","","",""
"null","108004","SARL_v6","SARL_v6tkxoh2lz","603862f99e00971c55fe0874","freq_resp","","","img/blue_2bandit_a.png","70","img/blue_2bandit_a.png","70","test","","","","","","","","","","","1","","","","","","","","",""
"null","108160","SARL_v6","SARL_v6tkxoh2lz","603862f99e00971c55fe0874","fixation","","","img/fixation.png","null","","","test","","","","","","","","","","","","","","","","","","","",""
"333.79999999981374","108499","SARL_v6","SARL_v6tkxoh2lz","603862f99e00971c55fe0874","freq","","","img/blue_2bandit_a2.png","70","","70","test","1","","3","","","","square","circle","3","3","1","0.6666666666666666","","","","","","","",""
"null","108971","SARL_v6","SARL_v6tkxoh2lz","603862f99e00971c55fe0874","freq_resp","","","img/blue_2bandit_a.png","70","img/blue_2bandit_a.png","70","test","","","","","","","","","","","1","","","","","","","","",""
"null","109138","SARL_v6","SARL_v6tkxoh2lz","603862f99e00971c55fe0874","fixation","","","img/fixation.png","null","","","test","","","","","","","","","","","","","","","","","","","",""
"267","109408","SARL_v6","SARL_v6tkxoh2lz","603862f99e00971c55fe0874","freq","","","img/blue_2bandit_a2.png","70","","70","test","1","","4","","","","square","circle","4","4","1","0.75","","","","","","","",""
"null","109948","SARL_v6","SARL_v6tkxoh2lz","603862f99e00971c55fe0874","freq_resp","","","img/blue_2bandit_a.png","70","img/blue_2bandit_a.png","70","test","","","","","","","","","","","1","","","","","","","","",""
"null","110103","SARL_v6","SARL_v6tkxoh2lz","603862f99e00971c55fe0874","fixation","","","img/fixation.png","null","","","test","","","","","","","","","","","","","","","","","","","",""
"221.10000000009313","110328","SARL_v6","SARL_v6tkxoh2lz","603862f99e00971c55fe0874","freq","","","img/blue_2bandit_a2.png","70","","70","test","1","","5","","","","square","circle","5","5","1","0.8","","","","","","","",""
"null","110926","SARL_v6","SARL_v6tkxoh2lz","603862f99e00971c55fe0874","freq_resp","","","img/blue_2bandit_a.png","70","img/blue_2bandit_a.png","70","test","","","","","","","","","","","1","","","","","","","","",""
"null","111080","SARL_v6","SARL_v6tkxoh2lz","603862f99e00971c55fe0874","fixation","","","img/fixation.png","null","","","test","","","","","","","","","","","","","","","","","","","",""
"298.20000000018626","111383","SARL_v6","SARL_v6tkxoh2lz","603862f99e00971c55fe0874","freq","","","img/blue_2bandit_a2.png","70","","70","test","1","","6","","","","square","circle","6","6","1","0.8333333333333334","","","","","","","",""
"null","111889","SARL_v6","SARL_v6tkxoh2lz","603862f99e00971c55fe0874","freq_resp","","","img/blue_2bandit_a.png","70","img/blue_2bandit_a.png","70","test","","","","","","","","","","","1","","","","","","","","",""
"null","112044","SARL_v6","SARL_v6tkxoh2lz","603862f99e00971c55fe0874","fixation","","","img/fixation.png","null","","","test","","","","","","","","","","","","","","","","","","","",""
"271.20000000018626","112319","SARL_v6","SARL_v6tkxoh2lz","603862f99e00971c55fe0874","freq","","","img/blue_2bandit_a2.png","70","","70","test","1","","7","","","","square","circle","7","7","1","0.8571428571428571","","","","","","","",""
"null","112865","SARL_v6","SARL_v6tkxoh2lz","603862f99e00971c55fe0874","freq_resp","","","img/blue_2bandit_a.png","70","img/blue_2bandit_a.png","70","test","","","","","","","","","","","1","","","","","","","","",""
"null","113019","SARL_v6","SARL_v6tkxoh2lz","603862f99e00971c55fe0874","fixation","","","img/fixation.png","null","","","test","","","","","","","","","","","","","","","","","","","",""
"282.09999999962747","113306","SARL_v6","SARL_v6tkxoh2lz","603862f99e00971c55fe0874","freq","","","img/blue_2bandit_a2.png","70","","70","test","1","","8","","","","square","circle","8","8","1","0.875","","","","","","","",""
"null","113828","SARL_v6","SARL_v6tkxoh2lz","603862f99e00971c55fe0874","freq_resp","","","img/blue_2bandit_a.png","70","img/blue_2bandit_a.png","70","test","","","","","","","","","","","1","","","","","","","","",""
"null","113983","SARL_v6","SARL_v6tkxoh2lz","603862f99e00971c55fe0874","fixation","","","img/fixation.png","null","","","test","","","","","","","","","","","","","","","","","","","",""
"293.79999999981374","114281","SARL_v6","SARL_v6tkxoh2lz","603862f99e00971c55fe0874","freq","","","img/blue_2bandit_a2.png","70","","70","test","1","","9","","","","square","circle","9","9","1","0.8888888888888888","","","","","","","",""
"null","114792","SARL_v6","SARL_v6tkxoh2lz","603862f99e00971c55fe0874","freq_resp","","","img/blue_2bandit_a.png","70","img/blue_2bandit_a.png","70","test","","","","","","","","","","","1","","","","","","","","",""
"null","114949","SARL_v6","SARL_v6tkxoh2lz","603862f99e00971c55fe0874","fixation","","","img/fixation.png","null","","","test","","","","","","","","","","","","","","","","","","","",""
"273.89999999990687","115226","SARL_v6","SARL_v6tkxoh2lz","603862f99e00971c55fe0874","freq","","","img/blue_2bandit_a2.png","70","","70","test","1","","10","","","","square","circle","10","10","1","0.9","","","","","","","",""
"null","115771","SARL_v6","SARL_v6tkxoh2lz","603862f99e00971c55fe0874","freq_resp","","","img/blue_2bandit_a.png","70","img/blue_2bandit_a.png","70","test","","","","","","","","","","","1","","","","","","","","",""
"null","115941","SARL_v6","SARL_v6tkxoh2lz","603862f99e00971c55fe0874","fixation","","","img/fixation.png","null","","","test","","","","","","","","","","","","","","","","","","","",""
"241.79999999981374","116186","SARL_v6","SARL_v6tkxoh2lz","603862f99e00971c55fe0874","freq","","","img/blue_2bandit_a2.png","70","","70","test","1","","11","","","","square","circle","11","11","1","0.9090909090909091","","","","","","","",""
"null","116748","SARL_v6","SARL_v6tkxoh2lz","603862f99e00971c55fe0874","freq_resp","","","img/blue_2bandit_a.png","70","img/blue_2bandit_a.png","70","test","","","","","","","","","","","1","","","","","","","","",""
"null","116904","SARL_v6","SARL_v6tkxoh2lz","603862f99e00971c55fe0874","fixation","","","img/fixation.png","null","","","test","","","","","","","","","","","","","","","","","","","",""
"149.5","117057","SARL_v6","SARL_v6tkxoh2lz","603862f99e00971c55fe0874","infreq","","","img/orange_2bandit_a2.png","70","","68","test","0","","12","","","","square","circle","12","12","1","0.8333333333333334","","","","","","","",""
"null","117713","SARL_v6","SARL_v6tkxoh2lz","603862f99e00971c55fe0874","infreq_resp","","","img/orange_2bandit_a.png","70","img/orange_2bandit_a.png","68","test","","","","","","","","","","","1","","","","","","","","",""
"null","117869","SARL_v6","SARL_v6tkxoh2lz","603862f99e00971c55fe0874","fixation","","","img/fixation.png","null","","","test","","","","","","","","","","","","","","","","","","","",""
"515.0999999996275","118389","SARL_v6","SARL_v6tkxoh2lz","603862f99e00971c55fe0874","freq","","","img/blue_2bandit_a2.png","70","","70","test","1","","13","","","","square","circle","13","13","1","0.8461538461538461","","","","","","","",""
"null","118689","SARL_v6","SARL_v6tkxoh2lz","603862f99e00971c55fe0874","freq_resp","","","img/blue_2bandit_a.png","70","img/blue_2bandit_a.png","70","test","","","","","","","","","","","1","","","","","","","","",""
"null","118843","SARL_v6","SARL_v6tkxoh2lz","603862f99e00971c55fe0874","fixation","","","img/fixation.png","null","","","test","","","","","","","","","","","","","","","","","","","",""
"358.3000000002794","119206","SARL_v6","SARL_v6tkxoh2lz","603862f99e00971c55fe0874","freq","","","img/blue_2bandit_a2.png","70","","70","test","1","","14","","","","square","circle","14","14","1","0.8571428571428571","","","","","","","",""
"null","119666","SARL_v6","SARL_v6tkxoh2lz","603862f99e00971c55fe0874","freq_resp","","","img/blue_2bandit_a.png","70","img/blue_2bandit_a.png","70","test","","","","","","","","","","","1","","","","","","","","",""
"null","119837","SARL_v6","SARL_v6tkxoh2lz","603862f99e00971c55fe0874","fixation","","","img/fixation.png","null","","","test","","","","","","","","","","","","","","","","","","","",""
"280.8000000002794","120123","SARL_v6","SARL_v6tkxoh2lz","603862f99e00971c55fe0874","freq","","","img/blue_2bandit_a2.png","70","","70","test","1","","15","","","","square","circle","15","15","1","0.8666666666666667","","","","","","","",""
"null","120661","SARL_v6","SARL_v6tkxoh2lz","603862f99e00971c55fe0874","freq_resp","","","img/blue_2bandit_a.png","70","img/blue_2bandit_a.png","70","test","","","","","","","","","","","1","","","","","","","","",""
"null","120821","SARL_v6","SARL_v6tkxoh2lz","603862f99e00971c55fe0874","fixation","","","img/fixation.png","null","","","test","","","","","","","","","","","","","","","","","","","",""
"270.10000000009313","121095","SARL_v6","SARL_v6tkxoh2lz","603862f99e00971c55fe0874","freq","","","img/blue_2bandit_a2.png","70","","70","test","1","","16","","","","square","circle","16","16","1","0.875","","","","","","","",""
"null","121629","SARL_v6","SARL_v6tkxoh2lz","603862f99e00971c55fe0874","freq_resp","","","img/blue_2bandit_a.png","70","img/blue_2bandit_a.png","70","test","","","","","","","","","","","1","","","","","","","","",""
"null","121784","SARL_v6","SARL_v6tkxoh2lz","603862f99e00971c55fe0874","fixation","","","img/fixation.png","null","","","test","","","","","","","","","","","","","","","","","","","",""
"299.29999999981374","122088","SARL_v6","SARL_v6tkxoh2lz","603862f99e00971c55fe0874","freq","","","img/blue_2bandit_a2.png","70","","70","test","1","","17","","","","square","circle","17","17","1","0.8823529411764706","","","","","","","",""
"null","122608","SARL_v6","SARL_v6tkxoh2lz","603862f99e00971c55fe0874","freq_resp","","","img/blue_2bandit_a.png","70","img/blue_2bandit_a.png","70","test","","","","","","","","","","","1","","","","","","","","",""
"null","122764","SARL_v6","SARL_v6tkxoh2lz","603862f99e00971c55fe0874","fixation","","","img/fixation.png","null","","","test","","","","","","","","","","","","","","","","","","","",""
"256","123024","SARL_v6","SARL_v6tkxoh2lz","603862f99e00971c55fe0874","freq","","","img/blue_2bandit_a2.png","70","","70","test","1","","18","","","","square","circle","18","18","1","0.8888888888888888","","","","","","","",""
"null","123586","SARL_v6","SARL_v6tkxoh2lz","603862f99e00971c55fe0874","freq_resp","","","img/blue_2bandit_a.png","70","img/blue_2bandit_a.png","70","test","","","","","","","","","","","1","","","","","","","","",""
"null","123742","SARL_v6","SARL_v6tkxoh2lz","603862f99e00971c55fe0874","fixation","","","img/fixation.png","null","","","test","","","","","","","","","","","","","","","","","","","",""
"113.70000000018626","123861","SARL_v6","SARL_v6tkxoh2lz","603862f99e00971c55fe0874","freq","","","img/blue_2bandit_a2.png","70","","70","test","1","","19","","","","square","circle","19","19","1","0.8947368421052632","","","","","","","",""
"null","124565","SARL_v6","SARL_v6tkxoh2lz","603862f99e00971c55fe0874","freq_resp","","","img/blue_2bandit_a.png","70","img/blue_2bandit_a.png","70","test","","","","","","","","","","","1","","","","","","","","",""
"null","124723","SARL_v6","SARL_v6tkxoh2lz","603862f99e00971c55fe0874","fixation","","","img/fixation.png","null","","","test","","","","","","","","","","","","","","","","","","","",""
"299","125027","SARL_v6","SARL_v6tkxoh2lz","603862f99e00971c55fe0874","freq","","","img/blue_2bandit_a2.png","70","","70","test","1","","20","","","","square","circle","20","20","1","0.9","","","","","","","",""
"null","125532","SARL_v6","SARL_v6tkxoh2lz","603862f99e00971c55fe0874","freq_resp","","","img/blue_2bandit_a.png","70","img/blue_2bandit_a.png","70","test","","","","","","","","","","","1","","","","","","","","",""
"null","125687","SARL_v6","SARL_v6tkxoh2lz","603862f99e00971c55fe0874","fixation","","","img/fixation.png","null","","","test","","","","","","","","","","","","","","","","","","","",""
"280.09999999962747","125971","SARL_v6","SARL_v6tkxoh2lz","603862f99e00971c55fe0874","freq","","","img/blue_2bandit_a2.png","70","","70","test","1","","21","","","","square","circle","21","21","1","0.9047619047619048","","","","","","","",""
"null","126500","SARL_v6","SARL_v6tkxoh2lz","603862f99e00971c55fe0874","freq_resp","","","img/blue_2bandit_a.png","70","img/blue_2bandit_a.png","70","test","","","","","","","","","","","1","","","","","","","","",""
"null","126656","SARL_v6","SARL_v6tkxoh2lz","603862f99e00971c55fe0874","fixation","","","img/fixation.png","null","","","test","","","","","","","","","","","","","","","","","","","",""
"432","127093","SARL_v6","SARL_v6tkxoh2lz","603862f99e00971c55fe0874","infreq","","","img/orange_2bandit_a2.png","68","","68","test","1","","22","","","","square","circle","22","22","1","0.9090909090909091","","","","","","","",""
"null","127480","SARL_v6","SARL_v6tkxoh2lz","603862f99e00971c55fe0874","infreq_resp","","","img/orange_2bandit_a.png","68","img/orange_2bandit_a.png","68","test","","","","","","","","","","","1","","","","","","","","",""
"null","127637","SARL_v6","SARL_v6tkxoh2lz","603862f99e00971c55fe0874","fixation","","","img/fixation.png","null","","","test","","","","","","","","","","","","","","","","","","","",""
"368.60000000009313","128011","SARL_v6","SARL_v6tkxoh2lz","603862f99e00971c55fe0874","freq","","","img/blue_2bandit_a2.png","70","","70","test","1","","23","","","","square","circle","23","23","1","0.9130434782608695","","","","","","","",""
"null","128448","SARL_v6","SARL_v6tkxoh2lz","603862f99e00971c55fe0874","freq_resp","","","img/blue_2bandit_a.png","70","img/blue_2bandit_a.png","70","test","","","","","","","","","","","1","","","","","","","","",""
"null","128617","SARL_v6","SARL_v6tkxoh2lz","603862f99e00971c55fe0874","fixation","","","img/fixation.png","null","","","test","","","","","","","","","","","","","","","","","","","",""
"230.8000000002794","128853","SARL_v6","SARL_v6tkxoh2lz","603862f99e00971c55fe0874","freq","","","img/blue_2bandit_a2.png","70","","70","test","1","","24","","","","square","circle","24","24","1","0.9166666666666666","","","","","","","",""
"null","129427","SARL_v6","SARL_v6tkxoh2lz","603862f99e00971c55fe0874","freq_resp","","","img/blue_2bandit_a.png","70","img/blue_2bandit_a.png","70","test","","","","","","","","","","","1","","","","","","","","",""
"null","129582","SARL_v6","SARL_v6tkxoh2lz","603862f99e00971c55fe0874","fixation","","","img/fixation.png","null","","","test","","","","","","","","","","","","","","","","","","","",""
"125.6999999997206","129713","SARL_v6","SARL_v6tkxoh2lz","603862f99e00971c55fe0874","freq","","","img/blue_2bandit_a2.png","70","","70","test","1","","25","","","","square","circle","25","25","1","0.92","","","","","","","",""
"null","130406","SARL_v6","SARL_v6tkxoh2lz","603862f99e00971c55fe0874","freq_resp","","","img/blue_2bandit_a.png","70","img/blue_2bandit_a.png","70","test","","","","","","","","","","","1","","","","","","","","",""
"null","130563","SARL_v6","SARL_v6tkxoh2lz","603862f99e00971c55fe0874","fixation","","","img/fixation.png","null","","","test","","","","","","","","","","","","","","","","","","","",""
"90","130657","SARL_v6","SARL_v6tkxoh2lz","603862f99e00971c55fe0874","freq","","","img/blue_2bandit_a2.png","70","","70","test","1","","26","","","","square","circle","26","26","1","0.9230769230769231","","","","","","","",""
"null","131386","SARL_v6","SARL_v6tkxoh2lz","603862f99e00971c55fe0874","freq_resp","","","img/blue_2bandit_a.png","70","img/blue_2bandit_a.png","70","test","","","","","","","","","","","1","","","","","","","","",""
"null","131540","SARL_v6","SARL_v6tkxoh2lz","603862f99e00971c55fe0874","fixation","","","img/fixation.png","null","","","test","","","","","","","","","","","","","","","","","","","",""
"686.3999999999069","132232","SARL_v6","SARL_v6tkxoh2lz","603862f99e00971c55fe0874","rl","","","img/black_2bandit_a2.png","75","","0","test","","","27","","","-3","square","circle","","0","1","","75","-3","-3","-3","-3","circle","1","0"
"null","132999","SARL_v6","SARL_v6tkxoh2lz","603862f99e00971c55fe0874","feedback","","","<div class=""verylowPoints""> -3 </div>","null","","na","test","","","NaN","","","","","","","","1","","75","","","","","","1",""
"780.3999999999069","133785","SARL_v6","SARL_v6tkxoh2lz","603862f99e00971c55fe0874","freq","","","img/blue_2bandit_a2.png","70","","70","test","1","","28","","","","square","circle","27","1","2","0.9259259259259259","","","","","","","",""
"null","133807","SARL_v6","SARL_v6tkxoh2lz","603862f99e00971c55fe0874","freq_resp","","","img/blue_2bandit_a.png","70","img/blue_2bandit_a.png","70","test","","","","","","","","","","","2","","","","","","","","",""
"null","133962","SARL_v6","SARL_v6tkxoh2lz","603862f99e00971c55fe0874","fixation","","","img/fixation.png","null","","","test","","","","","","","","","","","","","","","","","","","",""
"357.39999999990687","134323","SARL_v6","SARL_v6tkxoh2lz","603862f99e00971c55fe0874","freq","","","img/blue_2bandit_a2.png","70","","70","test","1","","29","","","","square","circle","28","2","2","0.9285714285714286","","","","","","","",""
"null","134771","SARL_v6","SARL_v6tkxoh2lz","603862f99e00971c55fe0874","freq_resp","","","img/blue_2bandit_a.png","70","img/blue_2bandit_a.png","70","test","","","","","","","","","","","2","","","","","","","","",""
"null","134940","SARL_v6","SARL_v6tkxoh2lz","603862f99e00971c55fe0874","fixation","","","img/fixation.png","null","","","test","","","","","","","","","","","","","","","","","","","",""
"339.5","135285","SARL_v6","SARL_v6tkxoh2lz","603862f99e00971c55fe0874","freq","","","img/blue_2bandit_a2.png","70","","70","test","1","","30","","","","square","circle","29","3","2","0.9310344827586207","","","","","","","",""
"null","135760","SARL_v6","SARL_v6tkxoh2lz","603862f99e00971c55fe0874","freq_resp","","","img/blue_2bandit_a.png","70","img/blue_2bandit_a.png","70","test","","","","","","","","","","","2","","","","","","","","",""
"null","135915","SARL_v6","SARL_v6tkxoh2lz","603862f99e00971c55fe0874","fixation","","","img/fixation.png","null","","","test","","","","","","","","","","","","","","","","","","","",""
"284.1999999997206","136204","SARL_v6","SARL_v6tkxoh2lz","603862f99e00971c55fe0874","freq","","","img/blue_2bandit_a2.png","70","","70","test","1","","31","","","","square","circle","30","4","2","0.9333333333333333","","","","","","","",""
"null","136727","SARL_v6","SARL_v6tkxoh2lz","603862f99e00971c55fe0874","freq_resp","","","img/blue_2bandit_a.png","70","img/blue_2bandit_a.png","70","test","","","","","","","","","","","2","","","","","","","","",""
"null","136897","SARL_v6","SARL_v6tkxoh2lz","603862f99e00971c55fe0874","fixation","","","img/fixation.png","null","","","test","","","","","","","","","","","","","","","","","","","",""
"247.39999999990687","137147","SARL_v6","SARL_v6tkxoh2lz","603862f99e00971c55fe0874","freq","","","img/blue_2bandit_a2.png","70","","70","test","1","","32","","","","square","circle","31","5","2","0.9354838709677419","","","","","","","",""
"null","137709","SARL_v6","SARL_v6tkxoh2lz","603862f99e00971c55fe0874","freq_resp","","","img/blue_2bandit_a.png","70","img/blue_2bandit_a.png","70","test","","","","","","","","","","","2","","","","","","","","",""
"null","137864","SARL_v6","SARL_v6tkxoh2lz","603862f99e00971c55fe0874","fixation","","","img/fixation.png","null","","","test","","","","","","","","","","","","","","","","","","","",""
"129.09999999962747","137998","SARL_v6","SARL_v6tkxoh2lz","603862f99e00971c55fe0874","freq","","","img/blue_2bandit_a2.png","70","","70","test","1","","33","","","","square","circle","32","6","2","0.9375","","","","","","","",""
"null","138685","SARL_v6","SARL_v6tkxoh2lz","603862f99e00971c55fe0874","freq_resp","","","img/blue_2bandit_a.png","70","img/blue_2bandit_a.png","70","test","","","","","","","","","","","2","","","","","","","","",""
"null","138841","SARL_v6","SARL_v6tkxoh2lz","603862f99e00971c55fe0874","fixation","","","img/fixation.png","null","","","test","","","","","","","","","","","","","","","","","","","",""
"127.60000000009313","138974","SARL_v6","SARL_v6tkxoh2lz","603862f99e00971c55fe0874","freq","","","img/blue_2bandit_a2.png","70","","70","test","1","","34","","","","square","circle","33","7","2","0.9393939393939394","","","","","","","",""
"null","139661","SARL_v6","SARL_v6tkxoh2lz","603862f99e00971c55fe0874","freq_resp","","","img/blue_2bandit_a.png","70","img/blue_2bandit_a.png","70","test","","","","","","","","","","","2","","","","","","","","",""
"null","139816","SARL_v6","SARL_v6tkxoh2lz","603862f99e00971c55fe0874","fixation","","","img/fixation.png","null","","","test","","","","","","","","","","","","","","","","","","","",""
"115.79999999981374","139937","SARL_v6","SARL_v6tkxoh2lz","603862f99e00971c55fe0874","infreq","","","img/orange_2bandit_a2.png","70","","68","test","0","","35","","","","square","circle","34","8","2","0.9117647058823529","","","","","","","",""
"null","140626","SARL_v6","SARL_v6tkxoh2lz","603862f99e00971c55fe0874","infreq_resp","","","img/orange_2bandit_a.png","70","img/orange_2bandit_a.png","68","test","","","","","","","","","","","2","","","","","","","","",""
"null","140794","SARL_v6","SARL_v6tkxoh2lz","603862f99e00971c55fe0874","fixation","","","img/fixation.png","null","","","test","","","","","","","","","","","","","","","","","","","",""
"295.39999999990687","141095","SARL_v6","SARL_v6tkxoh2lz","603862f99e00971c55fe0874","freq","","","img/blue_2bandit_a2.png","70","","70","test","1","","36","","","","square","circle","35","9","2","0.9142857142857143","","","","","","","",""
"null","141603","SARL_v6","SARL_v6tkxoh2lz","603862f99e00971c55fe0874","freq_resp","","","img/blue_2bandit_a.png","70","img/blue_2bandit_a.png","70","test","","","","","","","","","","","2","","","","","","","","",""
"null","141756","SARL_v6","SARL_v6tkxoh2lz","603862f99e00971c55fe0874","fixation","","","img/fixation.png","null","","","test","","","","","","","","","","","","","","","","","","","",""
"255.3000000002794","142016","SARL_v6","SARL_v6tkxoh2lz","603862f99e00971c55fe0874","freq","","","img/blue_2bandit_a2.png","70","","70","test","1","","37","","","","square","circle","36","10","2","0.9166666666666666","","","","","","","",""
"null","142569","SARL_v6","SARL_v6tkxoh2lz","603862f99e00971c55fe0874","freq_resp","","","img/blue_2bandit_a.png","70","img/blue_2bandit_a.png","70","test","","","","","","","","","","","2","","","","","","","","",""
"null","142724","SARL_v6","SARL_v6tkxoh2lz","603862f99e00971c55fe0874","fixation","","","img/fixation.png","null","","","test","","","","","","","","","","","","","","","","","","","",""
"166","142895","SARL_v6","SARL_v6tkxoh2lz","603862f99e00971c55fe0874","freq","","","img/blue_2bandit_a2.png","70","","70","test","1","","38","","","","square","circle","37","11","2","0.918918918918919","","","","","","","",""
"null","143535","SARL_v6","SARL_v6tkxoh2lz","603862f99e00971c55fe0874","freq_resp","","","img/blue_2bandit_a.png","70","img/blue_2bandit_a.png","70","test","","","","","","","","","","","2","","","","","","","","",""
"null","143691","SARL_v6","SARL_v6tkxoh2lz","603862f99e00971c55fe0874","fixation","","","img/fixation.png","null","","","test","","","","","","","","","","","","","","","","","","","",""
"176.29999999981374","143870","SARL_v6","SARL_v6tkxoh2lz","603862f99e00971c55fe0874","freq","","","img/blue_2bandit_a2.png","70","","70","test","1","","39","","","","square","circle","38","12","2","0.9210526315789473","","","","","","","",""
"null","144499","SARL_v6","SARL_v6tkxoh2lz","603862f99e00971c55fe0874","freq_resp","","","img/blue_2bandit_a.png","70","img/blue_2bandit_a.png","70","test","","","","","","","","","","","2","","","","","","","","",""
"null","144656","SARL_v6","SARL_v6tkxoh2lz","603862f99e00971c55fe0874","fixation","","","img/fixation.png","null","","","test","","","","","","","","","","","","","","","","","","","",""
"300.5","144962","SARL_v6","SARL_v6tkxoh2lz","603862f99e00971c55fe0874","freq","","","img/blue_2bandit_a2.png","70","","70","test","1","","40","","","","square","circle","39","13","2","0.9230769230769231","","","","","","","",""
"null","145478","SARL_v6","SARL_v6tkxoh2lz","603862f99e00971c55fe0874","freq_resp","","","img/blue_2bandit_a.png","70","img/blue_2bandit_a.png","70","test","","","","","","","","","","","2","","","","","","","","",""
"null","145634","SARL_v6","SARL_v6tkxoh2lz","603862f99e00971c55fe0874","fixation","","","img/fixation.png","null","","","test","","","","","","","","","","","","","","","","","","","",""
"279.5","145919","SARL_v6","SARL_v6tkxoh2lz","603862f99e00971c55fe0874","freq","","","img/blue_2bandit_a2.png","70","","70","test","1","","41","","","","square","circle","40","14","2","0.925","","","","","","","",""
"null","146459","SARL_v6","SARL_v6tkxoh2lz","603862f99e00971c55fe0874","freq_resp","","","img/blue_2bandit_a.png","70","img/blue_2bandit_a.png","70","test","","","","","","","","","","","2","","","","","","","","",""
"null","146615","SARL_v6","SARL_v6tkxoh2lz","603862f99e00971c55fe0874","fixation","","","img/fixation.png","null","","","test","","","","","","","","","","","","","","","","","","","",""
"549.6999999997206","147169","SARL_v6","SARL_v6tkxoh2lz","603862f99e00971c55fe0874","infreq","","","img/orange_2bandit_a2.png","68","","68","test","1","","42","","","","square","circle","41","15","2","0.926829268292683","","","","","","","",""
"null","147426","SARL_v6","SARL_v6tkxoh2lz","603862f99e00971c55fe0874","infreq_resp","","","img/orange_2bandit_a.png","68","img/orange_2bandit_a.png","68","test","","","","","","","","","","","2","","","","","","","","",""
"null","147580","SARL_v6","SARL_v6tkxoh2lz","603862f99e00971c55fe0874","fixation","","","img/fixation.png","null","","","test","","","","","","","","","","","","","","","","","","","",""
"471.59999999962747","148054","SARL_v6","SARL_v6tkxoh2lz","603862f99e00971c55fe0874","freq","","","img/blue_2bandit_a2.png","70","","70","test","1","","43","","","","square","circle","42","16","2","0.9285714285714286","","","","","","","",""
"null","148388","SARL_v6","SARL_v6tkxoh2lz","603862f99e00971c55fe0874","freq_resp","","","img/blue_2bandit_a.png","70","img/blue_2bandit_a.png","70","test","","","","","","","","","","","2","","","","","","","","",""
"null","148543","SARL_v6","SARL_v6tkxoh2lz","603862f99e00971c55fe0874","fixation","","","img/fixation.png","null","","","test","","","","","","","","","","","","","","","","","","","",""
"444.40000000037253","148992","SARL_v6","SARL_v6tkxoh2lz","603862f99e00971c55fe0874","freq","","","img/blue_2bandit_a2.png","70","","70","test","1","","44","","","","square","circle","43","17","2","0.9302325581395349","","","","","","","",""
"null","149363","SARL_v6","SARL_v6tkxoh2lz","603862f99e00971c55fe0874","freq_resp","","","img/blue_2bandit_a.png","70","img/blue_2bandit_a.png","70","test","","","","","","","","","","","2","","","","","","","","",""
"null","149519","SARL_v6","SARL_v6tkxoh2lz","603862f99e00971c55fe0874","fixation","","","img/fixation.png","null","","","test","","","","","","","","","","","","","","","","","","","",""
"308.3000000002794","149833","SARL_v6","SARL_v6tkxoh2lz","603862f99e00971c55fe0874","freq","","","img/blue_2bandit_a2.png","70","","70","test","1","","45","","","","square","circle","44","18","2","0.9318181818181818","","","","","","","",""
"null","150340","SARL_v6","SARL_v6tkxoh2lz","603862f99e00971c55fe0874","freq_resp","","","img/blue_2bandit_a.png","70","img/blue_2bandit_a.png","70","test","","","","","","","","","","","2","","","","","","","","",""
"null","150497","SARL_v6","SARL_v6tkxoh2lz","603862f99e00971c55fe0874","fixation","","","img/fixation.png","null","","","test","","","","","","","","","","","","","","","","","","","",""
"312.39999999990687","150812","SARL_v6","SARL_v6tkxoh2lz","603862f99e00971c55fe0874","freq","","","img/blue_2bandit_a2.png","70","","70","test","1","","46","","","","square","circle","45","19","2","0.9333333333333333","","","","","","","",""
"null","151304","SARL_v6","SARL_v6tkxoh2lz","603862f99e00971c55fe0874","freq_resp","","","img/blue_2bandit_a.png","70","img/blue_2bandit_a.png","70","test","","","","","","","","","","","2","","","","","","","","",""
"null","151460","SARL_v6","SARL_v6tkxoh2lz","603862f99e00971c55fe0874","fixation","","","img/fixation.png","null","","","test","","","","","","","","","","","","","","","","","","","",""
"331.09999999962747","151794","SARL_v6","SARL_v6tkxoh2lz","603862f99e00971c55fe0874","freq","","","img/blue_2bandit_a2.png","70","","70","test","1","","47","","","","square","circle","46","20","2","0.9347826086956522","","","","","","","",""
"null","152269","SARL_v6","SARL_v6tkxoh2lz","603862f99e00971c55fe0874","freq_resp","","","img/blue_2bandit_a.png","70","img/blue_2bandit_a.png","70","test","","","","","","","","","","","2","","","","","","","","",""
"null","152424","SARL_v6","SARL_v6tkxoh2lz","603862f99e00971c55fe0874","fixation","","","img/fixation.png","null","","","test","","","","","","","","","","","","","","","","","","","",""
"312.70000000018626","152742","SARL_v6","SARL_v6tkxoh2lz","603862f99e00971c55fe0874","freq","","","img/blue_2bandit_a2.png","70","","70","test","1","","48","","","","square","circle","47","21","2","0.9361702127659575","","","","","","","",""
"null","153246","SARL_v6","SARL_v6tkxoh2lz","603862f99e00971c55fe0874","freq_resp","","","img/blue_2bandit_a.png","70","img/blue_2bandit_a.png","70","test","","","","","","","","","","","2","","","","","","","","",""
"null","153403","SARL_v6","SARL_v6tkxoh2lz","603862f99e00971c55fe0874","fixation","","","img/fixation.png","null","","","test","","","","","","","","","","","","","","","","","","","",""
"285.89999999990687","153693","SARL_v6","SARL_v6tkxoh2lz","603862f99e00971c55fe0874","freq","","","img/blue_2bandit_a2.png","70","","70","test","1","","49","","","","square","circle","48","22","2","0.9375","","","","","","","",""
"null","154222","SARL_v6","SARL_v6tkxoh2lz","603862f99e00971c55fe0874","freq_resp","","","img/blue_2bandit_a.png","70","img/blue_2bandit_a.png","70","test","","","","","","","","","","","2","","","","","","","","",""
"null","154378","SARL_v6","SARL_v6tkxoh2lz","603862f99e00971c55fe0874","fixation","","","img/fixation.png","null","","","test","","","","","","","","","","","","","","","","","","","",""
"307.20000000018626","154690","SARL_v6","SARL_v6tkxoh2lz","603862f99e00971c55fe0874","freq","","","img/blue_2bandit_a2.png","70","","70","test","1","","50","","","","square","circle","49","23","2","0.9387755102040817","","","","","","","",""
"null","155194","SARL_v6","SARL_v6tkxoh2lz","603862f99e00971c55fe0874","freq_resp","","","img/blue_2bandit_a.png","70","img/blue_2bandit_a.png","70","test","","","","","","","","","","","2","","","","","","","","",""
"null","155350","SARL_v6","SARL_v6tkxoh2lz","603862f99e00971c55fe0874","fixation","","","img/fixation.png","null","","","test","","","","","","","","","","","","","","","","","","","",""
"310","155664","SARL_v6","SARL_v6tkxoh2lz","603862f99e00971c55fe0874","freq","","","img/blue_2bandit_a2.png","70","","70","test","1","","51","","","","square","circle","50","24","2","0.94","","","","","","","",""
"null","156163","SARL_v6","SARL_v6tkxoh2lz","603862f99e00971c55fe0874","freq_resp","","","img/blue_2bandit_a.png","70","img/blue_2bandit_a.png","70","test","","","","","","","","","","","2","","","","","","","","",""
"null","156321","SARL_v6","SARL_v6tkxoh2lz","603862f99e00971c55fe0874","fixation","","","img/fixation.png","null","","","test","","","","","","","","","","","","","","","","","","","",""
"627.6000000000931","156954","SARL_v6","SARL_v6tkxoh2lz","603862f99e00971c55fe0874","rl","","","img/black_2bandit_a2.png","75","","0","test","","","52","","","-8","square","circle","","0","2","","75","-8","-5","-5","-8","circle","2","0"
"null","157722","SARL_v6","SARL_v6tkxoh2lz","603862f99e00971c55fe0874","feedback","","","<div class=""verylowPoints""> -8 </div>","null","","na","test","","","NaN","","","","","","","","2","","75","","","","","","2",""
"794.5","158522","SARL_v6","SARL_v6tkxoh2lz","603862f99e00971c55fe0874","freq","","","img/blue_2bandit_a2.png","70","","70","test","1","","53","","","","square","circle","51","1","3","0.9411764705882353","","","","","","","",""
"null","158530","SARL_v6","SARL_v6tkxoh2lz","603862f99e00971c55fe0874","freq_resp","","","img/blue_2bandit_a.png","70","img/blue_2bandit_a.png","70","test","","","","","","","","","","","3","","","","","","","","",""
"null","158686","SARL_v6","SARL_v6tkxoh2lz","603862f99e00971c55fe0874","fixation","","","img/fixation.png","null","","","test","","","","","","","","","","","","","","","","","","","",""
"626.3000000002794","159317","SARL_v6","SARL_v6tkxoh2lz","603862f99e00971c55fe0874","freq","","","img/blue_2bandit_a2.png","70","","70","test","1","","54","","","","square","circle","52","2","3","0.9423076923076923","","","","","","","",""
"null","159510","SARL_v6","SARL_v6tkxoh2lz","603862f99e00971c55fe0874","freq_resp","","","img/blue_2bandit_a.png","70","img/blue_2bandit_a.png","70","test","","","","","","","","","","","3","","","","","","","","",""
"null","159665","SARL_v6","SARL_v6tkxoh2lz","603862f99e00971c55fe0874","fixation","","","img/fixation.png","null","","","test","","","","","","","","","","","","","","","","","","","",""
"605.8999999999069","160276","SARL_v6","SARL_v6tkxoh2lz","603862f99e00971c55fe0874","freq","","","img/blue_2bandit_a2.png","70","","70","test","1","","55","","","","square","circle","53","3","3","0.9433962264150944","","","","","","","",""
"null","160490","SARL_v6","SARL_v6tkxoh2lz","603862f99e00971c55fe0874","freq_resp","","","img/blue_2bandit_a.png","70","img/blue_2bandit_a.png","70","test","","","","","","","","","","","3","","","","","","","","",""
"null","160645","SARL_v6","SARL_v6tkxoh2lz","603862f99e00971c55fe0874","fixation","","","img/fixation.png","null","","","test","","","","","","","","","","","","","","","","","","","",""
"556.8999999999069","161206","SARL_v6","SARL_v6tkxoh2lz","603862f99e00971c55fe0874","freq","","","img/blue_2bandit_a2.png","70","","70","test","1","","56","","","","square","circle","54","4","3","0.9444444444444444","","","","","","","",""
"null","161468","SARL_v6","SARL_v6tkxoh2lz","603862f99e00971c55fe0874","freq_resp","","","img/blue_2bandit_a.png","70","img/blue_2bandit_a.png","70","test","","","","","","","","","","","3","","","","","","","","",""
"null","161623","SARL_v6","SARL_v6tkxoh2lz","603862f99e00971c55fe0874","fixation","","","img/fixation.png","null","","","test","","","","","","","","","","","","","","","","","","","",""
"421.60000000009313","162048","SARL_v6","SARL_v6tkxoh2lz","603862f99e00971c55fe0874","freq","","","img/blue_2bandit_a2.png","70","","70","test","1","","57","","","","square","circle","55","5","3","0.9454545454545454","","","","","","","",""
"null","162432","SARL_v6","SARL_v6tkxoh2lz","603862f99e00971c55fe0874","freq_resp","","","img/blue_2bandit_a.png","70","img/blue_2bandit_a.png","70","test","","","","","","","","","","","3","","","","","","","","",""
"null","162588","SARL_v6","SARL_v6tkxoh2lz","603862f99e00971c55fe0874","fixation","","","img/fixation.png","null","","","test","","","","","","","","","","","","","","","","","","","",""
"319.20000000018626","162911","SARL_v6","SARL_v6tkxoh2lz","603862f99e00971c55fe0874","freq","","","img/blue_2bandit_a2.png","70","","70","test","1","","58","","","","square","circle","56","6","3","0.9464285714285714","","","","","","","",""
"null","163398","SARL_v6","SARL_v6tkxoh2lz","603862f99e00971c55fe0874","freq_resp","","","img/blue_2bandit_a.png","70","img/blue_2bandit_a.png","70","test","","","","","","","","","","","3","","","","","","","","",""
"null","163555","SARL_v6","SARL_v6tkxoh2lz","603862f99e00971c55fe0874","fixation","","","img/fixation.png","null","","","test","","","","","","","","","","","","","","","","","","","",""
"324.5","163884","SARL_v6","SARL_v6tkxoh2lz","603862f99e00971c55fe0874","freq","","","img/blue_2bandit_a2.png","70","","70","test","1","","59","","","","square","circle","57","7","3","0.9473684210526315","","","","","","","",""
"null","164367","SARL_v6","SARL_v6tkxoh2lz","603862f99e00971c55fe0874","freq_resp","","","img/blue_2bandit_a.png","70","img/blue_2bandit_a.png","70","test","","","","","","","","","","","3","","","","","","","","",""
"null","164522","SARL_v6","SARL_v6tkxoh2lz","603862f99e00971c55fe0874","fixation","","","img/fixation.png","null","","","test","","","","","","","","","","","","","","","","","","","",""
"418","164944","SARL_v6","SARL_v6tkxoh2lz","603862f99e00971c55fe0874","infreq","","","img/orange_2bandit_a2.png","68","","68","test","1","","60","","","","square","circle","58","8","3","0.9482758620689655","","","","","","","",""
"null","165341","SARL_v6","SARL_v6tkxoh2lz","603862f99e00971c55fe0874","infreq_resp","","","img/orange_2bandit_a.png","68","img/orange_2bandit_a.png","68","test","","","","","","","","","","","3","","","","","","","","",""
"null","165498","SARL_v6","SARL_v6tkxoh2lz","603862f99e00971c55fe0874","fixation","","","img/fixation.png","null","","","test","","","","","","","","","","","","","","","","","","","",""
"471","165974","SARL_v6","SARL_v6tkxoh2lz","603862f99e00971c55fe0874","infreq","","","img/orange_2bandit_a2.png","68","","68","test","1","","61","","","","square","circle","59","9","3","0.9491525423728814","","","","","","","",""
"null","166310","SARL_v6","SARL_v6tkxoh2lz","603862f99e00971c55fe0874","infreq_resp","","","img/orange_2bandit_a.png","68","img/orange_2bandit_a.png","68","test","","","","","","","","","","","3","","","","","","","","",""
"null","166468","SARL_v6","SARL_v6tkxoh2lz","603862f99e00971c55fe0874","fixation","","","img/fixation.png","null","","","test","","","","","","","","","","","","","","","","","","","",""
"416.29999999981374","166888","SARL_v6","SARL_v6tkxoh2lz","603862f99e00971c55fe0874","freq","","","img/blue_2bandit_a2.png","70","","70","test","1","","62","","","","square","circle","60","10","3","0.95","","","","","","","",""
"null","167278","SARL_v6","SARL_v6tkxoh2lz","603862f99e00971c55fe0874","freq_resp","","","img/blue_2bandit_a.png","70","img/blue_2bandit_a.png","70","test","","","","","","","","","","","3","","","","","","","","",""
"null","167432","SARL_v6","SARL_v6tkxoh2lz","603862f99e00971c55fe0874","fixation","","","img/fixation.png","null","","","test","","","","","","","","","","","","","","","","","","","",""
"339.79999999981374","167774","SARL_v6","SARL_v6tkxoh2lz","603862f99e00971c55fe0874","freq","","","img/blue_2bandit_a2.png","70","","70","test","1","","63","","","","square","circle","61","11","3","0.9508196721311475","","","","","","","",""
"null","168243","SARL_v6","SARL_v6tkxoh2lz","603862f99e00971c55fe0874","freq_resp","","","img/blue_2bandit_a.png","70","img/blue_2bandit_a.png","70","test","","","","","","","","","","","3","","","","","","","","",""
"null","168400","SARL_v6","SARL_v6tkxoh2lz","603862f99e00971c55fe0874","fixation","","","img/fixation.png","null","","","test","","","","","","","","","","","","","","","","","","","",""
"317.40000000037253","168723","SARL_v6","SARL_v6tkxoh2lz","603862f99e00971c55fe0874","freq","","","img/blue_2bandit_a2.png","70","","70","test","1","","64","","","","square","circle","62","12","3","0.9516129032258065","","","","","","","",""
"null","169223","SARL_v6","SARL_v6tkxoh2lz","603862f99e00971c55fe0874","freq_resp","","","img/blue_2bandit_a.png","70","img/blue_2bandit_a.png","70","test","","","","","","","","","","","3","","","","","","","","",""
"null","169377","SARL_v6","SARL_v6tkxoh2lz","603862f99e00971c55fe0874","fixation","","","img/fixation.png","null","","","test","","","","","","","","","","","","","","","","","","","",""
"290.70000000018626","169672","SARL_v6","SARL_v6tkxoh2lz","603862f99e00971c55fe0874","freq","","","img/blue_2bandit_a2.png","70","","70","test","1","","65","","","","square","circle","63","13","3","0.9523809523809523","","","","","","","",""
"null","170189","SARL_v6","SARL_v6tkxoh2lz","603862f99e00971c55fe0874","freq_resp","","","img/blue_2bandit_a.png","70","img/blue_2bandit_a.png","70","test","","","","","","","","","","","3","","","","","","","","",""
"null","170345","SARL_v6","SARL_v6tkxoh2lz","603862f99e00971c55fe0874","fixation","","","img/fixation.png","null","","","test","","","","","","","","","","","","","","","","","","","",""
"287.70000000018626","170638","SARL_v6","SARL_v6tkxoh2lz","603862f99e00971c55fe0874","freq","","","img/blue_2bandit_a2.png","70","","70","test","1","","66","","","","square","circle","64","14","3","0.953125","","","","","","","",""
"null","171155","SARL_v6","SARL_v6tkxoh2lz","603862f99e00971c55fe0874","freq_resp","","","img/blue_2bandit_a.png","70","img/blue_2bandit_a.png","70","test","","","","","","","","","","","3","","","","","","","","",""
"null","171312","SARL_v6","SARL_v6tkxoh2lz","603862f99e00971c55fe0874","fixation","","","img/fixation.png","null","","","test","","","","","","","","","","","","","","","","","","","",""
"277.8000000002794","171593","SARL_v6","SARL_v6tkxoh2lz","603862f99e00971c55fe0874","freq","","","img/blue_2bandit_a2.png","70","","70","test","1","","67","","","","square","circle","65","15","3","0.9538461538461539","","","","","","","",""
"null","172121","SARL_v6","SARL_v6tkxoh2lz","603862f99e00971c55fe0874","freq_resp","","","img/blue_2bandit_a.png","70","img/blue_2bandit_a.png","70","test","","","","","","","","","","","3","","","","","","","","",""
"null","172276","SARL_v6","SARL_v6tkxoh2lz","603862f99e00971c55fe0874","fixation","","","img/fixation.png","null","","","test","","","","","","","","","","","","","","","","","","","",""
"303.60000000009313","172582","SARL_v6","SARL_v6tkxoh2lz","603862f99e00971c55fe0874","freq","","","img/blue_2bandit_a2.png","70","","70","test","1","","68","","","","square","circle","66","16","3","0.9545454545454546","","","","","","","",""
"null","173086","SARL_v6","SARL_v6tkxoh2lz","603862f99e00971c55fe0874","freq_resp","","","img/blue_2bandit_a.png","70","img/blue_2bandit_a.png","70","test","","","","","","","","","","","3","","","","","","","","",""
"null","173241","SARL_v6","SARL_v6tkxoh2lz","603862f99e00971c55fe0874","fixation","","","img/fixation.png","null","","","test","","","","","","","","","","","","","","","","","","","",""
"314.39999999990687","173560","SARL_v6","SARL_v6tkxoh2lz","603862f99e00971c55fe0874","freq","","","img/blue_2bandit_a2.png","70","","70","test","1","","69","","","","square","circle","67","17","3","0.9552238805970149","","","","","","","",""
"null","174051","SARL_v6","SARL_v6tkxoh2lz","603862f99e00971c55fe0874","freq_resp","","","img/blue_2bandit_a.png","70","img/blue_2bandit_a.png","70","test","","","","","","","","","","","3","","","","","","","","",""
"null","174206","SARL_v6","SARL_v6tkxoh2lz","603862f99e00971c55fe0874","fixation","","","img/fixation.png","null","","","test","","","","","","","","","","","","","","","","","","","",""
"305.5","174517","SARL_v6","SARL_v6tkxoh2lz","603862f99e00971c55fe0874","freq","","","img/blue_2bandit_a2.png","70","","70","test","1","","70","","","","square","circle","68","18","3","0.9558823529411765","","","","","","","",""
"null","175028","SARL_v6","SARL_v6tkxoh2lz","603862f99e00971c55fe0874","freq_resp","","","img/blue_2bandit_a.png","70","img/blue_2bandit_a.png","70","test","","","","","","","","","","","3","","","","","","","","",""
"null","175186","SARL_v6","SARL_v6tkxoh2lz","603862f99e00971c55fe0874","fixation","","","img/fixation.png","null","","","test","","","","","","","","","","","","","","","","","","","",""
"299.70000000018626","175490","SARL_v6","SARL_v6tkxoh2lz","603862f99e00971c55fe0874","freq","","","img/blue_2bandit_a2.png","70","","70","test","1","","71","","","","square","circle","69","19","3","0.9565217391304348","","","","","","","",""
"null","175995","SARL_v6","SARL_v6tkxoh2lz","603862f99e00971c55fe0874","freq_resp","","","img/blue_2bandit_a.png","70","img/blue_2bandit_a.png","70","test","","","","","","","","","","","3","","","","","","","","",""
"null","176151","SARL_v6","SARL_v6tkxoh2lz","603862f99e00971c55fe0874","fixation","","","img/fixation.png","null","","","test","","","","","","","","","","","","","","","","","","","",""
"322.70000000018626","176478","SARL_v6","SARL_v6tkxoh2lz","603862f99e00971c55fe0874","freq","","","img/blue_2bandit_a2.png","70","","70","test","1","","72","","","","square","circle","70","20","3","0.9571428571428572","","","","","","","",""
"null","176960","SARL_v6","SARL_v6tkxoh2lz","603862f99e00971c55fe0874","freq_resp","","","img/blue_2bandit_a.png","70","img/blue_2bandit_a.png","70","test","","","","","","","","","","","3","","","","","","","","",""
"null","177118","SARL_v6","SARL_v6tkxoh2lz","603862f99e00971c55fe0874","fixation","","","img/fixation.png","null","","","test","","","","","","","","","","","","","","","","","","","",""
"322","177444","SARL_v6","SARL_v6tkxoh2lz","603862f99e00971c55fe0874","freq","","","img/blue_2bandit_a2.png","70","","70","test","1","","73","","","","square","circle","71","21","3","0.9577464788732394","","","","","","","",""
"null","177927","SARL_v6","SARL_v6tkxoh2lz","603862f99e00971c55fe0874","freq_resp","","","img/blue_2bandit_a.png","70","img/blue_2bandit_a.png","70","test","","","","","","","","","","","3","","","","","","","","",""
"null","178083","SARL_v6","SARL_v6tkxoh2lz","603862f99e00971c55fe0874","fixation","","","img/fixation.png","null","","","test","","","","","","","","","","","","","","","","","","","",""
"319.5","178407","SARL_v6","SARL_v6tkxoh2lz","603862f99e00971c55fe0874","freq","","","img/blue_2bandit_a2.png","70","","70","test","1","","74","","","","square","circle","72","22","3","0.9583333333333334","","","","","","","",""
"null","178895","SARL_v6","SARL_v6tkxoh2lz","603862f99e00971c55fe0874","freq_resp","","","img/blue_2bandit_a.png","70","img/blue_2bandit_a.png","70","test","","","","","","","","","","","3","","","","","","","","",""
"null","179050","SARL_v6","SARL_v6tkxoh2lz","603862f99e00971c55fe0874","fixation","","","img/fixation.png","null","","","test","","","","","","","","","","","","","","","","","","","",""
"523.3999999999069","179579","SARL_v6","SARL_v6tkxoh2lz","603862f99e00971c55fe0874","rl","","","img/black_2bandit_a2.png","75","","0","test","","","75","","","-8","square","circle","","0","3","","75","-8","-4","-4","-8","circle","3","0"
"null","180341","SARL_v6","SARL_v6tkxoh2lz","603862f99e00971c55fe0874","feedback","","","<div class=""verylowPoints""> -8 </div>","null","","na","test","","","NaN","","","","","","","","3","","75","","","","","","3",""
"664.5","181009","SARL_v6","SARL_v6tkxoh2lz","603862f99e00971c55fe0874","freq","","","img/blue_2bandit_a2.png","70","","70","test","1","","76","","","","square","circle","73","1","4","0.958904109589041","","","","","","","",""
"null","181156","SARL_v6","SARL_v6tkxoh2lz","603862f99e00971c55fe0874","freq_resp","","","img/blue_2bandit_a.png","70","img/blue_2bandit_a.png","70","test","","","","","","","","","","","4","","","","","","","","",""
"null","181311","SARL_v6","SARL_v6tkxoh2lz","603862f99e00971c55fe0874","fixation","","","img/fixation.png","null","","","test","","","","","","","","","","","","","","","","","","","",""
"602.2000000001863","181916","SARL_v6","SARL_v6tkxoh2lz","603862f99e00971c55fe0874","freq","","","img/blue_2bandit_a2.png","70","","70","test","1","","77","","","","square","circle","74","2","4","0.9594594594594594","","","","","","","",""
"null","182122","SARL_v6","SARL_v6tkxoh2lz","603862f99e00971c55fe0874","freq_resp","","","img/blue_2bandit_a.png","70","img/blue_2bandit_a.png","70","test","","","","","","","","","","","4","","","","","","","","",""
"null","182276","SARL_v6","SARL_v6tkxoh2lz","603862f99e00971c55fe0874","fixation","","","img/fixation.png","null","","","test","","","","","","","","","","","","","","","","","","","",""
"652.6999999997206","182933","SARL_v6","SARL_v6tkxoh2lz","603862f99e00971c55fe0874","freq","","","img/blue_2bandit_a2.png","70","","70","test","1","","78","","","","square","circle","75","3","4","0.96","","","","","","","",""
"null","183088","SARL_v6","SARL_v6tkxoh2lz","603862f99e00971c55fe0874","freq_resp","","","img/blue_2bandit_a.png","70","img/blue_2bandit_a.png","70","test","","","","","","","","","","","4","","","","","","","","",""
"null","183242","SARL_v6","SARL_v6tkxoh2lz","603862f99e00971c55fe0874","fixation","","","img/fixation.png","null","","","test","","","","","","","","","","","","","","","","","","","",""
"608.1000000000931","183855","SARL_v6","SARL_v6tkxoh2lz","603862f99e00971c55fe0874","freq","","","img/blue_2bandit_a2.png","70","","70","test","1","","79","","","","square","circle","76","4","4","0.9605263157894737","","","","","","","",""
"null","184066","SARL_v6","SARL_v6tkxoh2lz","603862f99e00971c55fe0874","freq_resp","","","img/blue_2bandit_a.png","70","img/blue_2bandit_a.png","70","test","","","","","","","","","","","4","","","","","","","","",""
"null","184221","SARL_v6","SARL_v6tkxoh2lz","603862f99e00971c55fe0874","fixation","","","img/fixation.png","null","","","test","","","","","","","","","","","","","","","","","","","",""
"601.6999999997206","184827","SARL_v6","SARL_v6tkxoh2lz","603862f99e00971c55fe0874","freq","","","img/blue_2bandit_a2.png","70","","70","test","1","","80","","","","square","circle","77","5","4","0.961038961038961","","","","","","","",""
"null","185031","SARL_v6","SARL_v6tkxoh2lz","603862f99e00971c55fe0874","freq_resp","","","img/blue_2bandit_a.png","70","img/blue_2bandit_a.png","70","test","","","","","","","","","","","4","","","","","","","","",""
"null","185188","SARL_v6","SARL_v6tkxoh2lz","603862f99e00971c55fe0874","fixation","","","img/fixation.png","null","","","test","","","","","","","","","","","","","","","","","","","",""
"613.0999999996275","185807","SARL_v6","SARL_v6tkxoh2lz","603862f99e00971c55fe0874","infreq","","","img/orange_2bandit_a2.png","68","","68","test","1","","81","","","","square","circle","78","6","4","0.9615384615384616","","","","","","","",""
"null","185998","SARL_v6","SARL_v6tkxoh2lz","603862f99e00971c55fe0874","infreq_resp","","","img/orange_2bandit_a.png","68","img/orange_2bandit_a.png","68","test","","","","","","","","","","","4","","","","","","","","",""
"null","186153","SARL_v6","SARL_v6tkxoh2lz","603862f99e00971c55fe0874","fixation","","","img/fixation.png","null","","","test","","","","","","","","","","","","","","","","","","","",""
"596.7999999998137","186753","SARL_v6","SARL_v6tkxoh2lz","603862f99e00971c55fe0874","freq","","","img/blue_2bandit_a2.png","70","","70","test","1","","82","","","","square","circle","79","7","4","0.9620253164556962","","","","","","","",""
"null","186965","SARL_v6","SARL_v6tkxoh2lz","603862f99e00971c55fe0874","freq_resp","","","img/blue_2bandit_a.png","70","img/blue_2bandit_a.png","70","test","","","","","","","","","","","4","","","","","","","","",""
"null","187120","SARL_v6","SARL_v6tkxoh2lz","603862f99e00971c55fe0874","fixation","","","img/fixation.png","null","","","test","","","","","","","","","","","","","","","","","","","",""
"568.0999999996275","187691","SARL_v6","SARL_v6tkxoh2lz","603862f99e00971c55fe0874","freq","","","img/blue_2bandit_a2.png","70","","70","test","1","","83","","","","square","circle","80","8","4","0.9625","","","","","","","",""
"null","187931","SARL_v6","SARL_v6tkxoh2lz","603862f99e00971c55fe0874","freq_resp","","","img/blue_2bandit_a.png","70","img/blue_2bandit_a.png","70","test","","","","","","","","","","","4","","","","","","","","",""
"null","188088","SARL_v6","SARL_v6tkxoh2lz","603862f99e00971c55fe0874","fixation","","","img/fixation.png","null","","","test","","","","","","","","","","","","","","","","","","","",""
"596.1000000000931","188689","SARL_v6","SARL_v6tkxoh2lz","603862f99e00971c55fe0874","freq","","","img/blue_2bandit_a2.png","70","","70","test","1","","84","","","","square","circle","81","9","4","0.9629629629629629","","","","","","","",""
"null","188900","SARL_v6","SARL_v6tkxoh2lz","603862f99e00971c55fe0874","freq_resp","","","img/blue_2bandit_a.png","70","img/blue_2bandit_a.png","70","test","","","","","","","","","","","4","","","","","","","","",""
"null","189058","SARL_v6","SARL_v6tkxoh2lz","603862f99e00971c55fe0874","fixation","","","img/fixation.png","null","","","test","","","","","","","","","","","","","","","","","","","",""
"450.70000000018626","189513","SARL_v6","SARL_v6tkxoh2lz","603862f99e00971c55fe0874","freq","","","img/blue_2bandit_a2.png","70","","70","test","1","","85","","","","square","circle","82","10","4","0.9634146341463414","","","","","","","",""
"null","189880","SARL_v6","SARL_v6tkxoh2lz","603862f99e00971c55fe0874","freq_resp","","","img/blue_2bandit_a.png","70","img/blue_2bandit_a.png","70","test","","","","","","","","","","","4","","","","","","","","",""
"null","190037","SARL_v6","SARL_v6tkxoh2lz","603862f99e00971c55fe0874","fixation","","","img/fixation.png","null","","","test","","","","","","","","","","","","","","","","","","","",""
"375.10000000009313","190417","SARL_v6","SARL_v6tkxoh2lz","603862f99e00971c55fe0874","freq","","","img/blue_2bandit_a2.png","70","","70","test","1","","86","","","","square","circle","83","11","4","0.963855421686747","","","","","","","",""
"null","190848","SARL_v6","SARL_v6tkxoh2lz","603862f99e00971c55fe0874","freq_resp","","","img/blue_2bandit_a.png","70","img/blue_2bandit_a.png","70","test","","","","","","","","","","","4","","","","","","","","",""
"null","191003","SARL_v6","SARL_v6tkxoh2lz","603862f99e00971c55fe0874","fixation","","","img/fixation.png","null","","","test","","","","","","","","","","","","","","","","","","","",""
"335.89999999990687","191343","SARL_v6","SARL_v6tkxoh2lz","603862f99e00971c55fe0874","freq","","","img/blue_2bandit_a2.png","70","","70","test","1","","87","","","","square","circle","84","12","4","0.9642857142857143","","","","","","","",""
"null","191812","SARL_v6","SARL_v6tkxoh2lz","603862f99e00971c55fe0874","freq_resp","","","img/blue_2bandit_a.png","70","img/blue_2bandit_a.png","70","test","","","","","","","","","","","4","","","","","","","","",""
"null","191968","SARL_v6","SARL_v6tkxoh2lz","603862f99e00971c55fe0874","fixation","","","img/fixation.png","null","","","test","","","","","","","","","","","","","","","","","","","",""
"480.60000000009313","192451","SARL_v6","SARL_v6tkxoh2lz","603862f99e00971c55fe0874","infreq","","","img/orange_2bandit_a2.png","68","","68","test","1","","88","","","","square","circle","85","13","4","0.9647058823529412","","","","","","","",""
"null","192774","SARL_v6","SARL_v6tkxoh2lz","603862f99e00971c55fe0874","infreq_resp","","","img/orange_2bandit_a.png","68","img/orange_2bandit_a.png","68","test","","","","","","","","","","","4","","","","","","","","",""
"null","192934","SARL_v6","SARL_v6tkxoh2lz","603862f99e00971c55fe0874","fixation","","","img/fixation.png","null","","","test","","","","","","","","","","","","","","","","","","","",""
"396.89999999990687","193336","SARL_v6","SARL_v6tkxoh2lz","603862f99e00971c55fe0874","freq","","","img/blue_2bandit_a2.png","70","","70","test","1","","89","","","","square","circle","86","14","4","0.9651162790697675","","","","","","","",""
"null","193744","SARL_v6","SARL_v6tkxoh2lz","603862f99e00971c55fe0874","freq_resp","","","img/blue_2bandit_a.png","70","img/blue_2bandit_a.png","70","test","","","","","","","","","","","4","","","","","","","","",""
"null","193899","SARL_v6","SARL_v6tkxoh2lz","603862f99e00971c55fe0874","fixation","","","img/fixation.png","null","","","test","","","","","","","","","","","","","","","","","","","",""
"286.1999999997206","194189","SARL_v6","SARL_v6tkxoh2lz","603862f99e00971c55fe0874","freq","","","img/blue_2bandit_a2.png","70","","70","test","1","","90","","","","square","circle","87","15","4","0.9655172413793104","","","","","","","",""
"null","194716","SARL_v6","SARL_v6tkxoh2lz","603862f99e00971c55fe0874","freq_resp","","","img/blue_2bandit_a.png","70","img/blue_2bandit_a.png","70","test","","","","","","","","","","","4","","","","","","","","",""
"null","194872","SARL_v6","SARL_v6tkxoh2lz","603862f99e00971c55fe0874","fixation","","","img/fixation.png","null","","","test","","","","","","","","","","","","","","","","","","","",""
"161.79999999981374","195037","SARL_v6","SARL_v6tkxoh2lz","603862f99e00971c55fe0874","freq","","","img/blue_2bandit_a2.png","70","","70","test","1","","91","","","","square","circle","88","16","4","0.9659090909090909","","","","","","","",""
"null","195682","SARL_v6","SARL_v6tkxoh2lz","603862f99e00971c55fe0874","freq_resp","","","img/blue_2bandit_a.png","70","img/blue_2bandit_a.png","70","test","","","","","","","","","","","4","","","","","","","","",""
"null","195839","SARL_v6","SARL_v6tkxoh2lz","603862f99e00971c55fe0874","fixation","","","img/fixation.png","null","","","test","","","","","","","","","","","","","","","","","","","",""
"110.5","195954","SARL_v6","SARL_v6tkxoh2lz","603862f99e00971c55fe0874","freq","","","img/blue_2bandit_a2.png","70","","70","test","1","","92","","","","square","circle","89","17","4","0.9662921348314607","","","","","","","",""
"null","196648","SARL_v6","SARL_v6tkxoh2lz","603862f99e00971c55fe0874","freq_resp","","","img/blue_2bandit_a.png","70","img/blue_2bandit_a.png","70","test","","","","","","","","","","","4","","","","","","","","",""
"null","196804","SARL_v6","SARL_v6tkxoh2lz","603862f99e00971c55fe0874","fixation","","","img/fixation.png","null","","","test","","","","","","","","","","","","","","","","","","","",""
"104.39999999990687","196912","SARL_v6","SARL_v6tkxoh2lz","603862f99e00971c55fe0874","freq","","","img/blue_2bandit_a2.png","70","","70","test","1","","93","","","","square","circle","90","18","4","0.9666666666666667","","","","","","","",""
"null","197620","SARL_v6","SARL_v6tkxoh2lz","603862f99e00971c55fe0874","freq_resp","","","img/blue_2bandit_a.png","70","img/blue_2bandit_a.png","70","test","","","","","","","","","","","4","","","","","","","","",""
"null","197775","SARL_v6","SARL_v6tkxoh2lz","603862f99e00971c55fe0874","fixation","","","img/fixation.png","null","","","test","","","","","","","","","","","","","","","","","","","",""
"274.39999999990687","198053","SARL_v6","SARL_v6tkxoh2lz","603862f99e00971c55fe0874","freq","","","img/blue_2bandit_a2.png","70","","70","test","1","","94","","","","square","circle","91","19","4","0.967032967032967","","","","","","","",""
"null","198583","SARL_v6","SARL_v6tkxoh2lz","603862f99e00971c55fe0874","freq_resp","","","img/blue_2bandit_a.png","70","img/blue_2bandit_a.png","70","test","","","","","","","","","","","4","","","","","","","","",""
"null","198737","SARL_v6","SARL_v6tkxoh2lz","603862f99e00971c55fe0874","fixation","","","img/fixation.png","null","","","test","","","","","","","","","","","","","","","","","","","",""
"547.7999999998137","199290","SARL_v6","SARL_v6tkxoh2lz","603862f99e00971c55fe0874","rl","","","img/black_2bandit_a2.png","74","","0","test","","","95","","","0","square","circle","","0","4","","74","-12","0","0","-12","square","4","0"
"null","200060","SARL_v6","SARL_v6tkxoh2lz","603862f99e00971c55fe0874","feedback","","","<div class=""verylowPoints_sq""> 0 </div>","null","","na","test","","","NaN","","","","","","","","4","","74","","","","","","4",""
"499.70000000018626","200564","SARL_v6","SARL_v6tkxoh2lz","603862f99e00971c55fe0874","freq","","","img/blue_2bandit_a2.png","70","","70","test","1","","96","","","","square","circle","92","1","5","0.967391304347826","","","","","","","",""
"null","200869","SARL_v6","SARL_v6tkxoh2lz","603862f99e00971c55fe0874","freq_resp","","","img/blue_2bandit_a.png","70","img/blue_2bandit_a.png","70","test","","","","","","","","","","","5","","","","","","","","",""
"null","201025","SARL_v6","SARL_v6tkxoh2lz","603862f99e00971c55fe0874","fixation","","","img/fixation.png","null","","","test","","","","","","","","","","","","","","","","","","","",""
"325.59999999962747","201355","SARL_v6","SARL_v6tkxoh2lz","603862f99e00971c55fe0874","freq","","","img/blue_2bandit_a2.png","70","","70","test","1","","97","","","","square","circle","93","2","5","0.967741935483871","","","","","","","",""
"null","201836","SARL_v6","SARL_v6tkxoh2lz","603862f99e00971c55fe0874","freq_resp","","","img/blue_2bandit_a.png","70","img/blue_2bandit_a.png","70","test","","","","","","","","","","","5","","","","","","","","",""
"null","201991","SARL_v6","SARL_v6tkxoh2lz","603862f99e00971c55fe0874","fixation","","","img/fixation.png","null","","","test","","","","","","","","","","","","","","","","","","","",""
"305.5","202301","SARL_v6","SARL_v6tkxoh2lz","603862f99e00971c55fe0874","freq","","","img/blue_2bandit_a2.png","70","","70","test","1","","98","","","","square","circle","94","3","5","0.9680851063829787","","","","","","","",""
"null","202800","SARL_v6","SARL_v6tkxoh2lz","603862f99e00971c55fe0874","freq_resp","","","img/blue_2bandit_a.png","70","img/blue_2bandit_a.png","70","test","","","","","","","","","","","5","","","","","","","","",""
"null","202958","SARL_v6","SARL_v6tkxoh2lz","603862f99e00971c55fe0874","fixation","","","img/fixation.png","null","","","test","","","","","","","","","","","","","","","","","","","",""
"340","203301","SARL_v6","SARL_v6tkxoh2lz","603862f99e00971c55fe0874","freq","","","img/blue_2bandit_a2.png","70","","70","test","1","","99","","","","square","circle","95","4","5","0.968421052631579","","","","","","","",""
"null","203767","SARL_v6","SARL_v6tkxoh2lz","603862f99e00971c55fe0874","freq_resp","","","img/blue_2bandit_a.png","70","img/blue_2bandit_a.png","70","test","","","","","","","","","","","5","","","","","","","","",""
"null","203936","SARL_v6","SARL_v6tkxoh2lz","603862f99e00971c55fe0874","fixation","","","img/fixation.png","null","","","test","","","","","","","","","","","","","","","","","","","",""
"315.3000000002794","204255","SARL_v6","SARL_v6tkxoh2lz","603862f99e00971c55fe0874","freq","","","img/blue_2bandit_a2.png","70","","70","test","1","","100","","","","square","circle","96","5","5","0.96875","","","","","","","",""
"null","204745","SARL_v6","SARL_v6tkxoh2lz","603862f99e00971c55fe0874","freq_resp","","","img/blue_2bandit_a.png","70","img/blue_2bandit_a.png","70","test","","","","","","","","","","","5","","","","","","","","",""
"null","204905","SARL_v6","SARL_v6tkxoh2lz","603862f99e00971c55fe0874","fixation","","","img/fixation.png","null","","","test","","","","","","","","","","","","","","","","","","","",""
"309.70000000018626","205216","SARL_v6","SARL_v6tkxoh2lz","603862f99e00971c55fe0874","freq","","","img/blue_2bandit_a2.png","70","","70","test","1","","101","","","","square","circle","97","6","5","0.9690721649484536","","","","","","","",""
"null","205716","SARL_v6","SARL_v6tkxoh2lz","603862f99e00971c55fe0874","freq_resp","","","img/blue_2bandit_a.png","70","img/blue_2bandit_a.png","70","test","","","","","","","","","","","5","","","","","","","","",""
"null","205871","SARL_v6","SARL_v6tkxoh2lz","603862f99e00971c55fe0874","fixation","","","img/fixation.png","null","","","test","","","","","","","","","","","","","","","","","","","",""
"308.60000000009313","206183","SARL_v6","SARL_v6tkxoh2lz","603862f99e00971c55fe0874","freq","","","img/blue_2bandit_a2.png","70","","70","test","1","","102","","","","square","circle","98","7","5","0.9693877551020408","","","","","","","",""
"null","206682","SARL_v6","SARL_v6tkxoh2lz","603862f99e00971c55fe0874","freq_resp","","","img/blue_2bandit_a.png","70","img/blue_2bandit_a.png","70","test","","","","","","","","","","","5","","","","","","","","",""
"null","206839","SARL_v6","SARL_v6tkxoh2lz","603862f99e00971c55fe0874","fixation","","","img/fixation.png","null","","","test","","","","","","","","","","","","","","","","","","","",""
"271.39999999990687","207115","SARL_v6","SARL_v6tkxoh2lz","603862f99e00971c55fe0874","freq","","","img/blue_2bandit_a2.png","70","","70","test","1","","103","","","","square","circle","99","8","5","0.9696969696969697","","","","","","","",""
"null","207648","SARL_v6","SARL_v6tkxoh2lz","603862f99e00971c55fe0874","freq_resp","","","img/blue_2bandit_a.png","70","img/blue_2bandit_a.png","70","test","","","","","","","","","","","5","","","","","","","","",""
"null","207803","SARL_v6","SARL_v6tkxoh2lz","603862f99e00971c55fe0874","fixation","","","img/fixation.png","null","","","test","","","","","","","","","","","","","","","","","","","",""
"301.5","208109","SARL_v6","SARL_v6tkxoh2lz","603862f99e00971c55fe0874","freq","","","img/blue_2bandit_a2.png","70","","70","test","1","","104","","","","square","circle","100","9","5","0.97","","","","","","","",""
"null","208612","SARL_v6","SARL_v6tkxoh2lz","603862f99e00971c55fe0874","freq_resp","","","img/blue_2bandit_a.png","70","img/blue_2bandit_a.png","70","test","","","","","","","","","","","5","","","","","","","","",""
"null","208767","SARL_v6","SARL_v6tkxoh2lz","603862f99e00971c55fe0874","fixation","","","img/fixation.png","null","","","test","","","","","","","","","","","","","","","","","","","",""
"322.70000000018626","209094","SARL_v6","SARL_v6tkxoh2lz","603862f99e00971c55fe0874","freq","","","img/blue_2bandit_a2.png","70","","70","test","1","","105","","","","square","circle","101","10","5","0.9702970297029703","","","","","","","",""
"null","209577","SARL_v6","SARL_v6tkxoh2lz","603862f99e00971c55fe0874","freq_resp","","","img/blue_2bandit_a.png","70","img/blue_2bandit_a.png","70","test","","","","","","","","","","","5","","","","","","","","",""
"null","209734","SARL_v6","SARL_v6tkxoh2lz","603862f99e00971c55fe0874","fixation","","","img/fixation.png","null","","","test","","","","","","","","","","","","","","","","","","","",""
"458.70000000018626","210197","SARL_v6","SARL_v6tkxoh2lz","603862f99e00971c55fe0874","infreq","","","img/orange_2bandit_a2.png","68","","68","test","1","","106","","","","square","circle","102","11","5","0.9705882352941176","","","","","","","",""
"null","210545","SARL_v6","SARL_v6tkxoh2lz","603862f99e00971c55fe0874","infreq_resp","","","img/orange_2bandit_a.png","68","img/orange_2bandit_a.png","68","test","","","","","","","","","","","5","","","","","","","","",""
"null","210699","SARL_v6","SARL_v6tkxoh2lz","603862f99e00971c55fe0874","fixation","","","img/fixation.png","null","","","test","","","","","","","","","","","","","","","","","","","",""
"299","211003","SARL_v6","SARL_v6tkxoh2lz","603862f99e00971c55fe0874","freq","","","img/blue_2bandit_a2.png","70","","70","test","1","","107","","","","square","circle","103","12","5","0.970873786407767","","","","","","","",""
"null","211511","SARL_v6","SARL_v6tkxoh2lz","603862f99e00971c55fe0874","freq_resp","","","img/blue_2bandit_a.png","70","img/blue_2bandit_a.png","70","test","","","","","","","","","","","5","","","","","","","","",""
"null","211681","SARL_v6","SARL_v6tkxoh2lz","603862f99e00971c55fe0874","fixation","","","img/fixation.png","null","","","test","","","","","","","","","","","","","","","","","","","",""
"177.5","211862","SARL_v6","SARL_v6tkxoh2lz","603862f99e00971c55fe0874","freq","","","img/blue_2bandit_a2.png","70","","70","test","1","","108","","","","square","circle","104","13","5","0.9711538461538461","","","","","","","",""
"null","212493","SARL_v6","SARL_v6tkxoh2lz","603862f99e00971c55fe0874","freq_resp","","","img/blue_2bandit_a.png","70","img/blue_2bandit_a.png","70","test","","","","","","","","","","","5","","","","","","","","",""
"null","212661","SARL_v6","SARL_v6tkxoh2lz","603862f99e00971c55fe0874","fixation","","","img/fixation.png","null","","","test","","","","","","","","","","","","","","","","","","","",""
"195","212859","SARL_v6","SARL_v6tkxoh2lz","603862f99e00971c55fe0874","freq","","","img/blue_2bandit_a2.png","70","","70","test","1","","109","","","","square","circle","105","14","5","0.9714285714285714","","","","","","","",""
"null","213474","SARL_v6","SARL_v6tkxoh2lz","603862f99e00971c55fe0874","freq_resp","","","img/blue_2bandit_a.png","70","img/blue_2bandit_a.png","70","test","","","","","","","","","","","5","","","","","","","","",""
"null","213629","SARL_v6","SARL_v6tkxoh2lz","603862f99e00971c55fe0874","fixation","","","img/fixation.png","null","","","test","","","","","","","","","","","","","","","","","","","",""
"124.8000000002794","213758","SARL_v6","SARL_v6tkxoh2lz","603862f99e00971c55fe0874","freq","","","img/blue_2bandit_a2.png","70","","70","test","1","","110","","","","square","circle","106","15","5","0.9716981132075472","","","","","","","",""
"null","214453","SARL_v6","SARL_v6tkxoh2lz","603862f99e00971c55fe0874","freq_resp","","","img/blue_2bandit_a.png","70","img/blue_2bandit_a.png","70","test","","","","","","","","","","","5","","","","","","","","",""
"null","214607","SARL_v6","SARL_v6tkxoh2lz","603862f99e00971c55fe0874","fixation","","","img/fixation.png","null","","","test","","","","","","","","","","","","","","","","","","","",""
"134.10000000009313","214745","SARL_v6","SARL_v6tkxoh2lz","603862f99e00971c55fe0874","infreq","","","img/orange_2bandit_a2.png","70","","68","test","0","","111","","","","square","circle","107","16","5","0.9626168224299065","","","","","","","",""
"null","215423","SARL_v6","SARL_v6tkxoh2lz","603862f99e00971c55fe0874","infreq_resp","","","img/orange_2bandit_a.png","70","img/orange_2bandit_a.png","68","test","","","","","","","","","","","5","","","","","","","","",""
"null","215593","SARL_v6","SARL_v6tkxoh2lz","603862f99e00971c55fe0874","fixation","","","img/fixation.png","null","","","test","","","","","","","","","","","","","","","","","","","",""
"149.20000000018626","215745","SARL_v6","SARL_v6tkxoh2lz","603862f99e00971c55fe0874","freq","","","img/blue_2bandit_a2.png","70","","70","test","1","","112","","","","square","circle","108","17","5","0.9629629629629629","","","","","","","",""
"null","216399","SARL_v6","SARL_v6tkxoh2lz","603862f99e00971c55fe0874","freq_resp","","","img/blue_2bandit_a.png","70","img/blue_2bandit_a.png","70","test","","","","","","","","","","","5","","","","","","","","",""
"null","216569","SARL_v6","SARL_v6tkxoh2lz","603862f99e00971c55fe0874","fixation","","","img/fixation.png","null","","","test","","","","","","","","","","","","","","","","","","","",""
"66.70000000018626","216639","SARL_v6","SARL_v6tkxoh2lz","603862f99e00971c55fe0874","freq","","","img/blue_2bandit_a2.png","70","","70","test","1","","113","","","","square","circle","109","18","5","0.963302752293578","","","","","","","",""
"null","217391","SARL_v6","SARL_v6tkxoh2lz","603862f99e00971c55fe0874","freq_resp","","","img/blue_2bandit_a.png","70","img/blue_2bandit_a.png","70","test","","","","","","","","","","","5","","","","","","","","",""
"null","217546","SARL_v6","SARL_v6tkxoh2lz","603862f99e00971c55fe0874","fixation","","","img/fixation.png","null","","","test","","","","","","","","","","","","","","","","","","","",""
"121.39999999990687","217672","SARL_v6","SARL_v6tkxoh2lz","603862f99e00971c55fe0874","freq","","","img/blue_2bandit_a2.png","70","","70","test","1","","114","","","","square","circle","110","19","5","0.9636363636363636","","","","","","","",""
"null","218360","SARL_v6","SARL_v6tkxoh2lz","603862f99e00971c55fe0874","freq_resp","","","img/blue_2bandit_a.png","70","img/blue_2bandit_a.png","70","test","","","","","","","","","","","5","","","","","","","","",""
"null","218529","SARL_v6","SARL_v6tkxoh2lz","603862f99e00971c55fe0874","fixation","","","img/fixation.png","null","","","test","","","","","","","","","","","","","","","","","","","",""
"65.8000000002794","218600","SARL_v6","SARL_v6tkxoh2lz","603862f99e00971c55fe0874","freq","","","img/blue_2bandit_a2.png","70","","70","test","1","","115","","","","square","circle","111","20","5","0.963963963963964","","","","","","","",""
"null","219343","SARL_v6","SARL_v6tkxoh2lz","603862f99e00971c55fe0874","freq_resp","","","img/blue_2bandit_a.png","70","img/blue_2bandit_a.png","70","test","","","","","","","","","","","5","","","","","","","","",""
"null","219498","SARL_v6","SARL_v6tkxoh2lz","603862f99e00971c55fe0874","fixation","","","img/fixation.png","null","","","test","","","","","","","","","","","","","","","","","","","",""
"316.20000000018626","219819","SARL_v6","SARL_v6tkxoh2lz","603862f99e00971c55fe0874","freq","","","img/blue_2bandit_a2.png","70","","70","test","1","","116","","","","square","circle","112","21","5","0.9642857142857143","","","","","","","",""
"null","220308","SARL_v6","SARL_v6tkxoh2lz","603862f99e00971c55fe0874","freq_resp","","","img/blue_2bandit_a.png","70","img/blue_2bandit_a.png","70","test","","","","","","","","","","","5","","","","","","","","",""
"null","220464","SARL_v6","SARL_v6tkxoh2lz","603862f99e00971c55fe0874","fixation","","","img/fixation.png","null","","","test","","","","","","","","","","","","","","","","","","","",""
"303.39999999990687","220772","SARL_v6","SARL_v6tkxoh2lz","603862f99e00971c55fe0874","freq","","","img/blue_2bandit_a2.png","70","","70","test","1","","117","","","","square","circle","113","22","5","0.9646017699115044","","","","","","","",""
"null","221276","SARL_v6","SARL_v6tkxoh2lz","603862f99e00971c55fe0874","freq_resp","","","img/blue_2bandit_a.png","70","img/blue_2bandit_a.png","70","test","","","","","","","","","","","5","","","","","","","","",""
"null","221432","SARL_v6","SARL_v6tkxoh2lz","603862f99e00971c55fe0874","fixation","","","img/fixation.png","null","","","test","","","","","","","","","","","","","","","","","","","",""
"302.5","221738","SARL_v6","SARL_v6tkxoh2lz","603862f99e00971c55fe0874","freq","","","img/blue_2bandit_a2.png","70","","70","test","1","","118","","","","square","circle","114","23","5","0.9649122807017544","","","","","","","",""
"null","222242","SARL_v6","SARL_v6tkxoh2lz","603862f99e00971c55fe0874","freq_resp","","","img/blue_2bandit_a.png","70","img/blue_2bandit_a.png","70","test","","","","","","","","","","","5","","","","","","","","",""
"null","222399","SARL_v6","SARL_v6tkxoh2lz","603862f99e00971c55fe0874","fixation","","","img/fixation.png","null","","","test","","","","","","","","","","","","","","","","","","","",""
"797.3000000002794","223201","SARL_v6","SARL_v6tkxoh2lz","603862f99e00971c55fe0874","rl","","","img/black_2bandit_a2.png","74","","0","test","","","119","","","4","square","circle","","0","5","","74","-7","4","4","-7","square","5","0"
"null","223970","SARL_v6","SARL_v6tkxoh2lz","603862f99e00971c55fe0874","feedback","","","<div class=""veryhighPoints_sq""> 4 </div>","null","","na","test","","","NaN","","","","","","","","5","","74","","","","","","5",""
"621.1999999997206","224594","SARL_v6","SARL_v6tkxoh2lz","603862f99e00971c55fe0874","freq","","","img/blue_2bandit_a2.png","70","","70","test","1","","120","","","","square","circle","115","1","6","0.9652173913043478","","","","","","","",""
"null","224778","SARL_v6","SARL_v6tkxoh2lz","603862f99e00971c55fe0874","freq_resp","","","img/blue_2bandit_a.png","70","img/blue_2bandit_a.png","70","test","","","","","","","","","","","6","","","","","","","","",""
"null","224931","SARL_v6","SARL_v6tkxoh2lz","603862f99e00971c55fe0874","fixation","","","img/fixation.png","null","","","test","","","","","","","","","","","","","","","","","","","",""
"649.7999999998137","225585","SARL_v6","SARL_v6tkxoh2lz","603862f99e00971c55fe0874","freq","","","img/blue_2bandit_a2.png","70","","70","test","1","","121","","","","square","circle","116","2","6","0.9655172413793104","","","","","","","",""
"null","225740","SARL_v6","SARL_v6tkxoh2lz","603862f99e00971c55fe0874","freq_resp","","","img/blue_2bandit_a.png","70","img/blue_2bandit_a.png","70","test","","","","","","","","","","","6","","","","","","","","",""
"null","225897","SARL_v6","SARL_v6tkxoh2lz","603862f99e00971c55fe0874","fixation","","","img/fixation.png","null","","","test","","","","","","","","","","","","","","","","","","","",""
"596.2999999998137","226498","SARL_v6","SARL_v6tkxoh2lz","603862f99e00971c55fe0874","freq","","","img/blue_2bandit_a2.png","70","","70","test","1","","122","","","","square","circle","117","3","6","0.9658119658119658","","","","","","","",""
"null","226718","SARL_v6","SARL_v6tkxoh2lz","603862f99e00971c55fe0874","freq_resp","","","img/blue_2bandit_a.png","70","img/blue_2bandit_a.png","70","test","","","","","","","","","","","6","","","","","","","","",""
"null","226873","SARL_v6","SARL_v6tkxoh2lz","603862f99e00971c55fe0874","fixation","","","img/fixation.png","null","","","test","","","","","","","","","","","","","","","","","","","",""
"529.6000000000931","227407","SARL_v6","SARL_v6tkxoh2lz","603862f99e00971c55fe0874","freq","","","img/blue_2bandit_a2.png","70","","70","test","1","","123","","","","square","circle","118","4","6","0.9661016949152542","","","","","","","",""
"null","227684","SARL_v6","SARL_v6tkxoh2lz","603862f99e00971c55fe0874","freq_resp","","","img/blue_2bandit_a.png","70","img/blue_2bandit_a.png","70","test","","","","","","","","","","","6","","","","","","","","",""
"null","227854","SARL_v6","SARL_v6tkxoh2lz","603862f99e00971c55fe0874","fixation","","","img/fixation.png","null","","","test","","","","","","","","","","","","","","","","","","","",""
"372.29999999981374","228231","SARL_v6","SARL_v6tkxoh2lz","603862f99e00971c55fe0874","freq","","","img/blue_2bandit_a2.png","70","","70","test","1","","124","","","","square","circle","119","5","6","0.9663865546218487","","","","","","","",""
"null","228667","SARL_v6","SARL_v6tkxoh2lz","603862f99e00971c55fe0874","freq_resp","","","img/blue_2bandit_a.png","70","img/blue_2bandit_a.png","70","test","","","","","","","","","","","6","","","","","","","","",""
"null","228822","SARL_v6","SARL_v6tkxoh2lz","603862f99e00971c55fe0874","fixation","","","img/fixation.png","null","","","test","","","","","","","","","","","","","","","","","","","",""
"320.10000000009313","229146","SARL_v6","SARL_v6tkxoh2lz","603862f99e00971c55fe0874","freq","","","img/blue_2bandit_a2.png","70","","70","test","1","","125","","","","square","circle","120","6","6","0.9666666666666667","","","","","","","",""
"null","229631","SARL_v6","SARL_v6tkxoh2lz","603862f99e00971c55fe0874","freq_resp","","","img/blue_2bandit_a.png","70","img/blue_2bandit_a.png","70","test","","","","","","","","","","","6","","","","","","","","",""
"null","229787","SARL_v6","SARL_v6tkxoh2lz","603862f99e00971c55fe0874","fixation","","","img/fixation.png","null","","","test","","","","","","","","","","","","","","","","","","","",""
"287.29999999981374","230079","SARL_v6","SARL_v6tkxoh2lz","603862f99e00971c55fe0874","freq","","","img/blue_2bandit_a2.png","70","","70","test","1","","126","","","","square","circle","121","7","6","0.9669421487603306","","","","","","","",""
"null","230608","SARL_v6","SARL_v6tkxoh2lz","603862f99e00971c55fe0874","freq_resp","","","img/blue_2bandit_a.png","70","img/blue_2bandit_a.png","70","test","","","","","","","","","","","6","","","","","","","","",""
"null","230767","SARL_v6","SARL_v6tkxoh2lz","603862f99e00971c55fe0874","fixation","","","img/fixation.png","null","","","test","","","","","","","","","","","","","","","","","","","",""
"322.70000000018626","231092","SARL_v6","SARL_v6tkxoh2lz","603862f99e00971c55fe0874","freq","","","img/blue_2bandit_a2.png","70","","70","test","1","","127","","","","square","circle","122","8","6","0.9672131147540983","","","","","","","",""
"null","231576","SARL_v6","SARL_v6tkxoh2lz","603862f99e00971c55fe0874","freq_resp","","","img/blue_2bandit_a.png","70","img/blue_2bandit_a.png","70","test","","","","","","","","","","","6","","","","","","","","",""
"null","231731","SARL_v6","SARL_v6tkxoh2lz","603862f99e00971c55fe0874","fixation","","","img/fixation.png","null","","","test","","","","","","","","","","","","","","","","","","","",""
"322.1999999997206","232057","SARL_v6","SARL_v6tkxoh2lz","603862f99e00971c55fe0874","freq","","","img/blue_2bandit_a2.png","70","","70","test","1","","128","","","","square","circle","123","9","6","0.967479674796748","","","","","","","",""
"null","232553","SARL_v6","SARL_v6tkxoh2lz","603862f99e00971c55fe0874","freq_resp","","","img/blue_2bandit_a.png","70","img/blue_2bandit_a.png","70","test","","","","","","","","","","","6","","","","","","","","",""
"null","232708","SARL_v6","SARL_v6tkxoh2lz","603862f99e00971c55fe0874","fixation","","","img/fixation.png","null","","","test","","","","","","","","","","","","","","","","","","","",""
"480.10000000009313","233193","SARL_v6","SARL_v6tkxoh2lz","603862f99e00971c55fe0874","infreq","","","img/orange_2bandit_a2.png","68","","68","test","1","","129","","","","square","circle","124","10","6","0.967741935483871","","","","","","","",""
"null","233518","SARL_v6","SARL_v6tkxoh2lz","603862f99e00971c55fe0874","infreq_resp","","","img/orange_2bandit_a.png","68","img/orange_2bandit_a.png","68","test","","","","","","","","","","","6","","","","","","","","",""
"null","233675","SARL_v6","SARL_v6tkxoh2lz","603862f99e00971c55fe0874","fixation","","","img/fixation.png","null","","","test","","","","","","","","","","","","","","","","","","","",""
"285.39999999990687","233965","SARL_v6","SARL_v6tkxoh2lz","603862f99e00971c55fe0874","freq","","","img/blue_2bandit_a2.png","70","","70","test","1","","130","","","","square","circle","125","11","6","0.968","","","","","","","",""
