"rt","time_elapsed","expId","subject","prolificID","trialType","rlType","attType","stimulus","key_press","stim","corrresp","phase","corr","pracCounter","trialNum","rewardOne","rewardTwo","reward","bandOne","bandTwo","attentionNum","attentionRunNum","blockNum","performance","bandChosen","circleVal","squareVal","bandOneVal","bandTwoVal","shapeChosen","rlNum","badFlag"
"127916","127921","SARL_v6","SARL_v6py3h2uqc","5d9c67b131544d00101daef1","","","","","","","","","","","","","","","","","","","","","","","","","","","",""
"","132010","SARL_v6","SARL_v6py3h2uqc","5d9c67b131544d00101daef1","fullscreen","fullscreen","fullscreen","","","","","","","","","","","","","","","","","","","","","","","","",""
"26141","158157","SARL_v6","SARL_v6py3h2uqc","5d9c67b131544d00101daef1","","","","","","","","","","","","","","","","","","","","","","","","","","","",""
"null","158967","SARL_v6","SARL_v6py3h2uqc","5d9c67b131544d00101daef1","freqPrac","","","img/orange_2bandit_b2.png","null","img/orange_2bandit_b2.png","70","prac","0","1","","","","","","","","","","","","","","","","","",""
"null","159981","SARL_v6","SARL_v6py3h2uqc","5d9c67b131544d00101daef1","feedback","","","img/tooSlow.png","null","","na","prac","","","","","","","","","","","","","","","","","","","",""
"null","160141","SARL_v6","SARL_v6py3h2uqc","5d9c67b131544d00101daef1","fixation","","","img/fixation.png","null","","","prac","","","","","","","","","","","","","","","","","","","",""
"662","160810","SARL_v6","SARL_v6py3h2uqc","5d9c67b131544d00101daef1","infreqPrac","","","img/blue_2bandit_b2.png","68","img/blue_2bandit_b2.png","68","prac","1","1","","","","","","","","","","","","","","","","","",""
"662","160959","SARL_v6","SARL_v6py3h2uqc","5d9c67b131544d00101daef1","infreqPrac_resp","","","img/blue_2bandit_b.png","68","img/blue_2bandit_b.png","68","prac","","","","","","","","","","","","","","","","","","","",""
"null","161120","SARL_v6","SARL_v6py3h2uqc","5d9c67b131544d00101daef1","fixation","","","img/fixation.png","null","","","prac","","","","","","","","","","","","","","","","","","","",""
"525","161647","SARL_v6","SARL_v6py3h2uqc","5d9c67b131544d00101daef1","freqPrac","","","img/orange_2bandit_b2.png","70","img/orange_2bandit_b2.png","70","prac","1","1","","","","","","","","","","","","","","","","","",""
"525","161929","SARL_v6","SARL_v6py3h2uqc","5d9c67b131544d00101daef1","freqPrac_resp","","","img/orange_2bandit_b.png","70","img/orange_2bandit_b.png","70","prac","","","","","","","","","","","","","","","","","","","",""
"null","162087","SARL_v6","SARL_v6py3h2uqc","5d9c67b131544d00101daef1","fixation","","","img/fixation.png","null","","","prac","","","","","","","","","","","","","","","","","","","",""
"700","162790","SARL_v6","SARL_v6py3h2uqc","5d9c67b131544d00101daef1","infreqPrac","","","img/blue_2bandit_b2.png","68","img/blue_2bandit_b2.png","68","prac","1","1","","","","","","","","","","","","","","","","","",""
"700","162899","SARL_v6","SARL_v6py3h2uqc","5d9c67b131544d00101daef1","infreqPrac_resp","","","img/blue_2bandit_b.png","68","img/blue_2bandit_b.png","68","prac","","","","","","","","","","","","","","","","","","","",""
"null","163058","SARL_v6","SARL_v6py3h2uqc","5d9c67b131544d00101daef1","fixation","","","img/fixation.png","null","","","prac","","","","","","","","","","","","","","","","","","","",""
"561","163622","SARL_v6","SARL_v6py3h2uqc","5d9c67b131544d00101daef1","infreqPrac","","","img/blue_2bandit_b2.png","68","img/blue_2bandit_b2.png","68","prac","1","1","","","","","","","","","","","","","","","","","",""
"561","163876","SARL_v6","SARL_v6py3h2uqc","5d9c67b131544d00101daef1","infreqPrac_resp","","","img/blue_2bandit_b.png","68","img/blue_2bandit_b.png","68","prac","","","","","","","","","","","","","","","","","","","",""
"null","164035","SARL_v6","SARL_v6py3h2uqc","5d9c67b131544d00101daef1","fixation","","","img/fixation.png","null","","","prac","","","","","","","","","","","","","","","","","","","",""
"375","164414","SARL_v6","SARL_v6py3h2uqc","5d9c67b131544d00101daef1","infreqPrac","","","img/blue_2bandit_b2.png","68","img/blue_2bandit_b2.png","68","prac","1","1","","","","","","","","","","","","","","","","","",""
"375","164844","SARL_v6","SARL_v6py3h2uqc","5d9c67b131544d00101daef1","infreqPrac_resp","","","img/blue_2bandit_b.png","68","img/blue_2bandit_b.png","68","prac","","","","","","","","","","","","","","","","","","","",""
"null","165006","SARL_v6","SARL_v6py3h2uqc","5d9c67b131544d00101daef1","fixation","","","img/fixation.png","null","","","prac","","","","","","","","","","","","","","","","","","","",""
"442","165453","SARL_v6","SARL_v6py3h2uqc","5d9c67b131544d00101daef1","freqPrac","","","img/orange_2bandit_b2.png","70","img/orange_2bandit_b2.png","70","prac","1","1","","","","","","","","","","","","","","","","","",""
"442","165816","SARL_v6","SARL_v6py3h2uqc","5d9c67b131544d00101daef1","freqPrac_resp","","","img/orange_2bandit_b.png","70","img/orange_2bandit_b.png","70","prac","","","","","","","","","","","","","","","","","","","",""
"null","165975","SARL_v6","SARL_v6py3h2uqc","5d9c67b131544d00101daef1","fixation","","","img/fixation.png","null","","","prac","","","","","","","","","","","","","","","","","","","",""
"410","166389","SARL_v6","SARL_v6py3h2uqc","5d9c67b131544d00101daef1","infreqPrac","","","img/blue_2bandit_b2.png","68","img/blue_2bandit_b2.png","68","prac","1","1","","","","","","","","","","","","","","","","","",""
"410","166789","SARL_v6","SARL_v6py3h2uqc","5d9c67b131544d00101daef1","infreqPrac_resp","","","img/blue_2bandit_b.png","68","img/blue_2bandit_b.png","68","prac","","","","","","","","","","","","","","","","","","","",""
"null","166951","SARL_v6","SARL_v6py3h2uqc","5d9c67b131544d00101daef1","fixation","","","img/fixation.png","null","","","prac","","","","","","","","","","","","","","","","","","","",""
"436","167390","SARL_v6","SARL_v6py3h2uqc","5d9c67b131544d00101daef1","freqPrac","","","img/orange_2bandit_b2.png","70","img/orange_2bandit_b2.png","70","prac","1","1","","","","","","","","","","","","","","","","","",""
"436","167759","SARL_v6","SARL_v6py3h2uqc","5d9c67b131544d00101daef1","freqPrac_resp","","","img/orange_2bandit_b.png","70","img/orange_2bandit_b.png","70","prac","","","","","","","","","","","","","","","","","","","",""
"null","167919","SARL_v6","SARL_v6py3h2uqc","5d9c67b131544d00101daef1","fixation","","","img/fixation.png","null","","","prac","","","","","","","","","","","","","","","","","","","",""
"390","168313","SARL_v6","SARL_v6py3h2uqc","5d9c67b131544d00101daef1","freqPrac","","","img/orange_2bandit_b2.png","70","img/orange_2bandit_b2.png","70","prac","1","1","","","","","","","","","","","","","","","","","",""
"390","168731","SARL_v6","SARL_v6py3h2uqc","5d9c67b131544d00101daef1","freqPrac_resp","","","img/orange_2bandit_b.png","70","img/orange_2bandit_b.png","70","prac","","","","","","","","","","","","","","","","","","","",""
"null","168890","SARL_v6","SARL_v6py3h2uqc","5d9c67b131544d00101daef1","fixation","","","img/fixation.png","null","","","prac","","","","","","","","","","","","","","","","","","","",""
"46655","215549","SARL_v6","SARL_v6py3h2uqc","5d9c67b131544d00101daef1","","","","","","","","prac","","","","","","","","","","","","","","","","","","","",""
"695","216249","SARL_v6","SARL_v6py3h2uqc","5d9c67b131544d00101daef1","rlPractice","","","img/black_2bandit_b2.png","75","img/black_2bandit_b2.png","","prac","","","0","","","","","","","","","","","","","","","","",""
"null","217006","SARL_v6","SARL_v6py3h2uqc","5d9c67b131544d00101daef1","feedback","","","<div class=""verylowPoints_sq""> -14 </div>","null","","na","prac","","","1","10","-14","10","","","","","","","","","","","","","",""
"null","217168","SARL_v6","SARL_v6py3h2uqc","5d9c67b131544d00101daef1","fixation","","","img/fixation.png","null","","","prac","","","","","","","","","","","","","","","","","","","",""
"356","217527","SARL_v6","SARL_v6py3h2uqc","5d9c67b131544d00101daef1","rlPractice","","","img/black_2bandit_b2.png","74","img/black_2bandit_b2.png","","prac","","","1","","","","","","","","","","","","","","","","",""
"null","218280","SARL_v6","SARL_v6py3h2uqc","5d9c67b131544d00101daef1","feedback","","","<div class=""veryhighPoints""> 5 </div>","null","","na","prac","","","2","5","-5","5","","","","","","","","","","","","","",""
"null","218437","SARL_v6","SARL_v6py3h2uqc","5d9c67b131544d00101daef1","fixation","","","img/fixation.png","null","","","prac","","","","","","","","","","","","","","","","","","","",""
"334","218774","SARL_v6","SARL_v6py3h2uqc","5d9c67b131544d00101daef1","rlPractice","","","img/black_2bandit_b2.png","74","img/black_2bandit_b2.png","","prac","","","2","","","","","","","","","","","","","","","","",""
"null","219533","SARL_v6","SARL_v6py3h2uqc","5d9c67b131544d00101daef1","feedback","","","<div class=""veryhighPoints""> 30 </div>","null","","na","prac","","","3","30","2","30","","","","","","","","","","","","","",""
"null","219693","SARL_v6","SARL_v6py3h2uqc","5d9c67b131544d00101daef1","fixation","","","img/fixation.png","null","","","prac","","","","","","","","","","","","","","","","","","","",""
"396","220092","SARL_v6","SARL_v6py3h2uqc","5d9c67b131544d00101daef1","rlPractice","","","img/black_2bandit_b2.png","74","img/black_2bandit_b2.png","","prac","","","3","","","","","","","","","","","","","","","","",""
"null","220856","SARL_v6","SARL_v6py3h2uqc","5d9c67b131544d00101daef1","feedback","","","<div class=""verylowPoints""> -2 </div>","null","","na","prac","","","4","-2","20","-2","","","","","","","","","","","","","",""
"null","221015","SARL_v6","SARL_v6py3h2uqc","5d9c67b131544d00101daef1","fixation","","","img/fixation.png","null","","","prac","","","","","","","","","","","","","","","","","","","",""
"26186","247204","SARL_v6","SARL_v6py3h2uqc","5d9c67b131544d00101daef1","","","","","","","","prac","","","","","","","","","","","","","","","","","","","",""
"null","248010","SARL_v6","SARL_v6py3h2uqc","5d9c67b131544d00101daef1","mixAttFreqPrac","","","img/orange_2bandit_b2.png","null","img/orange_2bandit_b2.png","70","prac","","","1","","","","","","","","","","","","","","","","",""
"71","248168","SARL_v6","SARL_v6py3h2uqc","5d9c67b131544d00101daef1","fixation","","","img/fixation.png","68","","","prac","","","","","","","","","","","","","","","","","","","",""
"648","248818","SARL_v6","SARL_v6py3h2uqc","5d9c67b131544d00101daef1","mixAttInfreqPrac","","","img/blue_2bandit_b2.png","68","img/blue_2bandit_b2.png","68","prac","","","2","","","","","","","","","","","","","","","","",""
"648","248980","SARL_v6","SARL_v6py3h2uqc","5d9c67b131544d00101daef1","infreqPrac_resp","","","img/blue_2bandit_b.png","68","img/orange_2bandit_b.png","68","prac","","","2","","","","","","","","","","","","","","","","",""
"null","249141","SARL_v6","SARL_v6py3h2uqc","5d9c67b131544d00101daef1","fixation","","","img/fixation.png","null","","","prac","","","","","","","","","","","","","","","","","","","",""
"455","249600","SARL_v6","SARL_v6py3h2uqc","5d9c67b131544d00101daef1","mixAttInfreqPrac","","","img/blue_2bandit_b2.png","68","img/blue_2bandit_b2.png","68","prac","","","3","","","","","","","","","","","","","","","","",""
"455","249953","SARL_v6","SARL_v6py3h2uqc","5d9c67b131544d00101daef1","infreqPrac_resp","","","img/blue_2bandit_b.png","68","img/orange_2bandit_b.png","68","prac","","","3","","","","","","","","","","","","","","","","",""
"null","250113","SARL_v6","SARL_v6py3h2uqc","5d9c67b131544d00101daef1","fixation","","","img/fixation.png","null","","","prac","","","","","","","","","","","","","","","","","","","",""
"374","250491","SARL_v6","SARL_v6py3h2uqc","5d9c67b131544d00101daef1","mixAttInfreqPrac","","","img/blue_2bandit_b2.png","68","img/blue_2bandit_b2.png","68","prac","","","4","","","","","","","","","","","","","","","","",""
"374","250927","SARL_v6","SARL_v6py3h2uqc","5d9c67b131544d00101daef1","infreqPrac_resp","","","img/blue_2bandit_b.png","68","img/orange_2bandit_b.png","68","prac","","","4","","","","","","","","","","","","","","","","",""
"null","251085","SARL_v6","SARL_v6py3h2uqc","5d9c67b131544d00101daef1","fixation","","","img/fixation.png","null","","","prac","","","","","","","","","","","","","","","","","","","",""
"376","251465","SARL_v6","SARL_v6py3h2uqc","5d9c67b131544d00101daef1","mixAttFreqPrac","","","img/orange_2bandit_b2.png","68","img/orange_2bandit_b2.png","70","prac","","","5","","","","","","","","","","","","","","","","",""
"376","251902","SARL_v6","SARL_v6py3h2uqc","5d9c67b131544d00101daef1","freqPrac_resp","","","img/orange_2bandit_b.png","68","img/orange_2bandit_b.png","70","prac","","","5","","","","","","","","","","","","","","","","",""
"null","252058","SARL_v6","SARL_v6py3h2uqc","5d9c67b131544d00101daef1","fixation","","","img/fixation.png","null","","","prac","","","","","","","","","","","","","","","","","","","",""
"656","252720","SARL_v6","SARL_v6py3h2uqc","5d9c67b131544d00101daef1","mixRLPractice","","","img/black_2bandit_b2.png","74","img/black_2bandit_b2.png","","prac","","","5","","","","","","","","","","","","","","","","",""
"null","253478","SARL_v6","SARL_v6py3h2uqc","5d9c67b131544d00101daef1","feedback","","","<div class=""verylowPoints""> -14 </div>","null","","na","prac","","","6","-14","10","-14","","","","","","","","","","","","","",""
"null","253637","SARL_v6","SARL_v6py3h2uqc","5d9c67b131544d00101daef1","fixation","","","img/fixation.png","null","","","prac","","","","","","","","","","","","","","","","","","","",""
"null","254451","SARL_v6","SARL_v6py3h2uqc","5d9c67b131544d00101daef1","mixAttFreqPrac","","","img/orange_2bandit_b2.png","null","img/orange_2bandit_b2.png","70","prac","","","7","","","","","","","","","","","","","","","","",""
"91","254609","SARL_v6","SARL_v6py3h2uqc","5d9c67b131544d00101daef1","fixation","","","img/fixation.png","70","","","prac","","","","","","","","","","","","","","","","","","","",""
"781","255392","SARL_v6","SARL_v6py3h2uqc","5d9c67b131544d00101daef1","mixAttInfreqPrac","","","img/blue_2bandit_b2.png","68","img/blue_2bandit_b2.png","68","prac","","","8","","","","","","","","","","","","","","","","",""
"781","255423","SARL_v6","SARL_v6py3h2uqc","5d9c67b131544d00101daef1","infreqPrac_resp","","","img/blue_2bandit_b.png","68","img/orange_2bandit_b.png","68","prac","","","8","","","","","","","","","","","","","","","","",""
"null","255581","SARL_v6","SARL_v6py3h2uqc","5d9c67b131544d00101daef1","fixation","","","img/fixation.png","null","","","prac","","","","","","","","","","","","","","","","","","","",""
"515","256100","SARL_v6","SARL_v6py3h2uqc","5d9c67b131544d00101daef1","mixAttFreqPrac","","","img/orange_2bandit_b2.png","70","img/orange_2bandit_b2.png","70","prac","","","9","","","","","","","","","","","","","","","","",""
"515","256394","SARL_v6","SARL_v6py3h2uqc","5d9c67b131544d00101daef1","freqPrac_resp","","","img/orange_2bandit_b.png","70","img/orange_2bandit_b.png","70","prac","","","9","","","","","","","","","","","","","","","","",""
"null","256554","SARL_v6","SARL_v6py3h2uqc","5d9c67b131544d00101daef1","fixation","","","img/fixation.png","null","","","prac","","","","","","","","","","","","","","","","","","","",""
"696","257252","SARL_v6","SARL_v6py3h2uqc","5d9c67b131544d00101daef1","mixAttFreqPrac","","","img/orange_2bandit_b2.png","70","img/orange_2bandit_b2.png","70","prac","","","10","","","","","","","","","","","","","","","","",""
"696","257365","SARL_v6","SARL_v6py3h2uqc","5d9c67b131544d00101daef1","freqPrac_resp","","","img/orange_2bandit_b.png","70","img/orange_2bandit_b.png","70","prac","","","10","","","","","","","","","","","","","","","","",""
"null","257524","SARL_v6","SARL_v6py3h2uqc","5d9c67b131544d00101daef1","fixation","","","img/fixation.png","null","","","prac","","","","","","","","","","","","","","","","","","","",""
"461","257991","SARL_v6","SARL_v6py3h2uqc","5d9c67b131544d00101daef1","mixAttInfreqPrac","","","img/blue_2bandit_b2.png","68","img/blue_2bandit_b2.png","68","prac","","","11","","","","","","","","","","","","","","","","",""
"461","258346","SARL_v6","SARL_v6py3h2uqc","5d9c67b131544d00101daef1","infreqPrac_resp","","","img/blue_2bandit_b.png","68","img/orange_2bandit_b.png","68","prac","","","11","","","","","","","","","","","","","","","","",""
"null","258505","SARL_v6","SARL_v6py3h2uqc","5d9c67b131544d00101daef1","fixation","","","img/fixation.png","null","","","prac","","","","","","","","","","","","","","","","","","","",""
"567","259077","SARL_v6","SARL_v6py3h2uqc","5d9c67b131544d00101daef1","mixRLPractice","","","img/black_2bandit_b2.png","75","img/black_2bandit_b2.png","","prac","","","11","","","","","","","","","","","","","","","","",""
"null","259842","SARL_v6","SARL_v6py3h2uqc","5d9c67b131544d00101daef1","feedback","","","<div class=""verylowPoints_sq""> -5 </div>","null","","na","prac","","","12","5","-5","5","","","","","","","","","","","","","",""
"null","260001","SARL_v6","SARL_v6py3h2uqc","5d9c67b131544d00101daef1","fixation","","","img/fixation.png","null","","","prac","","","","","","","","","","","","","","","","","","","",""
"4164","264167","SARL_v6","SARL_v6py3h2uqc","5d9c67b131544d00101daef1","","","","","","","","prac","","","","","","","","","","","","","","","","","","","",""
"null","264976","SARL_v6","SARL_v6py3h2uqc","5d9c67b131544d00101daef1","freq","","","img/orange_2bandit_b2.png","null","","70","test","0","","1","","","","circle","square","1","1","1","0","","","","","","","",""
"null","265135","SARL_v6","SARL_v6py3h2uqc","5d9c67b131544d00101daef1","fixation","","","img/fixation.png","null","","","test","","","","","","","","","","","","","","","","","","","",""
"null","265949","SARL_v6","SARL_v6py3h2uqc","5d9c67b131544d00101daef1","freq","","","img/orange_2bandit_b2.png","null","","70","test","0","","2","","","","circle","square","2","2","1","0","","","","","","","",""
"null","266111","SARL_v6","SARL_v6py3h2uqc","5d9c67b131544d00101daef1","fixation","","","img/fixation.png","null","","","test","","","","","","","","","","","","","","","","","","","",""
"87","266202","SARL_v6","SARL_v6py3h2uqc","5d9c67b131544d00101daef1","freq","","","img/orange_2bandit_b2.png","70","","70","test","1","","3","","","","circle","square","3","3","1","0.3333333333333333","","","","","","","",""
"null","266924","SARL_v6","SARL_v6py3h2uqc","5d9c67b131544d00101daef1","freq_resp","","","img/orange_2bandit_b.png","70","img/orange_2bandit_b.png","70","test","","","","","","","","","","","1","","","","","","","","",""
"null","267082","SARL_v6","SARL_v6py3h2uqc","5d9c67b131544d00101daef1","fixation","","","img/fixation.png","null","","","test","","","","","","","","","","","","","","","","","","","",""
"282","267371","SARL_v6","SARL_v6py3h2uqc","5d9c67b131544d00101daef1","freq","","","img/orange_2bandit_b2.png","70","","70","test","1","","4","","","","circle","square","4","4","1","0.5","","","","","","","",""
"null","267896","SARL_v6","SARL_v6py3h2uqc","5d9c67b131544d00101daef1","freq_resp","","","img/orange_2bandit_b.png","70","img/orange_2bandit_b.png","70","test","","","","","","","","","","","1","","","","","","","","",""
"null","268056","SARL_v6","SARL_v6py3h2uqc","5d9c67b131544d00101daef1","fixation","","","img/fixation.png","null","","","test","","","","","","","","","","","","","","","","","","","",""
"316","268378","SARL_v6","SARL_v6py3h2uqc","5d9c67b131544d00101daef1","freq","","","img/orange_2bandit_b2.png","70","","70","test","1","","5","","","","circle","square","5","5","1","0.6","","","","","","","",""
"null","268866","SARL_v6","SARL_v6py3h2uqc","5d9c67b131544d00101daef1","freq_resp","","","img/orange_2bandit_b.png","70","img/orange_2bandit_b.png","70","test","","","","","","","","","","","1","","","","","","","","",""
"null","269025","SARL_v6","SARL_v6py3h2uqc","5d9c67b131544d00101daef1","fixation","","","img/fixation.png","null","","","test","","","","","","","","","","","","","","","","","","","",""
"420","269449","SARL_v6","SARL_v6py3h2uqc","5d9c67b131544d00101daef1","freq","","","img/orange_2bandit_b2.png","70","","70","test","1","","6","","","","circle","square","6","6","1","0.6666666666666666","","","","","","","",""
"null","269837","SARL_v6","SARL_v6py3h2uqc","5d9c67b131544d00101daef1","freq_resp","","","img/orange_2bandit_b.png","70","img/orange_2bandit_b.png","70","test","","","","","","","","","","","1","","","","","","","","",""
"null","269999","SARL_v6","SARL_v6py3h2uqc","5d9c67b131544d00101daef1","fixation","","","img/fixation.png","null","","","test","","","","","","","","","","","","","","","","","","","",""
"373","270376","SARL_v6","SARL_v6py3h2uqc","5d9c67b131544d00101daef1","freq","","","img/orange_2bandit_b2.png","70","","70","test","1","","7","","","","circle","square","7","7","1","0.7142857142857143","","","","","","","",""
"null","270811","SARL_v6","SARL_v6py3h2uqc","5d9c67b131544d00101daef1","freq_resp","","","img/orange_2bandit_b.png","70","img/orange_2bandit_b.png","70","test","","","","","","","","","","","1","","","","","","","","",""
"null","270969","SARL_v6","SARL_v6py3h2uqc","5d9c67b131544d00101daef1","fixation","","","img/fixation.png","null","","","test","","","","","","","","","","","","","","","","","","","",""
"352","271323","SARL_v6","SARL_v6py3h2uqc","5d9c67b131544d00101daef1","freq","","","img/orange_2bandit_b2.png","70","","70","test","1","","8","","","","circle","square","8","8","1","0.75","","","","","","","",""
"null","271779","SARL_v6","SARL_v6py3h2uqc","5d9c67b131544d00101daef1","freq_resp","","","img/orange_2bandit_b.png","70","img/orange_2bandit_b.png","70","test","","","","","","","","","","","1","","","","","","","","",""
"null","271938","SARL_v6","SARL_v6py3h2uqc","5d9c67b131544d00101daef1","fixation","","","img/fixation.png","null","","","test","","","","","","","","","","","","","","","","","","","",""
"374","272315","SARL_v6","SARL_v6py3h2uqc","5d9c67b131544d00101daef1","freq","","","img/orange_2bandit_b2.png","70","","70","test","1","","9","","","","circle","square","9","9","1","0.7777777777777778","","","","","","","",""
"null","272751","SARL_v6","SARL_v6py3h2uqc","5d9c67b131544d00101daef1","freq_resp","","","img/orange_2bandit_b.png","70","img/orange_2bandit_b.png","70","test","","","","","","","","","","","1","","","","","","","","",""
"null","272911","SARL_v6","SARL_v6py3h2uqc","5d9c67b131544d00101daef1","fixation","","","img/fixation.png","null","","","test","","","","","","","","","","","","","","","","","","","",""
"433","273350","SARL_v6","SARL_v6py3h2uqc","5d9c67b131544d00101daef1","infreq","","","img/blue_2bandit_b2.png","68","","68","test","1","","10","","","","circle","square","10","10","1","0.8","","","","","","","",""
"null","273724","SARL_v6","SARL_v6py3h2uqc","5d9c67b131544d00101daef1","infreq_resp","","","img/blue_2bandit_b.png","68","img/blue_2bandit_b.png","68","test","","","","","","","","","","","1","","","","","","","","",""
"null","273883","SARL_v6","SARL_v6py3h2uqc","5d9c67b131544d00101daef1","fixation","","","img/fixation.png","null","","","test","","","","","","","","","","","","","","","","","","","",""
"569","274454","SARL_v6","SARL_v6py3h2uqc","5d9c67b131544d00101daef1","freq","","","img/orange_2bandit_b2.png","68","","70","test","0","","11","","","","circle","square","11","11","1","0.7272727272727273","","","","","","","",""
"null","274695","SARL_v6","SARL_v6py3h2uqc","5d9c67b131544d00101daef1","freq_resp","","","img/orange_2bandit_b.png","68","img/orange_2bandit_b.png","70","test","","","","","","","","","","","1","","","","","","","","",""
"null","274855","SARL_v6","SARL_v6py3h2uqc","5d9c67b131544d00101daef1","fixation","","","img/fixation.png","null","","","test","","","","","","","","","","","","","","","","","","","",""
"485","275341","SARL_v6","SARL_v6py3h2uqc","5d9c67b131544d00101daef1","freq","","","img/orange_2bandit_b2.png","70","","70","test","1","","12","","","","circle","square","12","12","1","0.75","","","","","","","",""
"null","275667","SARL_v6","SARL_v6py3h2uqc","5d9c67b131544d00101daef1","freq_resp","","","img/orange_2bandit_b.png","70","img/orange_2bandit_b.png","70","test","","","","","","","","","","","1","","","","","","","","",""
"null","275829","SARL_v6","SARL_v6py3h2uqc","5d9c67b131544d00101daef1","fixation","","","img/fixation.png","null","","","test","","","","","","","","","","","","","","","","","","","",""
"396","276229","SARL_v6","SARL_v6py3h2uqc","5d9c67b131544d00101daef1","freq","","","img/orange_2bandit_b2.png","70","","70","test","1","","13","","","","circle","square","13","13","1","0.7692307692307693","","","","","","","",""
"null","276640","SARL_v6","SARL_v6py3h2uqc","5d9c67b131544d00101daef1","freq_resp","","","img/orange_2bandit_b.png","70","img/orange_2bandit_b.png","70","test","","","","","","","","","","","1","","","","","","","","",""
"null","276799","SARL_v6","SARL_v6py3h2uqc","5d9c67b131544d00101daef1","fixation","","","img/fixation.png","null","","","test","","","","","","","","","","","","","","","","","","","",""
"424","277227","SARL_v6","SARL_v6py3h2uqc","5d9c67b131544d00101daef1","infreq","","","img/blue_2bandit_b2.png","68","","68","test","1","","14","","","","circle","square","14","14","1","0.7857142857142857","","","","","","","",""
"null","277610","SARL_v6","SARL_v6py3h2uqc","5d9c67b131544d00101daef1","infreq_resp","","","img/blue_2bandit_b.png","68","img/blue_2bandit_b.png","68","test","","","","","","","","","","","1","","","","","","","","",""
"null","277769","SARL_v6","SARL_v6py3h2uqc","5d9c67b131544d00101daef1","fixation","","","img/fixation.png","null","","","test","","","","","","","","","","","","","","","","","","","",""
"476","278249","SARL_v6","SARL_v6py3h2uqc","5d9c67b131544d00101daef1","freq","","","img/orange_2bandit_b2.png","70","","70","test","1","","15","","","","circle","square","15","15","1","0.8","","","","","","","",""
"null","278585","SARL_v6","SARL_v6py3h2uqc","5d9c67b131544d00101daef1","freq_resp","","","img/orange_2bandit_b.png","70","img/orange_2bandit_b.png","70","test","","","","","","","","","","","1","","","","","","","","",""
"null","278741","SARL_v6","SARL_v6py3h2uqc","5d9c67b131544d00101daef1","fixation","","","img/fixation.png","null","","","test","","","","","","","","","","","","","","","","","","","",""
"451","279196","SARL_v6","SARL_v6py3h2uqc","5d9c67b131544d00101daef1","freq","","","img/orange_2bandit_b2.png","70","","70","test","1","","16","","","","circle","square","16","16","1","0.8125","","","","","","","",""
"null","279554","SARL_v6","SARL_v6py3h2uqc","5d9c67b131544d00101daef1","freq_resp","","","img/orange_2bandit_b.png","70","img/orange_2bandit_b.png","70","test","","","","","","","","","","","1","","","","","","","","",""
"null","279713","SARL_v6","SARL_v6py3h2uqc","5d9c67b131544d00101daef1","fixation","","","img/fixation.png","null","","","test","","","","","","","","","","","","","","","","","","","",""
"391","280107","SARL_v6","SARL_v6py3h2uqc","5d9c67b131544d00101daef1","freq","","","img/orange_2bandit_b2.png","70","","70","test","1","","17","","","","circle","square","17","17","1","0.8235294117647058","","","","","","","",""
"null","280526","SARL_v6","SARL_v6py3h2uqc","5d9c67b131544d00101daef1","freq_resp","","","img/orange_2bandit_b.png","70","img/orange_2bandit_b.png","70","test","","","","","","","","","","","1","","","","","","","","",""
"null","280685","SARL_v6","SARL_v6py3h2uqc","5d9c67b131544d00101daef1","fixation","","","img/fixation.png","null","","","test","","","","","","","","","","","","","","","","","","","",""
"326","281015","SARL_v6","SARL_v6py3h2uqc","5d9c67b131544d00101daef1","freq","","","img/orange_2bandit_b2.png","70","","70","test","1","","18","","","","circle","square","18","18","1","0.8333333333333334","","","","","","","",""
"null","281495","SARL_v6","SARL_v6py3h2uqc","5d9c67b131544d00101daef1","freq_resp","","","img/orange_2bandit_b.png","70","img/orange_2bandit_b.png","70","test","","","","","","","","","","","1","","","","","","","","",""
"null","281654","SARL_v6","SARL_v6py3h2uqc","5d9c67b131544d00101daef1","fixation","","","img/fixation.png","null","","","test","","","","","","","","","","","","","","","","","","","",""
"390","282047","SARL_v6","SARL_v6py3h2uqc","5d9c67b131544d00101daef1","freq","","","img/orange_2bandit_b2.png","70","","70","test","1","","19","","","","circle","square","19","19","1","0.8421052631578947","","","","","","","",""
"null","282464","SARL_v6","SARL_v6py3h2uqc","5d9c67b131544d00101daef1","freq_resp","","","img/orange_2bandit_b.png","70","img/orange_2bandit_b.png","70","test","","","","","","","","","","","1","","","","","","","","",""
"null","282624","SARL_v6","SARL_v6py3h2uqc","5d9c67b131544d00101daef1","fixation","","","img/fixation.png","null","","","test","","","","","","","","","","","","","","","","","","","",""
"464","283089","SARL_v6","SARL_v6py3h2uqc","5d9c67b131544d00101daef1","freq","","","img/orange_2bandit_b2.png","70","","70","test","1","","20","","","","circle","square","20","20","1","0.85","","","","","","","",""
"null","283438","SARL_v6","SARL_v6py3h2uqc","5d9c67b131544d00101daef1","freq_resp","","","img/orange_2bandit_b.png","70","img/orange_2bandit_b.png","70","test","","","","","","","","","","","1","","","","","","","","",""
"null","283597","SARL_v6","SARL_v6py3h2uqc","5d9c67b131544d00101daef1","fixation","","","img/fixation.png","null","","","test","","","","","","","","","","","","","","","","","","","",""
"397","283997","SARL_v6","SARL_v6py3h2uqc","5d9c67b131544d00101daef1","freq","","","img/orange_2bandit_b2.png","70","","70","test","1","","21","","","","circle","square","21","21","1","0.8571428571428571","","","","","","","",""
"null","284410","SARL_v6","SARL_v6py3h2uqc","5d9c67b131544d00101daef1","freq_resp","","","img/orange_2bandit_b.png","70","img/orange_2bandit_b.png","70","test","","","","","","","","","","","1","","","","","","","","",""
"null","284570","SARL_v6","SARL_v6py3h2uqc","5d9c67b131544d00101daef1","fixation","","","img/fixation.png","null","","","test","","","","","","","","","","","","","","","","","","","",""
"342","284914","SARL_v6","SARL_v6py3h2uqc","5d9c67b131544d00101daef1","freq","","","img/orange_2bandit_b2.png","70","","70","test","1","","22","","","","circle","square","22","22","1","0.8636363636363636","","","","","","","",""
"null","285380","SARL_v6","SARL_v6py3h2uqc","5d9c67b131544d00101daef1","freq_resp","","","img/orange_2bandit_b.png","70","img/orange_2bandit_b.png","70","test","","","","","","","","","","","1","","","","","","","","",""
"null","285540","SARL_v6","SARL_v6py3h2uqc","5d9c67b131544d00101daef1","fixation","","","img/fixation.png","null","","","test","","","","","","","","","","","","","","","","","","","",""
"438","285982","SARL_v6","SARL_v6py3h2uqc","5d9c67b131544d00101daef1","rl","","","img/black_2bandit_b2.png","75","","0","test","","","23","","","-3","circle","square","","0","1","","75","-3","-3","-3","-3","square","1","0"
"null","286736","SARL_v6","SARL_v6py3h2uqc","5d9c67b131544d00101daef1","feedback","","","<div class=""verylowPoints_sq""> -3 </div>","null","","na","test","","","NaN","","","","","","","","1","","75","","","","","","1",""
"525","287265","SARL_v6","SARL_v6py3h2uqc","5d9c67b131544d00101daef1","freq","","","img/orange_2bandit_b2.png","70","","70","test","1","","24","","","","circle","square","23","1","2","0.8695652173913043","","","","","","","",""
"null","287550","SARL_v6","SARL_v6py3h2uqc","5d9c67b131544d00101daef1","freq_resp","","","img/orange_2bandit_b.png","70","img/orange_2bandit_b.png","70","test","","","","","","","","","","","2","","","","","","","","",""
"null","287711","SARL_v6","SARL_v6py3h2uqc","5d9c67b131544d00101daef1","fixation","","","img/fixation.png","null","","","test","","","","","","","","","","","","","","","","","","","",""
"333","288048","SARL_v6","SARL_v6py3h2uqc","5d9c67b131544d00101daef1","freq","","","img/orange_2bandit_b2.png","70","","70","test","1","","25","","","","circle","square","24","2","2","0.875","","","","","","","",""
"null","288523","SARL_v6","SARL_v6py3h2uqc","5d9c67b131544d00101daef1","freq_resp","","","img/orange_2bandit_b.png","70","img/orange_2bandit_b.png","70","test","","","","","","","","","","","2","","","","","","","","",""
"null","288682","SARL_v6","SARL_v6py3h2uqc","5d9c67b131544d00101daef1","fixation","","","img/fixation.png","null","","","test","","","","","","","","","","","","","","","","","","","",""
"473","289161","SARL_v6","SARL_v6py3h2uqc","5d9c67b131544d00101daef1","infreq","","","img/blue_2bandit_b2.png","68","","68","test","1","","26","","","","circle","square","25","3","2","0.88","","","","","","","",""
"null","289497","SARL_v6","SARL_v6py3h2uqc","5d9c67b131544d00101daef1","infreq_resp","","","img/blue_2bandit_b.png","68","img/blue_2bandit_b.png","68","test","","","","","","","","","","","2","","","","","","","","",""
"null","289656","SARL_v6","SARL_v6py3h2uqc","5d9c67b131544d00101daef1","fixation","","","img/fixation.png","null","","","test","","","","","","","","","","","","","","","","","","","",""
"527","290186","SARL_v6","SARL_v6py3h2uqc","5d9c67b131544d00101daef1","freq","","","img/orange_2bandit_b2.png","70","","70","test","1","","27","","","","circle","square","26","4","2","0.8846153846153846","","","","","","","",""
"null","290470","SARL_v6","SARL_v6py3h2uqc","5d9c67b131544d00101daef1","freq_resp","","","img/orange_2bandit_b.png","70","img/orange_2bandit_b.png","70","test","","","","","","","","","","","2","","","","","","","","",""
"null","290630","SARL_v6","SARL_v6py3h2uqc","5d9c67b131544d00101daef1","fixation","","","img/fixation.png","null","","","test","","","","","","","","","","","","","","","","","","","",""
"481","291113","SARL_v6","SARL_v6py3h2uqc","5d9c67b131544d00101daef1","freq","","","img/orange_2bandit_b2.png","70","","70","test","1","","28","","","","circle","square","27","5","2","0.8888888888888888","","","","","","","",""
"null","291443","SARL_v6","SARL_v6py3h2uqc","5d9c67b131544d00101daef1","freq_resp","","","img/orange_2bandit_b.png","70","img/orange_2bandit_b.png","70","test","","","","","","","","","","","2","","","","","","","","",""
"null","291602","SARL_v6","SARL_v6py3h2uqc","5d9c67b131544d00101daef1","fixation","","","img/fixation.png","null","","","test","","","","","","","","","","","","","","","","","","","",""
"416","292020","SARL_v6","SARL_v6py3h2uqc","5d9c67b131544d00101daef1","freq","","","img/orange_2bandit_b2.png","70","","70","test","1","","29","","","","circle","square","28","6","2","0.8928571428571429","","","","","","","",""
"null","292413","SARL_v6","SARL_v6py3h2uqc","5d9c67b131544d00101daef1","freq_resp","","","img/orange_2bandit_b.png","70","img/orange_2bandit_b.png","70","test","","","","","","","","","","","2","","","","","","","","",""
"null","292575","SARL_v6","SARL_v6py3h2uqc","5d9c67b131544d00101daef1","fixation","","","img/fixation.png","null","","","test","","","","","","","","","","","","","","","","","","","",""
"590","293168","SARL_v6","SARL_v6py3h2uqc","5d9c67b131544d00101daef1","freq","","","img/orange_2bandit_b2.png","70","","70","test","1","","30","","","","circle","square","29","7","2","0.896551724137931","","","","","","","",""
"null","293388","SARL_v6","SARL_v6py3h2uqc","5d9c67b131544d00101daef1","freq_resp","","","img/orange_2bandit_b.png","70","img/orange_2bandit_b.png","70","test","","","","","","","","","","","2","","","","","","","","",""
"null","293547","SARL_v6","SARL_v6py3h2uqc","5d9c67b131544d00101daef1","fixation","","","img/fixation.png","null","","","test","","","","","","","","","","","","","","","","","","","",""
"611","294162","SARL_v6","SARL_v6py3h2uqc","5d9c67b131544d00101daef1","infreq","","","img/blue_2bandit_b2.png","68","","68","test","1","","31","","","","circle","square","30","8","2","0.9","","","","","","","",""
"null","294359","SARL_v6","SARL_v6py3h2uqc","5d9c67b131544d00101daef1","infreq_resp","","","img/blue_2bandit_b.png","68","img/blue_2bandit_b.png","68","test","","","","","","","","","","","2","","","","","","","","",""
"null","294517","SARL_v6","SARL_v6py3h2uqc","5d9c67b131544d00101daef1","fixation","","","img/fixation.png","null","","","test","","","","","","","","","","","","","","","","","","","",""
"542","295063","SARL_v6","SARL_v6py3h2uqc","5d9c67b131544d00101daef1","freq","","","img/orange_2bandit_b2.png","70","","70","test","1","","32","","","","circle","square","31","9","2","0.9032258064516129","","","","","","","",""
"null","295330","SARL_v6","SARL_v6py3h2uqc","5d9c67b131544d00101daef1","freq_resp","","","img/orange_2bandit_b.png","70","img/orange_2bandit_b.png","70","test","","","","","","","","","","","2","","","","","","","","",""
"null","295489","SARL_v6","SARL_v6py3h2uqc","5d9c67b131544d00101daef1","fixation","","","img/fixation.png","null","","","test","","","","","","","","","","","","","","","","","","","",""
"548","296042","SARL_v6","SARL_v6py3h2uqc","5d9c67b131544d00101daef1","freq","","","img/orange_2bandit_b2.png","70","","70","test","1","","33","","","","circle","square","32","10","2","0.90625","","","","","","","",""
"null","296299","SARL_v6","SARL_v6py3h2uqc","5d9c67b131544d00101daef1","freq_resp","","","img/orange_2bandit_b.png","70","img/orange_2bandit_b.png","70","test","","","","","","","","","","","2","","","","","","","","",""
"null","296461","SARL_v6","SARL_v6py3h2uqc","5d9c67b131544d00101daef1","fixation","","","img/fixation.png","null","","","test","","","","","","","","","","","","","","","","","","","",""
"508","296974","SARL_v6","SARL_v6py3h2uqc","5d9c67b131544d00101daef1","freq","","","img/orange_2bandit_b2.png","70","","70","test","1","","34","","","","circle","square","33","11","2","0.9090909090909091","","","","","","","",""
"null","297272","SARL_v6","SARL_v6py3h2uqc","5d9c67b131544d00101daef1","freq_resp","","","img/orange_2bandit_b.png","70","img/orange_2bandit_b.png","70","test","","","","","","","","","","","2","","","","","","","","",""
"null","297433","SARL_v6","SARL_v6py3h2uqc","5d9c67b131544d00101daef1","fixation","","","img/fixation.png","null","","","test","","","","","","","","","","","","","","","","","","","",""
"379","297813","SARL_v6","SARL_v6py3h2uqc","5d9c67b131544d00101daef1","freq","","","img/orange_2bandit_b2.png","70","","70","test","1","","35","","","","circle","square","34","12","2","0.9117647058823529","","","","","","","",""
"null","298244","SARL_v6","SARL_v6py3h2uqc","5d9c67b131544d00101daef1","freq_resp","","","img/orange_2bandit_b.png","70","img/orange_2bandit_b.png","70","test","","","","","","","","","","","2","","","","","","","","",""
"null","298404","SARL_v6","SARL_v6py3h2uqc","5d9c67b131544d00101daef1","fixation","","","img/fixation.png","null","","","test","","","","","","","","","","","","","","","","","","","",""
"329","298738","SARL_v6","SARL_v6py3h2uqc","5d9c67b131544d00101daef1","freq","","","img/orange_2bandit_b2.png","70","","70","test","1","","36","","","","circle","square","35","13","2","0.9142857142857143","","","","","","","",""
"null","299216","SARL_v6","SARL_v6py3h2uqc","5d9c67b131544d00101daef1","freq_resp","","","img/orange_2bandit_b.png","70","img/orange_2bandit_b.png","70","test","","","","","","","","","","","2","","","","","","","","",""
"null","299376","SARL_v6","SARL_v6py3h2uqc","5d9c67b131544d00101daef1","fixation","","","img/fixation.png","null","","","test","","","","","","","","","","","","","","","","","","","",""
"364","299743","SARL_v6","SARL_v6py3h2uqc","5d9c67b131544d00101daef1","freq","","","img/orange_2bandit_b2.png","70","","70","test","1","","37","","","","circle","square","36","14","2","0.9166666666666666","","","","","","","",""
"null","300189","SARL_v6","SARL_v6py3h2uqc","5d9c67b131544d00101daef1","freq_resp","","","img/orange_2bandit_b.png","70","img/orange_2bandit_b.png","70","test","","","","","","","","","","","2","","","","","","","","",""
"null","300349","SARL_v6","SARL_v6py3h2uqc","5d9c67b131544d00101daef1","fixation","","","img/fixation.png","null","","","test","","","","","","","","","","","","","","","","","","","",""
"363","300718","SARL_v6","SARL_v6py3h2uqc","5d9c67b131544d00101daef1","freq","","","img/orange_2bandit_b2.png","70","","70","test","1","","38","","","","circle","square","37","15","2","0.918918918918919","","","","","","","",""
"null","301172","SARL_v6","SARL_v6py3h2uqc","5d9c67b131544d00101daef1","freq_resp","","","img/orange_2bandit_b.png","70","img/orange_2bandit_b.png","70","test","","","","","","","","","","","2","","","","","","","","",""
"null","301330","SARL_v6","SARL_v6py3h2uqc","5d9c67b131544d00101daef1","fixation","","","img/fixation.png","null","","","test","","","","","","","","","","","","","","","","","","","",""
"404","301740","SARL_v6","SARL_v6py3h2uqc","5d9c67b131544d00101daef1","freq","","","img/orange_2bandit_b2.png","70","","70","test","1","","39","","","","circle","square","38","16","2","0.9210526315789473","","","","","","","",""
"null","302144","SARL_v6","SARL_v6py3h2uqc","5d9c67b131544d00101daef1","freq_resp","","","img/orange_2bandit_b.png","70","img/orange_2bandit_b.png","70","test","","","","","","","","","","","2","","","","","","","","",""
"null","302303","SARL_v6","SARL_v6py3h2uqc","5d9c67b131544d00101daef1","fixation","","","img/fixation.png","null","","","test","","","","","","","","","","","","","","","","","","","",""
"449","302755","SARL_v6","SARL_v6py3h2uqc","5d9c67b131544d00101daef1","freq","","","img/orange_2bandit_b2.png","70","","70","test","1","","40","","","","circle","square","39","17","2","0.9230769230769231","","","","","","","",""
"null","303114","SARL_v6","SARL_v6py3h2uqc","5d9c67b131544d00101daef1","freq_resp","","","img/orange_2bandit_b.png","70","img/orange_2bandit_b.png","70","test","","","","","","","","","","","2","","","","","","","","",""
"null","303274","SARL_v6","SARL_v6py3h2uqc","5d9c67b131544d00101daef1","fixation","","","img/fixation.png","null","","","test","","","","","","","","","","","","","","","","","","","",""
"400","303677","SARL_v6","SARL_v6py3h2uqc","5d9c67b131544d00101daef1","freq","","","img/orange_2bandit_b2.png","70","","70","test","1","","41","","","","circle","square","40","18","2","0.925","","","","","","","",""
"null","304086","SARL_v6","SARL_v6py3h2uqc","5d9c67b131544d00101daef1","freq_resp","","","img/orange_2bandit_b.png","70","img/orange_2bandit_b.png","70","test","","","","","","","","","","","2","","","","","","","","",""
"null","304245","SARL_v6","SARL_v6py3h2uqc","5d9c67b131544d00101daef1","fixation","","","img/fixation.png","null","","","test","","","","","","","","","","","","","","","","","","","",""
"452","304700","SARL_v6","SARL_v6py3h2uqc","5d9c67b131544d00101daef1","freq","","","img/orange_2bandit_b2.png","70","","70","test","1","","42","","","","circle","square","41","19","2","0.926829268292683","","","","","","","",""
"null","305058","SARL_v6","SARL_v6py3h2uqc","5d9c67b131544d00101daef1","freq_resp","","","img/orange_2bandit_b.png","70","img/orange_2bandit_b.png","70","test","","","","","","","","","","","2","","","","","","","","",""
"null","305216","SARL_v6","SARL_v6py3h2uqc","5d9c67b131544d00101daef1","fixation","","","img/fixation.png","null","","","test","","","","","","","","","","","","","","","","","","","",""
"398","305617","SARL_v6","SARL_v6py3h2uqc","5d9c67b131544d00101daef1","freq","","","img/orange_2bandit_b2.png","70","","70","test","1","","43","","","","circle","square","42","20","2","0.9285714285714286","","","","","","","",""
"null","306028","SARL_v6","SARL_v6py3h2uqc","5d9c67b131544d00101daef1","freq_resp","","","img/orange_2bandit_b.png","70","img/orange_2bandit_b.png","70","test","","","","","","","","","","","2","","","","","","","","",""
"null","306186","SARL_v6","SARL_v6py3h2uqc","5d9c67b131544d00101daef1","fixation","","","img/fixation.png","null","","","test","","","","","","","","","","","","","","","","","","","",""
"363","306556","SARL_v6","SARL_v6py3h2uqc","5d9c67b131544d00101daef1","freq","","","img/orange_2bandit_b2.png","70","","70","test","1","","44","","","","circle","square","43","21","2","0.9302325581395349","","","","","","","",""
"null","306999","SARL_v6","SARL_v6py3h2uqc","5d9c67b131544d00101daef1","freq_resp","","","img/orange_2bandit_b.png","70","img/orange_2bandit_b.png","70","test","","","","","","","","","","","2","","","","","","","","",""
"null","307159","SARL_v6","SARL_v6py3h2uqc","5d9c67b131544d00101daef1","fixation","","","img/fixation.png","null","","","test","","","","","","","","","","","","","","","","","","","",""
"669","307832","SARL_v6","SARL_v6py3h2uqc","5d9c67b131544d00101daef1","rl","","","img/black_2bandit_b2.png","74","","0","test","","","45","","","-5","circle","square","","0","2","","74","-5","-8","-5","-8","circle","2","0"
"null","308593","SARL_v6","SARL_v6py3h2uqc","5d9c67b131544d00101daef1","feedback","","","<div class=""verylowPoints""> -5 </div>","null","","na","test","","","NaN","","","","","","","","2","","74","","","","","","2",""
"499","309098","SARL_v6","SARL_v6py3h2uqc","5d9c67b131544d00101daef1","freq","","","img/orange_2bandit_b2.png","70","","70","test","1","","46","","","","circle","square","44","1","3","0.9318181818181818","","","","","","","",""
"null","309407","SARL_v6","SARL_v6py3h2uqc","5d9c67b131544d00101daef1","freq_resp","","","img/orange_2bandit_b.png","70","img/orange_2bandit_b.png","70","test","","","","","","","","","","","3","","","","","","","","",""
"null","309564","SARL_v6","SARL_v6py3h2uqc","5d9c67b131544d00101daef1","fixation","","","img/fixation.png","null","","","test","","","","","","","","","","","","","","","","","","","",""
"349","309918","SARL_v6","SARL_v6py3h2uqc","5d9c67b131544d00101daef1","freq","","","img/orange_2bandit_b2.png","70","","70","test","1","","47","","","","circle","square","45","2","3","0.9333333333333333","","","","","","","",""
"null","310379","SARL_v6","SARL_v6py3h2uqc","5d9c67b131544d00101daef1","freq_resp","","","img/orange_2bandit_b.png","70","img/orange_2bandit_b.png","70","test","","","","","","","","","","","3","","","","","","","","",""
"null","310537","SARL_v6","SARL_v6py3h2uqc","5d9c67b131544d00101daef1","fixation","","","img/fixation.png","null","","","test","","","","","","","","","","","","","","","","","","","",""
"323","310867","SARL_v6","SARL_v6py3h2uqc","5d9c67b131544d00101daef1","freq","","","img/orange_2bandit_b2.png","70","","70","test","1","","48","","","","circle","square","46","3","3","0.9347826086956522","","","","","","","",""
"null","311353","SARL_v6","SARL_v6py3h2uqc","5d9c67b131544d00101daef1","freq_resp","","","img/orange_2bandit_b.png","70","img/orange_2bandit_b.png","70","test","","","","","","","","","","","3","","","","","","","","",""
"null","311511","SARL_v6","SARL_v6py3h2uqc","5d9c67b131544d00101daef1","fixation","","","img/fixation.png","null","","","test","","","","","","","","","","","","","","","","","","","",""
"271","311786","SARL_v6","SARL_v6py3h2uqc","5d9c67b131544d00101daef1","freq","","","img/orange_2bandit_b2.png","70","","70","test","1","","49","","","","circle","square","47","4","3","0.9361702127659575","","","","","","","",""
"null","312325","SARL_v6","SARL_v6py3h2uqc","5d9c67b131544d00101daef1","freq_resp","","","img/orange_2bandit_b.png","70","img/orange_2bandit_b.png","70","test","","","","","","","","","","","3","","","","","","","","",""
"null","312485","SARL_v6","SARL_v6py3h2uqc","5d9c67b131544d00101daef1","fixation","","","img/fixation.png","null","","","test","","","","","","","","","","","","","","","","","","","",""
"300","312788","SARL_v6","SARL_v6py3h2uqc","5d9c67b131544d00101daef1","freq","","","img/orange_2bandit_b2.png","70","","70","test","1","","50","","","","circle","square","48","5","3","0.9375","","","","","","","",""
"null","313299","SARL_v6","SARL_v6py3h2uqc","5d9c67b131544d00101daef1","freq_resp","","","img/orange_2bandit_b.png","70","img/orange_2bandit_b.png","70","test","","","","","","","","","","","3","","","","","","","","",""
"null","313458","SARL_v6","SARL_v6py3h2uqc","5d9c67b131544d00101daef1","fixation","","","img/fixation.png","null","","","test","","","","","","","","","","","","","","","","","","","",""
"304","313768","SARL_v6","SARL_v6py3h2uqc","5d9c67b131544d00101daef1","freq","","","img/orange_2bandit_b2.png","70","","70","test","1","","51","","","","circle","square","49","6","3","0.9387755102040817","","","","","","","",""
"null","314271","SARL_v6","SARL_v6py3h2uqc","5d9c67b131544d00101daef1","freq_resp","","","img/orange_2bandit_b.png","70","img/orange_2bandit_b.png","70","test","","","","","","","","","","","3","","","","","","","","",""
"null","314432","SARL_v6","SARL_v6py3h2uqc","5d9c67b131544d00101daef1","fixation","","","img/fixation.png","null","","","test","","","","","","","","","","","","","","","","","","","",""
"328","314765","SARL_v6","SARL_v6py3h2uqc","5d9c67b131544d00101daef1","freq","","","img/orange_2bandit_b2.png","70","","70","test","1","","52","","","","circle","square","50","7","3","0.94","","","","","","","",""
"null","315245","SARL_v6","SARL_v6py3h2uqc","5d9c67b131544d00101daef1","freq_resp","","","img/orange_2bandit_b.png","70","img/orange_2bandit_b.png","70","test","","","","","","","","","","","3","","","","","","","","",""
"null","315404","SARL_v6","SARL_v6py3h2uqc","5d9c67b131544d00101daef1","fixation","","","img/fixation.png","null","","","test","","","","","","","","","","","","","","","","","","","",""
"238","315645","SARL_v6","SARL_v6py3h2uqc","5d9c67b131544d00101daef1","freq","","","img/orange_2bandit_b2.png","70","","70","test","1","","53","","","","circle","square","51","8","3","0.9411764705882353","","","","","","","",""
"null","316217","SARL_v6","SARL_v6py3h2uqc","5d9c67b131544d00101daef1","freq_resp","","","img/orange_2bandit_b.png","70","img/orange_2bandit_b.png","70","test","","","","","","","","","","","3","","","","","","","","",""
"null","316379","SARL_v6","SARL_v6py3h2uqc","5d9c67b131544d00101daef1","fixation","","","img/fixation.png","null","","","test","","","","","","","","","","","","","","","","","","","",""
"315","316697","SARL_v6","SARL_v6py3h2uqc","5d9c67b131544d00101daef1","freq","","","img/orange_2bandit_b2.png","70","","70","test","1","","54","","","","circle","square","52","9","3","0.9423076923076923","","","","","","","",""
"null","317190","SARL_v6","SARL_v6py3h2uqc","5d9c67b131544d00101daef1","freq_resp","","","img/orange_2bandit_b.png","70","img/orange_2bandit_b.png","70","test","","","","","","","","","","","3","","","","","","","","",""
"null","317350","SARL_v6","SARL_v6py3h2uqc","5d9c67b131544d00101daef1","fixation","","","img/fixation.png","null","","","test","","","","","","","","","","","","","","","","","","","",""
"301","317654","SARL_v6","SARL_v6py3h2uqc","5d9c67b131544d00101daef1","freq","","","img/orange_2bandit_b2.png","70","","70","test","1","","55","","","","circle","square","53","10","3","0.9433962264150944","","","","","","","",""
"null","318162","SARL_v6","SARL_v6py3h2uqc","5d9c67b131544d00101daef1","freq_resp","","","img/orange_2bandit_b.png","70","img/orange_2bandit_b.png","70","test","","","","","","","","","","","3","","","","","","","","",""
"null","318321","SARL_v6","SARL_v6py3h2uqc","5d9c67b131544d00101daef1","fixation","","","img/fixation.png","null","","","test","","","","","","","","","","","","","","","","","","","",""
"302","318627","SARL_v6","SARL_v6py3h2uqc","5d9c67b131544d00101daef1","freq","","","img/orange_2bandit_b2.png","70","","70","test","1","","56","","","","circle","square","54","11","3","0.9444444444444444","","","","","","","",""
"null","319139","SARL_v6","SARL_v6py3h2uqc","5d9c67b131544d00101daef1","freq_resp","","","img/orange_2bandit_b.png","70","img/orange_2bandit_b.png","70","test","","","","","","","","","","","3","","","","","","","","",""
"null","319296","SARL_v6","SARL_v6py3h2uqc","5d9c67b131544d00101daef1","fixation","","","img/fixation.png","null","","","test","","","","","","","","","","","","","","","","","","","",""
"331","319629","SARL_v6","SARL_v6py3h2uqc","5d9c67b131544d00101daef1","freq","","","img/orange_2bandit_b2.png","70","","70","test","1","","57","","","","circle","square","55","12","3","0.9454545454545454","","","","","","","",""
"null","320108","SARL_v6","SARL_v6py3h2uqc","5d9c67b131544d00101daef1","freq_resp","","","img/orange_2bandit_b.png","70","img/orange_2bandit_b.png","70","test","","","","","","","","","","","3","","","","","","","","",""
"null","320263","SARL_v6","SARL_v6py3h2uqc","5d9c67b131544d00101daef1","fixation","","","img/fixation.png","null","","","test","","","","","","","","","","","","","","","","","","","",""
"324","320592","SARL_v6","SARL_v6py3h2uqc","5d9c67b131544d00101daef1","freq","","","img/orange_2bandit_b2.png","70","","70","test","1","","58","","","","circle","square","56","13","3","0.9464285714285714","","","","","","","",""
"null","321072","SARL_v6","SARL_v6py3h2uqc","5d9c67b131544d00101daef1","freq_resp","","","img/orange_2bandit_b.png","70","img/orange_2bandit_b.png","70","test","","","","","","","","","","","3","","","","","","","","",""
"null","321231","SARL_v6","SARL_v6py3h2uqc","5d9c67b131544d00101daef1","fixation","","","img/fixation.png","null","","","test","","","","","","","","","","","","","","","","","","","",""
"470","321703","SARL_v6","SARL_v6py3h2uqc","5d9c67b131544d00101daef1","infreq","","","img/blue_2bandit_b2.png","68","","68","test","1","","59","","","","circle","square","57","14","3","0.9473684210526315","","","","","","","",""
"null","322041","SARL_v6","SARL_v6py3h2uqc","5d9c67b131544d00101daef1","infreq_resp","","","img/blue_2bandit_b.png","68","img/blue_2bandit_b.png","68","test","","","","","","","","","","","3","","","","","","","","",""
"null","322200","SARL_v6","SARL_v6py3h2uqc","5d9c67b131544d00101daef1","fixation","","","img/fixation.png","null","","","test","","","","","","","","","","","","","","","","","","","",""
"551","322755","SARL_v6","SARL_v6py3h2uqc","5d9c67b131544d00101daef1","freq","","","img/orange_2bandit_b2.png","70","","70","test","1","","60","","","","circle","square","58","15","3","0.9482758620689655","","","","","","","",""
"null","323014","SARL_v6","SARL_v6py3h2uqc","5d9c67b131544d00101daef1","freq_resp","","","img/orange_2bandit_b.png","70","img/orange_2bandit_b.png","70","test","","","","","","","","","","","3","","","","","","","","",""
"null","323173","SARL_v6","SARL_v6py3h2uqc","5d9c67b131544d00101daef1","fixation","","","img/fixation.png","null","","","test","","","","","","","","","","","","","","","","","","","",""
"508","323683","SARL_v6","SARL_v6py3h2uqc","5d9c67b131544d00101daef1","freq","","","img/orange_2bandit_b2.png","70","","70","test","1","","61","","","","circle","square","59","16","3","0.9491525423728814","","","","","","","",""
"null","323988","SARL_v6","SARL_v6py3h2uqc","5d9c67b131544d00101daef1","freq_resp","","","img/orange_2bandit_b.png","70","img/orange_2bandit_b.png","70","test","","","","","","","","","","","3","","","","","","","","",""
"null","324145","SARL_v6","SARL_v6py3h2uqc","5d9c67b131544d00101daef1","fixation","","","img/fixation.png","null","","","test","","","","","","","","","","","","","","","","","","","",""
"457","324606","SARL_v6","SARL_v6py3h2uqc","5d9c67b131544d00101daef1","freq","","","img/orange_2bandit_b2.png","70","","70","test","1","","62","","","","circle","square","60","17","3","0.95","","","","","","","",""
"null","324959","SARL_v6","SARL_v6py3h2uqc","5d9c67b131544d00101daef1","freq_resp","","","img/orange_2bandit_b.png","70","img/orange_2bandit_b.png","70","test","","","","","","","","","","","3","","","","","","","","",""
"null","325118","SARL_v6","SARL_v6py3h2uqc","5d9c67b131544d00101daef1","fixation","","","img/fixation.png","null","","","test","","","","","","","","","","","","","","","","","","","",""
"346","325467","SARL_v6","SARL_v6py3h2uqc","5d9c67b131544d00101daef1","freq","","","img/orange_2bandit_b2.png","70","","70","test","1","","63","","","","circle","square","61","18","3","0.9508196721311475","","","","","","","",""
"null","325931","SARL_v6","SARL_v6py3h2uqc","5d9c67b131544d00101daef1","freq_resp","","","img/orange_2bandit_b.png","70","img/orange_2bandit_b.png","70","test","","","","","","","","","","","3","","","","","","","","",""
"null","326090","SARL_v6","SARL_v6py3h2uqc","5d9c67b131544d00101daef1","fixation","","","img/fixation.png","null","","","test","","","","","","","","","","","","","","","","","","","",""
"336","326429","SARL_v6","SARL_v6py3h2uqc","5d9c67b131544d00101daef1","freq","","","img/orange_2bandit_b2.png","70","","70","test","1","","64","","","","circle","square","62","19","3","0.9516129032258065","","","","","","","",""
"null","326902","SARL_v6","SARL_v6py3h2uqc","5d9c67b131544d00101daef1","freq_resp","","","img/orange_2bandit_b.png","70","img/orange_2bandit_b.png","70","test","","","","","","","","","","","3","","","","","","","","",""
"null","327062","SARL_v6","SARL_v6py3h2uqc","5d9c67b131544d00101daef1","fixation","","","img/fixation.png","null","","","test","","","","","","","","","","","","","","","","","","","",""
"337","327405","SARL_v6","SARL_v6py3h2uqc","5d9c67b131544d00101daef1","freq","","","img/orange_2bandit_b2.png","70","","70","test","1","","65","","","","circle","square","63","20","3","0.9523809523809523","","","","","","","",""
"null","327874","SARL_v6","SARL_v6py3h2uqc","5d9c67b131544d00101daef1","freq_resp","","","img/orange_2bandit_b.png","70","img/orange_2bandit_b.png","70","test","","","","","","","","","","","3","","","","","","","","",""
"null","328034","SARL_v6","SARL_v6py3h2uqc","5d9c67b131544d00101daef1","fixation","","","img/fixation.png","null","","","test","","","","","","","","","","","","","","","","","","","",""
"498","328535","SARL_v6","SARL_v6py3h2uqc","5d9c67b131544d00101daef1","infreq","","","img/blue_2bandit_b2.png","68","","68","test","1","","66","","","","circle","square","64","21","3","0.953125","","","","","","","",""
"null","328844","SARL_v6","SARL_v6py3h2uqc","5d9c67b131544d00101daef1","infreq_resp","","","img/blue_2bandit_b.png","68","img/blue_2bandit_b.png","68","test","","","","","","","","","","","3","","","","","","","","",""
"null","329004","SARL_v6","SARL_v6py3h2uqc","5d9c67b131544d00101daef1","fixation","","","img/fixation.png","null","","","test","","","","","","","","","","","","","","","","","","","",""
"539","329549","SARL_v6","SARL_v6py3h2uqc","5d9c67b131544d00101daef1","freq","","","img/orange_2bandit_b2.png","70","","70","test","1","","67","","","","circle","square","65","22","3","0.9538461538461539","","","","","","","",""
"null","329816","SARL_v6","SARL_v6py3h2uqc","5d9c67b131544d00101daef1","freq_resp","","","img/orange_2bandit_b.png","70","img/orange_2bandit_b.png","70","test","","","","","","","","","","","3","","","","","","","","",""
"null","329977","SARL_v6","SARL_v6py3h2uqc","5d9c67b131544d00101daef1","fixation","","","img/fixation.png","null","","","test","","","","","","","","","","","","","","","","","","","",""
"709","330691","SARL_v6","SARL_v6py3h2uqc","5d9c67b131544d00101daef1","rl","","","img/black_2bandit_b2.png","75","","0","test","","","68","","","-8","circle","square","","0","3","","75","-4","-8","-4","-8","square","3","0"
"null","331459","SARL_v6","SARL_v6py3h2uqc","5d9c67b131544d00101daef1","feedback","","","<div class=""verylowPoints_sq""> -8 </div>","null","","na","test","","","NaN","","","","","","","","3","","75","","","","","","3",""
"514","331977","SARL_v6","SARL_v6py3h2uqc","5d9c67b131544d00101daef1","freq","","","img/orange_2bandit_b2.png","70","","70","test","1","","69","","","","circle","square","66","1","4","0.9545454545454546","","","","","","","",""
"null","332272","SARL_v6","SARL_v6py3h2uqc","5d9c67b131544d00101daef1","freq_resp","","","img/orange_2bandit_b.png","70","img/orange_2bandit_b.png","70","test","","","","","","","","","","","4","","","","","","","","",""
"null","332428","SARL_v6","SARL_v6py3h2uqc","5d9c67b131544d00101daef1","fixation","","","img/fixation.png","null","","","test","","","","","","","","","","","","","","","","","","","",""
"327","332759","SARL_v6","SARL_v6py3h2uqc","5d9c67b131544d00101daef1","freq","","","img/orange_2bandit_b2.png","70","","70","test","1","","70","","","","circle","square","67","2","4","0.9552238805970149","","","","","","","",""
"null","333238","SARL_v6","SARL_v6py3h2uqc","5d9c67b131544d00101daef1","freq_resp","","","img/orange_2bandit_b.png","70","img/orange_2bandit_b.png","70","test","","","","","","","","","","","4","","","","","","","","",""
"null","333397","SARL_v6","SARL_v6py3h2uqc","5d9c67b131544d00101daef1","fixation","","","img/fixation.png","null","","","test","","","","","","","","","","","","","","","","","","","",""
"353","333753","SARL_v6","SARL_v6py3h2uqc","5d9c67b131544d00101daef1","freq","","","img/orange_2bandit_b2.png","70","","70","test","1","","71","","","","circle","square","68","3","4","0.9558823529411765","","","","","","","",""
"null","334211","SARL_v6","SARL_v6py3h2uqc","5d9c67b131544d00101daef1","freq_resp","","","img/orange_2bandit_b.png","70","img/orange_2bandit_b.png","70","test","","","","","","","","","","","4","","","","","","","","",""
"null","334371","SARL_v6","SARL_v6py3h2uqc","5d9c67b131544d00101daef1","fixation","","","img/fixation.png","null","","","test","","","","","","","","","","","","","","","","","","","",""
"373","334752","SARL_v6","SARL_v6py3h2uqc","5d9c67b131544d00101daef1","freq","","","img/orange_2bandit_b2.png","70","","70","test","1","","72","","","","circle","square","69","4","4","0.9565217391304348","","","","","","","",""
"null","335196","SARL_v6","SARL_v6py3h2uqc","5d9c67b131544d00101daef1","freq_resp","","","img/orange_2bandit_b.png","70","img/orange_2bandit_b.png","70","test","","","","","","","","","","","4","","","","","","","","",""
"null","335359","SARL_v6","SARL_v6py3h2uqc","5d9c67b131544d00101daef1","fixation","","","img/fixation.png","null","","","test","","","","","","","","","","","","","","","","","","","",""
"289","335651","SARL_v6","SARL_v6py3h2uqc","5d9c67b131544d00101daef1","freq","","","img/orange_2bandit_b2.png","70","","70","test","1","","73","","","","circle","square","70","5","4","0.9571428571428572","","","","","","","",""
"null","336170","SARL_v6","SARL_v6py3h2uqc","5d9c67b131544d00101daef1","freq_resp","","","img/orange_2bandit_b.png","70","img/orange_2bandit_b.png","70","test","","","","","","","","","","","4","","","","","","","","",""
"null","336330","SARL_v6","SARL_v6py3h2uqc","5d9c67b131544d00101daef1","fixation","","","img/fixation.png","null","","","test","","","","","","","","","","","","","","","","","","","",""
"155","336487","SARL_v6","SARL_v6py3h2uqc","5d9c67b131544d00101daef1","freq","","","img/orange_2bandit_b2.png","70","","70","test","1","","74","","","","circle","square","71","6","4","0.9577464788732394","","","","","","","",""
"null","337142","SARL_v6","SARL_v6py3h2uqc","5d9c67b131544d00101daef1","freq_resp","","","img/orange_2bandit_b.png","70","img/orange_2bandit_b.png","70","test","","","","","","","","","","","4","","","","","","","","",""
"null","337302","SARL_v6","SARL_v6py3h2uqc","5d9c67b131544d00101daef1","fixation","","","img/fixation.png","null","","","test","","","","","","","","","","","","","","","","","","","",""
"506","337814","SARL_v6","SARL_v6py3h2uqc","5d9c67b131544d00101daef1","freq","","","img/orange_2bandit_b2.png","70","","70","test","1","","75","","","","circle","square","72","7","4","0.9583333333333334","","","","","","","",""
"null","338113","SARL_v6","SARL_v6py3h2uqc","5d9c67b131544d00101daef1","freq_resp","","","img/orange_2bandit_b.png","70","img/orange_2bandit_b.png","70","test","","","","","","","","","","","4","","","","","","","","",""
"null","338272","SARL_v6","SARL_v6py3h2uqc","5d9c67b131544d00101daef1","fixation","","","img/fixation.png","null","","","test","","","","","","","","","","","","","","","","","","","",""
"720","338994","SARL_v6","SARL_v6py3h2uqc","5d9c67b131544d00101daef1","freq","","","img/orange_2bandit_b2.png","70","","70","test","1","","76","","","","circle","square","73","8","4","0.958904109589041","","","","","","","",""
"null","339084","SARL_v6","SARL_v6py3h2uqc","5d9c67b131544d00101daef1","freq_resp","","","img/orange_2bandit_b.png","70","img/orange_2bandit_b.png","70","test","","","","","","","","","","","4","","","","","","","","",""
"null","339244","SARL_v6","SARL_v6py3h2uqc","5d9c67b131544d00101daef1","fixation","","","img/fixation.png","null","","","test","","","","","","","","","","","","","","","","","","","",""
"413","339660","SARL_v6","SARL_v6py3h2uqc","5d9c67b131544d00101daef1","freq","","","img/orange_2bandit_b2.png","70","","70","test","1","","77","","","","circle","square","74","9","4","0.9594594594594594","","","","","","","",""
"null","340057","SARL_v6","SARL_v6py3h2uqc","5d9c67b131544d00101daef1","freq_resp","","","img/orange_2bandit_b.png","70","img/orange_2bandit_b.png","70","test","","","","","","","","","","","4","","","","","","","","",""
"null","340214","SARL_v6","SARL_v6py3h2uqc","5d9c67b131544d00101daef1","fixation","","","img/fixation.png","null","","","test","","","","","","","","","","","","","","","","","","","",""
"435","340653","SARL_v6","SARL_v6py3h2uqc","5d9c67b131544d00101daef1","freq","","","img/orange_2bandit_b2.png","70","","70","test","1","","78","","","","circle","square","75","10","4","0.96","","","","","","","",""
"null","341028","SARL_v6","SARL_v6py3h2uqc","5d9c67b131544d00101daef1","freq_resp","","","img/orange_2bandit_b.png","70","img/orange_2bandit_b.png","70","test","","","","","","","","","","","4","","","","","","","","",""
"null","341187","SARL_v6","SARL_v6py3h2uqc","5d9c67b131544d00101daef1","fixation","","","img/fixation.png","null","","","test","","","","","","","","","","","","","","","","","","","",""
"300","341489","SARL_v6","SARL_v6py3h2uqc","5d9c67b131544d00101daef1","freq","","","img/orange_2bandit_b2.png","70","","70","test","1","","79","","","","circle","square","76","11","4","0.9605263157894737","","","","","","","",""
"null","342000","SARL_v6","SARL_v6py3h2uqc","5d9c67b131544d00101daef1","freq_resp","","","img/orange_2bandit_b.png","70","img/orange_2bandit_b.png","70","test","","","","","","","","","","","4","","","","","","","","",""
"null","342160","SARL_v6","SARL_v6py3h2uqc","5d9c67b131544d00101daef1","fixation","","","img/fixation.png","null","","","test","","","","","","","","","","","","","","","","","","","",""
"378","342542","SARL_v6","SARL_v6py3h2uqc","5d9c67b131544d00101daef1","freq","","","img/orange_2bandit_b2.png","70","","70","test","1","","80","","","","circle","square","77","12","4","0.961038961038961","","","","","","","",""
"null","342974","SARL_v6","SARL_v6py3h2uqc","5d9c67b131544d00101daef1","freq_resp","","","img/orange_2bandit_b.png","70","img/orange_2bandit_b.png","70","test","","","","","","","","","","","4","","","","","","","","",""
"null","343133","SARL_v6","SARL_v6py3h2uqc","5d9c67b131544d00101daef1","fixation","","","img/fixation.png","null","","","test","","","","","","","","","","","","","","","","","","","",""
"338","343475","SARL_v6","SARL_v6py3h2uqc","5d9c67b131544d00101daef1","freq","","","img/orange_2bandit_b2.png","70","","70","test","1","","81","","","","circle","square","78","13","4","0.9615384615384616","","","","","","","",""
"null","343948","SARL_v6","SARL_v6py3h2uqc","5d9c67b131544d00101daef1","freq_resp","","","img/orange_2bandit_b.png","70","img/orange_2bandit_b.png","70","test","","","","","","","","","","","4","","","","","","","","",""
"null","344105","SARL_v6","SARL_v6py3h2uqc","5d9c67b131544d00101daef1","fixation","","","img/fixation.png","null","","","test","","","","","","","","","","","","","","","","","","","",""
"363","344472","SARL_v6","SARL_v6py3h2uqc","5d9c67b131544d00101daef1","freq","","","img/orange_2bandit_b2.png","70","","70","test","1","","82","","","","circle","square","79","14","4","0.9620253164556962","","","","","","","",""
"null","344916","SARL_v6","SARL_v6py3h2uqc","5d9c67b131544d00101daef1","freq_resp","","","img/orange_2bandit_b.png","70","img/orange_2bandit_b.png","70","test","","","","","","","","","","","4","","","","","","","","",""
"null","345075","SARL_v6","SARL_v6py3h2uqc","5d9c67b131544d00101daef1","fixation","","","img/fixation.png","null","","","test","","","","","","","","","","","","","","","","","","","",""
"381","345459","SARL_v6","SARL_v6py3h2uqc","5d9c67b131544d00101daef1","freq","","","img/orange_2bandit_b2.png","70","","70","test","1","","83","","","","circle","square","80","15","4","0.9625","","","","","","","",""
"null","345889","SARL_v6","SARL_v6py3h2uqc","5d9c67b131544d00101daef1","freq_resp","","","img/orange_2bandit_b.png","70","img/orange_2bandit_b.png","70","test","","","","","","","","","","","4","","","","","","","","",""
"null","346049","SARL_v6","SARL_v6py3h2uqc","5d9c67b131544d00101daef1","fixation","","","img/fixation.png","null","","","test","","","","","","","","","","","","","","","","","","","",""
"480","346531","SARL_v6","SARL_v6py3h2uqc","5d9c67b131544d00101daef1","freq","","","img/orange_2bandit_b2.png","70","","70","test","1","","84","","","","circle","square","81","16","4","0.9629629629629629","","","","","","","",""
"null","346862","SARL_v6","SARL_v6py3h2uqc","5d9c67b131544d00101daef1","freq_resp","","","img/orange_2bandit_b.png","70","img/orange_2bandit_b.png","70","test","","","","","","","","","","","4","","","","","","","","",""
"null","347021","SARL_v6","SARL_v6py3h2uqc","5d9c67b131544d00101daef1","fixation","","","img/fixation.png","null","","","test","","","","","","","","","","","","","","","","","","","",""
"369","347394","SARL_v6","SARL_v6py3h2uqc","5d9c67b131544d00101daef1","freq","","","img/orange_2bandit_b2.png","70","","70","test","1","","85","","","","circle","square","82","17","4","0.9634146341463414","","","","","","","",""
"null","347834","SARL_v6","SARL_v6py3h2uqc","5d9c67b131544d00101daef1","freq_resp","","","img/orange_2bandit_b.png","70","img/orange_2bandit_b.png","70","test","","","","","","","","","","","4","","","","","","","","",""
"null","347994","SARL_v6","SARL_v6py3h2uqc","5d9c67b131544d00101daef1","fixation","","","img/fixation.png","null","","","test","","","","","","","","","","","","","","","","","","","",""
"323","348321","SARL_v6","SARL_v6py3h2uqc","5d9c67b131544d00101daef1","freq","","","img/orange_2bandit_b2.png","70","","70","test","1","","86","","","","circle","square","83","18","4","0.963855421686747","","","","","","","",""
"null","348808","SARL_v6","SARL_v6py3h2uqc","5d9c67b131544d00101daef1","freq_resp","","","img/orange_2bandit_b.png","70","img/orange_2bandit_b.png","70","test","","","","","","","","","","","4","","","","","","","","",""
"null","348967","SARL_v6","SARL_v6py3h2uqc","5d9c67b131544d00101daef1","fixation","","","img/fixation.png","null","","","test","","","","","","","","","","","","","","","","","","","",""
"358","349327","SARL_v6","SARL_v6py3h2uqc","5d9c67b131544d00101daef1","freq","","","img/orange_2bandit_b2.png","70","","70","test","1","","87","","","","circle","square","84","19","4","0.9642857142857143","","","","","","","",""
"null","349783","SARL_v6","SARL_v6py3h2uqc","5d9c67b131544d00101daef1","freq_resp","","","img/orange_2bandit_b.png","70","img/orange_2bandit_b.png","70","test","","","","","","","","","","","4","","","","","","","","",""
"null","349939","SARL_v6","SARL_v6py3h2uqc","5d9c67b131544d00101daef1","fixation","","","img/fixation.png","null","","","test","","","","","","","","","","","","","","","","","","","",""
"353","350296","SARL_v6","SARL_v6py3h2uqc","5d9c67b131544d00101daef1","freq","","","img/orange_2bandit_b2.png","70","","70","test","1","","88","","","","circle","square","85","20","4","0.9647058823529412","","","","","","","",""
"null","350753","SARL_v6","SARL_v6py3h2uqc","5d9c67b131544d00101daef1","freq_resp","","","img/orange_2bandit_b.png","70","img/orange_2bandit_b.png","70","test","","","","","","","","","","","4","","","","","","","","",""
"null","350913","SARL_v6","SARL_v6py3h2uqc","5d9c67b131544d00101daef1","fixation","","","img/fixation.png","null","","","test","","","","","","","","","","","","","","","","","","","",""
"308","351222","SARL_v6","SARL_v6py3h2uqc","5d9c67b131544d00101daef1","infreq","","","img/blue_2bandit_b2.png","70","","68","test","0","","89","","","","circle","square","86","21","4","0.9534883720930233","","","","","","","",""
"null","351719","SARL_v6","SARL_v6py3h2uqc","5d9c67b131544d00101daef1","infreq_resp","","","img/blue_2bandit_b.png","70","img/blue_2bandit_b.png","68","test","","","","","","","","","","","4","","","","","","","","",""
"null","351879","SARL_v6","SARL_v6py3h2uqc","5d9c67b131544d00101daef1","fixation","","","img/fixation.png","null","","","test","","","","","","","","","","","","","","","","","","","",""
"479","352360","SARL_v6","SARL_v6py3h2uqc","5d9c67b131544d00101daef1","freq","","","img/orange_2bandit_b2.png","70","","70","test","1","","90","","","","circle","square","87","22","4","0.9540229885057471","","","","","","","",""
"null","352692","SARL_v6","SARL_v6py3h2uqc","5d9c67b131544d00101daef1","freq_resp","","","img/orange_2bandit_b.png","70","img/orange_2bandit_b.png","70","test","","","","","","","","","","","4","","","","","","","","",""
"null","352850","SARL_v6","SARL_v6py3h2uqc","5d9c67b131544d00101daef1","fixation","","","img/fixation.png","null","","","test","","","","","","","","","","","","","","","","","","","",""
"494","353347","SARL_v6","SARL_v6py3h2uqc","5d9c67b131544d00101daef1","infreq","","","img/blue_2bandit_b2.png","68","","68","test","1","","91","","","","circle","square","88","23","4","0.9545454545454546","","","","","","","",""
"null","353661","SARL_v6","SARL_v6py3h2uqc","5d9c67b131544d00101daef1","infreq_resp","","","img/blue_2bandit_b.png","68","img/blue_2bandit_b.png","68","test","","","","","","","","","","","4","","","","","","","","",""
"null","353819","SARL_v6","SARL_v6py3h2uqc","5d9c67b131544d00101daef1","fixation","","","img/fixation.png","null","","","test","","","","","","","","","","","","","","","","","","","",""
"507","354329","SARL_v6","SARL_v6py3h2uqc","5d9c67b131544d00101daef1","freq","","","img/orange_2bandit_b2.png","70","","70","test","1","","92","","","","circle","square","89","24","4","0.9550561797752809","","","","","","","",""
"null","354633","SARL_v6","SARL_v6py3h2uqc","5d9c67b131544d00101daef1","freq_resp","","","img/orange_2bandit_b.png","70","img/orange_2bandit_b.png","70","test","","","","","","","","","","","4","","","","","","","","",""
"null","354792","SARL_v6","SARL_v6py3h2uqc","5d9c67b131544d00101daef1","fixation","","","img/fixation.png","null","","","test","","","","","","","","","","","","","","","","","","","",""
"461","355257","SARL_v6","SARL_v6py3h2uqc","5d9c67b131544d00101daef1","freq","","","img/orange_2bandit_b2.png","70","","70","test","1","","93","","","","circle","square","90","25","4","0.9555555555555556","","","","","","","",""
"null","355607","SARL_v6","SARL_v6py3h2uqc","5d9c67b131544d00101daef1","freq_resp","","","img/orange_2bandit_b.png","70","img/orange_2bandit_b.png","70","test","","","","","","","","","","","4","","","","","","","","",""
"null","355767","SARL_v6","SARL_v6py3h2uqc","5d9c67b131544d00101daef1","fixation","","","img/fixation.png","null","","","test","","","","","","","","","","","","","","","","","","","",""
"671","356439","SARL_v6","SARL_v6py3h2uqc","5d9c67b131544d00101daef1","rl","","","img/black_2bandit_b2.png","75","","0","test","","","94","","","-12","circle","square","","0","4","","75","0","-12","0","-12","square","4","0"
"null","357204","SARL_v6","SARL_v6py3h2uqc","5d9c67b131544d00101daef1","feedback","","","<div class=""verylowPoints_sq""> -12 </div>","null","","na","test","","","NaN","","","","","","","","4","","75","","","","","","4",""
"580","357787","SARL_v6","SARL_v6py3h2uqc","5d9c67b131544d00101daef1","freq","","","img/orange_2bandit_b2.png","70","","70","test","1","","95","","","","circle","square","91","1","5","0.9560439560439561","","","","","","","",""
"null","358014","SARL_v6","SARL_v6py3h2uqc","5d9c67b131544d00101daef1","freq_resp","","","img/orange_2bandit_b.png","70","img/orange_2bandit_b.png","70","test","","","","","","","","","","","5","","","","","","","","",""
"null","358173","SARL_v6","SARL_v6py3h2uqc","5d9c67b131544d00101daef1","fixation","","","img/fixation.png","null","","","test","","","","","","","","","","","","","","","","","","","",""
"335","358510","SARL_v6","SARL_v6py3h2uqc","5d9c67b131544d00101daef1","freq","","","img/orange_2bandit_b2.png","70","","70","test","1","","96","","","","circle","square","92","2","5","0.9565217391304348","","","","","","","",""
"null","358987","SARL_v6","SARL_v6py3h2uqc","5d9c67b131544d00101daef1","freq_resp","","","img/orange_2bandit_b.png","70","img/orange_2bandit_b.png","70","test","","","","","","","","","","","5","","","","","","","","",""
"null","359146","SARL_v6","SARL_v6py3h2uqc","5d9c67b131544d00101daef1","fixation","","","img/fixation.png","null","","","test","","","","","","","","","","","","","","","","","","","",""
"302","359452","SARL_v6","SARL_v6py3h2uqc","5d9c67b131544d00101daef1","freq","","","img/orange_2bandit_b2.png","70","","70","test","1","","97","","","","circle","square","93","3","5","0.956989247311828","","","","","","","",""
"null","359961","SARL_v6","SARL_v6py3h2uqc","5d9c67b131544d00101daef1","freq_resp","","","img/orange_2bandit_b.png","70","img/orange_2bandit_b.png","70","test","","","","","","","","","","","5","","","","","","","","",""
"null","360118","SARL_v6","SARL_v6py3h2uqc","5d9c67b131544d00101daef1","fixation","","","img/fixation.png","null","","","test","","","","","","","","","","","","","","","","","","","",""
"307","360429","SARL_v6","SARL_v6py3h2uqc","5d9c67b131544d00101daef1","freq","","","img/orange_2bandit_b2.png","70","","70","test","1","","98","","","","circle","square","94","4","5","0.9574468085106383","","","","","","","",""
"null","360928","SARL_v6","SARL_v6py3h2uqc","5d9c67b131544d00101daef1","freq_resp","","","img/orange_2bandit_b.png","70","img/orange_2bandit_b.png","70","test","","","","","","","","","","","5","","","","","","","","",""
"null","361085","SARL_v6","SARL_v6py3h2uqc","5d9c67b131544d00101daef1","fixation","","","img/fixation.png","null","","","test","","","","","","","","","","","","","","","","","","","",""
"348","361436","SARL_v6","SARL_v6py3h2uqc","5d9c67b131544d00101daef1","freq","","","img/orange_2bandit_b2.png","70","","70","test","1","","99","","","","circle","square","95","5","5","0.9578947368421052","","","","","","","",""
"null","361897","SARL_v6","SARL_v6py3h2uqc","5d9c67b131544d00101daef1","freq_resp","","","img/orange_2bandit_b.png","70","img/orange_2bandit_b.png","70","test","","","","","","","","","","","5","","","","","","","","",""
"null","362056","SARL_v6","SARL_v6py3h2uqc","5d9c67b131544d00101daef1","fixation","","","img/fixation.png","null","","","test","","","","","","","","","","","","","","","","","","","",""
"298","362361","SARL_v6","SARL_v6py3h2uqc","5d9c67b131544d00101daef1","freq","","","img/orange_2bandit_b2.png","70","","70","test","1","","100","","","","circle","square","96","6","5","0.9583333333333334","","","","","","","",""
"null","362869","SARL_v6","SARL_v6py3h2uqc","5d9c67b131544d00101daef1","freq_resp","","","img/orange_2bandit_b.png","70","img/orange_2bandit_b.png","70","test","","","","","","","","","","","5","","","","","","","","",""
"null","363028","SARL_v6","SARL_v6py3h2uqc","5d9c67b131544d00101daef1","fixation","","","img/fixation.png","null","","","test","","","","","","","","","","","","","","","","","","","",""
"295","363326","SARL_v6","SARL_v6py3h2uqc","5d9c67b131544d00101daef1","freq","","","img/orange_2bandit_b2.png","70","","70","test","1","","101","","","","circle","square","97","7","5","0.9587628865979382","","","","","","","",""
"null","363840","SARL_v6","SARL_v6py3h2uqc","5d9c67b131544d00101daef1","freq_resp","","","img/orange_2bandit_b.png","70","img/orange_2bandit_b.png","70","test","","","","","","","","","","","5","","","","","","","","",""
"null","364002","SARL_v6","SARL_v6py3h2uqc","5d9c67b131544d00101daef1","fixation","","","img/fixation.png","null","","","test","","","","","","","","","","","","","","","","","","","",""
"302","364308","SARL_v6","SARL_v6py3h2uqc","5d9c67b131544d00101daef1","freq","","","img/orange_2bandit_b2.png","70","","70","test","1","","102","","","","circle","square","98","8","5","0.9591836734693877","","","","","","","",""
"null","364812","SARL_v6","SARL_v6py3h2uqc","5d9c67b131544d00101daef1","freq_resp","","","img/orange_2bandit_b.png","70","img/orange_2bandit_b.png","70","test","","","","","","","","","","","5","","","","","","","","",""
"null","364968","SARL_v6","SARL_v6py3h2uqc","5d9c67b131544d00101daef1","fixation","","","img/fixation.png","null","","","test","","","","","","","","","","","","","","","","","","","",""
"288","365260","SARL_v6","SARL_v6py3h2uqc","5d9c67b131544d00101daef1","freq","","","img/orange_2bandit_b2.png","70","","70","test","1","","103","","","","circle","square","99","9","5","0.9595959595959596","","","","","","","",""
"null","365776","SARL_v6","SARL_v6py3h2uqc","5d9c67b131544d00101daef1","freq_resp","","","img/orange_2bandit_b.png","70","img/orange_2bandit_b.png","70","test","","","","","","","","","","","5","","","","","","","","",""
"null","365937","SARL_v6","SARL_v6py3h2uqc","5d9c67b131544d00101daef1","fixation","","","img/fixation.png","null","","","test","","","","","","","","","","","","","","","","","","","",""
"289","366228","SARL_v6","SARL_v6py3h2uqc","5d9c67b131544d00101daef1","freq","","","img/orange_2bandit_b2.png","70","","70","test","1","","104","","","","circle","square","100","10","5","0.96","","","","","","","",""
"null","366748","SARL_v6","SARL_v6py3h2uqc","5d9c67b131544d00101daef1","freq_resp","","","img/orange_2bandit_b.png","70","img/orange_2bandit_b.png","70","test","","","","","","","","","","","5","","","","","","","","",""
"null","366911","SARL_v6","SARL_v6py3h2uqc","5d9c67b131544d00101daef1","fixation","","","img/fixation.png","null","","","test","","","","","","","","","","","","","","","","","","","",""
"317","367230","SARL_v6","SARL_v6py3h2uqc","5d9c67b131544d00101daef1","freq","","","img/orange_2bandit_b2.png","70","","70","test","1","","105","","","","circle","square","101","11","5","0.9603960396039604","","","","","","","",""
"null","367720","SARL_v6","SARL_v6py3h2uqc","5d9c67b131544d00101daef1","freq_resp","","","img/orange_2bandit_b.png","70","img/orange_2bandit_b.png","70","test","","","","","","","","","","","5","","","","","","","","",""
"null","367880","SARL_v6","SARL_v6py3h2uqc","5d9c67b131544d00101daef1","fixation","","","img/fixation.png","null","","","test","","","","","","","","","","","","","","","","","","","",""
"399","368282","SARL_v6","SARL_v6py3h2uqc","5d9c67b131544d00101daef1","freq","","","img/orange_2bandit_b2.png","70","","70","test","1","","106","","","","circle","square","102","12","5","0.9607843137254902","","","","","","","",""
"null","368692","SARL_v6","SARL_v6py3h2uqc","5d9c67b131544d00101daef1","freq_resp","","","img/orange_2bandit_b.png","70","img/orange_2bandit_b.png","70","test","","","","","","","","","","","5","","","","","","","","",""
"null","368854","SARL_v6","SARL_v6py3h2uqc","5d9c67b131544d00101daef1","fixation","","","img/fixation.png","null","","","test","","","","","","","","","","","","","","","","","","","",""
"357","369214","SARL_v6","SARL_v6py3h2uqc","5d9c67b131544d00101daef1","freq","","","img/orange_2bandit_b2.png","70","","70","test","1","","107","","","","circle","square","103","13","5","0.9611650485436893","","","","","","","",""
"null","369665","SARL_v6","SARL_v6py3h2uqc","5d9c67b131544d00101daef1","freq_resp","","","img/orange_2bandit_b.png","70","img/orange_2bandit_b.png","70","test","","","","","","","","","","","5","","","","","","","","",""
"null","369825","SARL_v6","SARL_v6py3h2uqc","5d9c67b131544d00101daef1","fixation","","","img/fixation.png","null","","","test","","","","","","","","","","","","","","","","","","","",""
"383","370212","SARL_v6","SARL_v6py3h2uqc","5d9c67b131544d00101daef1","freq","","","img/orange_2bandit_b2.png","70","","70","test","1","","108","","","","circle","square","104","14","5","0.9615384615384616","","","","","","","",""
"null","370637","SARL_v6","SARL_v6py3h2uqc","5d9c67b131544d00101daef1","freq_resp","","","img/orange_2bandit_b.png","70","img/orange_2bandit_b.png","70","test","","","","","","","","","","","5","","","","","","","","",""
"null","370796","SARL_v6","SARL_v6py3h2uqc","5d9c67b131544d00101daef1","fixation","","","img/fixation.png","null","","","test","","","","","","","","","","","","","","","","","","","",""
"450","371249","SARL_v6","SARL_v6py3h2uqc","5d9c67b131544d00101daef1","freq","","","img/orange_2bandit_b2.png","70","","70","test","1","","109","","","","circle","square","105","15","5","0.9619047619047619","","","","","","","",""
"null","371610","SARL_v6","SARL_v6py3h2uqc","5d9c67b131544d00101daef1","freq_resp","","","img/orange_2bandit_b.png","70","img/orange_2bandit_b.png","70","test","","","","","","","","","","","5","","","","","","","","",""
"null","371769","SARL_v6","SARL_v6py3h2uqc","5d9c67b131544d00101daef1","fixation","","","img/fixation.png","null","","","test","","","","","","","","","","","","","","","","","","","",""
"358","372131","SARL_v6","SARL_v6py3h2uqc","5d9c67b131544d00101daef1","freq","","","img/orange_2bandit_b2.png","70","","70","test","1","","110","","","","circle","square","106","16","5","0.9622641509433962","","","","","","","",""
"null","372583","SARL_v6","SARL_v6py3h2uqc","5d9c67b131544d00101daef1","freq_resp","","","img/orange_2bandit_b.png","70","img/orange_2bandit_b.png","70","test","","","","","","","","","","","5","","","","","","","","",""
"null","372743","SARL_v6","SARL_v6py3h2uqc","5d9c67b131544d00101daef1","fixation","","","img/fixation.png","null","","","test","","","","","","","","","","","","","","","","","","","",""
"338","373083","SARL_v6","SARL_v6py3h2uqc","5d9c67b131544d00101daef1","freq","","","img/orange_2bandit_b2.png","70","","70","test","1","","111","","","","circle","square","107","17","5","0.9626168224299065","","","","","","","",""
"null","373555","SARL_v6","SARL_v6py3h2uqc","5d9c67b131544d00101daef1","freq_resp","","","img/orange_2bandit_b.png","70","img/orange_2bandit_b.png","70","test","","","","","","","","","","","5","","","","","","","","",""
"null","373714","SARL_v6","SARL_v6py3h2uqc","5d9c67b131544d00101daef1","fixation","","","img/fixation.png","null","","","test","","","","","","","","","","","","","","","","","","","",""
"353","374071","SARL_v6","SARL_v6py3h2uqc","5d9c67b131544d00101daef1","freq","","","img/orange_2bandit_b2.png","70","","70","test","1","","112","","","","circle","square","108","18","5","0.9629629629629629","","","","","","","",""
"null","374528","SARL_v6","SARL_v6py3h2uqc","5d9c67b131544d00101daef1","freq_resp","","","img/orange_2bandit_b.png","70","img/orange_2bandit_b.png","70","test","","","","","","","","","","","5","","","","","","","","",""
"null","374688","SARL_v6","SARL_v6py3h2uqc","5d9c67b131544d00101daef1","fixation","","","img/fixation.png","null","","","test","","","","","","","","","","","","","","","","","","","",""
"287","374978","SARL_v6","SARL_v6py3h2uqc","5d9c67b131544d00101daef1","freq","","","img/orange_2bandit_b2.png","70","","70","test","1","","113","","","","circle","square","109","19","5","0.963302752293578","","","","","","","",""
"null","375502","SARL_v6","SARL_v6py3h2uqc","5d9c67b131544d00101daef1","freq_resp","","","img/orange_2bandit_b.png","70","img/orange_2bandit_b.png","70","test","","","","","","","","","","","5","","","","","","","","",""
"null","375661","SARL_v6","SARL_v6py3h2uqc","5d9c67b131544d00101daef1","fixation","","","img/fixation.png","null","","","test","","","","","","","","","","","","","","","","","","","",""
"317","375980","SARL_v6","SARL_v6py3h2uqc","5d9c67b131544d00101daef1","freq","","","img/orange_2bandit_b2.png","70","","70","test","1","","114","","","","circle","square","110","20","5","0.9636363636363636","","","","","","","",""
"null","376473","SARL_v6","SARL_v6py3h2uqc","5d9c67b131544d00101daef1","freq_resp","","","img/orange_2bandit_b.png","70","img/orange_2bandit_b.png","70","test","","","","","","","","","","","5","","","","","","","","",""
"null","376634","SARL_v6","SARL_v6py3h2uqc","5d9c67b131544d00101daef1","fixation","","","img/fixation.png","null","","","test","","","","","","","","","","","","","","","","","","","",""
"601","377240","SARL_v6","SARL_v6py3h2uqc","5d9c67b131544d00101daef1","infreq","","","img/blue_2bandit_b2.png","68","","68","test","1","","115","","","","circle","square","111","21","5","0.963963963963964","","","","","","","",""
"null","377447","SARL_v6","SARL_v6py3h2uqc","5d9c67b131544d00101daef1","infreq_resp","","","img/blue_2bandit_b.png","68","img/blue_2bandit_b.png","68","test","","","","","","","","","","","5","","","","","","","","",""
"null","377607","SARL_v6","SARL_v6py3h2uqc","5d9c67b131544d00101daef1","fixation","","","img/fixation.png","null","","","test","","","","","","","","","","","","","","","","","","","",""
"514","378125","SARL_v6","SARL_v6py3h2uqc","5d9c67b131544d00101daef1","infreq","","","img/blue_2bandit_b2.png","68","","68","test","1","","116","","","","circle","square","112","22","5","0.9642857142857143","","","","","","","",""
"null","378420","SARL_v6","SARL_v6py3h2uqc","5d9c67b131544d00101daef1","infreq_resp","","","img/blue_2bandit_b.png","68","img/blue_2bandit_b.png","68","test","","","","","","","","","","","5","","","","","","","","",""
"null","378580","SARL_v6","SARL_v6py3h2uqc","5d9c67b131544d00101daef1","fixation","","","img/fixation.png","null","","","test","","","","","","","","","","","","","","","","","","","",""
"519","379102","SARL_v6","SARL_v6py3h2uqc","5d9c67b131544d00101daef1","freq","","","img/orange_2bandit_b2.png","70","","70","test","1","","117","","","","circle","square","113","23","5","0.9646017699115044","","","","","","","",""
"null","379390","SARL_v6","SARL_v6py3h2uqc","5d9c67b131544d00101daef1","freq_resp","","","img/orange_2bandit_b.png","70","img/orange_2bandit_b.png","70","test","","","","","","","","","","","5","","","","","","","","",""
"null","379550","SARL_v6","SARL_v6py3h2uqc","5d9c67b131544d00101daef1","fixation","","","img/fixation.png","null","","","test","","","","","","","","","","","","","","","","","","","",""
"673","380225","SARL_v6","SARL_v6py3h2uqc","5d9c67b131544d00101daef1","freq","","","img/orange_2bandit_b2.png","70","","70","test","1","","118","","","","circle","square","114","24","5","0.9649122807017544","","","","","","","",""
"null","380364","SARL_v6","SARL_v6py3h2uqc","5d9c67b131544d00101daef1","freq_resp","","","img/orange_2bandit_b.png","70","img/orange_2bandit_b.png","70","test","","","","","","","","","","","5","","","","","","","","",""
"null","380523","SARL_v6","SARL_v6py3h2uqc","5d9c67b131544d00101daef1","fixation","","","img/fixation.png","null","","","test","","","","","","","","","","","","","","","","","","","",""
"932","381461","SARL_v6","SARL_v6py3h2uqc","5d9c67b131544d00101daef1","rl","","","img/black_2bandit_b2.png","74","","0","test","","","119","","","4","circle","square","","0","5","","74","4","-7","4","-7","circle","5","0"
"null","382230","SARL_v6","SARL_v6py3h2uqc","5d9c67b131544d00101daef1","feedback","","","<div class=""veryhighPoints""> 4 </div>","null","","na","test","","","NaN","","","","","","","","5","","74","","","","","","5",""
"414","382645","SARL_v6","SARL_v6py3h2uqc","5d9c67b131544d00101daef1","freq","","","img/orange_2bandit_b2.png","70","","70","test","1","","120","","","","circle","square","115","1","6","0.9652173913043478","","","","","","","",""
"null","383043","SARL_v6","SARL_v6py3h2uqc","5d9c67b131544d00101daef1","freq_resp","","","img/orange_2bandit_b.png","70","img/orange_2bandit_b.png","70","test","","","","","","","","","","","6","","","","","","","","",""
"null","383199","SARL_v6","SARL_v6py3h2uqc","5d9c67b131544d00101daef1","fixation","","","img/fixation.png","null","","","test","","","","","","","","","","","","","","","","","","","",""
"310","383513","SARL_v6","SARL_v6py3h2uqc","5d9c67b131544d00101daef1","freq","","","img/orange_2bandit_b2.png","70","","70","test","1","","121","","","","circle","square","116","2","6","0.9655172413793104","","","","","","","",""
"null","384013","SARL_v6","SARL_v6py3h2uqc","5d9c67b131544d00101daef1","freq_resp","","","img/orange_2bandit_b.png","70","img/orange_2bandit_b.png","70","test","","","","","","","","","","","6","","","","","","","","",""
"null","384173","SARL_v6","SARL_v6py3h2uqc","5d9c67b131544d00101daef1","fixation","","","img/fixation.png","null","","","test","","","","","","","","","","","","","","","","","","","",""
"383","384563","SARL_v6","SARL_v6py3h2uqc","5d9c67b131544d00101daef1","freq","","","img/orange_2bandit_b2.png","70","","70","test","1","","122","","","","circle","square","117","3","6","0.9658119658119658","","","","","","","",""
"null","384987","SARL_v6","SARL_v6py3h2uqc","5d9c67b131544d00101daef1","freq_resp","","","img/orange_2bandit_b.png","70","img/orange_2bandit_b.png","70","test","","","","","","","","","","","6","","","","","","","","",""
"null","385146","SARL_v6","SARL_v6py3h2uqc","5d9c67b131544d00101daef1","fixation","","","img/fixation.png","null","","","test","","","","","","","","","","","","","","","","","","","",""
"463","385613","SARL_v6","SARL_v6py3h2uqc","5d9c67b131544d00101daef1","infreq","","","img/blue_2bandit_b2.png","68","","68","test","1","","123","","","","circle","square","118","4","6","0.9661016949152542","","","","","","","",""
"null","385957","SARL_v6","SARL_v6py3h2uqc","5d9c67b131544d00101daef1","infreq_resp","","","img/blue_2bandit_b.png","68","img/blue_2bandit_b.png","68","test","","","","","","","","","","","6","","","","","","","","",""
"null","386117","SARL_v6","SARL_v6py3h2uqc","5d9c67b131544d00101daef1","fixation","","","img/fixation.png","null","","","test","","","","","","","","","","","","","","","","","","","",""
"645","386768","SARL_v6","SARL_v6py3h2uqc","5d9c67b131544d00101daef1","freq","","","img/orange_2bandit_b2.png","70","","70","test","1","","124","","","","circle","square","119","5","6","0.9663865546218487","","","","","","","",""
"null","386929","SARL_v6","SARL_v6py3h2uqc","5d9c67b131544d00101daef1","freq_resp","","","img/orange_2bandit_b.png","70","img/orange_2bandit_b.png","70","test","","","","","","","","","","","6","","","","","","","","",""
"null","387088","SARL_v6","SARL_v6py3h2uqc","5d9c67b131544d00101daef1","fixation","","","img/fixation.png","null","","","test","","","","","","","","","","","","","","","","","","","",""
"361","387452","SARL_v6","SARL_v6py3h2uqc","5d9c67b131544d00101daef1","freq","","","img/orange_2bandit_b2.png","70","","70","test","1","","125","","","","circle","square","120","6","6","0.9666666666666667","","","","","","","",""
"null","387902","SARL_v6","SARL_v6py3h2uqc","5d9c67b131544d00101daef1","freq_resp","","","img/orange_2bandit_b.png","70","img/orange_2bandit_b.png","70","test","","","","","","","","","","","6","","","","","","","","",""
"null","388061","SARL_v6","SARL_v6py3h2uqc","5d9c67b131544d00101daef1","fixation","","","img/fixation.png","null","","","test","","","","","","","","","","","","","","","","","","","",""
"505","388570","SARL_v6","SARL_v6py3h2uqc","5d9c67b131544d00101daef1","freq","","","img/orange_2bandit_b2.png","70","","70","test","1","","126","","","","circle","square","121","7","6","0.9669421487603306","","","","","","","",""
"null","388881","SARL_v6","SARL_v6py3h2uqc","5d9c67b131544d00101daef1","freq_resp","","","img/orange_2bandit_b.png","70","img/orange_2bandit_b.png","70","test","","","","","","","","","","","6","","","","","","","","",""
"null","389043","SARL_v6","SARL_v6py3h2uqc","5d9c67b131544d00101daef1","fixation","","","img/fixation.png","null","","","test","","","","","","","","","","","","","","","","","","","",""
"541","389587","SARL_v6","SARL_v6py3h2uqc","5d9c67b131544d00101daef1","freq","","","img/orange_2bandit_b2.png","70","","70","test","1","","127","","","","circle","square","122","8","6","0.9672131147540983","","","","","","","",""
"null","389855","SARL_v6","SARL_v6py3h2uqc","5d9c67b131544d00101daef1","freq_resp","","","img/orange_2bandit_b.png","70","img/orange_2bandit_b.png","70","test","","","","","","","","","","","6","","","","","","","","",""
"null","390012","SARL_v6","SARL_v6py3h2uqc","5d9c67b131544d00101daef1","fixation","","","img/fixation.png","null","","","test","","","","","","","","","","","","","","","","","","","",""
"479","390497","SARL_v6","SARL_v6py3h2uqc","5d9c67b131544d00101daef1","infreq","","","img/blue_2bandit_b2.png","68","","68","test","1","","128","","","","circle","square","123","9","6","0.967479674796748","","","","","","","",""
"null","390824","SARL_v6","SARL_v6py3h2uqc","5d9c67b131544d00101daef1","infreq_resp","","","img/blue_2bandit_b.png","68","img/blue_2bandit_b.png","68","test","","","","","","","","","","","6","","","","","","","","",""
"null","390983","SARL_v6","SARL_v6py3h2uqc","5d9c67b131544d00101daef1","fixation","","","img/fixation.png","null","","","test","","","","","","","","","","","","","","","","","","","",""
"364","391351","SARL_v6","SARL_v6py3h2uqc","5d9c67b131544d00101daef1","freq","","","img/orange_2bandit_b2.png","70","","70","test","1","","129","","","","circle","square","124","10","6","0.967741935483871","","","","","","","",""
"null","391793","SARL_v6","SARL_v6py3h2uqc","5d9c67b131544d00101daef1","freq_resp","","","img/orange_2bandit_b.png","70","img/orange_2bandit_b.png","70","test","","","","","","","","","","","6","","","","","","","","",""
"null","391951","SARL_v6","SARL_v6py3h2uqc","5d9c67b131544d00101daef1","fixation","","","img/fixation.png","null","","","test","","","","","","","","","","","","","","","","","","","",""
"490","392444","SARL_v6","SARL_v6py3h2uqc","5d9c67b131544d00101daef1","freq","","","img/orange_2bandit_b2.png","70","","70","test","1","","130","","","","circle","square","125","11","6","0.968","","","","","","","",""
"null","392759","SARL_v6","SARL_v6py3h2uqc","5d9c67b131544d00101daef1","freq_resp","","","img/orange_2bandit_b.png","70","img/orange_2bandit_b.png","70","test","","","","","","","","","","","6","","","","","","","","",""
"null","392919","SARL_v6","SARL_v6py3h2uqc","5d9c67b131544d00101daef1","fixation","","","img/fixation.png","null","","","test","","","","","","","","","","","","","","","","","","","",""
"689","393611","SARL_v6","SARL_v6py3h2uqc","5d9c67b131544d00101daef1","freq","","","img/orange_2bandit_b2.png","70","","70","test","1","","131","","","","circle","square","126","12","6","0.9682539682539683","","","","","","","",""
"null","393734","SARL_v6","SARL_v6py3h2uqc","5d9c67b131544d00101daef1","freq_resp","","","img/orange_2bandit_b.png","70","img/orange_2bandit_b.png","70","test","","","","","","","","","","","6","","","","","","","","",""
"null","393888","SARL_v6","SARL_v6py3h2uqc","5d9c67b131544d00101daef1","fixation","","","img/fixation.png","null","","","test","","","","","","","","","","","","","","","","","","","",""
"507","394398","SARL_v6","SARL_v6py3h2uqc","5d9c67b131544d00101daef1","freq","","","img/orange_2bandit_b2.png","70","","70","test","1","","132","","","","circle","square","127","13","6","0.968503937007874","","","","","","","",""
"null","394695","SARL_v6","SARL_v6py3h2uqc","5d9c67b131544d00101daef1","freq_resp","","","img/orange_2bandit_b.png","70","img/orange_2bandit_b.png","70","test","","","","","","","","","","","6","","","","","","","","",""
"null","394856","SARL_v6","SARL_v6py3h2uqc","5d9c67b131544d00101daef1","fixation","","","img/fixation.png","null","","","test","","","","","","","","","","","","","","","","","","","",""
"415","395275","SARL_v6","SARL_v6py3h2uqc","5d9c67b131544d00101daef1","freq","","","img/orange_2bandit_b2.png","70","","70","test","1","","133","","","","circle","square","128","14","6","0.96875","","","","","","","",""
