"rt","time_elapsed","expId","subject","prolificID","trialType","rlType","attType","stimulus","key_press","stim","corrresp","phase","corr","pracCounter","trialNum","rewardOne","rewardTwo","reward","bandOne","bandTwo","attentionNum","attentionRunNum","blockNum","performance","bandChosen","circleVal","squareVal","bandOneVal","bandTwoVal","shapeChosen","rlNum","badFlag"
"2441","2443","SARL_v6","SARL_v6dysvkyb5","5e5291ff6c3d7d2a79ec869e","","","","","","","","","","","","","","","","","","","","","","","","","","","",""
"","5239","SARL_v6","SARL_v6dysvkyb5","5e5291ff6c3d7d2a79ec869e","fullscreen","fullscreen","fullscreen","","","","","","","","","","","","","","","","","","","","","","","","",""
"68914","74154","SARL_v6","SARL_v6dysvkyb5","5e5291ff6c3d7d2a79ec869e","","","","","","","","","","","","","","","","","","","","","","","","","","","",""
"null","74956","SARL_v6","SARL_v6dysvkyb5","5e5291ff6c3d7d2a79ec869e","freqPrac","","","img/blue_2bandit_b2.png","null","img/blue_2bandit_b2.png","70","prac","0","1","","","","","","","","","","","","","","","","","",""
"null","75958","SARL_v6","SARL_v6dysvkyb5","5e5291ff6c3d7d2a79ec869e","feedback","","","img/tooSlow.png","null","","na","prac","","","","","","","","","","","","","","","","","","","",""
"null","76109","SARL_v6","SARL_v6dysvkyb5","5e5291ff6c3d7d2a79ec869e","fixation","","","img/fixation.png","null","","","prac","","","","","","","","","","","","","","","","","","","",""
"483","76594","SARL_v6","SARL_v6dysvkyb5","5e5291ff6c3d7d2a79ec869e","infreqPrac","","","img/orange_2bandit_b2.png","70","img/orange_2bandit_b2.png","68","prac","0","2","","","","","","","","","","","","","","","","","",""
"483","76913","SARL_v6","SARL_v6dysvkyb5","5e5291ff6c3d7d2a79ec869e","infreqPrac_resp","","","img/orange_2bandit_b.png","70","img/orange_2bandit_b.png","68","prac","","","","","","","","","","","","","","","","","","","",""
"null","77915","SARL_v6","SARL_v6dysvkyb5","5e5291ff6c3d7d2a79ec869e","feedback","","","img/wrongKey.png","null","","na","prac","","","","","","","","","","","","","","","","","","","",""
"null","78067","SARL_v6","SARL_v6dysvkyb5","5e5291ff6c3d7d2a79ec869e","fixation","","","img/fixation.png","null","","","prac","","","","","","","","","","","","","","","","","","","",""
"499","78568","SARL_v6","SARL_v6dysvkyb5","5e5291ff6c3d7d2a79ec869e","freqPrac","","","img/blue_2bandit_b2.png","70","img/blue_2bandit_b2.png","70","prac","1","2","","","","","","","","","","","","","","","","","",""
"499","78871","SARL_v6","SARL_v6dysvkyb5","5e5291ff6c3d7d2a79ec869e","freqPrac_resp","","","img/blue_2bandit_b.png","70","img/blue_2bandit_b.png","70","prac","","","","","","","","","","","","","","","","","","","",""
"null","79023","SARL_v6","SARL_v6dysvkyb5","5e5291ff6c3d7d2a79ec869e","fixation","","","img/fixation.png","null","","","prac","","","","","","","","","","","","","","","","","","","",""
"455.99999999998545","79480","SARL_v6","SARL_v6dysvkyb5","5e5291ff6c3d7d2a79ec869e","infreqPrac","","","img/orange_2bandit_b2.png","68","img/orange_2bandit_b2.png","68","prac","1","2","","","","","","","","","","","","","","","","","",""
"455.99999999998545","79826","SARL_v6","SARL_v6dysvkyb5","5e5291ff6c3d7d2a79ec869e","infreqPrac_resp","","","img/orange_2bandit_b.png","68","img/orange_2bandit_b.png","68","prac","","","","","","","","","","","","","","","","","","","",""
"null","79978","SARL_v6","SARL_v6dysvkyb5","5e5291ff6c3d7d2a79ec869e","fixation","","","img/fixation.png","null","","","prac","","","","","","","","","","","","","","","","","","","",""
"325","80304","SARL_v6","SARL_v6dysvkyb5","5e5291ff6c3d7d2a79ec869e","infreqPrac","","","img/orange_2bandit_b2.png","70","img/orange_2bandit_b2.png","68","prac","0","3","","","","","","","","","","","","","","","","","",""
"325","80781","SARL_v6","SARL_v6dysvkyb5","5e5291ff6c3d7d2a79ec869e","infreqPrac_resp","","","img/orange_2bandit_b.png","70","img/orange_2bandit_b.png","68","prac","","","","","","","","","","","","","","","","","","","",""
"null","81783","SARL_v6","SARL_v6dysvkyb5","5e5291ff6c3d7d2a79ec869e","feedback","","","img/wrongKey.png","null","","na","prac","","","","","","","","","","","","","","","","","","","",""
"null","81935","SARL_v6","SARL_v6dysvkyb5","5e5291ff6c3d7d2a79ec869e","fixation","","","img/fixation.png","null","","","prac","","","","","","","","","","","","","","","","","","","",""
"420","82356","SARL_v6","SARL_v6dysvkyb5","5e5291ff6c3d7d2a79ec869e","infreqPrac","","","img/orange_2bandit_b2.png","68","img/orange_2bandit_b2.png","68","prac","1","3","","","","","","","","","","","","","","","","","",""
"420","82738","SARL_v6","SARL_v6dysvkyb5","5e5291ff6c3d7d2a79ec869e","infreqPrac_resp","","","img/orange_2bandit_b.png","68","img/orange_2bandit_b.png","68","prac","","","","","","","","","","","","","","","","","","","",""
"null","82890","SARL_v6","SARL_v6dysvkyb5","5e5291ff6c3d7d2a79ec869e","fixation","","","img/fixation.png","null","","","prac","","","","","","","","","","","","","","","","","","","",""
"479","83370","SARL_v6","SARL_v6dysvkyb5","5e5291ff6c3d7d2a79ec869e","freqPrac","","","img/blue_2bandit_b2.png","70","img/blue_2bandit_b2.png","70","prac","1","3","","","","","","","","","","","","","","","","","",""
"479","83693","SARL_v6","SARL_v6dysvkyb5","5e5291ff6c3d7d2a79ec869e","freqPrac_resp","","","img/blue_2bandit_b.png","70","img/blue_2bandit_b.png","70","prac","","","","","","","","","","","","","","","","","","","",""
"null","83845","SARL_v6","SARL_v6dysvkyb5","5e5291ff6c3d7d2a79ec869e","fixation","","","img/fixation.png","null","","","prac","","","","","","","","","","","","","","","","","","","",""
"670","84515","SARL_v6","SARL_v6dysvkyb5","5e5291ff6c3d7d2a79ec869e","infreqPrac","","","img/orange_2bandit_b2.png","68","img/orange_2bandit_b2.png","68","prac","1","3","","","","","","","","","","","","","","","","","",""
"670","84647","SARL_v6","SARL_v6dysvkyb5","5e5291ff6c3d7d2a79ec869e","infreqPrac_resp","","","img/orange_2bandit_b.png","68","img/orange_2bandit_b.png","68","prac","","","","","","","","","","","","","","","","","","","",""
"null","84799","SARL_v6","SARL_v6dysvkyb5","5e5291ff6c3d7d2a79ec869e","fixation","","","img/fixation.png","null","","","prac","","","","","","","","","","","","","","","","","","","",""
"526","85326","SARL_v6","SARL_v6dysvkyb5","5e5291ff6c3d7d2a79ec869e","freqPrac","","","img/blue_2bandit_b2.png","70","img/blue_2bandit_b2.png","70","prac","1","3","","","","","","","","","","","","","","","","","",""
"526","85602","SARL_v6","SARL_v6dysvkyb5","5e5291ff6c3d7d2a79ec869e","freqPrac_resp","","","img/blue_2bandit_b.png","70","img/blue_2bandit_b.png","70","prac","","","","","","","","","","","","","","","","","","","",""
"null","85754","SARL_v6","SARL_v6dysvkyb5","5e5291ff6c3d7d2a79ec869e","fixation","","","img/fixation.png","null","","","prac","","","","","","","","","","","","","","","","","","","",""
"451","86205","SARL_v6","SARL_v6dysvkyb5","5e5291ff6c3d7d2a79ec869e","freqPrac","","","img/blue_2bandit_b2.png","70","img/blue_2bandit_b2.png","70","prac","1","3","","","","","","","","","","","","","","","","","",""
"451","86557","SARL_v6","SARL_v6dysvkyb5","5e5291ff6c3d7d2a79ec869e","freqPrac_resp","","","img/blue_2bandit_b.png","70","img/blue_2bandit_b.png","70","prac","","","","","","","","","","","","","","","","","","","",""
"null","86708","SARL_v6","SARL_v6dysvkyb5","5e5291ff6c3d7d2a79ec869e","fixation","","","img/fixation.png","null","","","prac","","","","","","","","","","","","","","","","","","","",""
"48895","135604","SARL_v6","SARL_v6dysvkyb5","5e5291ff6c3d7d2a79ec869e","","","","","","","","prac","","","","","","","","","","","","","","","","","","","",""
"640.9999999999709","136247","SARL_v6","SARL_v6dysvkyb5","5e5291ff6c3d7d2a79ec869e","rlPractice","","","img/black_2bandit_b2.png","74","img/black_2bandit_b2.png","","prac","","","0","","","","","","","","","","","","","","","","",""
"null","136999","SARL_v6","SARL_v6dysvkyb5","5e5291ff6c3d7d2a79ec869e","feedback","","","<div class=""veryhighPoints""> 10 </div>","null","","na","prac","","","1","10","-14","10","","","","","","","","","","","","","",""
"null","137151","SARL_v6","SARL_v6dysvkyb5","5e5291ff6c3d7d2a79ec869e","fixation","","","img/fixation.png","null","","","prac","","","","","","","","","","","","","","","","","","","",""
"467","137620","SARL_v6","SARL_v6dysvkyb5","5e5291ff6c3d7d2a79ec869e","rlPractice","","","img/black_2bandit_b2.png","74","img/black_2bandit_b2.png","","prac","","","1","","","","","","","","","","","","","","","","",""
"null","138372","SARL_v6","SARL_v6dysvkyb5","5e5291ff6c3d7d2a79ec869e","feedback","","","<div class=""veryhighPoints""> 5 </div>","null","","na","prac","","","2","5","-5","5","","","","","","","","","","","","","",""
"null","138524","SARL_v6","SARL_v6dysvkyb5","5e5291ff6c3d7d2a79ec869e","fixation","","","img/fixation.png","null","","","prac","","","","","","","","","","","","","","","","","","","",""
"650","139175","SARL_v6","SARL_v6dysvkyb5","5e5291ff6c3d7d2a79ec869e","rlPractice","","","img/black_2bandit_b2.png","75","img/black_2bandit_b2.png","","prac","","","2","","","","","","","","","","","","","","","","",""
"null","139927","SARL_v6","SARL_v6dysvkyb5","5e5291ff6c3d7d2a79ec869e","feedback","","","<div class=""veryhighPoints_sq""> 2 </div>","null","","na","prac","","","3","30","2","30","","","","","","","","","","","","","",""
"null","140079","SARL_v6","SARL_v6dysvkyb5","5e5291ff6c3d7d2a79ec869e","fixation","","","img/fixation.png","null","","","prac","","","","","","","","","","","","","","","","","","","",""
"324","140403","SARL_v6","SARL_v6dysvkyb5","5e5291ff6c3d7d2a79ec869e","rlPractice","","","img/black_2bandit_b2.png","74","img/black_2bandit_b2.png","","prac","","","3","","","","","","","","","","","","","","","","",""
"null","141155","SARL_v6","SARL_v6dysvkyb5","5e5291ff6c3d7d2a79ec869e","feedback","","","<div class=""verylowPoints""> -2 </div>","null","","na","prac","","","4","-2","20","-2","","","","","","","","","","","","","",""
"null","141307","SARL_v6","SARL_v6dysvkyb5","5e5291ff6c3d7d2a79ec869e","fixation","","","img/fixation.png","null","","","prac","","","","","","","","","","","","","","","","","","","",""
"52125","193434","SARL_v6","SARL_v6dysvkyb5","5e5291ff6c3d7d2a79ec869e","","","","","","","","prac","","","","","","","","","","","","","","","","","","","",""
"583","194017","SARL_v6","SARL_v6dysvkyb5","5e5291ff6c3d7d2a79ec869e","mixAttFreqPrac","","","img/blue_2bandit_b2.png","70","img/blue_2bandit_b2.png","70","prac","","","1","","","","","","","","","","","","","","","","",""
"583","194236","SARL_v6","SARL_v6dysvkyb5","5e5291ff6c3d7d2a79ec869e","freqPrac_resp","","","img/blue_2bandit_b.png","70","img/blue_2bandit_b.png","70","prac","","","1","","","","","","","","","","","","","","","","",""
"null","194387","SARL_v6","SARL_v6dysvkyb5","5e5291ff6c3d7d2a79ec869e","fixation","","","img/fixation.png","null","","","prac","","","","","","","","","","","","","","","","","","","",""
"438","194826","SARL_v6","SARL_v6dysvkyb5","5e5291ff6c3d7d2a79ec869e","mixAttInfreqPrac","","","img/orange_2bandit_b2.png","68","img/orange_2bandit_b2.png","68","prac","","","2","","","","","","","","","","","","","","","","",""
"438","195190","SARL_v6","SARL_v6dysvkyb5","5e5291ff6c3d7d2a79ec869e","infreqPrac_resp","","","img/orange_2bandit_b.png","68","img/blue_2bandit_b.png","68","prac","","","2","","","","","","","","","","","","","","","","",""
"null","195342","SARL_v6","SARL_v6dysvkyb5","5e5291ff6c3d7d2a79ec869e","fixation","","","img/fixation.png","null","","","prac","","","","","","","","","","","","","","","","","","","",""
"388.0000000000291","195731","SARL_v6","SARL_v6dysvkyb5","5e5291ff6c3d7d2a79ec869e","mixAttInfreqPrac","","","img/orange_2bandit_b2.png","68","img/orange_2bandit_b2.png","68","prac","","","3","","","","","","","","","","","","","","","","",""
"388.0000000000291","196143","SARL_v6","SARL_v6dysvkyb5","5e5291ff6c3d7d2a79ec869e","infreqPrac_resp","","","img/orange_2bandit_b.png","68","img/blue_2bandit_b.png","68","prac","","","3","","","","","","","","","","","","","","","","",""
"null","196295","SARL_v6","SARL_v6dysvkyb5","5e5291ff6c3d7d2a79ec869e","fixation","","","img/fixation.png","null","","","prac","","","","","","","","","","","","","","","","","","","",""
"421","196718","SARL_v6","SARL_v6dysvkyb5","5e5291ff6c3d7d2a79ec869e","mixAttInfreqPrac","","","img/orange_2bandit_b2.png","68","img/orange_2bandit_b2.png","68","prac","","","4","","","","","","","","","","","","","","","","",""
"421","197099","SARL_v6","SARL_v6dysvkyb5","5e5291ff6c3d7d2a79ec869e","infreqPrac_resp","","","img/orange_2bandit_b.png","68","img/blue_2bandit_b.png","68","prac","","","4","","","","","","","","","","","","","","","","",""
"null","197251","SARL_v6","SARL_v6dysvkyb5","5e5291ff6c3d7d2a79ec869e","fixation","","","img/fixation.png","null","","","prac","","","","","","","","","","","","","","","","","","","",""
"395","197647","SARL_v6","SARL_v6dysvkyb5","5e5291ff6c3d7d2a79ec869e","mixAttFreqPrac","","","img/blue_2bandit_b2.png","70","img/blue_2bandit_b2.png","70","prac","","","5","","","","","","","","","","","","","","","","",""
"395","198053","SARL_v6","SARL_v6dysvkyb5","5e5291ff6c3d7d2a79ec869e","freqPrac_resp","","","img/blue_2bandit_b.png","70","img/blue_2bandit_b.png","70","prac","","","5","","","","","","","","","","","","","","","","",""
"null","198205","SARL_v6","SARL_v6dysvkyb5","5e5291ff6c3d7d2a79ec869e","fixation","","","img/fixation.png","null","","","prac","","","","","","","","","","","","","","","","","","","",""
"516.9999999999709","198724","SARL_v6","SARL_v6dysvkyb5","5e5291ff6c3d7d2a79ec869e","mixRLPractice","","","img/black_2bandit_b2.png","75","img/black_2bandit_b2.png","","prac","","","5","","","","","","","","","","","","","","","","",""
"null","199476","SARL_v6","SARL_v6dysvkyb5","5e5291ff6c3d7d2a79ec869e","feedback","","","<div class=""veryhighPoints_sq""> 10 </div>","null","","na","prac","","","6","-14","10","-14","","","","","","","","","","","","","",""
"null","199628","SARL_v6","SARL_v6dysvkyb5","5e5291ff6c3d7d2a79ec869e","fixation","","","img/fixation.png","null","","","prac","","","","","","","","","","","","","","","","","","","",""
"642","200271","SARL_v6","SARL_v6dysvkyb5","5e5291ff6c3d7d2a79ec869e","mixAttFreqPrac","","","img/blue_2bandit_b2.png","70","img/blue_2bandit_b2.png","70","prac","","","7","","","","","","","","","","","","","","","","",""
"642","200431","SARL_v6","SARL_v6dysvkyb5","5e5291ff6c3d7d2a79ec869e","freqPrac_resp","","","img/blue_2bandit_b.png","70","img/blue_2bandit_b.png","70","prac","","","7","","","","","","","","","","","","","","","","",""
"null","200583","SARL_v6","SARL_v6dysvkyb5","5e5291ff6c3d7d2a79ec869e","fixation","","","img/fixation.png","null","","","prac","","","","","","","","","","","","","","","","","","","",""
"524","201108","SARL_v6","SARL_v6dysvkyb5","5e5291ff6c3d7d2a79ec869e","mixAttInfreqPrac","","","img/orange_2bandit_b2.png","68","img/orange_2bandit_b2.png","68","prac","","","8","","","","","","","","","","","","","","","","",""
"524","201386","SARL_v6","SARL_v6dysvkyb5","5e5291ff6c3d7d2a79ec869e","infreqPrac_resp","","","img/orange_2bandit_b.png","68","img/blue_2bandit_b.png","68","prac","","","8","","","","","","","","","","","","","","","","",""
"null","201538","SARL_v6","SARL_v6dysvkyb5","5e5291ff6c3d7d2a79ec869e","fixation","","","img/fixation.png","null","","","prac","","","","","","","","","","","","","","","","","","","",""
"462","202001","SARL_v6","SARL_v6dysvkyb5","5e5291ff6c3d7d2a79ec869e","mixAttFreqPrac","","","img/blue_2bandit_b2.png","70","img/blue_2bandit_b2.png","70","prac","","","9","","","","","","","","","","","","","","","","",""
"462","202341","SARL_v6","SARL_v6dysvkyb5","5e5291ff6c3d7d2a79ec869e","freqPrac_resp","","","img/blue_2bandit_b.png","70","img/blue_2bandit_b.png","70","prac","","","9","","","","","","","","","","","","","","","","",""
"null","202492","SARL_v6","SARL_v6dysvkyb5","5e5291ff6c3d7d2a79ec869e","fixation","","","img/fixation.png","null","","","prac","","","","","","","","","","","","","","","","","","","",""
"496.9999999999709","202990","SARL_v6","SARL_v6dysvkyb5","5e5291ff6c3d7d2a79ec869e","mixAttFreqPrac","","","img/blue_2bandit_b2.png","70","img/blue_2bandit_b2.png","70","prac","","","10","","","","","","","","","","","","","","","","",""
"496.9999999999709","203295","SARL_v6","SARL_v6dysvkyb5","5e5291ff6c3d7d2a79ec869e","freqPrac_resp","","","img/blue_2bandit_b.png","70","img/blue_2bandit_b.png","70","prac","","","10","","","","","","","","","","","","","","","","",""
"null","203447","SARL_v6","SARL_v6dysvkyb5","5e5291ff6c3d7d2a79ec869e","fixation","","","img/fixation.png","null","","","prac","","","","","","","","","","","","","","","","","","","",""
"553","204001","SARL_v6","SARL_v6dysvkyb5","5e5291ff6c3d7d2a79ec869e","mixAttInfreqPrac","","","img/orange_2bandit_b2.png","68","img/orange_2bandit_b2.png","68","prac","","","11","","","","","","","","","","","","","","","","",""
"553","204250","SARL_v6","SARL_v6dysvkyb5","5e5291ff6c3d7d2a79ec869e","infreqPrac_resp","","","img/orange_2bandit_b.png","68","img/blue_2bandit_b.png","68","prac","","","11","","","","","","","","","","","","","","","","",""
"null","204402","SARL_v6","SARL_v6dysvkyb5","5e5291ff6c3d7d2a79ec869e","fixation","","","img/fixation.png","null","","","prac","","","","","","","","","","","","","","","","","","","",""
"614.0000000000291","205017","SARL_v6","SARL_v6dysvkyb5","5e5291ff6c3d7d2a79ec869e","mixRLPractice","","","img/black_2bandit_b2.png","75","img/black_2bandit_b2.png","","prac","","","11","","","","","","","","","","","","","","","","",""
"null","205769","SARL_v6","SARL_v6dysvkyb5","5e5291ff6c3d7d2a79ec869e","feedback","","","<div class=""verylowPoints_sq""> -5 </div>","null","","na","prac","","","12","5","-5","5","","","","","","","","","","","","","",""
"null","205921","SARL_v6","SARL_v6dysvkyb5","5e5291ff6c3d7d2a79ec869e","fixation","","","img/fixation.png","null","","","prac","","","","","","","","","","","","","","","","","","","",""
"9209.99999999997","215133","SARL_v6","SARL_v6dysvkyb5","5e5291ff6c3d7d2a79ec869e","","","","","","","","prac","","","","","","","","","","","","","","","","","","","",""
"490.0000000000291","215624","SARL_v6","SARL_v6dysvkyb5","5e5291ff6c3d7d2a79ec869e","freq","","","img/blue_2bandit_b2.png","70","","70","test","1","","1","","","","circle","square","1","1","1","1","","","","","","","",""
"null","215935","SARL_v6","SARL_v6dysvkyb5","5e5291ff6c3d7d2a79ec869e","freq_resp","","","img/blue_2bandit_b.png","70","img/blue_2bandit_b.png","70","test","","","","","","","","","","","1","","","","","","","","",""
"null","216087","SARL_v6","SARL_v6dysvkyb5","5e5291ff6c3d7d2a79ec869e","fixation","","","img/fixation.png","null","","","test","","","","","","","","","","","","","","","","","","","",""
"365.9999999999709","216454","SARL_v6","SARL_v6dysvkyb5","5e5291ff6c3d7d2a79ec869e","freq","","","img/blue_2bandit_b2.png","70","","70","test","1","","2","","","","circle","square","2","2","1","1","","","","","","","",""
"null","216890","SARL_v6","SARL_v6dysvkyb5","5e5291ff6c3d7d2a79ec869e","freq_resp","","","img/blue_2bandit_b.png","70","img/blue_2bandit_b.png","70","test","","","","","","","","","","","1","","","","","","","","",""
"null","217042","SARL_v6","SARL_v6dysvkyb5","5e5291ff6c3d7d2a79ec869e","fixation","","","img/fixation.png","null","","","test","","","","","","","","","","","","","","","","","","","",""
"431","217473","SARL_v6","SARL_v6dysvkyb5","5e5291ff6c3d7d2a79ec869e","infreq","","","img/orange_2bandit_b2.png","68","","68","test","1","","3","","","","circle","square","3","3","1","1","","","","","","","",""
"null","217844","SARL_v6","SARL_v6dysvkyb5","5e5291ff6c3d7d2a79ec869e","infreq_resp","","","img/orange_2bandit_b.png","68","img/orange_2bandit_b.png","68","test","","","","","","","","","","","1","","","","","","","","",""
"null","217995","SARL_v6","SARL_v6dysvkyb5","5e5291ff6c3d7d2a79ec869e","fixation","","","img/fixation.png","null","","","test","","","","","","","","","","","","","","","","","","","",""
"532.0000000000291","218529","SARL_v6","SARL_v6dysvkyb5","5e5291ff6c3d7d2a79ec869e","freq","","","img/blue_2bandit_b2.png","70","","70","test","1","","4","","","","circle","square","4","4","1","1","","","","","","","",""
"null","218798","SARL_v6","SARL_v6dysvkyb5","5e5291ff6c3d7d2a79ec869e","freq_resp","","","img/blue_2bandit_b.png","70","img/blue_2bandit_b.png","70","test","","","","","","","","","","","1","","","","","","","","",""
"null","218950","SARL_v6","SARL_v6dysvkyb5","5e5291ff6c3d7d2a79ec869e","fixation","","","img/fixation.png","null","","","test","","","","","","","","","","","","","","","","","","","",""
"512","219462","SARL_v6","SARL_v6dysvkyb5","5e5291ff6c3d7d2a79ec869e","freq","","","img/blue_2bandit_b2.png","70","","70","test","1","","5","","","","circle","square","5","5","1","1","","","","","","","",""
"null","219752","SARL_v6","SARL_v6dysvkyb5","5e5291ff6c3d7d2a79ec869e","freq_resp","","","img/blue_2bandit_b.png","70","img/blue_2bandit_b.png","70","test","","","","","","","","","","","1","","","","","","","","",""
"null","219904","SARL_v6","SARL_v6dysvkyb5","5e5291ff6c3d7d2a79ec869e","fixation","","","img/fixation.png","null","","","test","","","","","","","","","","","","","","","","","","","",""
"412","220317","SARL_v6","SARL_v6dysvkyb5","5e5291ff6c3d7d2a79ec869e","freq","","","img/blue_2bandit_b2.png","70","","70","test","1","","6","","","","circle","square","6","6","1","1","","","","","","","",""
"null","220707","SARL_v6","SARL_v6dysvkyb5","5e5291ff6c3d7d2a79ec869e","freq_resp","","","img/blue_2bandit_b.png","70","img/blue_2bandit_b.png","70","test","","","","","","","","","","","1","","","","","","","","",""
"null","220859","SARL_v6","SARL_v6dysvkyb5","5e5291ff6c3d7d2a79ec869e","fixation","","","img/fixation.png","null","","","test","","","","","","","","","","","","","","","","","","","",""
"381","221240","SARL_v6","SARL_v6dysvkyb5","5e5291ff6c3d7d2a79ec869e","freq","","","img/blue_2bandit_b2.png","70","","70","test","1","","7","","","","circle","square","7","7","1","1","","","","","","","",""
"null","221661","SARL_v6","SARL_v6dysvkyb5","5e5291ff6c3d7d2a79ec869e","freq_resp","","","img/blue_2bandit_b.png","70","img/blue_2bandit_b.png","70","test","","","","","","","","","","","1","","","","","","","","",""
"null","221813","SARL_v6","SARL_v6dysvkyb5","5e5291ff6c3d7d2a79ec869e","fixation","","","img/fixation.png","null","","","test","","","","","","","","","","","","","","","","","","","",""
"392","222206","SARL_v6","SARL_v6dysvkyb5","5e5291ff6c3d7d2a79ec869e","freq","","","img/blue_2bandit_b2.png","70","","70","test","1","","8","","","","circle","square","8","8","1","1","","","","","","","",""
"null","222615","SARL_v6","SARL_v6dysvkyb5","5e5291ff6c3d7d2a79ec869e","freq_resp","","","img/blue_2bandit_b.png","70","img/blue_2bandit_b.png","70","test","","","","","","","","","","","1","","","","","","","","",""
"null","222767","SARL_v6","SARL_v6dysvkyb5","5e5291ff6c3d7d2a79ec869e","fixation","","","img/fixation.png","null","","","test","","","","","","","","","","","","","","","","","","","",""
"327","223095","SARL_v6","SARL_v6dysvkyb5","5e5291ff6c3d7d2a79ec869e","freq","","","img/blue_2bandit_b2.png","70","","70","test","1","","9","","","","circle","square","9","9","1","1","","","","","","","",""
"null","223570","SARL_v6","SARL_v6dysvkyb5","5e5291ff6c3d7d2a79ec869e","freq_resp","","","img/blue_2bandit_b.png","70","img/blue_2bandit_b.png","70","test","","","","","","","","","","","1","","","","","","","","",""
"null","223721","SARL_v6","SARL_v6dysvkyb5","5e5291ff6c3d7d2a79ec869e","fixation","","","img/fixation.png","null","","","test","","","","","","","","","","","","","","","","","","","",""
"379","224102","SARL_v6","SARL_v6dysvkyb5","5e5291ff6c3d7d2a79ec869e","freq","","","img/blue_2bandit_b2.png","70","","70","test","1","","10","","","","circle","square","10","10","1","1","","","","","","","",""
"null","224525","SARL_v6","SARL_v6dysvkyb5","5e5291ff6c3d7d2a79ec869e","freq_resp","","","img/blue_2bandit_b.png","70","img/blue_2bandit_b.png","70","test","","","","","","","","","","","1","","","","","","","","",""
"null","224676","SARL_v6","SARL_v6dysvkyb5","5e5291ff6c3d7d2a79ec869e","fixation","","","img/fixation.png","null","","","test","","","","","","","","","","","","","","","","","","","",""
"354","225030","SARL_v6","SARL_v6dysvkyb5","5e5291ff6c3d7d2a79ec869e","freq","","","img/blue_2bandit_b2.png","70","","70","test","1","","11","","","","circle","square","11","11","1","1","","","","","","","",""
"null","225478","SARL_v6","SARL_v6dysvkyb5","5e5291ff6c3d7d2a79ec869e","freq_resp","","","img/blue_2bandit_b.png","70","img/blue_2bandit_b.png","70","test","","","","","","","","","","","1","","","","","","","","",""
"null","225630","SARL_v6","SARL_v6dysvkyb5","5e5291ff6c3d7d2a79ec869e","fixation","","","img/fixation.png","null","","","test","","","","","","","","","","","","","","","","","","","",""
"374.0000000000291","226005","SARL_v6","SARL_v6dysvkyb5","5e5291ff6c3d7d2a79ec869e","freq","","","img/blue_2bandit_b2.png","70","","70","test","1","","12","","","","circle","square","12","12","1","1","","","","","","","",""
"null","226432","SARL_v6","SARL_v6dysvkyb5","5e5291ff6c3d7d2a79ec869e","freq_resp","","","img/blue_2bandit_b.png","70","img/blue_2bandit_b.png","70","test","","","","","","","","","","","1","","","","","","","","",""
"null","226584","SARL_v6","SARL_v6dysvkyb5","5e5291ff6c3d7d2a79ec869e","fixation","","","img/fixation.png","null","","","test","","","","","","","","","","","","","","","","","","","",""
"352","226937","SARL_v6","SARL_v6dysvkyb5","5e5291ff6c3d7d2a79ec869e","freq","","","img/blue_2bandit_b2.png","70","","70","test","1","","13","","","","circle","square","13","13","1","1","","","","","","","",""
"null","227386","SARL_v6","SARL_v6dysvkyb5","5e5291ff6c3d7d2a79ec869e","freq_resp","","","img/blue_2bandit_b.png","70","img/blue_2bandit_b.png","70","test","","","","","","","","","","","1","","","","","","","","",""
"null","227538","SARL_v6","SARL_v6dysvkyb5","5e5291ff6c3d7d2a79ec869e","fixation","","","img/fixation.png","null","","","test","","","","","","","","","","","","","","","","","","","",""
"340.0000000000291","227880","SARL_v6","SARL_v6dysvkyb5","5e5291ff6c3d7d2a79ec869e","freq","","","img/blue_2bandit_b2.png","70","","70","test","1","","14","","","","circle","square","14","14","1","1","","","","","","","",""
"null","228341","SARL_v6","SARL_v6dysvkyb5","5e5291ff6c3d7d2a79ec869e","freq_resp","","","img/blue_2bandit_b.png","70","img/blue_2bandit_b.png","70","test","","","","","","","","","","","1","","","","","","","","",""
"null","228493","SARL_v6","SARL_v6dysvkyb5","5e5291ff6c3d7d2a79ec869e","fixation","","","img/fixation.png","null","","","test","","","","","","","","","","","","","","","","","","","",""
"326","228820","SARL_v6","SARL_v6dysvkyb5","5e5291ff6c3d7d2a79ec869e","freq","","","img/blue_2bandit_b2.png","70","","70","test","1","","15","","","","circle","square","15","15","1","1","","","","","","","",""
"null","229296","SARL_v6","SARL_v6dysvkyb5","5e5291ff6c3d7d2a79ec869e","freq_resp","","","img/blue_2bandit_b.png","70","img/blue_2bandit_b.png","70","test","","","","","","","","","","","1","","","","","","","","",""
"null","229447","SARL_v6","SARL_v6dysvkyb5","5e5291ff6c3d7d2a79ec869e","fixation","","","img/fixation.png","null","","","test","","","","","","","","","","","","","","","","","","","",""
"331.0000000000291","229779","SARL_v6","SARL_v6dysvkyb5","5e5291ff6c3d7d2a79ec869e","freq","","","img/blue_2bandit_b2.png","70","","70","test","1","","16","","","","circle","square","16","16","1","1","","","","","","","",""
"null","230249","SARL_v6","SARL_v6dysvkyb5","5e5291ff6c3d7d2a79ec869e","freq_resp","","","img/blue_2bandit_b.png","70","img/blue_2bandit_b.png","70","test","","","","","","","","","","","1","","","","","","","","",""
"null","230401","SARL_v6","SARL_v6dysvkyb5","5e5291ff6c3d7d2a79ec869e","fixation","","","img/fixation.png","null","","","test","","","","","","","","","","","","","","","","","","","",""
"299.0000000000291","230701","SARL_v6","SARL_v6dysvkyb5","5e5291ff6c3d7d2a79ec869e","freq","","","img/blue_2bandit_b2.png","70","","70","test","1","","17","","","","circle","square","17","17","1","1","","","","","","","",""
"null","231203","SARL_v6","SARL_v6dysvkyb5","5e5291ff6c3d7d2a79ec869e","freq_resp","","","img/blue_2bandit_b.png","70","img/blue_2bandit_b.png","70","test","","","","","","","","","","","1","","","","","","","","",""
"null","231355","SARL_v6","SARL_v6dysvkyb5","5e5291ff6c3d7d2a79ec869e","fixation","","","img/fixation.png","null","","","test","","","","","","","","","","","","","","","","","","","",""
"358","231715","SARL_v6","SARL_v6dysvkyb5","5e5291ff6c3d7d2a79ec869e","infreq","","","img/orange_2bandit_b2.png","68","","68","test","1","","18","","","","circle","square","18","18","1","1","","","","","","","",""
"null","232159","SARL_v6","SARL_v6dysvkyb5","5e5291ff6c3d7d2a79ec869e","infreq_resp","","","img/orange_2bandit_b.png","68","img/orange_2bandit_b.png","68","test","","","","","","","","","","","1","","","","","","","","",""
"null","232310","SARL_v6","SARL_v6dysvkyb5","5e5291ff6c3d7d2a79ec869e","fixation","","","img/fixation.png","null","","","test","","","","","","","","","","","","","","","","","","","",""
"448","232760","SARL_v6","SARL_v6dysvkyb5","5e5291ff6c3d7d2a79ec869e","freq","","","img/blue_2bandit_b2.png","70","","70","test","1","","19","","","","circle","square","19","19","1","1","","","","","","","",""
"null","233114","SARL_v6","SARL_v6dysvkyb5","5e5291ff6c3d7d2a79ec869e","freq_resp","","","img/blue_2bandit_b.png","70","img/blue_2bandit_b.png","70","test","","","","","","","","","","","1","","","","","","","","",""
"null","233266","SARL_v6","SARL_v6dysvkyb5","5e5291ff6c3d7d2a79ec869e","fixation","","","img/fixation.png","null","","","test","","","","","","","","","","","","","","","","","","","",""
"462.9999999999709","233729","SARL_v6","SARL_v6dysvkyb5","5e5291ff6c3d7d2a79ec869e","freq","","","img/blue_2bandit_b2.png","70","","70","test","1","","20","","","","circle","square","20","20","1","1","","","","","","","",""
"null","234068","SARL_v6","SARL_v6dysvkyb5","5e5291ff6c3d7d2a79ec869e","freq_resp","","","img/blue_2bandit_b.png","70","img/blue_2bandit_b.png","70","test","","","","","","","","","","","1","","","","","","","","",""
"null","234220","SARL_v6","SARL_v6dysvkyb5","5e5291ff6c3d7d2a79ec869e","fixation","","","img/fixation.png","null","","","test","","","","","","","","","","","","","","","","","","","",""
"336","234557","SARL_v6","SARL_v6dysvkyb5","5e5291ff6c3d7d2a79ec869e","freq","","","img/blue_2bandit_b2.png","70","","70","test","1","","21","","","","circle","square","21","21","1","1","","","","","","","",""
"null","235023","SARL_v6","SARL_v6dysvkyb5","5e5291ff6c3d7d2a79ec869e","freq_resp","","","img/blue_2bandit_b.png","70","img/blue_2bandit_b.png","70","test","","","","","","","","","","","1","","","","","","","","",""
"null","235175","SARL_v6","SARL_v6dysvkyb5","5e5291ff6c3d7d2a79ec869e","fixation","","","img/fixation.png","null","","","test","","","","","","","","","","","","","","","","","","","",""
"363","235539","SARL_v6","SARL_v6dysvkyb5","5e5291ff6c3d7d2a79ec869e","freq","","","img/blue_2bandit_b2.png","70","","70","test","1","","22","","","","circle","square","22","22","1","1","","","","","","","",""
"null","235978","SARL_v6","SARL_v6dysvkyb5","5e5291ff6c3d7d2a79ec869e","freq_resp","","","img/blue_2bandit_b.png","70","img/blue_2bandit_b.png","70","test","","","","","","","","","","","1","","","","","","","","",""
"null","236130","SARL_v6","SARL_v6dysvkyb5","5e5291ff6c3d7d2a79ec869e","fixation","","","img/fixation.png","null","","","test","","","","","","","","","","","","","","","","","","","",""
"296","236427","SARL_v6","SARL_v6dysvkyb5","5e5291ff6c3d7d2a79ec869e","freq","","","img/blue_2bandit_b2.png","70","","70","test","1","","23","","","","circle","square","23","23","1","1","","","","","","","",""
"null","236933","SARL_v6","SARL_v6dysvkyb5","5e5291ff6c3d7d2a79ec869e","freq_resp","","","img/blue_2bandit_b.png","70","img/blue_2bandit_b.png","70","test","","","","","","","","","","","1","","","","","","","","",""
"null","237085","SARL_v6","SARL_v6dysvkyb5","5e5291ff6c3d7d2a79ec869e","fixation","","","img/fixation.png","null","","","test","","","","","","","","","","","","","","","","","","","",""
"551","237637","SARL_v6","SARL_v6dysvkyb5","5e5291ff6c3d7d2a79ec869e","rl","","","img/black_2bandit_b2.png","74","","0","test","","","24","","","-3","circle","square","","0","1","","74","-3","-3","-3","-3","circle","1","0"
"null","238389","SARL_v6","SARL_v6dysvkyb5","5e5291ff6c3d7d2a79ec869e","feedback","","","<div class=""verylowPoints""> -3 </div>","null","","na","test","","","NaN","","","","","","","","1","","74","","","","","","1",""
"634","239024","SARL_v6","SARL_v6dysvkyb5","5e5291ff6c3d7d2a79ec869e","freq","","","img/blue_2bandit_b2.png","70","","70","test","1","","25","","","","circle","square","24","1","2","1","","","","","","","",""
"null","239192","SARL_v6","SARL_v6dysvkyb5","5e5291ff6c3d7d2a79ec869e","freq_resp","","","img/blue_2bandit_b.png","70","img/blue_2bandit_b.png","70","test","","","","","","","","","","","2","","","","","","","","",""
"null","239343","SARL_v6","SARL_v6dysvkyb5","5e5291ff6c3d7d2a79ec869e","fixation","","","img/fixation.png","null","","","test","","","","","","","","","","","","","","","","","","","",""
"493.0000000000291","239838","SARL_v6","SARL_v6dysvkyb5","5e5291ff6c3d7d2a79ec869e","freq","","","img/blue_2bandit_b2.png","70","","70","test","1","","26","","","","circle","square","25","2","2","1","","","","","","","",""
"null","240146","SARL_v6","SARL_v6dysvkyb5","5e5291ff6c3d7d2a79ec869e","freq_resp","","","img/blue_2bandit_b.png","70","img/blue_2bandit_b.png","70","test","","","","","","","","","","","2","","","","","","","","",""
"null","240297","SARL_v6","SARL_v6dysvkyb5","5e5291ff6c3d7d2a79ec869e","fixation","","","img/fixation.png","null","","","test","","","","","","","","","","","","","","","","","","","",""
"389","240686","SARL_v6","SARL_v6dysvkyb5","5e5291ff6c3d7d2a79ec869e","freq","","","img/blue_2bandit_b2.png","70","","70","test","1","","27","","","","circle","square","26","3","2","1","","","","","","","",""
"null","241099","SARL_v6","SARL_v6dysvkyb5","5e5291ff6c3d7d2a79ec869e","freq_resp","","","img/blue_2bandit_b.png","70","img/blue_2bandit_b.png","70","test","","","","","","","","","","","2","","","","","","","","",""
"null","241251","SARL_v6","SARL_v6dysvkyb5","5e5291ff6c3d7d2a79ec869e","fixation","","","img/fixation.png","null","","","test","","","","","","","","","","","","","","","","","","","",""
"354.0000000000291","241606","SARL_v6","SARL_v6dysvkyb5","5e5291ff6c3d7d2a79ec869e","freq","","","img/blue_2bandit_b2.png","70","","70","test","1","","28","","","","circle","square","27","4","2","1","","","","","","","",""
"null","242053","SARL_v6","SARL_v6dysvkyb5","5e5291ff6c3d7d2a79ec869e","freq_resp","","","img/blue_2bandit_b.png","70","img/blue_2bandit_b.png","70","test","","","","","","","","","","","2","","","","","","","","",""
"null","242205","SARL_v6","SARL_v6dysvkyb5","5e5291ff6c3d7d2a79ec869e","fixation","","","img/fixation.png","null","","","test","","","","","","","","","","","","","","","","","","","",""
"407","242613","SARL_v6","SARL_v6dysvkyb5","5e5291ff6c3d7d2a79ec869e","infreq","","","img/orange_2bandit_b2.png","68","","68","test","1","","29","","","","circle","square","28","5","2","1","","","","","","","",""
"null","243008","SARL_v6","SARL_v6dysvkyb5","5e5291ff6c3d7d2a79ec869e","infreq_resp","","","img/orange_2bandit_b.png","68","img/orange_2bandit_b.png","68","test","","","","","","","","","","","2","","","","","","","","",""
"null","243159","SARL_v6","SARL_v6dysvkyb5","5e5291ff6c3d7d2a79ec869e","fixation","","","img/fixation.png","null","","","test","","","","","","","","","","","","","","","","","","","",""
"473.9999999999709","243634","SARL_v6","SARL_v6dysvkyb5","5e5291ff6c3d7d2a79ec869e","freq","","","img/blue_2bandit_b2.png","70","","70","test","1","","30","","","","circle","square","29","6","2","1","","","","","","","",""
"null","243962","SARL_v6","SARL_v6dysvkyb5","5e5291ff6c3d7d2a79ec869e","freq_resp","","","img/blue_2bandit_b.png","70","img/blue_2bandit_b.png","70","test","","","","","","","","","","","2","","","","","","","","",""
"null","244114","SARL_v6","SARL_v6dysvkyb5","5e5291ff6c3d7d2a79ec869e","fixation","","","img/fixation.png","null","","","test","","","","","","","","","","","","","","","","","","","",""
"353","244468","SARL_v6","SARL_v6dysvkyb5","5e5291ff6c3d7d2a79ec869e","freq","","","img/blue_2bandit_b2.png","70","","70","test","1","","31","","","","circle","square","30","7","2","1","","","","","","","",""
"null","244917","SARL_v6","SARL_v6dysvkyb5","5e5291ff6c3d7d2a79ec869e","freq_resp","","","img/blue_2bandit_b.png","70","img/blue_2bandit_b.png","70","test","","","","","","","","","","","2","","","","","","","","",""
"null","245069","SARL_v6","SARL_v6dysvkyb5","5e5291ff6c3d7d2a79ec869e","fixation","","","img/fixation.png","null","","","test","","","","","","","","","","","","","","","","","","","",""
"325","245395","SARL_v6","SARL_v6dysvkyb5","5e5291ff6c3d7d2a79ec869e","freq","","","img/blue_2bandit_b2.png","70","","70","test","1","","32","","","","circle","square","31","8","2","1","","","","","","","",""
"null","245872","SARL_v6","SARL_v6dysvkyb5","5e5291ff6c3d7d2a79ec869e","freq_resp","","","img/blue_2bandit_b.png","70","img/blue_2bandit_b.png","70","test","","","","","","","","","","","2","","","","","","","","",""
"null","246024","SARL_v6","SARL_v6dysvkyb5","5e5291ff6c3d7d2a79ec869e","fixation","","","img/fixation.png","null","","","test","","","","","","","","","","","","","","","","","","","",""
"371","246396","SARL_v6","SARL_v6dysvkyb5","5e5291ff6c3d7d2a79ec869e","freq","","","img/blue_2bandit_b2.png","70","","70","test","1","","33","","","","circle","square","32","9","2","1","","","","","","","",""
"null","246827","SARL_v6","SARL_v6dysvkyb5","5e5291ff6c3d7d2a79ec869e","freq_resp","","","img/blue_2bandit_b.png","70","img/blue_2bandit_b.png","70","test","","","","","","","","","","","2","","","","","","","","",""
"null","246979","SARL_v6","SARL_v6dysvkyb5","5e5291ff6c3d7d2a79ec869e","fixation","","","img/fixation.png","null","","","test","","","","","","","","","","","","","","","","","","","",""
"369","247348","SARL_v6","SARL_v6dysvkyb5","5e5291ff6c3d7d2a79ec869e","freq","","","img/blue_2bandit_b2.png","70","","70","test","1","","34","","","","circle","square","33","10","2","1","","","","","","","",""
"null","247781","SARL_v6","SARL_v6dysvkyb5","5e5291ff6c3d7d2a79ec869e","freq_resp","","","img/blue_2bandit_b.png","70","img/blue_2bandit_b.png","70","test","","","","","","","","","","","2","","","","","","","","",""
"null","247933","SARL_v6","SARL_v6dysvkyb5","5e5291ff6c3d7d2a79ec869e","fixation","","","img/fixation.png","null","","","test","","","","","","","","","","","","","","","","","","","",""
"369.9999999999709","248304","SARL_v6","SARL_v6dysvkyb5","5e5291ff6c3d7d2a79ec869e","freq","","","img/blue_2bandit_b2.png","70","","70","test","1","","35","","","","circle","square","34","11","2","1","","","","","","","",""
"null","248735","SARL_v6","SARL_v6dysvkyb5","5e5291ff6c3d7d2a79ec869e","freq_resp","","","img/blue_2bandit_b.png","70","img/blue_2bandit_b.png","70","test","","","","","","","","","","","2","","","","","","","","",""
"null","248887","SARL_v6","SARL_v6dysvkyb5","5e5291ff6c3d7d2a79ec869e","fixation","","","img/fixation.png","null","","","test","","","","","","","","","","","","","","","","","","","",""
"329","249217","SARL_v6","SARL_v6dysvkyb5","5e5291ff6c3d7d2a79ec869e","freq","","","img/blue_2bandit_b2.png","70","","70","test","1","","36","","","","circle","square","35","12","2","1","","","","","","","",""
"null","249689","SARL_v6","SARL_v6dysvkyb5","5e5291ff6c3d7d2a79ec869e","freq_resp","","","img/blue_2bandit_b.png","70","img/blue_2bandit_b.png","70","test","","","","","","","","","","","2","","","","","","","","",""
"null","249841","SARL_v6","SARL_v6dysvkyb5","5e5291ff6c3d7d2a79ec869e","fixation","","","img/fixation.png","null","","","test","","","","","","","","","","","","","","","","","","","",""
"176","250017","SARL_v6","SARL_v6dysvkyb5","5e5291ff6c3d7d2a79ec869e","freq","","","img/blue_2bandit_b2.png","70","","70","test","1","","37","","","","circle","square","36","13","2","1","","","","","","","",""
"null","250643","SARL_v6","SARL_v6dysvkyb5","5e5291ff6c3d7d2a79ec869e","freq_resp","","","img/blue_2bandit_b.png","70","img/blue_2bandit_b.png","70","test","","","","","","","","","","","2","","","","","","","","",""
"null","250795","SARL_v6","SARL_v6dysvkyb5","5e5291ff6c3d7d2a79ec869e","fixation","","","img/fixation.png","null","","","test","","","","","","","","","","","","","","","","","","","",""
"371","251167","SARL_v6","SARL_v6dysvkyb5","5e5291ff6c3d7d2a79ec869e","freq","","","img/blue_2bandit_b2.png","70","","70","test","1","","38","","","","circle","square","37","14","2","1","","","","","","","",""
"null","251598","SARL_v6","SARL_v6dysvkyb5","5e5291ff6c3d7d2a79ec869e","freq_resp","","","img/blue_2bandit_b.png","70","img/blue_2bandit_b.png","70","test","","","","","","","","","","","2","","","","","","","","",""
"null","251750","SARL_v6","SARL_v6dysvkyb5","5e5291ff6c3d7d2a79ec869e","fixation","","","img/fixation.png","null","","","test","","","","","","","","","","","","","","","","","","","",""
"482","252233","SARL_v6","SARL_v6dysvkyb5","5e5291ff6c3d7d2a79ec869e","infreq","","","img/orange_2bandit_b2.png","68","","68","test","1","","39","","","","circle","square","38","15","2","1","","","","","","","",""
"null","252553","SARL_v6","SARL_v6dysvkyb5","5e5291ff6c3d7d2a79ec869e","infreq_resp","","","img/orange_2bandit_b.png","68","img/orange_2bandit_b.png","68","test","","","","","","","","","","","2","","","","","","","","",""
"null","252704","SARL_v6","SARL_v6dysvkyb5","5e5291ff6c3d7d2a79ec869e","fixation","","","img/fixation.png","null","","","test","","","","","","","","","","","","","","","","","","","",""
"461","253167","SARL_v6","SARL_v6dysvkyb5","5e5291ff6c3d7d2a79ec869e","freq","","","img/blue_2bandit_b2.png","70","","70","test","1","","40","","","","circle","square","39","16","2","1","","","","","","","",""
"null","253508","SARL_v6","SARL_v6dysvkyb5","5e5291ff6c3d7d2a79ec869e","freq_resp","","","img/blue_2bandit_b.png","70","img/blue_2bandit_b.png","70","test","","","","","","","","","","","2","","","","","","","","",""
"null","253660","SARL_v6","SARL_v6dysvkyb5","5e5291ff6c3d7d2a79ec869e","fixation","","","img/fixation.png","null","","","test","","","","","","","","","","","","","","","","","","","",""
"374.0000000000291","254035","SARL_v6","SARL_v6dysvkyb5","5e5291ff6c3d7d2a79ec869e","freq","","","img/blue_2bandit_b2.png","70","","70","test","1","","41","","","","circle","square","40","17","2","1","","","","","","","",""
"null","254462","SARL_v6","SARL_v6dysvkyb5","5e5291ff6c3d7d2a79ec869e","freq_resp","","","img/blue_2bandit_b.png","70","img/blue_2bandit_b.png","70","test","","","","","","","","","","","2","","","","","","","","",""
"null","254614","SARL_v6","SARL_v6dysvkyb5","5e5291ff6c3d7d2a79ec869e","fixation","","","img/fixation.png","null","","","test","","","","","","","","","","","","","","","","","","","",""
"365.0000000000291","254981","SARL_v6","SARL_v6dysvkyb5","5e5291ff6c3d7d2a79ec869e","freq","","","img/blue_2bandit_b2.png","70","","70","test","1","","42","","","","circle","square","41","18","2","1","","","","","","","",""
"null","255417","SARL_v6","SARL_v6dysvkyb5","5e5291ff6c3d7d2a79ec869e","freq_resp","","","img/blue_2bandit_b.png","70","img/blue_2bandit_b.png","70","test","","","","","","","","","","","2","","","","","","","","",""
"null","255569","SARL_v6","SARL_v6dysvkyb5","5e5291ff6c3d7d2a79ec869e","fixation","","","img/fixation.png","null","","","test","","","","","","","","","","","","","","","","","","","",""
"387.0000000000291","255957","SARL_v6","SARL_v6dysvkyb5","5e5291ff6c3d7d2a79ec869e","freq","","","img/blue_2bandit_b2.png","70","","70","test","1","","43","","","","circle","square","42","19","2","1","","","","","","","",""
"null","256371","SARL_v6","SARL_v6dysvkyb5","5e5291ff6c3d7d2a79ec869e","freq_resp","","","img/blue_2bandit_b.png","70","img/blue_2bandit_b.png","70","test","","","","","","","","","","","2","","","","","","","","",""
"null","256523","SARL_v6","SARL_v6dysvkyb5","5e5291ff6c3d7d2a79ec869e","fixation","","","img/fixation.png","null","","","test","","","","","","","","","","","","","","","","","","","",""
"375","256899","SARL_v6","SARL_v6dysvkyb5","5e5291ff6c3d7d2a79ec869e","freq","","","img/blue_2bandit_b2.png","70","","70","test","1","","44","","","","circle","square","43","20","2","1","","","","","","","",""
"null","257325","SARL_v6","SARL_v6dysvkyb5","5e5291ff6c3d7d2a79ec869e","freq_resp","","","img/blue_2bandit_b.png","70","img/blue_2bandit_b.png","70","test","","","","","","","","","","","2","","","","","","","","",""
"null","257477","SARL_v6","SARL_v6dysvkyb5","5e5291ff6c3d7d2a79ec869e","fixation","","","img/fixation.png","null","","","test","","","","","","","","","","","","","","","","","","","",""
"340.9999999999418","257818","SARL_v6","SARL_v6dysvkyb5","5e5291ff6c3d7d2a79ec869e","freq","","","img/blue_2bandit_b2.png","70","","70","test","1","","45","","","","circle","square","44","21","2","1","","","","","","","",""
"null","258279","SARL_v6","SARL_v6dysvkyb5","5e5291ff6c3d7d2a79ec869e","freq_resp","","","img/blue_2bandit_b.png","70","img/blue_2bandit_b.png","70","test","","","","","","","","","","","2","","","","","","","","",""
"null","258431","SARL_v6","SARL_v6dysvkyb5","5e5291ff6c3d7d2a79ec869e","fixation","","","img/fixation.png","null","","","test","","","","","","","","","","","","","","","","","","","",""
"336.0000000000291","258768","SARL_v6","SARL_v6dysvkyb5","5e5291ff6c3d7d2a79ec869e","freq","","","img/blue_2bandit_b2.png","70","","70","test","1","","46","","","","circle","square","45","22","2","1","","","","","","","",""
"null","259233","SARL_v6","SARL_v6dysvkyb5","5e5291ff6c3d7d2a79ec869e","freq_resp","","","img/blue_2bandit_b.png","70","img/blue_2bandit_b.png","70","test","","","","","","","","","","","2","","","","","","","","",""
"null","259385","SARL_v6","SARL_v6dysvkyb5","5e5291ff6c3d7d2a79ec869e","fixation","","","img/fixation.png","null","","","test","","","","","","","","","","","","","","","","","","","",""
"315","259701","SARL_v6","SARL_v6dysvkyb5","5e5291ff6c3d7d2a79ec869e","freq","","","img/blue_2bandit_b2.png","70","","70","test","1","","47","","","","circle","square","46","23","2","1","","","","","","","",""
"null","260188","SARL_v6","SARL_v6dysvkyb5","5e5291ff6c3d7d2a79ec869e","freq_resp","","","img/blue_2bandit_b.png","70","img/blue_2bandit_b.png","70","test","","","","","","","","","","","2","","","","","","","","",""
"null","260339","SARL_v6","SARL_v6dysvkyb5","5e5291ff6c3d7d2a79ec869e","fixation","","","img/fixation.png","null","","","test","","","","","","","","","","","","","","","","","","","",""
"363.9999999999709","260704","SARL_v6","SARL_v6dysvkyb5","5e5291ff6c3d7d2a79ec869e","freq","","","img/blue_2bandit_b2.png","70","","70","test","1","","48","","","","circle","square","47","24","2","1","","","","","","","",""
"null","261142","SARL_v6","SARL_v6dysvkyb5","5e5291ff6c3d7d2a79ec869e","freq_resp","","","img/blue_2bandit_b.png","70","img/blue_2bandit_b.png","70","test","","","","","","","","","","","2","","","","","","","","",""
"null","261294","SARL_v6","SARL_v6dysvkyb5","5e5291ff6c3d7d2a79ec869e","fixation","","","img/fixation.png","null","","","test","","","","","","","","","","","","","","","","","","","",""
"430.0000000000291","261725","SARL_v6","SARL_v6dysvkyb5","5e5291ff6c3d7d2a79ec869e","rl","","","img/black_2bandit_b2.png","75","","0","test","","","49","","","-8","circle","square","","0","2","","75","-5","-8","-5","-8","square","2","0"
"null","262477","SARL_v6","SARL_v6dysvkyb5","5e5291ff6c3d7d2a79ec869e","feedback","","","<div class=""verylowPoints_sq""> -8 </div>","null","","na","test","","","NaN","","","","","","","","2","","75","","","","","","2",""
"493.9999999999418","262972","SARL_v6","SARL_v6dysvkyb5","5e5291ff6c3d7d2a79ec869e","freq","","","img/blue_2bandit_b2.png","70","","70","test","1","","50","","","","circle","square","48","1","3","1","","","","","","","",""
"null","263280","SARL_v6","SARL_v6dysvkyb5","5e5291ff6c3d7d2a79ec869e","freq_resp","","","img/blue_2bandit_b.png","70","img/blue_2bandit_b.png","70","test","","","","","","","","","","","3","","","","","","","","",""
"null","263431","SARL_v6","SARL_v6dysvkyb5","5e5291ff6c3d7d2a79ec869e","fixation","","","img/fixation.png","null","","","test","","","","","","","","","","","","","","","","","","","",""
"361","263794","SARL_v6","SARL_v6dysvkyb5","5e5291ff6c3d7d2a79ec869e","freq","","","img/blue_2bandit_b2.png","70","","70","test","1","","51","","","","circle","square","49","2","3","1","","","","","","","",""
"null","264235","SARL_v6","SARL_v6dysvkyb5","5e5291ff6c3d7d2a79ec869e","freq_resp","","","img/blue_2bandit_b.png","70","img/blue_2bandit_b.png","70","test","","","","","","","","","","","3","","","","","","","","",""
"null","264387","SARL_v6","SARL_v6dysvkyb5","5e5291ff6c3d7d2a79ec869e","fixation","","","img/fixation.png","null","","","test","","","","","","","","","","","","","","","","","","","",""
"315","264703","SARL_v6","SARL_v6dysvkyb5","5e5291ff6c3d7d2a79ec869e","freq","","","img/blue_2bandit_b2.png","70","","70","test","1","","52","","","","circle","square","50","3","3","1","","","","","","","",""
"null","265190","SARL_v6","SARL_v6dysvkyb5","5e5291ff6c3d7d2a79ec869e","freq_resp","","","img/blue_2bandit_b.png","70","img/blue_2bandit_b.png","70","test","","","","","","","","","","","3","","","","","","","","",""
"null","265342","SARL_v6","SARL_v6dysvkyb5","5e5291ff6c3d7d2a79ec869e","fixation","","","img/fixation.png","null","","","test","","","","","","","","","","","","","","","","","","","",""
"450","265793","SARL_v6","SARL_v6dysvkyb5","5e5291ff6c3d7d2a79ec869e","freq","","","img/blue_2bandit_b2.png","70","","70","test","1","","53","","","","circle","square","51","4","3","1","","","","","","","",""
"null","266145","SARL_v6","SARL_v6dysvkyb5","5e5291ff6c3d7d2a79ec869e","freq_resp","","","img/blue_2bandit_b.png","70","img/blue_2bandit_b.png","70","test","","","","","","","","","","","3","","","","","","","","",""
"null","266296","SARL_v6","SARL_v6dysvkyb5","5e5291ff6c3d7d2a79ec869e","fixation","","","img/fixation.png","null","","","test","","","","","","","","","","","","","","","","","","","",""
"338","266635","SARL_v6","SARL_v6dysvkyb5","5e5291ff6c3d7d2a79ec869e","freq","","","img/blue_2bandit_b2.png","70","","70","test","1","","54","","","","circle","square","52","5","3","1","","","","","","","",""
"null","267099","SARL_v6","SARL_v6dysvkyb5","5e5291ff6c3d7d2a79ec869e","freq_resp","","","img/blue_2bandit_b.png","70","img/blue_2bandit_b.png","70","test","","","","","","","","","","","3","","","","","","","","",""
"null","267251","SARL_v6","SARL_v6dysvkyb5","5e5291ff6c3d7d2a79ec869e","fixation","","","img/fixation.png","null","","","test","","","","","","","","","","","","","","","","","","","",""
"323.9999999999418","267576","SARL_v6","SARL_v6dysvkyb5","5e5291ff6c3d7d2a79ec869e","freq","","","img/blue_2bandit_b2.png","70","","70","test","1","","55","","","","circle","square","53","6","3","1","","","","","","","",""
"null","268054","SARL_v6","SARL_v6dysvkyb5","5e5291ff6c3d7d2a79ec869e","freq_resp","","","img/blue_2bandit_b.png","70","img/blue_2bandit_b.png","70","test","","","","","","","","","","","3","","","","","","","","",""
"null","268206","SARL_v6","SARL_v6dysvkyb5","5e5291ff6c3d7d2a79ec869e","fixation","","","img/fixation.png","null","","","test","","","","","","","","","","","","","","","","","","","",""
"235","268442","SARL_v6","SARL_v6dysvkyb5","5e5291ff6c3d7d2a79ec869e","freq","","","img/blue_2bandit_b2.png","70","","70","test","1","","56","","","","circle","square","54","7","3","1","","","","","","","",""
"null","269009","SARL_v6","SARL_v6dysvkyb5","5e5291ff6c3d7d2a79ec869e","freq_resp","","","img/blue_2bandit_b.png","70","img/blue_2bandit_b.png","70","test","","","","","","","","","","","3","","","","","","","","",""
"null","269161","SARL_v6","SARL_v6dysvkyb5","5e5291ff6c3d7d2a79ec869e","fixation","","","img/fixation.png","null","","","test","","","","","","","","","","","","","","","","","","","",""
"362","269523","SARL_v6","SARL_v6dysvkyb5","5e5291ff6c3d7d2a79ec869e","freq","","","img/blue_2bandit_b2.png","70","","70","test","1","","57","","","","circle","square","55","8","3","1","","","","","","","",""
"null","269963","SARL_v6","SARL_v6dysvkyb5","5e5291ff6c3d7d2a79ec869e","freq_resp","","","img/blue_2bandit_b.png","70","img/blue_2bandit_b.png","70","test","","","","","","","","","","","3","","","","","","","","",""
"null","270115","SARL_v6","SARL_v6dysvkyb5","5e5291ff6c3d7d2a79ec869e","fixation","","","img/fixation.png","null","","","test","","","","","","","","","","","","","","","","","","","",""
"317","270433","SARL_v6","SARL_v6dysvkyb5","5e5291ff6c3d7d2a79ec869e","freq","","","img/blue_2bandit_b2.png","70","","70","test","1","","58","","","","circle","square","56","9","3","1","","","","","","","",""
"null","270918","SARL_v6","SARL_v6dysvkyb5","5e5291ff6c3d7d2a79ec869e","freq_resp","","","img/blue_2bandit_b.png","70","img/blue_2bandit_b.png","70","test","","","","","","","","","","","3","","","","","","","","",""
"null","271070","SARL_v6","SARL_v6dysvkyb5","5e5291ff6c3d7d2a79ec869e","fixation","","","img/fixation.png","null","","","test","","","","","","","","","","","","","","","","","","","",""
"383","271454","SARL_v6","SARL_v6dysvkyb5","5e5291ff6c3d7d2a79ec869e","freq","","","img/blue_2bandit_b2.png","70","","70","test","1","","59","","","","circle","square","57","10","3","1","","","","","","","",""
"null","271872","SARL_v6","SARL_v6dysvkyb5","5e5291ff6c3d7d2a79ec869e","freq_resp","","","img/blue_2bandit_b.png","70","img/blue_2bandit_b.png","70","test","","","","","","","","","","","3","","","","","","","","",""
"null","272024","SARL_v6","SARL_v6dysvkyb5","5e5291ff6c3d7d2a79ec869e","fixation","","","img/fixation.png","null","","","test","","","","","","","","","","","","","","","","","","","",""
"297","272322","SARL_v6","SARL_v6dysvkyb5","5e5291ff6c3d7d2a79ec869e","freq","","","img/blue_2bandit_b2.png","70","","70","test","1","","60","","","","circle","square","58","11","3","1","","","","","","","",""
"null","272826","SARL_v6","SARL_v6dysvkyb5","5e5291ff6c3d7d2a79ec869e","freq_resp","","","img/blue_2bandit_b.png","70","img/blue_2bandit_b.png","70","test","","","","","","","","","","","3","","","","","","","","",""
"null","272978","SARL_v6","SARL_v6dysvkyb5","5e5291ff6c3d7d2a79ec869e","fixation","","","img/fixation.png","null","","","test","","","","","","","","","","","","","","","","","","","",""
"313","273291","SARL_v6","SARL_v6dysvkyb5","5e5291ff6c3d7d2a79ec869e","freq","","","img/blue_2bandit_b2.png","70","","70","test","1","","61","","","","circle","square","59","12","3","1","","","","","","","",""
"null","273780","SARL_v6","SARL_v6dysvkyb5","5e5291ff6c3d7d2a79ec869e","freq_resp","","","img/blue_2bandit_b.png","70","img/blue_2bandit_b.png","70","test","","","","","","","","","","","3","","","","","","","","",""
"null","273932","SARL_v6","SARL_v6dysvkyb5","5e5291ff6c3d7d2a79ec869e","fixation","","","img/fixation.png","null","","","test","","","","","","","","","","","","","","","","","","","",""
"290","274223","SARL_v6","SARL_v6dysvkyb5","5e5291ff6c3d7d2a79ec869e","freq","","","img/blue_2bandit_b2.png","70","","70","test","1","","62","","","","circle","square","60","13","3","1","","","","","","","",""
"null","274735","SARL_v6","SARL_v6dysvkyb5","5e5291ff6c3d7d2a79ec869e","freq_resp","","","img/blue_2bandit_b.png","70","img/blue_2bandit_b.png","70","test","","","","","","","","","","","3","","","","","","","","",""
"null","274887","SARL_v6","SARL_v6dysvkyb5","5e5291ff6c3d7d2a79ec869e","fixation","","","img/fixation.png","null","","","test","","","","","","","","","","","","","","","","","","","",""
"312","275200","SARL_v6","SARL_v6dysvkyb5","5e5291ff6c3d7d2a79ec869e","freq","","","img/blue_2bandit_b2.png","70","","70","test","1","","63","","","","circle","square","61","14","3","1","","","","","","","",""
"null","275690","SARL_v6","SARL_v6dysvkyb5","5e5291ff6c3d7d2a79ec869e","freq_resp","","","img/blue_2bandit_b.png","70","img/blue_2bandit_b.png","70","test","","","","","","","","","","","3","","","","","","","","",""
"null","275842","SARL_v6","SARL_v6dysvkyb5","5e5291ff6c3d7d2a79ec869e","fixation","","","img/fixation.png","null","","","test","","","","","","","","","","","","","","","","","","","",""
"354","276197","SARL_v6","SARL_v6dysvkyb5","5e5291ff6c3d7d2a79ec869e","freq","","","img/blue_2bandit_b2.png","70","","70","test","1","","64","","","","circle","square","62","15","3","1","","","","","","","",""
"null","276644","SARL_v6","SARL_v6dysvkyb5","5e5291ff6c3d7d2a79ec869e","freq_resp","","","img/blue_2bandit_b.png","70","img/blue_2bandit_b.png","70","test","","","","","","","","","","","3","","","","","","","","",""
"null","276796","SARL_v6","SARL_v6dysvkyb5","5e5291ff6c3d7d2a79ec869e","fixation","","","img/fixation.png","null","","","test","","","","","","","","","","","","","","","","","","","",""
"300","277097","SARL_v6","SARL_v6dysvkyb5","5e5291ff6c3d7d2a79ec869e","infreq","","","img/orange_2bandit_b2.png","70","","68","test","0","","65","","","","circle","square","63","16","3","0.9841269841269841","","","","","","","",""
"null","277599","SARL_v6","SARL_v6dysvkyb5","5e5291ff6c3d7d2a79ec869e","infreq_resp","","","img/orange_2bandit_b.png","70","img/orange_2bandit_b.png","68","test","","","","","","","","","","","3","","","","","","","","",""
"null","277750","SARL_v6","SARL_v6dysvkyb5","5e5291ff6c3d7d2a79ec869e","fixation","","","img/fixation.png","null","","","test","","","","","","","","","","","","","","","","","","","",""
"444.9999999999418","278197","SARL_v6","SARL_v6dysvkyb5","5e5291ff6c3d7d2a79ec869e","freq","","","img/blue_2bandit_b2.png","70","","70","test","1","","66","","","","circle","square","64","17","3","0.984375","","","","","","","",""
"null","278554","SARL_v6","SARL_v6dysvkyb5","5e5291ff6c3d7d2a79ec869e","freq_resp","","","img/blue_2bandit_b.png","70","img/blue_2bandit_b.png","70","test","","","","","","","","","","","3","","","","","","","","",""
"null","278705","SARL_v6","SARL_v6dysvkyb5","5e5291ff6c3d7d2a79ec869e","fixation","","","img/fixation.png","null","","","test","","","","","","","","","","","","","","","","","","","",""
"562","279268","SARL_v6","SARL_v6dysvkyb5","5e5291ff6c3d7d2a79ec869e","infreq","","","img/orange_2bandit_b2.png","68","","68","test","1","","67","","","","circle","square","65","18","3","0.9846153846153847","","","","","","","",""
"null","279507","SARL_v6","SARL_v6dysvkyb5","5e5291ff6c3d7d2a79ec869e","infreq_resp","","","img/orange_2bandit_b.png","68","img/orange_2bandit_b.png","68","test","","","","","","","","","","","3","","","","","","","","",""
"null","279659","SARL_v6","SARL_v6dysvkyb5","5e5291ff6c3d7d2a79ec869e","fixation","","","img/fixation.png","null","","","test","","","","","","","","","","","","","","","","","","","",""
"461","280122","SARL_v6","SARL_v6dysvkyb5","5e5291ff6c3d7d2a79ec869e","freq","","","img/blue_2bandit_b2.png","70","","70","test","1","","68","","","","circle","square","66","19","3","0.9848484848484849","","","","","","","",""
"null","280463","SARL_v6","SARL_v6dysvkyb5","5e5291ff6c3d7d2a79ec869e","freq_resp","","","img/blue_2bandit_b.png","70","img/blue_2bandit_b.png","70","test","","","","","","","","","","","3","","","","","","","","",""
"null","280615","SARL_v6","SARL_v6dysvkyb5","5e5291ff6c3d7d2a79ec869e","fixation","","","img/fixation.png","null","","","test","","","","","","","","","","","","","","","","","","","",""
"402","281018","SARL_v6","SARL_v6dysvkyb5","5e5291ff6c3d7d2a79ec869e","freq","","","img/blue_2bandit_b2.png","70","","70","test","1","","69","","","","circle","square","67","20","3","0.9850746268656716","","","","","","","",""
"null","281418","SARL_v6","SARL_v6dysvkyb5","5e5291ff6c3d7d2a79ec869e","freq_resp","","","img/blue_2bandit_b.png","70","img/blue_2bandit_b.png","70","test","","","","","","","","","","","3","","","","","","","","",""
"null","281569","SARL_v6","SARL_v6dysvkyb5","5e5291ff6c3d7d2a79ec869e","fixation","","","img/fixation.png","null","","","test","","","","","","","","","","","","","","","","","","","",""
"396.0000000000582","281966","SARL_v6","SARL_v6dysvkyb5","5e5291ff6c3d7d2a79ec869e","freq","","","img/blue_2bandit_b2.png","70","","70","test","1","","70","","","","circle","square","68","21","3","0.9852941176470589","","","","","","","",""
"null","282370","SARL_v6","SARL_v6dysvkyb5","5e5291ff6c3d7d2a79ec869e","freq_resp","","","img/blue_2bandit_b.png","70","img/blue_2bandit_b.png","70","test","","","","","","","","","","","3","","","","","","","","",""
"null","282522","SARL_v6","SARL_v6dysvkyb5","5e5291ff6c3d7d2a79ec869e","fixation","","","img/fixation.png","null","","","test","","","","","","","","","","","","","","","","","","","",""
"408","282930","SARL_v6","SARL_v6dysvkyb5","5e5291ff6c3d7d2a79ec869e","rl","","","img/black_2bandit_b2.png","74","","0","test","","","71","","","-4","circle","square","","0","3","","74","-4","-8","-4","-8","circle","3","0"
"null","283682","SARL_v6","SARL_v6dysvkyb5","5e5291ff6c3d7d2a79ec869e","feedback","","","<div class=""verylowPoints""> -4 </div>","null","","na","test","","","NaN","","","","","","","","3","","74","","","","","","3",""
"439","284122","SARL_v6","SARL_v6dysvkyb5","5e5291ff6c3d7d2a79ec869e","freq","","","img/blue_2bandit_b2.png","70","","70","test","1","","72","","","","circle","square","69","1","4","0.9855072463768116","","","","","","","",""
"null","284485","SARL_v6","SARL_v6dysvkyb5","5e5291ff6c3d7d2a79ec869e","freq_resp","","","img/blue_2bandit_b.png","70","img/blue_2bandit_b.png","70","test","","","","","","","","","","","4","","","","","","","","",""
"null","284637","SARL_v6","SARL_v6dysvkyb5","5e5291ff6c3d7d2a79ec869e","fixation","","","img/fixation.png","null","","","test","","","","","","","","","","","","","","","","","","","",""
"377","285015","SARL_v6","SARL_v6dysvkyb5","5e5291ff6c3d7d2a79ec869e","freq","","","img/blue_2bandit_b2.png","70","","70","test","1","","73","","","","circle","square","70","2","4","0.9857142857142858","","","","","","","",""
"null","285440","SARL_v6","SARL_v6dysvkyb5","5e5291ff6c3d7d2a79ec869e","freq_resp","","","img/blue_2bandit_b.png","70","img/blue_2bandit_b.png","70","test","","","","","","","","","","","4","","","","","","","","",""
"null","285592","SARL_v6","SARL_v6dysvkyb5","5e5291ff6c3d7d2a79ec869e","fixation","","","img/fixation.png","null","","","test","","","","","","","","","","","","","","","","","","","",""
"416","286008","SARL_v6","SARL_v6dysvkyb5","5e5291ff6c3d7d2a79ec869e","freq","","","img/blue_2bandit_b2.png","70","","70","test","1","","74","","","","circle","square","71","3","4","0.9859154929577465","","","","","","","",""
"null","286394","SARL_v6","SARL_v6dysvkyb5","5e5291ff6c3d7d2a79ec869e","freq_resp","","","img/blue_2bandit_b.png","70","img/blue_2bandit_b.png","70","test","","","","","","","","","","","4","","","","","","","","",""
"null","286546","SARL_v6","SARL_v6dysvkyb5","5e5291ff6c3d7d2a79ec869e","fixation","","","img/fixation.png","null","","","test","","","","","","","","","","","","","","","","","","","",""
"458","287005","SARL_v6","SARL_v6dysvkyb5","5e5291ff6c3d7d2a79ec869e","infreq","","","img/orange_2bandit_b2.png","68","","68","test","1","","75","","","","circle","square","72","4","4","0.9861111111111112","","","","","","","",""
"null","287349","SARL_v6","SARL_v6dysvkyb5","5e5291ff6c3d7d2a79ec869e","infreq_resp","","","img/orange_2bandit_b.png","68","img/orange_2bandit_b.png","68","test","","","","","","","","","","","4","","","","","","","","",""
"null","287501","SARL_v6","SARL_v6dysvkyb5","5e5291ff6c3d7d2a79ec869e","fixation","","","img/fixation.png","null","","","test","","","","","","","","","","","","","","","","","","","",""
"468.9999999999418","287971","SARL_v6","SARL_v6dysvkyb5","5e5291ff6c3d7d2a79ec869e","freq","","","img/blue_2bandit_b2.png","70","","70","test","1","","76","","","","circle","square","73","5","4","0.9863013698630136","","","","","","","",""
"null","288303","SARL_v6","SARL_v6dysvkyb5","5e5291ff6c3d7d2a79ec869e","freq_resp","","","img/blue_2bandit_b.png","70","img/blue_2bandit_b.png","70","test","","","","","","","","","","","4","","","","","","","","",""
"null","288455","SARL_v6","SARL_v6dysvkyb5","5e5291ff6c3d7d2a79ec869e","fixation","","","img/fixation.png","null","","","test","","","","","","","","","","","","","","","","","","","",""
"454","288910","SARL_v6","SARL_v6dysvkyb5","5e5291ff6c3d7d2a79ec869e","freq","","","img/blue_2bandit_b2.png","70","","70","test","1","","77","","","","circle","square","74","6","4","0.9864864864864865","","","","","","","",""
"null","289257","SARL_v6","SARL_v6dysvkyb5","5e5291ff6c3d7d2a79ec869e","freq_resp","","","img/blue_2bandit_b.png","70","img/blue_2bandit_b.png","70","test","","","","","","","","","","","4","","","","","","","","",""
"null","289409","SARL_v6","SARL_v6dysvkyb5","5e5291ff6c3d7d2a79ec869e","fixation","","","img/fixation.png","null","","","test","","","","","","","","","","","","","","","","","","","",""
"361","289771","SARL_v6","SARL_v6dysvkyb5","5e5291ff6c3d7d2a79ec869e","freq","","","img/blue_2bandit_b2.png","70","","70","test","1","","78","","","","circle","square","75","7","4","0.9866666666666667","","","","","","","",""
"null","290212","SARL_v6","SARL_v6dysvkyb5","5e5291ff6c3d7d2a79ec869e","freq_resp","","","img/blue_2bandit_b.png","70","img/blue_2bandit_b.png","70","test","","","","","","","","","","","4","","","","","","","","",""
"null","290364","SARL_v6","SARL_v6dysvkyb5","5e5291ff6c3d7d2a79ec869e","fixation","","","img/fixation.png","null","","","test","","","","","","","","","","","","","","","","","","","",""
"375","290739","SARL_v6","SARL_v6dysvkyb5","5e5291ff6c3d7d2a79ec869e","freq","","","img/blue_2bandit_b2.png","70","","70","test","1","","79","","","","circle","square","76","8","4","0.9868421052631579","","","","","","","",""
"null","291166","SARL_v6","SARL_v6dysvkyb5","5e5291ff6c3d7d2a79ec869e","freq_resp","","","img/blue_2bandit_b.png","70","img/blue_2bandit_b.png","70","test","","","","","","","","","","","4","","","","","","","","",""
"null","291318","SARL_v6","SARL_v6dysvkyb5","5e5291ff6c3d7d2a79ec869e","fixation","","","img/fixation.png","null","","","test","","","","","","","","","","","","","","","","","","","",""
"376","291694","SARL_v6","SARL_v6dysvkyb5","5e5291ff6c3d7d2a79ec869e","freq","","","img/blue_2bandit_b2.png","70","","70","test","1","","80","","","","circle","square","77","9","4","0.987012987012987","","","","","","","",""
"null","292120","SARL_v6","SARL_v6dysvkyb5","5e5291ff6c3d7d2a79ec869e","freq_resp","","","img/blue_2bandit_b.png","70","img/blue_2bandit_b.png","70","test","","","","","","","","","","","4","","","","","","","","",""
"null","292272","SARL_v6","SARL_v6dysvkyb5","5e5291ff6c3d7d2a79ec869e","fixation","","","img/fixation.png","null","","","test","","","","","","","","","","","","","","","","","","","",""
"354.0000000000582","292627","SARL_v6","SARL_v6dysvkyb5","5e5291ff6c3d7d2a79ec869e","freq","","","img/blue_2bandit_b2.png","70","","70","test","1","","81","","","","circle","square","78","10","4","0.9871794871794872","","","","","","","",""
"null","293074","SARL_v6","SARL_v6dysvkyb5","5e5291ff6c3d7d2a79ec869e","freq_resp","","","img/blue_2bandit_b.png","70","img/blue_2bandit_b.png","70","test","","","","","","","","","","","4","","","","","","","","",""
"null","293225","SARL_v6","SARL_v6dysvkyb5","5e5291ff6c3d7d2a79ec869e","fixation","","","img/fixation.png","null","","","test","","","","","","","","","","","","","","","","","","","",""
"315","293542","SARL_v6","SARL_v6dysvkyb5","5e5291ff6c3d7d2a79ec869e","freq","","","img/blue_2bandit_b2.png","70","","70","test","1","","82","","","","circle","square","79","11","4","0.9873417721518988","","","","","","","",""
"null","294029","SARL_v6","SARL_v6dysvkyb5","5e5291ff6c3d7d2a79ec869e","freq_resp","","","img/blue_2bandit_b.png","70","img/blue_2bandit_b.png","70","test","","","","","","","","","","","4","","","","","","","","",""
"null","294181","SARL_v6","SARL_v6dysvkyb5","5e5291ff6c3d7d2a79ec869e","fixation","","","img/fixation.png","null","","","test","","","","","","","","","","","","","","","","","","","",""
"null","294983","SARL_v6","SARL_v6dysvkyb5","5e5291ff6c3d7d2a79ec869e","infreq","","","img/orange_2bandit_b2.png","null","","68","test","0","","83","","","","circle","square","80","12","4","0.975","","","","","","","",""
"null","295134","SARL_v6","SARL_v6dysvkyb5","5e5291ff6c3d7d2a79ec869e","fixation","","","img/fixation.png","null","","","test","","","","","","","","","","","","","","","","","","","",""
"431","295566","SARL_v6","SARL_v6dysvkyb5","5e5291ff6c3d7d2a79ec869e","freq","","","img/blue_2bandit_b2.png","70","","70","test","1","","84","","","","circle","square","81","13","4","0.9753086419753086","","","","","","","",""
"null","295937","SARL_v6","SARL_v6dysvkyb5","5e5291ff6c3d7d2a79ec869e","freq_resp","","","img/blue_2bandit_b.png","70","img/blue_2bandit_b.png","70","test","","","","","","","","","","","4","","","","","","","","",""
"null","296089","SARL_v6","SARL_v6dysvkyb5","5e5291ff6c3d7d2a79ec869e","fixation","","","img/fixation.png","null","","","test","","","","","","","","","","","","","","","","","","","",""
"367","296457","SARL_v6","SARL_v6dysvkyb5","5e5291ff6c3d7d2a79ec869e","freq","","","img/blue_2bandit_b2.png","70","","70","test","1","","85","","","","circle","square","82","14","4","0.975609756097561","","","","","","","",""
"null","296892","SARL_v6","SARL_v6dysvkyb5","5e5291ff6c3d7d2a79ec869e","freq_resp","","","img/blue_2bandit_b.png","70","img/blue_2bandit_b.png","70","test","","","","","","","","","","","4","","","","","","","","",""
"null","297044","SARL_v6","SARL_v6dysvkyb5","5e5291ff6c3d7d2a79ec869e","fixation","","","img/fixation.png","null","","","test","","","","","","","","","","","","","","","","","","","",""
"362","297407","SARL_v6","SARL_v6dysvkyb5","5e5291ff6c3d7d2a79ec869e","freq","","","img/blue_2bandit_b2.png","70","","70","test","1","","86","","","","circle","square","83","15","4","0.9759036144578314","","","","","","","",""
"null","297847","SARL_v6","SARL_v6dysvkyb5","5e5291ff6c3d7d2a79ec869e","freq_resp","","","img/blue_2bandit_b.png","70","img/blue_2bandit_b.png","70","test","","","","","","","","","","","4","","","","","","","","",""
"null","297998","SARL_v6","SARL_v6dysvkyb5","5e5291ff6c3d7d2a79ec869e","fixation","","","img/fixation.png","null","","","test","","","","","","","","","","","","","","","","","","","",""
"361","298360","SARL_v6","SARL_v6dysvkyb5","5e5291ff6c3d7d2a79ec869e","freq","","","img/blue_2bandit_b2.png","70","","70","test","1","","87","","","","circle","square","84","16","4","0.9761904761904762","","","","","","","",""
"null","298801","SARL_v6","SARL_v6dysvkyb5","5e5291ff6c3d7d2a79ec869e","freq_resp","","","img/blue_2bandit_b.png","70","img/blue_2bandit_b.png","70","test","","","","","","","","","","","4","","","","","","","","",""
"null","298953","SARL_v6","SARL_v6dysvkyb5","5e5291ff6c3d7d2a79ec869e","fixation","","","img/fixation.png","null","","","test","","","","","","","","","","","","","","","","","","","",""
"304","299258","SARL_v6","SARL_v6dysvkyb5","5e5291ff6c3d7d2a79ec869e","freq","","","img/blue_2bandit_b2.png","70","","70","test","1","","88","","","","circle","square","85","17","4","0.9764705882352941","","","","","","","",""
"null","299756","SARL_v6","SARL_v6dysvkyb5","5e5291ff6c3d7d2a79ec869e","freq_resp","","","img/blue_2bandit_b.png","70","img/blue_2bandit_b.png","70","test","","","","","","","","","","","4","","","","","","","","",""
"null","299908","SARL_v6","SARL_v6dysvkyb5","5e5291ff6c3d7d2a79ec869e","fixation","","","img/fixation.png","null","","","test","","","","","","","","","","","","","","","","","","","",""
"348","300257","SARL_v6","SARL_v6dysvkyb5","5e5291ff6c3d7d2a79ec869e","freq","","","img/blue_2bandit_b2.png","70","","70","test","1","","89","","","","circle","square","86","18","4","0.9767441860465116","","","","","","","",""
"null","300711","SARL_v6","SARL_v6dysvkyb5","5e5291ff6c3d7d2a79ec869e","freq_resp","","","img/blue_2bandit_b.png","70","img/blue_2bandit_b.png","70","test","","","","","","","","","","","4","","","","","","","","",""
"null","300863","SARL_v6","SARL_v6dysvkyb5","5e5291ff6c3d7d2a79ec869e","fixation","","","img/fixation.png","null","","","test","","","","","","","","","","","","","","","","","","","",""
"314","301178","SARL_v6","SARL_v6dysvkyb5","5e5291ff6c3d7d2a79ec869e","freq","","","img/blue_2bandit_b2.png","70","","70","test","1","","90","","","","circle","square","87","19","4","0.9770114942528736","","","","","","","",""
"null","301666","SARL_v6","SARL_v6dysvkyb5","5e5291ff6c3d7d2a79ec869e","freq_resp","","","img/blue_2bandit_b.png","70","img/blue_2bandit_b.png","70","test","","","","","","","","","","","4","","","","","","","","",""
"null","301817","SARL_v6","SARL_v6dysvkyb5","5e5291ff6c3d7d2a79ec869e","fixation","","","img/fixation.png","null","","","test","","","","","","","","","","","","","","","","","","","",""
"357.0000000000582","302175","SARL_v6","SARL_v6dysvkyb5","5e5291ff6c3d7d2a79ec869e","freq","","","img/blue_2bandit_b2.png","70","","70","test","1","","91","","","","circle","square","88","20","4","0.9772727272727273","","","","","","","",""
"null","302618","SARL_v6","SARL_v6dysvkyb5","5e5291ff6c3d7d2a79ec869e","freq_resp","","","img/blue_2bandit_b.png","70","img/blue_2bandit_b.png","70","test","","","","","","","","","","","4","","","","","","","","",""
"null","302770","SARL_v6","SARL_v6dysvkyb5","5e5291ff6c3d7d2a79ec869e","fixation","","","img/fixation.png","null","","","test","","","","","","","","","","","","","","","","","","","",""
"320.0000000000582","303091","SARL_v6","SARL_v6dysvkyb5","5e5291ff6c3d7d2a79ec869e","freq","","","img/blue_2bandit_b2.png","70","","70","test","1","","92","","","","circle","square","89","21","4","0.9775280898876404","","","","","","","",""
"null","303572","SARL_v6","SARL_v6dysvkyb5","5e5291ff6c3d7d2a79ec869e","freq_resp","","","img/blue_2bandit_b.png","70","img/blue_2bandit_b.png","70","test","","","","","","","","","","","4","","","","","","","","",""
"null","303723","SARL_v6","SARL_v6dysvkyb5","5e5291ff6c3d7d2a79ec869e","fixation","","","img/fixation.png","null","","","test","","","","","","","","","","","","","","","","","","","",""
"321","304046","SARL_v6","SARL_v6dysvkyb5","5e5291ff6c3d7d2a79ec869e","freq","","","img/blue_2bandit_b2.png","70","","70","test","1","","93","","","","circle","square","90","22","4","0.9777777777777777","","","","","","","",""
"null","304527","SARL_v6","SARL_v6dysvkyb5","5e5291ff6c3d7d2a79ec869e","freq_resp","","","img/blue_2bandit_b.png","70","img/blue_2bandit_b.png","70","test","","","","","","","","","","","4","","","","","","","","",""
"null","304679","SARL_v6","SARL_v6dysvkyb5","5e5291ff6c3d7d2a79ec869e","fixation","","","img/fixation.png","null","","","test","","","","","","","","","","","","","","","","","","","",""
"330","305010","SARL_v6","SARL_v6dysvkyb5","5e5291ff6c3d7d2a79ec869e","freq","","","img/blue_2bandit_b2.png","70","","70","test","1","","94","","","","circle","square","91","23","4","0.978021978021978","","","","","","","",""
"null","305482","SARL_v6","SARL_v6dysvkyb5","5e5291ff6c3d7d2a79ec869e","freq_resp","","","img/blue_2bandit_b.png","70","img/blue_2bandit_b.png","70","test","","","","","","","","","","","4","","","","","","","","",""
"null","305634","SARL_v6","SARL_v6dysvkyb5","5e5291ff6c3d7d2a79ec869e","fixation","","","img/fixation.png","null","","","test","","","","","","","","","","","","","","","","","","","",""
"347","305982","SARL_v6","SARL_v6dysvkyb5","5e5291ff6c3d7d2a79ec869e","freq","","","img/blue_2bandit_b2.png","70","","70","test","1","","95","","","","circle","square","92","24","4","0.9782608695652174","","","","","","","",""
"null","306437","SARL_v6","SARL_v6dysvkyb5","5e5291ff6c3d7d2a79ec869e","freq_resp","","","img/blue_2bandit_b.png","70","img/blue_2bandit_b.png","70","test","","","","","","","","","","","4","","","","","","","","",""
"null","306589","SARL_v6","SARL_v6dysvkyb5","5e5291ff6c3d7d2a79ec869e","fixation","","","img/fixation.png","null","","","test","","","","","","","","","","","","","","","","","","","",""
"341","306931","SARL_v6","SARL_v6dysvkyb5","5e5291ff6c3d7d2a79ec869e","freq","","","img/blue_2bandit_b2.png","70","","70","test","1","","96","","","","circle","square","93","25","4","0.978494623655914","","","","","","","",""
"null","307392","SARL_v6","SARL_v6dysvkyb5","5e5291ff6c3d7d2a79ec869e","freq_resp","","","img/blue_2bandit_b.png","70","img/blue_2bandit_b.png","70","test","","","","","","","","","","","4","","","","","","","","",""
"null","307544","SARL_v6","SARL_v6dysvkyb5","5e5291ff6c3d7d2a79ec869e","fixation","","","img/fixation.png","null","","","test","","","","","","","","","","","","","","","","","","","",""
"427","307972","SARL_v6","SARL_v6dysvkyb5","5e5291ff6c3d7d2a79ec869e","rl","","","img/black_2bandit_b2.png","74","","0","test","","","97","","","0","circle","square","","0","4","","74","0","-12","0","-12","circle","4","0"
"null","308724","SARL_v6","SARL_v6dysvkyb5","5e5291ff6c3d7d2a79ec869e","feedback","","","<div class=""verylowPoints""> 0 </div>","null","","na","test","","","NaN","","","","","","","","4","","74","","","","","","4",""
"567","309292","SARL_v6","SARL_v6dysvkyb5","5e5291ff6c3d7d2a79ec869e","freq","","","img/blue_2bandit_b2.png","70","","70","test","1","","98","","","","circle","square","94","1","5","0.9787234042553191","","","","","","","",""
"null","309526","SARL_v6","SARL_v6dysvkyb5","5e5291ff6c3d7d2a79ec869e","freq_resp","","","img/blue_2bandit_b.png","70","img/blue_2bandit_b.png","70","test","","","","","","","","","","","5","","","","","","","","",""
"null","309678","SARL_v6","SARL_v6dysvkyb5","5e5291ff6c3d7d2a79ec869e","fixation","","","img/fixation.png","null","","","test","","","","","","","","","","","","","","","","","","","",""
"607","310286","SARL_v6","SARL_v6dysvkyb5","5e5291ff6c3d7d2a79ec869e","infreq","","","img/orange_2bandit_b2.png","68","","68","test","1","","99","","","","circle","square","95","2","5","0.9789473684210527","","","","","","","",""
"null","310481","SARL_v6","SARL_v6dysvkyb5","5e5291ff6c3d7d2a79ec869e","infreq_resp","","","img/orange_2bandit_b.png","68","img/orange_2bandit_b.png","68","test","","","","","","","","","","","5","","","","","","","","",""
"null","310633","SARL_v6","SARL_v6dysvkyb5","5e5291ff6c3d7d2a79ec869e","fixation","","","img/fixation.png","null","","","test","","","","","","","","","","","","","","","","","","","",""
"609","311243","SARL_v6","SARL_v6dysvkyb5","5e5291ff6c3d7d2a79ec869e","freq","","","img/blue_2bandit_b2.png","70","","70","test","1","","100","","","","circle","square","96","3","5","0.9791666666666666","","","","","","","",""
"null","311436","SARL_v6","SARL_v6dysvkyb5","5e5291ff6c3d7d2a79ec869e","freq_resp","","","img/blue_2bandit_b.png","70","img/blue_2bandit_b.png","70","test","","","","","","","","","","","5","","","","","","","","",""
"null","311588","SARL_v6","SARL_v6dysvkyb5","5e5291ff6c3d7d2a79ec869e","fixation","","","img/fixation.png","null","","","test","","","","","","","","","","","","","","","","","","","",""
"652","312241","SARL_v6","SARL_v6dysvkyb5","5e5291ff6c3d7d2a79ec869e","freq","","","img/blue_2bandit_b2.png","70","","70","test","1","","101","","","","circle","square","97","4","5","0.979381443298969","","","","","","","",""
"null","312391","SARL_v6","SARL_v6dysvkyb5","5e5291ff6c3d7d2a79ec869e","freq_resp","","","img/blue_2bandit_b.png","70","img/blue_2bandit_b.png","70","test","","","","","","","","","","","5","","","","","","","","",""
"null","312543","SARL_v6","SARL_v6dysvkyb5","5e5291ff6c3d7d2a79ec869e","fixation","","","img/fixation.png","null","","","test","","","","","","","","","","","","","","","","","","","",""
"409","312953","SARL_v6","SARL_v6dysvkyb5","5e5291ff6c3d7d2a79ec869e","freq","","","img/blue_2bandit_b2.png","70","","70","test","1","","102","","","","circle","square","98","5","5","0.9795918367346939","","","","","","","",""
"null","313346","SARL_v6","SARL_v6dysvkyb5","5e5291ff6c3d7d2a79ec869e","freq_resp","","","img/blue_2bandit_b.png","70","img/blue_2bandit_b.png","70","test","","","","","","","","","","","5","","","","","","","","",""
"null","313497","SARL_v6","SARL_v6dysvkyb5","5e5291ff6c3d7d2a79ec869e","fixation","","","img/fixation.png","null","","","test","","","","","","","","","","","","","","","","","","","",""
"313.0000000000582","313812","SARL_v6","SARL_v6dysvkyb5","5e5291ff6c3d7d2a79ec869e","freq","","","img/blue_2bandit_b2.png","70","","70","test","1","","103","","","","circle","square","99","6","5","0.9797979797979798","","","","","","","",""
"null","314300","SARL_v6","SARL_v6dysvkyb5","5e5291ff6c3d7d2a79ec869e","freq_resp","","","img/blue_2bandit_b.png","70","img/blue_2bandit_b.png","70","test","","","","","","","","","","","5","","","","","","","","",""
"null","314451","SARL_v6","SARL_v6dysvkyb5","5e5291ff6c3d7d2a79ec869e","fixation","","","img/fixation.png","null","","","test","","","","","","","","","","","","","","","","","","","",""
"340","314792","SARL_v6","SARL_v6dysvkyb5","5e5291ff6c3d7d2a79ec869e","freq","","","img/blue_2bandit_b2.png","70","","70","test","1","","104","","","","circle","square","100","7","5","0.98","","","","","","","",""
"null","315254","SARL_v6","SARL_v6dysvkyb5","5e5291ff6c3d7d2a79ec869e","freq_resp","","","img/blue_2bandit_b.png","70","img/blue_2bandit_b.png","70","test","","","","","","","","","","","5","","","","","","","","",""
"null","315406","SARL_v6","SARL_v6dysvkyb5","5e5291ff6c3d7d2a79ec869e","fixation","","","img/fixation.png","null","","","test","","","","","","","","","","","","","","","","","","","",""
"377","315784","SARL_v6","SARL_v6dysvkyb5","5e5291ff6c3d7d2a79ec869e","freq","","","img/blue_2bandit_b2.png","70","","70","test","1","","105","","","","circle","square","101","8","5","0.9801980198019802","","","","","","","",""
"null","316209","SARL_v6","SARL_v6dysvkyb5","5e5291ff6c3d7d2a79ec869e","freq_resp","","","img/blue_2bandit_b.png","70","img/blue_2bandit_b.png","70","test","","","","","","","","","","","5","","","","","","","","",""
"null","316360","SARL_v6","SARL_v6dysvkyb5","5e5291ff6c3d7d2a79ec869e","fixation","","","img/fixation.png","null","","","test","","","","","","","","","","","","","","","","","","","",""
"326","316688","SARL_v6","SARL_v6dysvkyb5","5e5291ff6c3d7d2a79ec869e","freq","","","img/blue_2bandit_b2.png","70","","70","test","1","","106","","","","circle","square","102","9","5","0.9803921568627451","","","","","","","",""
"null","317164","SARL_v6","SARL_v6dysvkyb5","5e5291ff6c3d7d2a79ec869e","freq_resp","","","img/blue_2bandit_b.png","70","img/blue_2bandit_b.png","70","test","","","","","","","","","","","5","","","","","","","","",""
"null","317316","SARL_v6","SARL_v6dysvkyb5","5e5291ff6c3d7d2a79ec869e","fixation","","","img/fixation.png","null","","","test","","","","","","","","","","","","","","","","","","","",""
"355","317672","SARL_v6","SARL_v6dysvkyb5","5e5291ff6c3d7d2a79ec869e","freq","","","img/blue_2bandit_b2.png","70","","70","test","1","","107","","","","circle","square","103","10","5","0.9805825242718447","","","","","","","",""
"null","318119","SARL_v6","SARL_v6dysvkyb5","5e5291ff6c3d7d2a79ec869e","freq_resp","","","img/blue_2bandit_b.png","70","img/blue_2bandit_b.png","70","test","","","","","","","","","","","5","","","","","","","","",""
"null","318271","SARL_v6","SARL_v6dysvkyb5","5e5291ff6c3d7d2a79ec869e","fixation","","","img/fixation.png","null","","","test","","","","","","","","","","","","","","","","","","","",""
"375","318647","SARL_v6","SARL_v6dysvkyb5","5e5291ff6c3d7d2a79ec869e","freq","","","img/blue_2bandit_b2.png","70","","70","test","1","","108","","","","circle","square","104","11","5","0.9807692307692307","","","","","","","",""
"null","319074","SARL_v6","SARL_v6dysvkyb5","5e5291ff6c3d7d2a79ec869e","freq_resp","","","img/blue_2bandit_b.png","70","img/blue_2bandit_b.png","70","test","","","","","","","","","","","5","","","","","","","","",""
"null","319226","SARL_v6","SARL_v6dysvkyb5","5e5291ff6c3d7d2a79ec869e","fixation","","","img/fixation.png","null","","","test","","","","","","","","","","","","","","","","","","","",""
"318","319544","SARL_v6","SARL_v6dysvkyb5","5e5291ff6c3d7d2a79ec869e","infreq","","","img/orange_2bandit_b2.png","70","","68","test","0","","109","","","","circle","square","105","12","5","0.9714285714285714","","","","","","","",""
"null","320028","SARL_v6","SARL_v6dysvkyb5","5e5291ff6c3d7d2a79ec869e","infreq_resp","","","img/orange_2bandit_b.png","70","img/orange_2bandit_b.png","68","test","","","","","","","","","","","5","","","","","","","","",""
"null","320180","SARL_v6","SARL_v6dysvkyb5","5e5291ff6c3d7d2a79ec869e","fixation","","","img/fixation.png","null","","","test","","","","","","","","","","","","","","","","","","","",""
"312","320492","SARL_v6","SARL_v6dysvkyb5","5e5291ff6c3d7d2a79ec869e","freq","","","img/blue_2bandit_b2.png","70","","70","test","1","","110","","","","circle","square","106","13","5","0.9716981132075472","","","","","","","",""
"null","320982","SARL_v6","SARL_v6dysvkyb5","5e5291ff6c3d7d2a79ec869e","freq_resp","","","img/blue_2bandit_b.png","70","img/blue_2bandit_b.png","70","test","","","","","","","","","","","5","","","","","","","","",""
"null","321134","SARL_v6","SARL_v6dysvkyb5","5e5291ff6c3d7d2a79ec869e","fixation","","","img/fixation.png","null","","","test","","","","","","","","","","","","","","","","","","","",""
"321","321456","SARL_v6","SARL_v6dysvkyb5","5e5291ff6c3d7d2a79ec869e","freq","","","img/blue_2bandit_b2.png","70","","70","test","1","","111","","","","circle","square","107","14","5","0.9719626168224299","","","","","","","",""
"null","321937","SARL_v6","SARL_v6dysvkyb5","5e5291ff6c3d7d2a79ec869e","freq_resp","","","img/blue_2bandit_b.png","70","img/blue_2bandit_b.png","70","test","","","","","","","","","","","5","","","","","","","","",""
"null","322089","SARL_v6","SARL_v6dysvkyb5","5e5291ff6c3d7d2a79ec869e","fixation","","","img/fixation.png","null","","","test","","","","","","","","","","","","","","","","","","","",""
"465","322554","SARL_v6","SARL_v6dysvkyb5","5e5291ff6c3d7d2a79ec869e","freq","","","img/blue_2bandit_b2.png","70","","70","test","1","","112","","","","circle","square","108","15","5","0.9722222222222222","","","","","","","",""
"null","322891","SARL_v6","SARL_v6dysvkyb5","5e5291ff6c3d7d2a79ec869e","freq_resp","","","img/blue_2bandit_b.png","70","img/blue_2bandit_b.png","70","test","","","","","","","","","","","5","","","","","","","","",""
"null","323043","SARL_v6","SARL_v6dysvkyb5","5e5291ff6c3d7d2a79ec869e","fixation","","","img/fixation.png","null","","","test","","","","","","","","","","","","","","","","","","","",""
"509","323552","SARL_v6","SARL_v6dysvkyb5","5e5291ff6c3d7d2a79ec869e","freq","","","img/blue_2bandit_b2.png","70","","70","test","1","","113","","","","circle","square","109","16","5","0.9724770642201835","","","","","","","",""
"null","323845","SARL_v6","SARL_v6dysvkyb5","5e5291ff6c3d7d2a79ec869e","freq_resp","","","img/blue_2bandit_b.png","70","img/blue_2bandit_b.png","70","test","","","","","","","","","","","5","","","","","","","","",""
"null","323997","SARL_v6","SARL_v6dysvkyb5","5e5291ff6c3d7d2a79ec869e","fixation","","","img/fixation.png","null","","","test","","","","","","","","","","","","","","","","","","","",""
"401","324399","SARL_v6","SARL_v6dysvkyb5","5e5291ff6c3d7d2a79ec869e","freq","","","img/blue_2bandit_b2.png","70","","70","test","1","","114","","","","circle","square","110","17","5","0.9727272727272728","","","","","","","",""
"null","324800","SARL_v6","SARL_v6dysvkyb5","5e5291ff6c3d7d2a79ec869e","freq_resp","","","img/blue_2bandit_b.png","70","img/blue_2bandit_b.png","70","test","","","","","","","","","","","5","","","","","","","","",""
"null","324951","SARL_v6","SARL_v6dysvkyb5","5e5291ff6c3d7d2a79ec869e","fixation","","","img/fixation.png","null","","","test","","","","","","","","","","","","","","","","","","","",""
"336","325288","SARL_v6","SARL_v6dysvkyb5","5e5291ff6c3d7d2a79ec869e","freq","","","img/blue_2bandit_b2.png","70","","70","test","1","","115","","","","circle","square","111","18","5","0.972972972972973","","","","","","","",""
"null","325754","SARL_v6","SARL_v6dysvkyb5","5e5291ff6c3d7d2a79ec869e","freq_resp","","","img/blue_2bandit_b.png","70","img/blue_2bandit_b.png","70","test","","","","","","","","","","","5","","","","","","","","",""
"null","325906","SARL_v6","SARL_v6dysvkyb5","5e5291ff6c3d7d2a79ec869e","fixation","","","img/fixation.png","null","","","test","","","","","","","","","","","","","","","","","","","",""
"361","326268","SARL_v6","SARL_v6dysvkyb5","5e5291ff6c3d7d2a79ec869e","freq","","","img/blue_2bandit_b2.png","70","","70","test","1","","116","","","","circle","square","112","19","5","0.9732142857142857","","","","","","","",""
"null","326709","SARL_v6","SARL_v6dysvkyb5","5e5291ff6c3d7d2a79ec869e","freq_resp","","","img/blue_2bandit_b.png","70","img/blue_2bandit_b.png","70","test","","","","","","","","","","","5","","","","","","","","",""
"null","326860","SARL_v6","SARL_v6dysvkyb5","5e5291ff6c3d7d2a79ec869e","fixation","","","img/fixation.png","null","","","test","","","","","","","","","","","","","","","","","","","",""
"351","327213","SARL_v6","SARL_v6dysvkyb5","5e5291ff6c3d7d2a79ec869e","freq","","","img/blue_2bandit_b2.png","70","","70","test","1","","117","","","","circle","square","113","20","5","0.9734513274336283","","","","","","","",""
"null","327663","SARL_v6","SARL_v6dysvkyb5","5e5291ff6c3d7d2a79ec869e","freq_resp","","","img/blue_2bandit_b.png","70","img/blue_2bandit_b.png","70","test","","","","","","","","","","","5","","","","","","","","",""
"null","327814","SARL_v6","SARL_v6dysvkyb5","5e5291ff6c3d7d2a79ec869e","fixation","","","img/fixation.png","null","","","test","","","","","","","","","","","","","","","","","","","",""
"346","328161","SARL_v6","SARL_v6dysvkyb5","5e5291ff6c3d7d2a79ec869e","freq","","","img/blue_2bandit_b2.png","70","","70","test","1","","118","","","","circle","square","114","21","5","0.9736842105263158","","","","","","","",""
"null","328617","SARL_v6","SARL_v6dysvkyb5","5e5291ff6c3d7d2a79ec869e","freq_resp","","","img/blue_2bandit_b.png","70","img/blue_2bandit_b.png","70","test","","","","","","","","","","","5","","","","","","","","",""
"null","328769","SARL_v6","SARL_v6dysvkyb5","5e5291ff6c3d7d2a79ec869e","fixation","","","img/fixation.png","null","","","test","","","","","","","","","","","","","","","","","","","",""
"402","329172","SARL_v6","SARL_v6dysvkyb5","5e5291ff6c3d7d2a79ec869e","rl","","","img/black_2bandit_b2.png","75","","0","test","","","119","","","-7","circle","square","","0","5","","75","4","-7","4","-7","square","5","0"
"null","329923","SARL_v6","SARL_v6dysvkyb5","5e5291ff6c3d7d2a79ec869e","feedback","","","<div class=""verylowPoints_sq""> -7 </div>","null","","na","test","","","NaN","","","","","","","","5","","75","","","","","","5",""
"400.9999999999418","330326","SARL_v6","SARL_v6dysvkyb5","5e5291ff6c3d7d2a79ec869e","freq","","","img/blue_2bandit_b2.png","70","","70","test","1","","120","","","","circle","square","115","1","6","0.9739130434782609","","","","","","","",""
"null","330727","SARL_v6","SARL_v6dysvkyb5","5e5291ff6c3d7d2a79ec869e","freq_resp","","","img/blue_2bandit_b.png","70","img/blue_2bandit_b.png","70","test","","","","","","","","","","","6","","","","","","","","",""
"null","330878","SARL_v6","SARL_v6dysvkyb5","5e5291ff6c3d7d2a79ec869e","fixation","","","img/fixation.png","null","","","test","","","","","","","","","","","","","","","","","","","",""
"367","331247","SARL_v6","SARL_v6dysvkyb5","5e5291ff6c3d7d2a79ec869e","freq","","","img/blue_2bandit_b2.png","70","","70","test","1","","121","","","","circle","square","116","2","6","0.9741379310344828","","","","","","","",""
"null","331682","SARL_v6","SARL_v6dysvkyb5","5e5291ff6c3d7d2a79ec869e","freq_resp","","","img/blue_2bandit_b.png","70","img/blue_2bandit_b.png","70","test","","","","","","","","","","","6","","","","","","","","",""
"null","331834","SARL_v6","SARL_v6dysvkyb5","5e5291ff6c3d7d2a79ec869e","fixation","","","img/fixation.png","null","","","test","","","","","","","","","","","","","","","","","","","",""
"314","332149","SARL_v6","SARL_v6dysvkyb5","5e5291ff6c3d7d2a79ec869e","freq","","","img/blue_2bandit_b2.png","70","","70","test","1","","122","","","","circle","square","117","3","6","0.9743589743589743","","","","","","","",""
"null","332637","SARL_v6","SARL_v6dysvkyb5","5e5291ff6c3d7d2a79ec869e","freq_resp","","","img/blue_2bandit_b.png","70","img/blue_2bandit_b.png","70","test","","","","","","","","","","","6","","","","","","","","",""
"null","332789","SARL_v6","SARL_v6dysvkyb5","5e5291ff6c3d7d2a79ec869e","fixation","","","img/fixation.png","null","","","test","","","","","","","","","","","","","","","","","","","",""
"297","333087","SARL_v6","SARL_v6dysvkyb5","5e5291ff6c3d7d2a79ec869e","freq","","","img/blue_2bandit_b2.png","70","","70","test","1","","123","","","","circle","square","118","4","6","0.9745762711864406","","","","","","","",""
"null","333592","SARL_v6","SARL_v6dysvkyb5","5e5291ff6c3d7d2a79ec869e","freq_resp","","","img/blue_2bandit_b.png","70","img/blue_2bandit_b.png","70","test","","","","","","","","","","","6","","","","","","","","",""
"null","333744","SARL_v6","SARL_v6dysvkyb5","5e5291ff6c3d7d2a79ec869e","fixation","","","img/fixation.png","null","","","test","","","","","","","","","","","","","","","","","","","",""
"201","333946","SARL_v6","SARL_v6dysvkyb5","5e5291ff6c3d7d2a79ec869e","freq","","","img/blue_2bandit_b2.png","70","","70","test","1","","124","","","","circle","square","119","5","6","0.9747899159663865","","","","","","","",""
"null","334547","SARL_v6","SARL_v6dysvkyb5","5e5291ff6c3d7d2a79ec869e","freq_resp","","","img/blue_2bandit_b.png","70","img/blue_2bandit_b.png","70","test","","","","","","","","","","","6","","","","","","","","",""
"null","334699","SARL_v6","SARL_v6dysvkyb5","5e5291ff6c3d7d2a79ec869e","fixation","","","img/fixation.png","null","","","test","","","","","","","","","","","","","","","","","","","",""
"292","334992","SARL_v6","SARL_v6dysvkyb5","5e5291ff6c3d7d2a79ec869e","freq","","","img/blue_2bandit_b2.png","70","","70","test","1","","125","","","","circle","square","120","6","6","0.975","","","","","","","",""
"null","335502","SARL_v6","SARL_v6dysvkyb5","5e5291ff6c3d7d2a79ec869e","freq_resp","","","img/blue_2bandit_b.png","70","img/blue_2bandit_b.png","70","test","","","","","","","","","","","6","","","","","","","","",""
"null","335653","SARL_v6","SARL_v6dysvkyb5","5e5291ff6c3d7d2a79ec869e","fixation","","","img/fixation.png","null","","","test","","","","","","","","","","","","","","","","","","","",""
"291","335946","SARL_v6","SARL_v6dysvkyb5","5e5291ff6c3d7d2a79ec869e","freq","","","img/blue_2bandit_b2.png","70","","70","test","1","","126","","","","circle","square","121","7","6","0.9752066115702479","","","","","","","",""
"null","336456","SARL_v6","SARL_v6dysvkyb5","5e5291ff6c3d7d2a79ec869e","freq_resp","","","img/blue_2bandit_b.png","70","img/blue_2bandit_b.png","70","test","","","","","","","","","","","6","","","","","","","","",""
"null","336608","SARL_v6","SARL_v6dysvkyb5","5e5291ff6c3d7d2a79ec869e","fixation","","","img/fixation.png","null","","","test","","","","","","","","","","","","","","","","","","","",""
"192","336801","SARL_v6","SARL_v6dysvkyb5","5e5291ff6c3d7d2a79ec869e","freq","","","img/blue_2bandit_b2.png","70","","70","test","1","","127","","","","circle","square","122","8","6","0.9754098360655737","","","","","","","",""
"null","337411","SARL_v6","SARL_v6dysvkyb5","5e5291ff6c3d7d2a79ec869e","freq_resp","","","img/blue_2bandit_b.png","70","img/blue_2bandit_b.png","70","test","","","","","","","","","","","6","","","","","","","","",""
"null","337563","SARL_v6","SARL_v6dysvkyb5","5e5291ff6c3d7d2a79ec869e","fixation","","","img/fixation.png","null","","","test","","","","","","","","","","","","","","","","","","","",""
"188.0000000000582","337752","SARL_v6","SARL_v6dysvkyb5","5e5291ff6c3d7d2a79ec869e","freq","","","img/blue_2bandit_b2.png","70","","70","test","1","","128","","","","circle","square","123","9","6","0.975609756097561","","","","","","","",""
"null","338365","SARL_v6","SARL_v6dysvkyb5","5e5291ff6c3d7d2a79ec869e","freq_resp","","","img/blue_2bandit_b.png","70","img/blue_2bandit_b.png","70","test","","","","","","","","","","","6","","","","","","","","",""
"null","338517","SARL_v6","SARL_v6dysvkyb5","5e5291ff6c3d7d2a79ec869e","fixation","","","img/fixation.png","null","","","test","","","","","","","","","","","","","","","","","","","",""
"342.0000000000582","338860","SARL_v6","SARL_v6dysvkyb5","5e5291ff6c3d7d2a79ec869e","freq","","","img/blue_2bandit_b2.png","70","","70","test","1","","129","","","","circle","square","124","10","6","0.9758064516129032","","","","","","","",""
"null","339319","SARL_v6","SARL_v6dysvkyb5","5e5291ff6c3d7d2a79ec869e","freq_resp","","","img/blue_2bandit_b.png","70","img/blue_2bandit_b.png","70","test","","","","","","","","","","","6","","","","","","","","",""
"null","339471","SARL_v6","SARL_v6dysvkyb5","5e5291ff6c3d7d2a79ec869e","fixation","","","img/fixation.png","null","","","test","","","","","","","","","","","","","","","","","","","",""
"293","339765","SARL_v6","SARL_v6dysvkyb5","5e5291ff6c3d7d2a79ec869e","freq","","","img/blue_2bandit_b2.png","70","","70","test","1","","130","","","","circle","square","125","11","6","0.976","","","","","","","",""
"null","340273","SARL_v6","SARL_v6dysvkyb5","5e5291ff6c3d7d2a79ec869e","freq_resp","","","img/blue_2bandit_b.png","70","img/blue_2bandit_b.png","70","test","","","","","","","","","","","6","","","","","","","","",""
"null","340425","SARL_v6","SARL_v6dysvkyb5","5e5291ff6c3d7d2a79ec869e","fixation","","","img/fixation.png","null","","","test","","","","","","","","","","","","","","","","","","","",""
"289","340715","SARL_v6","SARL_v6dysvkyb5","5e5291ff6c3d7d2a79ec869e","freq","","","img/blue_2bandit_b2.png","70","","70","test","1","","131","","","","circle","square","126","12","6","0.9761904761904762","","","","","","","",""
"null","341228","SARL_v6","SARL_v6dysvkyb5","5e5291ff6c3d7d2a79ec869e","freq_resp","","","img/blue_2bandit_b.png","70","img/blue_2bandit_b.png","70","test","","","","","","","","","","","6","","","","","","","","",""
"null","341380","SARL_v6","SARL_v6dysvkyb5","5e5291ff6c3d7d2a79ec869e","fixation","","","img/fixation.png","null","","","test","","","","","","","","","","","","","","","","","","","",""
"202","341583","SARL_v6","SARL_v6dysvkyb5","5e5291ff6c3d7d2a79ec869e","infreq","","","img/orange_2bandit_b2.png","70","","68","test","0","","132","","","","circle","square","127","13","6","0.968503937007874","","","","","","","",""
"null","342182","SARL_v6","SARL_v6dysvkyb5","5e5291ff6c3d7d2a79ec869e","infreq_resp","","","img/orange_2bandit_b.png","70","img/orange_2bandit_b.png","68","test","","","","","","","","","","","6","","","","","","","","",""
"null","342334","SARL_v6","SARL_v6dysvkyb5","5e5291ff6c3d7d2a79ec869e","fixation","","","img/fixation.png","null","","","test","","","","","","","","","","","","","","","","","","","",""
"284","342619","SARL_v6","SARL_v6dysvkyb5","5e5291ff6c3d7d2a79ec869e","freq","","","img/blue_2bandit_b2.png","70","","70","test","1","","133","","","","circle","square","128","14","6","0.96875","","","","","","","",""
