"rt","time_elapsed","expId","subject","prolificID","trialType","rlType","attType","stimulus","key_press","stim","corrresp","phase","corr","pracCounter","trialNum","rewardOne","rewardTwo","reward","bandOne","bandTwo","attentionNum","attentionRunNum","blockNum","performance","bandChosen","circleVal","squareVal","bandOneVal","bandTwoVal","shapeChosen","rlNum","badFlag"
"35674","35677","SARL_v6","SARL_v6fl0dllzj","5e9f70a9eec34b1108c84413","","","","","","","","","","","","","","","","","","","","","","","","","","","",""
"","37731","SARL_v6","SARL_v6fl0dllzj","5e9f70a9eec34b1108c84413","fullscreen","fullscreen","fullscreen","","","","","","","","","","","","","","","","","","","","","","","","",""
"77256.59999990463","114991","SARL_v6","SARL_v6fl0dllzj","5e9f70a9eec34b1108c84413","","","","","","","","","","","","","","","","","","","","","","","","","","","",""
"729.8999998569489","115724","SARL_v6","SARL_v6fl0dllzj","5e9f70a9eec34b1108c84413","freqPrac","","","img/orange_2bandit_a2.png","70","img/orange_2bandit_a2.png","70","prac","1","0","","","","","","","","","","","","","","","","","",""
"729.8999998569489","115797","SARL_v6","SARL_v6fl0dllzj","5e9f70a9eec34b1108c84413","freqPrac_resp","","","img/orange_2bandit_a.png","70","img/orange_2bandit_a.png","70","prac","","","","","","","","","","","","","","","","","","","",""
"null","115962","SARL_v6","SARL_v6fl0dllzj","5e9f70a9eec34b1108c84413","fixation","","","img/fixation.png","null","","","prac","","","","","","","","","","","","","","","","","","","",""
"434.40000009536743","116399","SARL_v6","SARL_v6fl0dllzj","5e9f70a9eec34b1108c84413","infreqPrac","","","img/blue_2bandit_a2.png","68","img/blue_2bandit_a2.png","68","prac","1","0","","","","","","","","","","","","","","","","","",""
"434.40000009536743","116774","SARL_v6","SARL_v6fl0dllzj","5e9f70a9eec34b1108c84413","infreqPrac_resp","","","img/blue_2bandit_a.png","68","img/blue_2bandit_a.png","68","prac","","","","","","","","","","","","","","","","","","","",""
"null","116932","SARL_v6","SARL_v6fl0dllzj","5e9f70a9eec34b1108c84413","fixation","","","img/fixation.png","null","","","prac","","","","","","","","","","","","","","","","","","","",""
"342.10000014305115","117276","SARL_v6","SARL_v6fl0dllzj","5e9f70a9eec34b1108c84413","freqPrac","","","img/orange_2bandit_a2.png","70","img/orange_2bandit_a2.png","70","prac","1","0","","","","","","","","","","","","","","","","","",""
"342.10000014305115","117746","SARL_v6","SARL_v6fl0dllzj","5e9f70a9eec34b1108c84413","freqPrac_resp","","","img/orange_2bandit_a.png","70","img/orange_2bandit_a.png","70","prac","","","","","","","","","","","","","","","","","","","",""
"null","117898","SARL_v6","SARL_v6fl0dllzj","5e9f70a9eec34b1108c84413","fixation","","","img/fixation.png","null","","","prac","","","","","","","","","","","","","","","","","","","",""
"457.59999990463257","118358","SARL_v6","SARL_v6fl0dllzj","5e9f70a9eec34b1108c84413","infreqPrac","","","img/blue_2bandit_a2.png","68","img/blue_2bandit_a2.png","68","prac","1","0","","","","","","","","","","","","","","","","","",""
"457.59999990463257","118718","SARL_v6","SARL_v6fl0dllzj","5e9f70a9eec34b1108c84413","infreqPrac_resp","","","img/blue_2bandit_a.png","68","img/blue_2bandit_a.png","68","prac","","","","","","","","","","","","","","","","","","","",""
"null","118877","SARL_v6","SARL_v6fl0dllzj","5e9f70a9eec34b1108c84413","fixation","","","img/fixation.png","null","","","prac","","","","","","","","","","","","","","","","","","","",""
"374.09999990463257","119253","SARL_v6","SARL_v6fl0dllzj","5e9f70a9eec34b1108c84413","infreqPrac","","","img/blue_2bandit_a2.png","68","img/blue_2bandit_a2.png","68","prac","1","0","","","","","","","","","","","","","","","","","",""
"374.09999990463257","119692","SARL_v6","SARL_v6fl0dllzj","5e9f70a9eec34b1108c84413","infreqPrac_resp","","","img/blue_2bandit_a.png","68","img/blue_2bandit_a.png","68","prac","","","","","","","","","","","","","","","","","","","",""
"null","119844","SARL_v6","SARL_v6fl0dllzj","5e9f70a9eec34b1108c84413","fixation","","","img/fixation.png","null","","","prac","","","","","","","","","","","","","","","","","","","",""
"396.69999980926514","120243","SARL_v6","SARL_v6fl0dllzj","5e9f70a9eec34b1108c84413","infreqPrac","","","img/blue_2bandit_a2.png","68","img/blue_2bandit_a2.png","68","prac","1","0","","","","","","","","","","","","","","","","","",""
"396.69999980926514","120655","SARL_v6","SARL_v6fl0dllzj","5e9f70a9eec34b1108c84413","infreqPrac_resp","","","img/blue_2bandit_a.png","68","img/blue_2bandit_a.png","68","prac","","","","","","","","","","","","","","","","","","","",""
"null","120811","SARL_v6","SARL_v6fl0dllzj","5e9f70a9eec34b1108c84413","fixation","","","img/fixation.png","null","","","prac","","","","","","","","","","","","","","","","","","","",""
"440.5","121254","SARL_v6","SARL_v6fl0dllzj","5e9f70a9eec34b1108c84413","freqPrac","","","img/orange_2bandit_a2.png","70","img/orange_2bandit_a2.png","70","prac","1","0","","","","","","","","","","","","","","","","","",""
"440.5","121624","SARL_v6","SARL_v6fl0dllzj","5e9f70a9eec34b1108c84413","freqPrac_resp","","","img/orange_2bandit_a.png","70","img/orange_2bandit_a.png","70","prac","","","","","","","","","","","","","","","","","","","",""
"null","121782","SARL_v6","SARL_v6fl0dllzj","5e9f70a9eec34b1108c84413","fixation","","","img/fixation.png","null","","","prac","","","","","","","","","","","","","","","","","","","",""
"539","122323","SARL_v6","SARL_v6fl0dllzj","5e9f70a9eec34b1108c84413","infreqPrac","","","img/blue_2bandit_a2.png","68","img/blue_2bandit_a2.png","68","prac","1","0","","","","","","","","","","","","","","","","","",""
"539","122596","SARL_v6","SARL_v6fl0dllzj","5e9f70a9eec34b1108c84413","infreqPrac_resp","","","img/blue_2bandit_a.png","68","img/blue_2bandit_a.png","68","prac","","","","","","","","","","","","","","","","","","","",""
"null","122749","SARL_v6","SARL_v6fl0dllzj","5e9f70a9eec34b1108c84413","fixation","","","img/fixation.png","null","","","prac","","","","","","","","","","","","","","","","","","","",""
"411.2000000476837","123162","SARL_v6","SARL_v6fl0dllzj","5e9f70a9eec34b1108c84413","freqPrac","","","img/orange_2bandit_a2.png","70","img/orange_2bandit_a2.png","70","prac","1","0","","","","","","","","","","","","","","","","","",""
"411.2000000476837","123564","SARL_v6","SARL_v6fl0dllzj","5e9f70a9eec34b1108c84413","freqPrac_resp","","","img/orange_2bandit_a.png","70","img/orange_2bandit_a.png","70","prac","","","","","","","","","","","","","","","","","","","",""
"null","123721","SARL_v6","SARL_v6fl0dllzj","5e9f70a9eec34b1108c84413","fixation","","","img/fixation.png","null","","","prac","","","","","","","","","","","","","","","","","","","",""
"335.80000019073486","124059","SARL_v6","SARL_v6fl0dllzj","5e9f70a9eec34b1108c84413","freqPrac","","","img/orange_2bandit_a2.png","70","img/orange_2bandit_a2.png","70","prac","1","0","","","","","","","","","","","","","","","","","",""
"335.80000019073486","124534","SARL_v6","SARL_v6fl0dllzj","5e9f70a9eec34b1108c84413","freqPrac_resp","","","img/orange_2bandit_a.png","70","img/orange_2bandit_a.png","70","prac","","","","","","","","","","","","","","","","","","","",""
"null","124687","SARL_v6","SARL_v6fl0dllzj","5e9f70a9eec34b1108c84413","fixation","","","img/fixation.png","null","","","prac","","","","","","","","","","","","","","","","","","","",""
"42673.5","167363","SARL_v6","SARL_v6fl0dllzj","5e9f70a9eec34b1108c84413","","","","","","","","prac","","","","","","","","","","","","","","","","","","","",""
"469.90000009536743","167835","SARL_v6","SARL_v6fl0dllzj","5e9f70a9eec34b1108c84413","rlPractice","","","img/black_2bandit_a2.png","75","img/black_2bandit_a2.png","","prac","","","0","","","","","","","","","","","","","","","","",""
"null","168591","SARL_v6","SARL_v6fl0dllzj","5e9f70a9eec34b1108c84413","feedback","","","<div class=""veryhighPoints""> 10 </div>","null","","na","prac","","","1","10","-14","10","","","","","","","","","","","","","",""
"null","168746","SARL_v6","SARL_v6fl0dllzj","5e9f70a9eec34b1108c84413","fixation","","","img/fixation.png","null","","","prac","","","","","","","","","","","","","","","","","","","",""
"486.89999985694885","169235","SARL_v6","SARL_v6fl0dllzj","5e9f70a9eec34b1108c84413","rlPractice","","","img/black_2bandit_a2.png","74","img/black_2bandit_a2.png","","prac","","","1","","","","","","","","","","","","","","","","",""
"null","169988","SARL_v6","SARL_v6fl0dllzj","5e9f70a9eec34b1108c84413","feedback","","","<div class=""verylowPoints_sq""> -5 </div>","null","","na","prac","","","2","5","-5","5","","","","","","","","","","","","","",""
"null","170146","SARL_v6","SARL_v6fl0dllzj","5e9f70a9eec34b1108c84413","fixation","","","img/fixation.png","null","","","prac","","","","","","","","","","","","","","","","","","","",""
"287.60000014305115","170435","SARL_v6","SARL_v6fl0dllzj","5e9f70a9eec34b1108c84413","rlPractice","","","img/black_2bandit_a2.png","75","img/black_2bandit_a2.png","","prac","","","2","","","","","","","","","","","","","","","","",""
"null","171197","SARL_v6","SARL_v6fl0dllzj","5e9f70a9eec34b1108c84413","feedback","","","<div class=""veryhighPoints""> 30 </div>","null","","na","prac","","","3","30","2","30","","","","","","","","","","","","","",""
"null","171351","SARL_v6","SARL_v6fl0dllzj","5e9f70a9eec34b1108c84413","fixation","","","img/fixation.png","null","","","prac","","","","","","","","","","","","","","","","","","","",""
"333.7000000476837","171687","SARL_v6","SARL_v6fl0dllzj","5e9f70a9eec34b1108c84413","rlPractice","","","img/black_2bandit_a2.png","75","img/black_2bandit_a2.png","","prac","","","3","","","","","","","","","","","","","","","","",""
"null","172444","SARL_v6","SARL_v6fl0dllzj","5e9f70a9eec34b1108c84413","feedback","","","<div class=""verylowPoints""> -2 </div>","null","","na","prac","","","4","-2","20","-2","","","","","","","","","","","","","",""
"null","172601","SARL_v6","SARL_v6fl0dllzj","5e9f70a9eec34b1108c84413","fixation","","","img/fixation.png","null","","","prac","","","","","","","","","","","","","","","","","","","",""
"22820.700000047684","195424","SARL_v6","SARL_v6fl0dllzj","5e9f70a9eec34b1108c84413","","","","","","","","prac","","","","","","","","","","","","","","","","","","","",""
"711.7000000476837","196137","SARL_v6","SARL_v6fl0dllzj","5e9f70a9eec34b1108c84413","mixAttFreqPrac","","","img/orange_2bandit_a2.png","70","img/orange_2bandit_a2.png","70","prac","","","1","","","","","","","","","","","","","","","","",""
"711.7000000476837","196244","SARL_v6","SARL_v6fl0dllzj","5e9f70a9eec34b1108c84413","freqPrac_resp","","","img/orange_2bandit_a.png","70","img/orange_2bandit_a.png","70","prac","","","1","","","","","","","","","","","","","","","","",""
"null","196397","SARL_v6","SARL_v6fl0dllzj","5e9f70a9eec34b1108c84413","fixation","","","img/fixation.png","null","","","prac","","","","","","","","","","","","","","","","","","","",""
"null","197204","SARL_v6","SARL_v6fl0dllzj","5e9f70a9eec34b1108c84413","mixAttInfreqPrac","","","img/blue_2bandit_a2.png","null","img/blue_2bandit_a2.png","68","prac","","","2","","","","","","","","","","","","","","","","",""
"null","197358","SARL_v6","SARL_v6fl0dllzj","5e9f70a9eec34b1108c84413","fixation","","","img/fixation.png","null","","","prac","","","","","","","","","","","","","","","","","","","",""
"232.59999990463257","197592","SARL_v6","SARL_v6fl0dllzj","5e9f70a9eec34b1108c84413","mixAttInfreqPrac","","","img/blue_2bandit_a2.png","68","img/blue_2bandit_a2.png","68","prac","","","3","","","","","","","","","","","","","","","","",""
"232.59999990463257","198164","SARL_v6","SARL_v6fl0dllzj","5e9f70a9eec34b1108c84413","infreqPrac_resp","","","img/blue_2bandit_a.png","68","img/orange_2bandit_a.png","68","prac","","","3","","","","","","","","","","","","","","","","",""
"85.89999985694885","198323","SARL_v6","SARL_v6fl0dllzj","5e9f70a9eec34b1108c84413","fixation","","","img/fixation.png","68","","","prac","","","","","","","","","","","","","","","","","","","",""
"null","199140","SARL_v6","SARL_v6fl0dllzj","5e9f70a9eec34b1108c84413","mixAttInfreqPrac","","","img/blue_2bandit_a2.png","null","img/blue_2bandit_a2.png","68","prac","","","4","","","","","","","","","","","","","","","","",""
"null","199293","SARL_v6","SARL_v6fl0dllzj","5e9f70a9eec34b1108c84413","fixation","","","img/fixation.png","null","","","prac","","","","","","","","","","","","","","","","","","","",""
"339.2999999523163","199634","SARL_v6","SARL_v6fl0dllzj","5e9f70a9eec34b1108c84413","mixAttFreqPrac","","","img/orange_2bandit_a2.png","68","img/orange_2bandit_a2.png","70","prac","","","5","","","","","","","","","","","","","","","","",""
"339.2999999523163","200097","SARL_v6","SARL_v6fl0dllzj","5e9f70a9eec34b1108c84413","freqPrac_resp","","","img/orange_2bandit_a.png","68","img/orange_2bandit_a.png","70","prac","","","5","","","","","","","","","","","","","","","","",""
"null","200253","SARL_v6","SARL_v6fl0dllzj","5e9f70a9eec34b1108c84413","fixation","","","img/fixation.png","null","","","prac","","","","","","","","","","","","","","","","","","","",""
"1057.2999999523163","201313","SARL_v6","SARL_v6fl0dllzj","5e9f70a9eec34b1108c84413","mixRLPractice","","","img/black_2bandit_a2.png","75","img/black_2bandit_a2.png","","prac","","","5","","","","","","","","","","","","","","","","",""
"null","202074","SARL_v6","SARL_v6fl0dllzj","5e9f70a9eec34b1108c84413","feedback","","","<div class=""verylowPoints""> -14 </div>","null","","na","prac","","","6","-14","10","-14","","","","","","","","","","","","","",""
"null","202231","SARL_v6","SARL_v6fl0dllzj","5e9f70a9eec34b1108c84413","fixation","","","img/fixation.png","null","","","prac","","","","","","","","","","","","","","","","","","","",""
"null","203037","SARL_v6","SARL_v6fl0dllzj","5e9f70a9eec34b1108c84413","mixAttFreqPrac","","","img/orange_2bandit_a2.png","null","img/orange_2bandit_a2.png","70","prac","","","7","","","","","","","","","","","","","","","","",""
"100.39999985694885","203190","SARL_v6","SARL_v6fl0dllzj","5e9f70a9eec34b1108c84413","fixation","","","img/fixation.png","68","","","prac","","","","","","","","","","","","","","","","","","","",""
"569.5999999046326","203761","SARL_v6","SARL_v6fl0dllzj","5e9f70a9eec34b1108c84413","mixAttInfreqPrac","","","img/blue_2bandit_a2.png","70","img/blue_2bandit_a2.png","68","prac","","","8","","","","","","","","","","","","","","","","",""
"569.5999999046326","203994","SARL_v6","SARL_v6fl0dllzj","5e9f70a9eec34b1108c84413","infreqPrac_resp","","","img/blue_2bandit_a.png","70","img/orange_2bandit_a.png","68","prac","","","8","","","","","","","","","","","","","","","","",""
"14.700000047683716","204151","SARL_v6","SARL_v6fl0dllzj","5e9f70a9eec34b1108c84413","fixation","","","img/fixation.png","68","","","prac","","","","","","","","","","","","","","","","","","","",""
"576.5999999046326","204730","SARL_v6","SARL_v6fl0dllzj","5e9f70a9eec34b1108c84413","mixAttFreqPrac","","","img/orange_2bandit_a2.png","70","img/orange_2bandit_a2.png","70","prac","","","9","","","","","","","","","","","","","","","","",""
"576.5999999046326","204964","SARL_v6","SARL_v6fl0dllzj","5e9f70a9eec34b1108c84413","freqPrac_resp","","","img/orange_2bandit_a.png","70","img/orange_2bandit_a.png","70","prac","","","9","","","","","","","","","","","","","","","","",""
"null","205117","SARL_v6","SARL_v6fl0dllzj","5e9f70a9eec34b1108c84413","fixation","","","img/fixation.png","null","","","prac","","","","","","","","","","","","","","","","","","","",""
"350.09999990463257","205469","SARL_v6","SARL_v6fl0dllzj","5e9f70a9eec34b1108c84413","mixAttFreqPrac","","","img/orange_2bandit_a2.png","70","img/orange_2bandit_a2.png","70","prac","","","10","","","","","","","","","","","","","","","","",""
"350.09999990463257","205932","SARL_v6","SARL_v6fl0dllzj","5e9f70a9eec34b1108c84413","freqPrac_resp","","","img/orange_2bandit_a.png","70","img/orange_2bandit_a.png","70","prac","","","10","","","","","","","","","","","","","","","","",""
"null","206084","SARL_v6","SARL_v6fl0dllzj","5e9f70a9eec34b1108c84413","fixation","","","img/fixation.png","null","","","prac","","","","","","","","","","","","","","","","","","","",""
"496.80000019073486","206583","SARL_v6","SARL_v6fl0dllzj","5e9f70a9eec34b1108c84413","mixAttInfreqPrac","","","img/blue_2bandit_a2.png","68","img/blue_2bandit_a2.png","68","prac","","","11","","","","","","","","","","","","","","","","",""
"496.80000019073486","206902","SARL_v6","SARL_v6fl0dllzj","5e9f70a9eec34b1108c84413","infreqPrac_resp","","","img/blue_2bandit_a.png","68","img/orange_2bandit_a.png","68","prac","","","11","","","","","","","","","","","","","","","","",""
"null","207055","SARL_v6","SARL_v6fl0dllzj","5e9f70a9eec34b1108c84413","fixation","","","img/fixation.png","null","","","prac","","","","","","","","","","","","","","","","","","","",""
"404","207461","SARL_v6","SARL_v6fl0dllzj","5e9f70a9eec34b1108c84413","mixRLPractice","","","img/black_2bandit_a2.png","75","img/black_2bandit_a2.png","","prac","","","11","","","","","","","","","","","","","","","","",""
"null","208215","SARL_v6","SARL_v6fl0dllzj","5e9f70a9eec34b1108c84413","feedback","","","<div class=""veryhighPoints""> 5 </div>","null","","na","prac","","","12","5","-5","5","","","","","","","","","","","","","",""
"null","208372","SARL_v6","SARL_v6fl0dllzj","5e9f70a9eec34b1108c84413","fixation","","","img/fixation.png","null","","","prac","","","","","","","","","","","","","","","","","","","",""
"17495.099999904633","225869","SARL_v6","SARL_v6fl0dllzj","5e9f70a9eec34b1108c84413","","","","","","","","prac","","","","","","","","","","","","","","","","","","","",""
"554.3000001907349","226425","SARL_v6","SARL_v6fl0dllzj","5e9f70a9eec34b1108c84413","freq","","","img/orange_2bandit_a2.png","70","","70","test","1","","1","","","","square","circle","1","1","1","1","","","","","","","",""
"null","226682","SARL_v6","SARL_v6fl0dllzj","5e9f70a9eec34b1108c84413","freq_resp","","","img/orange_2bandit_a.png","70","img/orange_2bandit_a.png","70","test","","","","","","","","","","","1","","","","","","","","",""
"null","226834","SARL_v6","SARL_v6fl0dllzj","5e9f70a9eec34b1108c84413","fixation","","","img/fixation.png","null","","","test","","","","","","","","","","","","","","","","","","","",""
"333.5","227169","SARL_v6","SARL_v6fl0dllzj","5e9f70a9eec34b1108c84413","freq","","","img/orange_2bandit_a2.png","70","","70","test","1","","2","","","","square","circle","2","2","1","1","","","","","","","",""
"null","227641","SARL_v6","SARL_v6fl0dllzj","5e9f70a9eec34b1108c84413","freq_resp","","","img/orange_2bandit_a.png","70","img/orange_2bandit_a.png","70","test","","","","","","","","","","","1","","","","","","","","",""
"null","227794","SARL_v6","SARL_v6fl0dllzj","5e9f70a9eec34b1108c84413","fixation","","","img/fixation.png","null","","","test","","","","","","","","","","","","","","","","","","","",""
"355.60000014305115","228152","SARL_v6","SARL_v6fl0dllzj","5e9f70a9eec34b1108c84413","freq","","","img/orange_2bandit_a2.png","70","","70","test","1","","3","","","","square","circle","3","3","1","1","","","","","","","",""
"null","228613","SARL_v6","SARL_v6fl0dllzj","5e9f70a9eec34b1108c84413","freq_resp","","","img/orange_2bandit_a.png","70","img/orange_2bandit_a.png","70","test","","","","","","","","","","","1","","","","","","","","",""
"null","228772","SARL_v6","SARL_v6fl0dllzj","5e9f70a9eec34b1108c84413","fixation","","","img/fixation.png","null","","","test","","","","","","","","","","","","","","","","","","","",""
"369.39999985694885","229145","SARL_v6","SARL_v6fl0dllzj","5e9f70a9eec34b1108c84413","freq","","","img/orange_2bandit_a2.png","70","","70","test","1","","4","","","","square","circle","4","4","1","1","","","","","","","",""
"null","229591","SARL_v6","SARL_v6fl0dllzj","5e9f70a9eec34b1108c84413","freq_resp","","","img/orange_2bandit_a.png","70","img/orange_2bandit_a.png","70","test","","","","","","","","","","","1","","","","","","","","",""
"null","229746","SARL_v6","SARL_v6fl0dllzj","5e9f70a9eec34b1108c84413","fixation","","","img/fixation.png","null","","","test","","","","","","","","","","","","","","","","","","","",""
"459.7999999523163","230209","SARL_v6","SARL_v6fl0dllzj","5e9f70a9eec34b1108c84413","freq","","","img/orange_2bandit_a2.png","70","","70","test","1","","5","","","","square","circle","5","5","1","1","","","","","","","",""
"null","230558","SARL_v6","SARL_v6fl0dllzj","5e9f70a9eec34b1108c84413","freq_resp","","","img/orange_2bandit_a.png","70","img/orange_2bandit_a.png","70","test","","","","","","","","","","","1","","","","","","","","",""
"null","230716","SARL_v6","SARL_v6fl0dllzj","5e9f70a9eec34b1108c84413","fixation","","","img/fixation.png","null","","","test","","","","","","","","","","","","","","","","","","","",""
"379","231097","SARL_v6","SARL_v6fl0dllzj","5e9f70a9eec34b1108c84413","infreq","","","img/blue_2bandit_a2.png","68","","68","test","1","","6","","","","square","circle","6","6","1","1","","","","","","","",""
"null","231530","SARL_v6","SARL_v6fl0dllzj","5e9f70a9eec34b1108c84413","infreq_resp","","","img/blue_2bandit_a.png","68","img/blue_2bandit_a.png","68","test","","","","","","","","","","","1","","","","","","","","",""
"null","231687","SARL_v6","SARL_v6fl0dllzj","5e9f70a9eec34b1108c84413","fixation","","","img/fixation.png","null","","","test","","","","","","","","","","","","","","","","","","","",""
"469.7000000476837","232158","SARL_v6","SARL_v6fl0dllzj","5e9f70a9eec34b1108c84413","freq","","","img/orange_2bandit_a2.png","70","","70","test","1","","7","","","","square","circle","7","7","1","1","","","","","","","",""
"null","232492","SARL_v6","SARL_v6fl0dllzj","5e9f70a9eec34b1108c84413","freq_resp","","","img/orange_2bandit_a.png","70","img/orange_2bandit_a.png","70","test","","","","","","","","","","","1","","","","","","","","",""
"null","232644","SARL_v6","SARL_v6fl0dllzj","5e9f70a9eec34b1108c84413","fixation","","","img/fixation.png","null","","","test","","","","","","","","","","","","","","","","","","","",""
"366.7000000476837","233013","SARL_v6","SARL_v6fl0dllzj","5e9f70a9eec34b1108c84413","freq","","","img/orange_2bandit_a2.png","70","","70","test","1","","8","","","","square","circle","8","8","1","1","","","","","","","",""
"null","233460","SARL_v6","SARL_v6fl0dllzj","5e9f70a9eec34b1108c84413","freq_resp","","","img/orange_2bandit_a.png","70","img/orange_2bandit_a.png","70","test","","","","","","","","","","","1","","","","","","","","",""
"null","233614","SARL_v6","SARL_v6fl0dllzj","5e9f70a9eec34b1108c84413","fixation","","","img/fixation.png","null","","","test","","","","","","","","","","","","","","","","","","","",""
"324.2000000476837","233940","SARL_v6","SARL_v6fl0dllzj","5e9f70a9eec34b1108c84413","freq","","","img/orange_2bandit_a2.png","70","","70","test","1","","9","","","","square","circle","9","9","1","1","","","","","","","",""
"null","234418","SARL_v6","SARL_v6fl0dllzj","5e9f70a9eec34b1108c84413","freq_resp","","","img/orange_2bandit_a.png","70","img/orange_2bandit_a.png","70","test","","","","","","","","","","","1","","","","","","","","",""
"null","234570","SARL_v6","SARL_v6fl0dllzj","5e9f70a9eec34b1108c84413","fixation","","","img/fixation.png","null","","","test","","","","","","","","","","","","","","","","","","","",""
"271","234844","SARL_v6","SARL_v6fl0dllzj","5e9f70a9eec34b1108c84413","freq","","","img/orange_2bandit_a2.png","70","","70","test","1","","10","","","","square","circle","10","10","1","1","","","","","","","",""
"null","235379","SARL_v6","SARL_v6fl0dllzj","5e9f70a9eec34b1108c84413","freq_resp","","","img/orange_2bandit_a.png","70","img/orange_2bandit_a.png","70","test","","","","","","","","","","","1","","","","","","","","",""
"null","235531","SARL_v6","SARL_v6fl0dllzj","5e9f70a9eec34b1108c84413","fixation","","","img/fixation.png","null","","","test","","","","","","","","","","","","","","","","","","","",""
"329.7999999523163","235863","SARL_v6","SARL_v6fl0dllzj","5e9f70a9eec34b1108c84413","freq","","","img/orange_2bandit_a2.png","70","","70","test","1","","11","","","","square","circle","11","11","1","1","","","","","","","",""
"null","236349","SARL_v6","SARL_v6fl0dllzj","5e9f70a9eec34b1108c84413","freq_resp","","","img/orange_2bandit_a.png","70","img/orange_2bandit_a.png","70","test","","","","","","","","","","","1","","","","","","","","",""
"null","236502","SARL_v6","SARL_v6fl0dllzj","5e9f70a9eec34b1108c84413","fixation","","","img/fixation.png","null","","","test","","","","","","","","","","","","","","","","","","","",""
"368.5","236872","SARL_v6","SARL_v6fl0dllzj","5e9f70a9eec34b1108c84413","freq","","","img/orange_2bandit_a2.png","70","","70","test","1","","12","","","","square","circle","12","12","1","1","","","","","","","",""
"null","237318","SARL_v6","SARL_v6fl0dllzj","5e9f70a9eec34b1108c84413","freq_resp","","","img/orange_2bandit_a.png","70","img/orange_2bandit_a.png","70","test","","","","","","","","","","","1","","","","","","","","",""
"null","237471","SARL_v6","SARL_v6fl0dllzj","5e9f70a9eec34b1108c84413","fixation","","","img/fixation.png","null","","","test","","","","","","","","","","","","","","","","","","","",""
"374.7999999523163","237848","SARL_v6","SARL_v6fl0dllzj","5e9f70a9eec34b1108c84413","freq","","","img/orange_2bandit_a2.png","70","","70","test","1","","13","","","","square","circle","13","13","1","1","","","","","","","",""
"null","238287","SARL_v6","SARL_v6fl0dllzj","5e9f70a9eec34b1108c84413","freq_resp","","","img/orange_2bandit_a.png","70","img/orange_2bandit_a.png","70","test","","","","","","","","","","","1","","","","","","","","",""
"null","238445","SARL_v6","SARL_v6fl0dllzj","5e9f70a9eec34b1108c84413","fixation","","","img/fixation.png","null","","","test","","","","","","","","","","","","","","","","","","","",""
"396.90000009536743","238844","SARL_v6","SARL_v6fl0dllzj","5e9f70a9eec34b1108c84413","freq","","","img/orange_2bandit_a2.png","70","","70","test","1","","14","","","","square","circle","14","14","1","1","","","","","","","",""
"null","239260","SARL_v6","SARL_v6fl0dllzj","5e9f70a9eec34b1108c84413","freq_resp","","","img/orange_2bandit_a.png","70","img/orange_2bandit_a.png","70","test","","","","","","","","","","","1","","","","","","","","",""
"null","239417","SARL_v6","SARL_v6fl0dllzj","5e9f70a9eec34b1108c84413","fixation","","","img/fixation.png","null","","","test","","","","","","","","","","","","","","","","","","","",""
"462.19999980926514","239882","SARL_v6","SARL_v6fl0dllzj","5e9f70a9eec34b1108c84413","freq","","","img/orange_2bandit_a2.png","70","","70","test","1","","15","","","","square","circle","15","15","1","1","","","","","","","",""
"null","240228","SARL_v6","SARL_v6fl0dllzj","5e9f70a9eec34b1108c84413","freq_resp","","","img/orange_2bandit_a.png","70","img/orange_2bandit_a.png","70","test","","","","","","","","","","","1","","","","","","","","",""
"null","240382","SARL_v6","SARL_v6fl0dllzj","5e9f70a9eec34b1108c84413","fixation","","","img/fixation.png","null","","","test","","","","","","","","","","","","","","","","","","","",""
"353.90000009536743","240738","SARL_v6","SARL_v6fl0dllzj","5e9f70a9eec34b1108c84413","freq","","","img/orange_2bandit_a2.png","70","","70","test","1","","16","","","","square","circle","16","16","1","1","","","","","","","",""
"null","241198","SARL_v6","SARL_v6fl0dllzj","5e9f70a9eec34b1108c84413","freq_resp","","","img/orange_2bandit_a.png","70","img/orange_2bandit_a.png","70","test","","","","","","","","","","","1","","","","","","","","",""
"null","241351","SARL_v6","SARL_v6fl0dllzj","5e9f70a9eec34b1108c84413","fixation","","","img/fixation.png","null","","","test","","","","","","","","","","","","","","","","","","","",""
"263.2999999523163","241649","SARL_v6","SARL_v6fl0dllzj","5e9f70a9eec34b1108c84413","freq","","","img/orange_2bandit_a2.png","70","","70","test","1","","17","","","","square","circle","17","17","1","1","","","","","","","",""
"null","242200","SARL_v6","SARL_v6fl0dllzj","5e9f70a9eec34b1108c84413","freq_resp","","","img/orange_2bandit_a.png","70","img/orange_2bandit_a.png","70","test","","","","","","","","","","","1","","","","","","","","",""
"null","242354","SARL_v6","SARL_v6fl0dllzj","5e9f70a9eec34b1108c84413","fixation","","","img/fixation.png","null","","","test","","","","","","","","","","","","","","","","","","","",""
"329.39999985694885","242686","SARL_v6","SARL_v6fl0dllzj","5e9f70a9eec34b1108c84413","freq","","","img/orange_2bandit_a2.png","70","","70","test","1","","18","","","","square","circle","18","18","1","1","","","","","","","",""
"null","243164","SARL_v6","SARL_v6fl0dllzj","5e9f70a9eec34b1108c84413","freq_resp","","","img/orange_2bandit_a.png","70","img/orange_2bandit_a.png","70","test","","","","","","","","","","","1","","","","","","","","",""
"null","243317","SARL_v6","SARL_v6fl0dllzj","5e9f70a9eec34b1108c84413","fixation","","","img/fixation.png","null","","","test","","","","","","","","","","","","","","","","","","","",""
"638.7999999523163","243958","SARL_v6","SARL_v6fl0dllzj","5e9f70a9eec34b1108c84413","infreq","","","img/blue_2bandit_a2.png","68","","68","test","1","","19","","","","square","circle","19","19","1","1","","","","","","","",""
"null","244131","SARL_v6","SARL_v6fl0dllzj","5e9f70a9eec34b1108c84413","infreq_resp","","","img/blue_2bandit_a.png","68","img/blue_2bandit_a.png","68","test","","","","","","","","","","","1","","","","","","","","",""
"null","244285","SARL_v6","SARL_v6fl0dllzj","5e9f70a9eec34b1108c84413","fixation","","","img/fixation.png","null","","","test","","","","","","","","","","","","","","","","","","","",""
"446.10000014305115","244733","SARL_v6","SARL_v6fl0dllzj","5e9f70a9eec34b1108c84413","freq","","","img/orange_2bandit_a2.png","70","","70","test","1","","20","","","","square","circle","20","20","1","1","","","","","","","",""
"null","245104","SARL_v6","SARL_v6fl0dllzj","5e9f70a9eec34b1108c84413","freq_resp","","","img/orange_2bandit_a.png","70","img/orange_2bandit_a.png","70","test","","","","","","","","","","","1","","","","","","","","",""
"null","245260","SARL_v6","SARL_v6fl0dllzj","5e9f70a9eec34b1108c84413","fixation","","","img/fixation.png","null","","","test","","","","","","","","","","","","","","","","","","","",""
"376.5","245638","SARL_v6","SARL_v6fl0dllzj","5e9f70a9eec34b1108c84413","freq","","","img/orange_2bandit_a2.png","70","","70","test","1","","21","","","","square","circle","21","21","1","1","","","","","","","",""
"null","246075","SARL_v6","SARL_v6fl0dllzj","5e9f70a9eec34b1108c84413","freq_resp","","","img/orange_2bandit_a.png","70","img/orange_2bandit_a.png","70","test","","","","","","","","","","","1","","","","","","","","",""
"null","246228","SARL_v6","SARL_v6fl0dllzj","5e9f70a9eec34b1108c84413","fixation","","","img/fixation.png","null","","","test","","","","","","","","","","","","","","","","","","","",""
"348.59999990463257","246578","SARL_v6","SARL_v6fl0dllzj","5e9f70a9eec34b1108c84413","freq","","","img/orange_2bandit_a2.png","70","","70","test","1","","22","","","","square","circle","22","22","1","1","","","","","","","",""
"null","247043","SARL_v6","SARL_v6fl0dllzj","5e9f70a9eec34b1108c84413","freq_resp","","","img/orange_2bandit_a.png","70","img/orange_2bandit_a.png","70","test","","","","","","","","","","","1","","","","","","","","",""
"null","247196","SARL_v6","SARL_v6fl0dllzj","5e9f70a9eec34b1108c84413","fixation","","","img/fixation.png","null","","","test","","","","","","","","","","","","","","","","","","","",""
"312.7999999523163","247511","SARL_v6","SARL_v6fl0dllzj","5e9f70a9eec34b1108c84413","freq","","","img/orange_2bandit_a2.png","70","","70","test","1","","23","","","","square","circle","23","23","1","1","","","","","","","",""
"null","248013","SARL_v6","SARL_v6fl0dllzj","5e9f70a9eec34b1108c84413","freq_resp","","","img/orange_2bandit_a.png","70","img/orange_2bandit_a.png","70","test","","","","","","","","","","","1","","","","","","","","",""
"null","248165","SARL_v6","SARL_v6fl0dllzj","5e9f70a9eec34b1108c84413","fixation","","","img/fixation.png","null","","","test","","","","","","","","","","","","","","","","","","","",""
"248.40000009536743","248416","SARL_v6","SARL_v6fl0dllzj","5e9f70a9eec34b1108c84413","freq","","","img/orange_2bandit_a2.png","70","","70","test","1","","24","","","","square","circle","24","24","1","1","","","","","","","",""
"null","248984","SARL_v6","SARL_v6fl0dllzj","5e9f70a9eec34b1108c84413","freq_resp","","","img/orange_2bandit_a.png","70","img/orange_2bandit_a.png","70","test","","","","","","","","","","","1","","","","","","","","",""
"null","249137","SARL_v6","SARL_v6fl0dllzj","5e9f70a9eec34b1108c84413","fixation","","","img/fixation.png","null","","","test","","","","","","","","","","","","","","","","","","","",""
"298.2999999523163","249437","SARL_v6","SARL_v6fl0dllzj","5e9f70a9eec34b1108c84413","freq","","","img/orange_2bandit_a2.png","70","","70","test","1","","25","","","","square","circle","25","25","1","1","","","","","","","",""
"null","249943","SARL_v6","SARL_v6fl0dllzj","5e9f70a9eec34b1108c84413","freq_resp","","","img/orange_2bandit_a.png","70","img/orange_2bandit_a.png","70","test","","","","","","","","","","","1","","","","","","","","",""
"null","250095","SARL_v6","SARL_v6fl0dllzj","5e9f70a9eec34b1108c84413","fixation","","","img/fixation.png","null","","","test","","","","","","","","","","","","","","","","","","","",""
"295.19999980926514","250393","SARL_v6","SARL_v6fl0dllzj","5e9f70a9eec34b1108c84413","freq","","","img/orange_2bandit_a2.png","70","","70","test","1","","26","","","","square","circle","26","26","1","1","","","","","","","",""
"null","250910","SARL_v6","SARL_v6fl0dllzj","5e9f70a9eec34b1108c84413","freq_resp","","","img/orange_2bandit_a.png","70","img/orange_2bandit_a.png","70","test","","","","","","","","","","","1","","","","","","","","",""
"null","251063","SARL_v6","SARL_v6fl0dllzj","5e9f70a9eec34b1108c84413","fixation","","","img/fixation.png","null","","","test","","","","","","","","","","","","","","","","","","","",""
"545.8000001907349","251611","SARL_v6","SARL_v6fl0dllzj","5e9f70a9eec34b1108c84413","rl","","","img/black_2bandit_a2.png","75","","0","test","","","27","","","-3","square","circle","","0","1","","75","-3","-3","-3","-3","circle","1","0"
"null","252366","SARL_v6","SARL_v6fl0dllzj","5e9f70a9eec34b1108c84413","feedback","","","<div class=""verylowPoints""> -3 </div>","null","","na","test","","","NaN","","","","","","","","1","","75","","","","","","1",""
"748.2000000476837","253117","SARL_v6","SARL_v6fl0dllzj","5e9f70a9eec34b1108c84413","freq","","","img/orange_2bandit_a2.png","70","","70","test","1","","28","","","","square","circle","27","1","2","1","","","","","","","",""
"null","253171","SARL_v6","SARL_v6fl0dllzj","5e9f70a9eec34b1108c84413","freq_resp","","","img/orange_2bandit_a.png","70","img/orange_2bandit_a.png","70","test","","","","","","","","","","","2","","","","","","","","",""
"null","253324","SARL_v6","SARL_v6fl0dllzj","5e9f70a9eec34b1108c84413","fixation","","","img/fixation.png","null","","","test","","","","","","","","","","","","","","","","","","","",""
"371.7999999523163","253698","SARL_v6","SARL_v6fl0dllzj","5e9f70a9eec34b1108c84413","freq","","","img/orange_2bandit_a2.png","70","","70","test","1","","29","","","","square","circle","28","2","2","1","","","","","","","",""
"null","254140","SARL_v6","SARL_v6fl0dllzj","5e9f70a9eec34b1108c84413","freq_resp","","","img/orange_2bandit_a.png","70","img/orange_2bandit_a.png","70","test","","","","","","","","","","","2","","","","","","","","",""
"null","254306","SARL_v6","SARL_v6fl0dllzj","5e9f70a9eec34b1108c84413","fixation","","","img/fixation.png","null","","","test","","","","","","","","","","","","","","","","","","","",""
"326","254635","SARL_v6","SARL_v6fl0dllzj","5e9f70a9eec34b1108c84413","freq","","","img/orange_2bandit_a2.png","70","","70","test","1","","30","","","","square","circle","29","3","2","1","","","","","","","",""
"null","255119","SARL_v6","SARL_v6fl0dllzj","5e9f70a9eec34b1108c84413","freq_resp","","","img/orange_2bandit_a.png","70","img/orange_2bandit_a.png","70","test","","","","","","","","","","","2","","","","","","","","",""
"null","255274","SARL_v6","SARL_v6fl0dllzj","5e9f70a9eec34b1108c84413","fixation","","","img/fixation.png","null","","","test","","","","","","","","","","","","","","","","","","","",""
"330.39999985694885","255606","SARL_v6","SARL_v6fl0dllzj","5e9f70a9eec34b1108c84413","freq","","","img/orange_2bandit_a2.png","70","","70","test","1","","31","","","","square","circle","30","4","2","1","","","","","","","",""
"null","256092","SARL_v6","SARL_v6fl0dllzj","5e9f70a9eec34b1108c84413","freq_resp","","","img/orange_2bandit_a.png","70","img/orange_2bandit_a.png","70","test","","","","","","","","","","","2","","","","","","","","",""
"null","256245","SARL_v6","SARL_v6fl0dllzj","5e9f70a9eec34b1108c84413","fixation","","","img/fixation.png","null","","","test","","","","","","","","","","","","","","","","","","","",""
"358.39999985694885","256605","SARL_v6","SARL_v6fl0dllzj","5e9f70a9eec34b1108c84413","freq","","","img/orange_2bandit_a2.png","70","","70","test","1","","32","","","","square","circle","31","5","2","1","","","","","","","",""
"null","257051","SARL_v6","SARL_v6fl0dllzj","5e9f70a9eec34b1108c84413","freq_resp","","","img/orange_2bandit_a.png","70","img/orange_2bandit_a.png","70","test","","","","","","","","","","","2","","","","","","","","",""
"null","257203","SARL_v6","SARL_v6fl0dllzj","5e9f70a9eec34b1108c84413","fixation","","","img/fixation.png","null","","","test","","","","","","","","","","","","","","","","","","","",""
"343.2000000476837","257548","SARL_v6","SARL_v6fl0dllzj","5e9f70a9eec34b1108c84413","freq","","","img/orange_2bandit_a2.png","70","","70","test","1","","33","","","","square","circle","32","6","2","1","","","","","","","",""
"null","258008","SARL_v6","SARL_v6fl0dllzj","5e9f70a9eec34b1108c84413","freq_resp","","","img/orange_2bandit_a.png","70","img/orange_2bandit_a.png","70","test","","","","","","","","","","","2","","","","","","","","",""
"null","258161","SARL_v6","SARL_v6fl0dllzj","5e9f70a9eec34b1108c84413","fixation","","","img/fixation.png","null","","","test","","","","","","","","","","","","","","","","","","","",""
"293.39999985694885","258456","SARL_v6","SARL_v6fl0dllzj","5e9f70a9eec34b1108c84413","freq","","","img/orange_2bandit_a2.png","70","","70","test","1","","34","","","","square","circle","33","7","2","1","","","","","","","",""
"null","258966","SARL_v6","SARL_v6fl0dllzj","5e9f70a9eec34b1108c84413","freq_resp","","","img/orange_2bandit_a.png","70","img/orange_2bandit_a.png","70","test","","","","","","","","","","","2","","","","","","","","",""
"null","259119","SARL_v6","SARL_v6fl0dllzj","5e9f70a9eec34b1108c84413","fixation","","","img/fixation.png","null","","","test","","","","","","","","","","","","","","","","","","","",""
"272.2999999523163","259393","SARL_v6","SARL_v6fl0dllzj","5e9f70a9eec34b1108c84413","freq","","","img/orange_2bandit_a2.png","70","","70","test","1","","35","","","","square","circle","34","8","2","1","","","","","","","",""
"null","259926","SARL_v6","SARL_v6fl0dllzj","5e9f70a9eec34b1108c84413","freq_resp","","","img/orange_2bandit_a.png","70","img/orange_2bandit_a.png","70","test","","","","","","","","","","","2","","","","","","","","",""
"null","260084","SARL_v6","SARL_v6fl0dllzj","5e9f70a9eec34b1108c84413","fixation","","","img/fixation.png","null","","","test","","","","","","","","","","","","","","","","","","","",""
"338.2000000476837","260424","SARL_v6","SARL_v6fl0dllzj","5e9f70a9eec34b1108c84413","infreq","","","img/blue_2bandit_a2.png","68","","68","test","1","","36","","","","square","circle","35","9","2","1","","","","","","","",""
"null","260899","SARL_v6","SARL_v6fl0dllzj","5e9f70a9eec34b1108c84413","infreq_resp","","","img/blue_2bandit_a.png","68","img/blue_2bandit_a.png","68","test","","","","","","","","","","","2","","","","","","","","",""
"null","261056","SARL_v6","SARL_v6fl0dllzj","5e9f70a9eec34b1108c84413","fixation","","","img/fixation.png","null","","","test","","","","","","","","","","","","","","","","","","","",""
"401.89999985694885","261460","SARL_v6","SARL_v6fl0dllzj","5e9f70a9eec34b1108c84413","freq","","","img/orange_2bandit_a2.png","70","","70","test","1","","37","","","","square","circle","36","10","2","1","","","","","","","",""
"null","261867","SARL_v6","SARL_v6fl0dllzj","5e9f70a9eec34b1108c84413","freq_resp","","","img/orange_2bandit_a.png","70","img/orange_2bandit_a.png","70","test","","","","","","","","","","","2","","","","","","","","",""
"null","262024","SARL_v6","SARL_v6fl0dllzj","5e9f70a9eec34b1108c84413","fixation","","","img/fixation.png","null","","","test","","","","","","","","","","","","","","","","","","","",""
"327.40000009536743","262354","SARL_v6","SARL_v6fl0dllzj","5e9f70a9eec34b1108c84413","freq","","","img/orange_2bandit_a2.png","70","","70","test","1","","38","","","","square","circle","37","11","2","1","","","","","","","",""
"null","262841","SARL_v6","SARL_v6fl0dllzj","5e9f70a9eec34b1108c84413","freq_resp","","","img/orange_2bandit_a.png","70","img/orange_2bandit_a.png","70","test","","","","","","","","","","","2","","","","","","","","",""
"null","262994","SARL_v6","SARL_v6fl0dllzj","5e9f70a9eec34b1108c84413","fixation","","","img/fixation.png","null","","","test","","","","","","","","","","","","","","","","","","","",""
"285.59999990463257","263282","SARL_v6","SARL_v6fl0dllzj","5e9f70a9eec34b1108c84413","freq","","","img/orange_2bandit_a2.png","70","","70","test","1","","39","","","","square","circle","38","12","2","1","","","","","","","",""
"null","263799","SARL_v6","SARL_v6fl0dllzj","5e9f70a9eec34b1108c84413","freq_resp","","","img/orange_2bandit_a.png","70","img/orange_2bandit_a.png","70","test","","","","","","","","","","","2","","","","","","","","",""
"null","263951","SARL_v6","SARL_v6fl0dllzj","5e9f70a9eec34b1108c84413","fixation","","","img/fixation.png","null","","","test","","","","","","","","","","","","","","","","","","","",""
"315.5","264269","SARL_v6","SARL_v6fl0dllzj","5e9f70a9eec34b1108c84413","freq","","","img/orange_2bandit_a2.png","70","","70","test","1","","40","","","","square","circle","39","13","2","1","","","","","","","",""
"null","264756","SARL_v6","SARL_v6fl0dllzj","5e9f70a9eec34b1108c84413","freq_resp","","","img/orange_2bandit_a.png","70","img/orange_2bandit_a.png","70","test","","","","","","","","","","","2","","","","","","","","",""
"null","264908","SARL_v6","SARL_v6fl0dllzj","5e9f70a9eec34b1108c84413","fixation","","","img/fixation.png","null","","","test","","","","","","","","","","","","","","","","","","","",""
"305.60000014305115","265216","SARL_v6","SARL_v6fl0dllzj","5e9f70a9eec34b1108c84413","freq","","","img/orange_2bandit_a2.png","70","","70","test","1","","41","","","","square","circle","40","14","2","1","","","","","","","",""
"null","265714","SARL_v6","SARL_v6fl0dllzj","5e9f70a9eec34b1108c84413","freq_resp","","","img/orange_2bandit_a.png","70","img/orange_2bandit_a.png","70","test","","","","","","","","","","","2","","","","","","","","",""
"null","265866","SARL_v6","SARL_v6fl0dllzj","5e9f70a9eec34b1108c84413","fixation","","","img/fixation.png","null","","","test","","","","","","","","","","","","","","","","","","","",""
"315.5","266183","SARL_v6","SARL_v6fl0dllzj","5e9f70a9eec34b1108c84413","freq","","","img/orange_2bandit_a2.png","70","","70","test","1","","42","","","","square","circle","41","15","2","1","","","","","","","",""
"null","266682","SARL_v6","SARL_v6fl0dllzj","5e9f70a9eec34b1108c84413","freq_resp","","","img/orange_2bandit_a.png","70","img/orange_2bandit_a.png","70","test","","","","","","","","","","","2","","","","","","","","",""
"null","266834","SARL_v6","SARL_v6fl0dllzj","5e9f70a9eec34b1108c84413","fixation","","","img/fixation.png","null","","","test","","","","","","","","","","","","","","","","","","","",""
"302.59999990463257","267139","SARL_v6","SARL_v6fl0dllzj","5e9f70a9eec34b1108c84413","freq","","","img/orange_2bandit_a2.png","70","","70","test","1","","43","","","","square","circle","42","16","2","1","","","","","","","",""
"null","267651","SARL_v6","SARL_v6fl0dllzj","5e9f70a9eec34b1108c84413","freq_resp","","","img/orange_2bandit_a.png","70","img/orange_2bandit_a.png","70","test","","","","","","","","","","","2","","","","","","","","",""
"null","267803","SARL_v6","SARL_v6fl0dllzj","5e9f70a9eec34b1108c84413","fixation","","","img/fixation.png","null","","","test","","","","","","","","","","","","","","","","","","","",""
"579","268385","SARL_v6","SARL_v6fl0dllzj","5e9f70a9eec34b1108c84413","infreq","","","img/blue_2bandit_a2.png","68","","68","test","1","","44","","","","square","circle","43","17","2","1","","","","","","","",""
"null","268620","SARL_v6","SARL_v6fl0dllzj","5e9f70a9eec34b1108c84413","infreq_resp","","","img/blue_2bandit_a.png","68","img/blue_2bandit_a.png","68","test","","","","","","","","","","","2","","","","","","","","",""
"null","268773","SARL_v6","SARL_v6fl0dllzj","5e9f70a9eec34b1108c84413","fixation","","","img/fixation.png","null","","","test","","","","","","","","","","","","","","","","","","","",""
"407.2000000476837","269182","SARL_v6","SARL_v6fl0dllzj","5e9f70a9eec34b1108c84413","infreq","","","img/blue_2bandit_a2.png","68","","68","test","1","","45","","","","square","circle","44","18","2","1","","","","","","","",""
"null","269576","SARL_v6","SARL_v6fl0dllzj","5e9f70a9eec34b1108c84413","infreq_resp","","","img/blue_2bandit_a.png","68","img/blue_2bandit_a.png","68","test","","","","","","","","","","","2","","","","","","","","",""
"null","269734","SARL_v6","SARL_v6fl0dllzj","5e9f70a9eec34b1108c84413","fixation","","","img/fixation.png","null","","","test","","","","","","","","","","","","","","","","","","","",""
"573.3999998569489","270310","SARL_v6","SARL_v6fl0dllzj","5e9f70a9eec34b1108c84413","freq","","","img/orange_2bandit_a2.png","70","","70","test","1","","46","","","","square","circle","45","19","2","1","","","","","","","",""
"null","270553","SARL_v6","SARL_v6fl0dllzj","5e9f70a9eec34b1108c84413","freq_resp","","","img/orange_2bandit_a.png","70","img/orange_2bandit_a.png","70","test","","","","","","","","","","","2","","","","","","","","",""
"null","270706","SARL_v6","SARL_v6fl0dllzj","5e9f70a9eec34b1108c84413","fixation","","","img/fixation.png","null","","","test","","","","","","","","","","","","","","","","","","","",""
"404.7999999523163","271113","SARL_v6","SARL_v6fl0dllzj","5e9f70a9eec34b1108c84413","freq","","","img/orange_2bandit_a2.png","70","","70","test","1","","47","","","","square","circle","46","20","2","1","","","","","","","",""
"null","271512","SARL_v6","SARL_v6fl0dllzj","5e9f70a9eec34b1108c84413","freq_resp","","","img/orange_2bandit_a.png","70","img/orange_2bandit_a.png","70","test","","","","","","","","","","","2","","","","","","","","",""
"null","271667","SARL_v6","SARL_v6fl0dllzj","5e9f70a9eec34b1108c84413","fixation","","","img/fixation.png","null","","","test","","","","","","","","","","","","","","","","","","","",""
"335.2000000476837","272004","SARL_v6","SARL_v6fl0dllzj","5e9f70a9eec34b1108c84413","freq","","","img/orange_2bandit_a2.png","70","","70","test","1","","48","","","","square","circle","47","21","2","1","","","","","","","",""
"null","272486","SARL_v6","SARL_v6fl0dllzj","5e9f70a9eec34b1108c84413","freq_resp","","","img/orange_2bandit_a.png","70","img/orange_2bandit_a.png","70","test","","","","","","","","","","","2","","","","","","","","",""
"null","272638","SARL_v6","SARL_v6fl0dllzj","5e9f70a9eec34b1108c84413","fixation","","","img/fixation.png","null","","","test","","","","","","","","","","","","","","","","","","","",""
"511.19999980926514","273151","SARL_v6","SARL_v6fl0dllzj","5e9f70a9eec34b1108c84413","rl","","","img/black_2bandit_a2.png","74","","0","test","","","49","","","-5","square","circle","","0","2","","74","-8","-5","-5","-8","square","2","0"
"null","273918","SARL_v6","SARL_v6fl0dllzj","5e9f70a9eec34b1108c84413","feedback","","","<div class=""verylowPoints_sq""> -5 </div>","null","","na","test","","","NaN","","","","","","","","2","","74","","","","","","2",""
"null","274732","SARL_v6","SARL_v6fl0dllzj","5e9f70a9eec34b1108c84413","freq","","","img/orange_2bandit_a2.png","null","","70","test","0","","50","","","","square","circle","48","1","3","0.9791666666666666","","","","","","","",""
"null","274887","SARL_v6","SARL_v6fl0dllzj","5e9f70a9eec34b1108c84413","fixation","","","img/fixation.png","null","","","test","","","","","","","","","","","","","","","","","","","",""
"629.5999999046326","275519","SARL_v6","SARL_v6fl0dllzj","5e9f70a9eec34b1108c84413","freq","","","img/orange_2bandit_a2.png","70","","70","test","1","","51","","","","square","circle","49","2","3","0.9795918367346939","","","","","","","",""
"null","275696","SARL_v6","SARL_v6fl0dllzj","5e9f70a9eec34b1108c84413","freq_resp","","","img/orange_2bandit_a.png","70","img/orange_2bandit_a.png","70","test","","","","","","","","","","","3","","","","","","","","",""
"null","275849","SARL_v6","SARL_v6fl0dllzj","5e9f70a9eec34b1108c84413","fixation","","","img/fixation.png","null","","","test","","","","","","","","","","","","","","","","","","","",""
"402","276253","SARL_v6","SARL_v6fl0dllzj","5e9f70a9eec34b1108c84413","freq","","","img/orange_2bandit_a2.png","70","","70","test","1","","52","","","","square","circle","50","3","3","0.98","","","","","","","",""
"null","276666","SARL_v6","SARL_v6fl0dllzj","5e9f70a9eec34b1108c84413","freq_resp","","","img/orange_2bandit_a.png","70","img/orange_2bandit_a.png","70","test","","","","","","","","","","","3","","","","","","","","",""
"null","276823","SARL_v6","SARL_v6fl0dllzj","5e9f70a9eec34b1108c84413","fixation","","","img/fixation.png","null","","","test","","","","","","","","","","","","","","","","","","","",""
"317.59999990463257","277143","SARL_v6","SARL_v6fl0dllzj","5e9f70a9eec34b1108c84413","freq","","","img/orange_2bandit_a2.png","70","","70","test","1","","53","","","","square","circle","51","4","3","0.9803921568627451","","","","","","","",""
"null","277637","SARL_v6","SARL_v6fl0dllzj","5e9f70a9eec34b1108c84413","freq_resp","","","img/orange_2bandit_a.png","70","img/orange_2bandit_a.png","70","test","","","","","","","","","","","3","","","","","","","","",""
"null","277792","SARL_v6","SARL_v6fl0dllzj","5e9f70a9eec34b1108c84413","fixation","","","img/fixation.png","null","","","test","","","","","","","","","","","","","","","","","","","",""
"319.5","278114","SARL_v6","SARL_v6fl0dllzj","5e9f70a9eec34b1108c84413","freq","","","img/orange_2bandit_a2.png","70","","70","test","1","","54","","","","square","circle","52","5","3","0.9807692307692307","","","","","","","",""
"null","278605","SARL_v6","SARL_v6fl0dllzj","5e9f70a9eec34b1108c84413","freq_resp","","","img/orange_2bandit_a.png","70","img/orange_2bandit_a.png","70","test","","","","","","","","","","","3","","","","","","","","",""
"null","278757","SARL_v6","SARL_v6fl0dllzj","5e9f70a9eec34b1108c84413","fixation","","","img/fixation.png","null","","","test","","","","","","","","","","","","","","","","","","","",""
"317.7999999523163","279077","SARL_v6","SARL_v6fl0dllzj","5e9f70a9eec34b1108c84413","freq","","","img/orange_2bandit_a2.png","70","","70","test","1","","55","","","","square","circle","53","6","3","0.9811320754716981","","","","","","","",""
"null","279572","SARL_v6","SARL_v6fl0dllzj","5e9f70a9eec34b1108c84413","freq_resp","","","img/orange_2bandit_a.png","70","img/orange_2bandit_a.png","70","test","","","","","","","","","","","3","","","","","","","","",""
"null","279725","SARL_v6","SARL_v6fl0dllzj","5e9f70a9eec34b1108c84413","fixation","","","img/fixation.png","null","","","test","","","","","","","","","","","","","","","","","","","",""
"355.39999985694885","280083","SARL_v6","SARL_v6fl0dllzj","5e9f70a9eec34b1108c84413","freq","","","img/orange_2bandit_a2.png","70","","70","test","1","","56","","","","square","circle","54","7","3","0.9814814814814815","","","","","","","",""
"null","280543","SARL_v6","SARL_v6fl0dllzj","5e9f70a9eec34b1108c84413","freq_resp","","","img/orange_2bandit_a.png","70","img/orange_2bandit_a.png","70","test","","","","","","","","","","","3","","","","","","","","",""
"null","280703","SARL_v6","SARL_v6fl0dllzj","5e9f70a9eec34b1108c84413","fixation","","","img/fixation.png","null","","","test","","","","","","","","","","","","","","","","","","","",""
"355.10000014305115","281061","SARL_v6","SARL_v6fl0dllzj","5e9f70a9eec34b1108c84413","freq","","","img/orange_2bandit_a2.png","70","","70","test","1","","57","","","","square","circle","55","8","3","0.9818181818181818","","","","","","","",""
"null","281523","SARL_v6","SARL_v6fl0dllzj","5e9f70a9eec34b1108c84413","freq_resp","","","img/orange_2bandit_a.png","70","img/orange_2bandit_a.png","70","test","","","","","","","","","","","3","","","","","","","","",""
"null","281676","SARL_v6","SARL_v6fl0dllzj","5e9f70a9eec34b1108c84413","fixation","","","img/fixation.png","null","","","test","","","","","","","","","","","","","","","","","","","",""
"303.59999990463257","281982","SARL_v6","SARL_v6fl0dllzj","5e9f70a9eec34b1108c84413","freq","","","img/orange_2bandit_a2.png","70","","70","test","1","","58","","","","square","circle","56","9","3","0.9821428571428571","","","","","","","",""
"null","282495","SARL_v6","SARL_v6fl0dllzj","5e9f70a9eec34b1108c84413","freq_resp","","","img/orange_2bandit_a.png","70","img/orange_2bandit_a.png","70","test","","","","","","","","","","","3","","","","","","","","",""
"null","282648","SARL_v6","SARL_v6fl0dllzj","5e9f70a9eec34b1108c84413","fixation","","","img/fixation.png","null","","","test","","","","","","","","","","","","","","","","","","","",""
"440","283090","SARL_v6","SARL_v6fl0dllzj","5e9f70a9eec34b1108c84413","infreq","","","img/blue_2bandit_a2.png","68","","68","test","1","","59","","","","square","circle","57","10","3","0.9824561403508771","","","","","","","",""
"null","283456","SARL_v6","SARL_v6fl0dllzj","5e9f70a9eec34b1108c84413","infreq_resp","","","img/blue_2bandit_a.png","68","img/blue_2bandit_a.png","68","test","","","","","","","","","","","3","","","","","","","","",""
"null","283613","SARL_v6","SARL_v6fl0dllzj","5e9f70a9eec34b1108c84413","fixation","","","img/fixation.png","null","","","test","","","","","","","","","","","","","","","","","","","",""
"486.2000000476837","284101","SARL_v6","SARL_v6fl0dllzj","5e9f70a9eec34b1108c84413","infreq","","","img/blue_2bandit_a2.png","68","","68","test","1","","60","","","","square","circle","58","11","3","0.9827586206896551","","","","","","","",""
"null","284432","SARL_v6","SARL_v6fl0dllzj","5e9f70a9eec34b1108c84413","infreq_resp","","","img/blue_2bandit_a.png","68","img/blue_2bandit_a.png","68","test","","","","","","","","","","","3","","","","","","","","",""
"null","284585","SARL_v6","SARL_v6fl0dllzj","5e9f70a9eec34b1108c84413","fixation","","","img/fixation.png","null","","","test","","","","","","","","","","","","","","","","","","","",""
"519.6000001430511","285106","SARL_v6","SARL_v6fl0dllzj","5e9f70a9eec34b1108c84413","freq","","","img/orange_2bandit_a2.png","70","","70","test","1","","61","","","","square","circle","59","12","3","0.9830508474576272","","","","","","","",""
"null","285403","SARL_v6","SARL_v6fl0dllzj","5e9f70a9eec34b1108c84413","freq_resp","","","img/orange_2bandit_a.png","70","img/orange_2bandit_a.png","70","test","","","","","","","","","","","3","","","","","","","","",""
"null","285556","SARL_v6","SARL_v6fl0dllzj","5e9f70a9eec34b1108c84413","fixation","","","img/fixation.png","null","","","test","","","","","","","","","","","","","","","","","","","",""
"399.30000019073486","285957","SARL_v6","SARL_v6fl0dllzj","5e9f70a9eec34b1108c84413","freq","","","img/orange_2bandit_a2.png","70","","70","test","1","","62","","","","square","circle","60","13","3","0.9833333333333333","","","","","","","",""
"null","286362","SARL_v6","SARL_v6fl0dllzj","5e9f70a9eec34b1108c84413","freq_resp","","","img/orange_2bandit_a.png","70","img/orange_2bandit_a.png","70","test","","","","","","","","","","","3","","","","","","","","",""
"null","286520","SARL_v6","SARL_v6fl0dllzj","5e9f70a9eec34b1108c84413","fixation","","","img/fixation.png","null","","","test","","","","","","","","","","","","","","","","","","","",""
"351.39999985694885","286874","SARL_v6","SARL_v6fl0dllzj","5e9f70a9eec34b1108c84413","freq","","","img/orange_2bandit_a2.png","70","","70","test","1","","63","","","","square","circle","61","14","3","0.9836065573770492","","","","","","","",""
"null","287335","SARL_v6","SARL_v6fl0dllzj","5e9f70a9eec34b1108c84413","freq_resp","","","img/orange_2bandit_a.png","70","img/orange_2bandit_a.png","70","test","","","","","","","","","","","3","","","","","","","","",""
"null","287488","SARL_v6","SARL_v6fl0dllzj","5e9f70a9eec34b1108c84413","fixation","","","img/fixation.png","null","","","test","","","","","","","","","","","","","","","","","","","",""
"329.90000009536743","287820","SARL_v6","SARL_v6fl0dllzj","5e9f70a9eec34b1108c84413","freq","","","img/orange_2bandit_a2.png","70","","70","test","1","","64","","","","square","circle","62","15","3","0.9838709677419355","","","","","","","",""
"null","288307","SARL_v6","SARL_v6fl0dllzj","5e9f70a9eec34b1108c84413","freq_resp","","","img/orange_2bandit_a.png","70","img/orange_2bandit_a.png","70","test","","","","","","","","","","","3","","","","","","","","",""
"null","288460","SARL_v6","SARL_v6fl0dllzj","5e9f70a9eec34b1108c84413","fixation","","","img/fixation.png","null","","","test","","","","","","","","","","","","","","","","","","","",""
"259.39999985694885","288721","SARL_v6","SARL_v6fl0dllzj","5e9f70a9eec34b1108c84413","freq","","","img/orange_2bandit_a2.png","70","","70","test","1","","65","","","","square","circle","63","16","3","0.9841269841269841","","","","","","","",""
"null","289265","SARL_v6","SARL_v6fl0dllzj","5e9f70a9eec34b1108c84413","freq_resp","","","img/orange_2bandit_a.png","70","img/orange_2bandit_a.png","70","test","","","","","","","","","","","3","","","","","","","","",""
"null","289419","SARL_v6","SARL_v6fl0dllzj","5e9f70a9eec34b1108c84413","fixation","","","img/fixation.png","null","","","test","","","","","","","","","","","","","","","","","","","",""
"327.19999980926514","289748","SARL_v6","SARL_v6fl0dllzj","5e9f70a9eec34b1108c84413","freq","","","img/orange_2bandit_a2.png","70","","70","test","1","","66","","","","square","circle","64","17","3","0.984375","","","","","","","",""
"null","290225","SARL_v6","SARL_v6fl0dllzj","5e9f70a9eec34b1108c84413","freq_resp","","","img/orange_2bandit_a.png","70","img/orange_2bandit_a.png","70","test","","","","","","","","","","","3","","","","","","","","",""
"null","290377","SARL_v6","SARL_v6fl0dllzj","5e9f70a9eec34b1108c84413","fixation","","","img/fixation.png","null","","","test","","","","","","","","","","","","","","","","","","","",""
"325","290704","SARL_v6","SARL_v6fl0dllzj","5e9f70a9eec34b1108c84413","freq","","","img/orange_2bandit_a2.png","70","","70","test","1","","67","","","","square","circle","65","18","3","0.9846153846153847","","","","","","","",""
"null","291182","SARL_v6","SARL_v6fl0dllzj","5e9f70a9eec34b1108c84413","freq_resp","","","img/orange_2bandit_a.png","70","img/orange_2bandit_a.png","70","test","","","","","","","","","","","3","","","","","","","","",""
"null","291335","SARL_v6","SARL_v6fl0dllzj","5e9f70a9eec34b1108c84413","fixation","","","img/fixation.png","null","","","test","","","","","","","","","","","","","","","","","","","",""
"306.10000014305115","291643","SARL_v6","SARL_v6fl0dllzj","5e9f70a9eec34b1108c84413","freq","","","img/orange_2bandit_a2.png","70","","70","test","1","","68","","","","square","circle","66","19","3","0.9848484848484849","","","","","","","",""
"null","292152","SARL_v6","SARL_v6fl0dllzj","5e9f70a9eec34b1108c84413","freq_resp","","","img/orange_2bandit_a.png","70","img/orange_2bandit_a.png","70","test","","","","","","","","","","","3","","","","","","","","",""
"null","292306","SARL_v6","SARL_v6fl0dllzj","5e9f70a9eec34b1108c84413","fixation","","","img/fixation.png","null","","","test","","","","","","","","","","","","","","","","","","","",""
"350.7999999523163","292659","SARL_v6","SARL_v6fl0dllzj","5e9f70a9eec34b1108c84413","freq","","","img/orange_2bandit_a2.png","70","","70","test","1","","69","","","","square","circle","67","20","3","0.9850746268656716","","","","","","","",""
"null","293124","SARL_v6","SARL_v6fl0dllzj","5e9f70a9eec34b1108c84413","freq_resp","","","img/orange_2bandit_a.png","70","img/orange_2bandit_a.png","70","test","","","","","","","","","","","3","","","","","","","","",""
"null","293277","SARL_v6","SARL_v6fl0dllzj","5e9f70a9eec34b1108c84413","fixation","","","img/fixation.png","null","","","test","","","","","","","","","","","","","","","","","","","",""
"327.40000009536743","293607","SARL_v6","SARL_v6fl0dllzj","5e9f70a9eec34b1108c84413","freq","","","img/orange_2bandit_a2.png","70","","70","test","1","","70","","","","square","circle","68","21","3","0.9852941176470589","","","","","","","",""
"null","294095","SARL_v6","SARL_v6fl0dllzj","5e9f70a9eec34b1108c84413","freq_resp","","","img/orange_2bandit_a.png","70","img/orange_2bandit_a.png","70","test","","","","","","","","","","","3","","","","","","","","",""
"null","294251","SARL_v6","SARL_v6fl0dllzj","5e9f70a9eec34b1108c84413","fixation","","","img/fixation.png","null","","","test","","","","","","","","","","","","","","","","","","","",""
"662.8000001907349","294916","SARL_v6","SARL_v6fl0dllzj","5e9f70a9eec34b1108c84413","rl","","","img/black_2bandit_a2.png","74","","0","test","","","71","","","-4","square","circle","","0","3","","74","-8","-4","-4","-8","square","3","0"
"null","295676","SARL_v6","SARL_v6fl0dllzj","5e9f70a9eec34b1108c84413","feedback","","","<div class=""verylowPoints_sq""> -4 </div>","null","","na","test","","","NaN","","","","","","","","3","","74","","","","","","3",""
"766.9000000953674","296445","SARL_v6","SARL_v6fl0dllzj","5e9f70a9eec34b1108c84413","freq","","","img/orange_2bandit_a2.png","70","","70","test","1","","72","","","","square","circle","69","1","4","0.9855072463768116","","","","","","","",""
"null","296483","SARL_v6","SARL_v6fl0dllzj","5e9f70a9eec34b1108c84413","freq_resp","","","img/orange_2bandit_a.png","70","img/orange_2bandit_a.png","70","test","","","","","","","","","","","4","","","","","","","","",""
"null","296645","SARL_v6","SARL_v6fl0dllzj","5e9f70a9eec34b1108c84413","fixation","","","img/fixation.png","null","","","test","","","","","","","","","","","","","","","","","","","",""
"473.39999985694885","297121","SARL_v6","SARL_v6fl0dllzj","5e9f70a9eec34b1108c84413","freq","","","img/orange_2bandit_a2.png","70","","70","test","1","","73","","","","square","circle","70","2","4","0.9857142857142858","","","","","","","",""
"null","297461","SARL_v6","SARL_v6fl0dllzj","5e9f70a9eec34b1108c84413","freq_resp","","","img/orange_2bandit_a.png","70","img/orange_2bandit_a.png","70","test","","","","","","","","","","","4","","","","","","","","",""
"null","297616","SARL_v6","SARL_v6fl0dllzj","5e9f70a9eec34b1108c84413","fixation","","","img/fixation.png","null","","","test","","","","","","","","","","","","","","","","","","","",""
"424.2000000476837","298044","SARL_v6","SARL_v6fl0dllzj","5e9f70a9eec34b1108c84413","freq","","","img/orange_2bandit_a2.png","70","","70","test","1","","74","","","","square","circle","71","3","4","0.9859154929577465","","","","","","","",""
"null","298425","SARL_v6","SARL_v6fl0dllzj","5e9f70a9eec34b1108c84413","freq_resp","","","img/orange_2bandit_a.png","70","img/orange_2bandit_a.png","70","test","","","","","","","","","","","4","","","","","","","","",""
"null","298582","SARL_v6","SARL_v6fl0dllzj","5e9f70a9eec34b1108c84413","fixation","","","img/fixation.png","null","","","test","","","","","","","","","","","","","","","","","","","",""
"336","298921","SARL_v6","SARL_v6fl0dllzj","5e9f70a9eec34b1108c84413","freq","","","img/orange_2bandit_a2.png","70","","70","test","1","","75","","","","square","circle","72","4","4","0.9861111111111112","","","","","","","",""
"null","299395","SARL_v6","SARL_v6fl0dllzj","5e9f70a9eec34b1108c84413","freq_resp","","","img/orange_2bandit_a.png","70","img/orange_2bandit_a.png","70","test","","","","","","","","","","","4","","","","","","","","",""
"null","299552","SARL_v6","SARL_v6fl0dllzj","5e9f70a9eec34b1108c84413","fixation","","","img/fixation.png","null","","","test","","","","","","","","","","","","","","","","","","","",""
"289.90000009536743","299844","SARL_v6","SARL_v6fl0dllzj","5e9f70a9eec34b1108c84413","freq","","","img/orange_2bandit_a2.png","70","","70","test","1","","76","","","","square","circle","73","5","4","0.9863013698630136","","","","","","","",""
"null","300366","SARL_v6","SARL_v6fl0dllzj","5e9f70a9eec34b1108c84413","freq_resp","","","img/orange_2bandit_a.png","70","img/orange_2bandit_a.png","70","test","","","","","","","","","","","4","","","","","","","","",""
"null","300519","SARL_v6","SARL_v6fl0dllzj","5e9f70a9eec34b1108c84413","fixation","","","img/fixation.png","null","","","test","","","","","","","","","","","","","","","","","","","",""
"259.7000000476837","300780","SARL_v6","SARL_v6fl0dllzj","5e9f70a9eec34b1108c84413","freq","","","img/orange_2bandit_a2.png","70","","70","test","1","","77","","","","square","circle","74","6","4","0.9864864864864865","","","","","","","",""
"null","301338","SARL_v6","SARL_v6fl0dllzj","5e9f70a9eec34b1108c84413","freq_resp","","","img/orange_2bandit_a.png","70","img/orange_2bandit_a.png","70","test","","","","","","","","","","","4","","","","","","","","",""
"null","301490","SARL_v6","SARL_v6fl0dllzj","5e9f70a9eec34b1108c84413","fixation","","","img/fixation.png","null","","","test","","","","","","","","","","","","","","","","","","","",""
"561.1999998092651","302054","SARL_v6","SARL_v6fl0dllzj","5e9f70a9eec34b1108c84413","infreq","","","img/blue_2bandit_a2.png","68","","68","test","1","","78","","","","square","circle","75","7","4","0.9866666666666667","","","","","","","",""
"null","302307","SARL_v6","SARL_v6fl0dllzj","5e9f70a9eec34b1108c84413","infreq_resp","","","img/blue_2bandit_a.png","68","img/blue_2bandit_a.png","68","test","","","","","","","","","","","4","","","","","","","","",""
"null","302464","SARL_v6","SARL_v6fl0dllzj","5e9f70a9eec34b1108c84413","fixation","","","img/fixation.png","null","","","test","","","","","","","","","","","","","","","","","","","",""
"467.59999990463257","302933","SARL_v6","SARL_v6fl0dllzj","5e9f70a9eec34b1108c84413","freq","","","img/orange_2bandit_a2.png","70","","70","test","1","","79","","","","square","circle","76","8","4","0.9868421052631579","","","","","","","",""
"null","303275","SARL_v6","SARL_v6fl0dllzj","5e9f70a9eec34b1108c84413","freq_resp","","","img/orange_2bandit_a.png","70","img/orange_2bandit_a.png","70","test","","","","","","","","","","","4","","","","","","","","",""
"null","303429","SARL_v6","SARL_v6fl0dllzj","5e9f70a9eec34b1108c84413","fixation","","","img/fixation.png","null","","","test","","","","","","","","","","","","","","","","","","","",""
"338","303769","SARL_v6","SARL_v6fl0dllzj","5e9f70a9eec34b1108c84413","freq","","","img/orange_2bandit_a2.png","70","","70","test","1","","80","","","","square","circle","77","9","4","0.987012987012987","","","","","","","",""
"null","304247","SARL_v6","SARL_v6fl0dllzj","5e9f70a9eec34b1108c84413","freq_resp","","","img/orange_2bandit_a.png","70","img/orange_2bandit_a.png","70","test","","","","","","","","","","","4","","","","","","","","",""
"null","304399","SARL_v6","SARL_v6fl0dllzj","5e9f70a9eec34b1108c84413","fixation","","","img/fixation.png","null","","","test","","","","","","","","","","","","","","","","","","","",""
"340.09999990463257","304741","SARL_v6","SARL_v6fl0dllzj","5e9f70a9eec34b1108c84413","freq","","","img/orange_2bandit_a2.png","70","","70","test","1","","81","","","","square","circle","78","10","4","0.9871794871794872","","","","","","","",""
"null","305217","SARL_v6","SARL_v6fl0dllzj","5e9f70a9eec34b1108c84413","freq_resp","","","img/orange_2bandit_a.png","70","img/orange_2bandit_a.png","70","test","","","","","","","","","","","4","","","","","","","","",""
"null","305370","SARL_v6","SARL_v6fl0dllzj","5e9f70a9eec34b1108c84413","fixation","","","img/fixation.png","null","","","test","","","","","","","","","","","","","","","","","","","",""
"319.7000000476837","305692","SARL_v6","SARL_v6fl0dllzj","5e9f70a9eec34b1108c84413","freq","","","img/orange_2bandit_a2.png","70","","70","test","1","","82","","","","square","circle","79","11","4","0.9873417721518988","","","","","","","",""
"null","306188","SARL_v6","SARL_v6fl0dllzj","5e9f70a9eec34b1108c84413","freq_resp","","","img/orange_2bandit_a.png","70","img/orange_2bandit_a.png","70","test","","","","","","","","","","","4","","","","","","","","",""
"null","306346","SARL_v6","SARL_v6fl0dllzj","5e9f70a9eec34b1108c84413","fixation","","","img/fixation.png","null","","","test","","","","","","","","","","","","","","","","","","","",""
"476.2000000476837","306824","SARL_v6","SARL_v6fl0dllzj","5e9f70a9eec34b1108c84413","freq","","","img/orange_2bandit_a2.png","70","","70","test","1","","83","","","","square","circle","80","12","4","0.9875","","","","","","","",""
"null","307160","SARL_v6","SARL_v6fl0dllzj","5e9f70a9eec34b1108c84413","freq_resp","","","img/orange_2bandit_a.png","70","img/orange_2bandit_a.png","70","test","","","","","","","","","","","4","","","","","","","","",""
"null","307318","SARL_v6","SARL_v6fl0dllzj","5e9f70a9eec34b1108c84413","fixation","","","img/fixation.png","null","","","test","","","","","","","","","","","","","","","","","","","",""
"378.7999999523163","307698","SARL_v6","SARL_v6fl0dllzj","5e9f70a9eec34b1108c84413","freq","","","img/orange_2bandit_a2.png","70","","70","test","1","","84","","","","square","circle","81","13","4","0.9876543209876543","","","","","","","",""
"null","308127","SARL_v6","SARL_v6fl0dllzj","5e9f70a9eec34b1108c84413","freq_resp","","","img/orange_2bandit_a.png","70","img/orange_2bandit_a.png","70","test","","","","","","","","","","","4","","","","","","","","",""
"null","308285","SARL_v6","SARL_v6fl0dllzj","5e9f70a9eec34b1108c84413","fixation","","","img/fixation.png","null","","","test","","","","","","","","","","","","","","","","","","","",""
"355.2000000476837","308642","SARL_v6","SARL_v6fl0dllzj","5e9f70a9eec34b1108c84413","infreq","","","img/blue_2bandit_a2.png","68","","68","test","1","","85","","","","square","circle","82","14","4","0.9878048780487805","","","","","","","",""
"null","309103","SARL_v6","SARL_v6fl0dllzj","5e9f70a9eec34b1108c84413","infreq_resp","","","img/blue_2bandit_a.png","68","img/blue_2bandit_a.png","68","test","","","","","","","","","","","4","","","","","","","","",""
"null","309261","SARL_v6","SARL_v6fl0dllzj","5e9f70a9eec34b1108c84413","fixation","","","img/fixation.png","null","","","test","","","","","","","","","","","","","","","","","","","",""
"511.5","309774","SARL_v6","SARL_v6fl0dllzj","5e9f70a9eec34b1108c84413","freq","","","img/orange_2bandit_a2.png","70","","70","test","1","","86","","","","square","circle","83","15","4","0.9879518072289156","","","","","","","",""
"null","310077","SARL_v6","SARL_v6fl0dllzj","5e9f70a9eec34b1108c84413","freq_resp","","","img/orange_2bandit_a.png","70","img/orange_2bandit_a.png","70","test","","","","","","","","","","","4","","","","","","","","",""
"null","310230","SARL_v6","SARL_v6fl0dllzj","5e9f70a9eec34b1108c84413","fixation","","","img/fixation.png","null","","","test","","","","","","","","","","","","","","","","","","","",""
"323.2999999523163","310555","SARL_v6","SARL_v6fl0dllzj","5e9f70a9eec34b1108c84413","freq","","","img/orange_2bandit_a2.png","70","","70","test","1","","87","","","","square","circle","84","16","4","0.9880952380952381","","","","","","","",""
"null","311035","SARL_v6","SARL_v6fl0dllzj","5e9f70a9eec34b1108c84413","freq_resp","","","img/orange_2bandit_a.png","70","img/orange_2bandit_a.png","70","test","","","","","","","","","","","4","","","","","","","","",""
"null","311194","SARL_v6","SARL_v6fl0dllzj","5e9f70a9eec34b1108c84413","fixation","","","img/fixation.png","null","","","test","","","","","","","","","","","","","","","","","","","",""
"537.5999999046326","311733","SARL_v6","SARL_v6fl0dllzj","5e9f70a9eec34b1108c84413","freq","","","img/orange_2bandit_a2.png","70","","70","test","1","","88","","","","square","circle","85","17","4","0.9882352941176471","","","","","","","",""
"null","312011","SARL_v6","SARL_v6fl0dllzj","5e9f70a9eec34b1108c84413","freq_resp","","","img/orange_2bandit_a.png","70","img/orange_2bandit_a.png","70","test","","","","","","","","","","","4","","","","","","","","",""
"null","312164","SARL_v6","SARL_v6fl0dllzj","5e9f70a9eec34b1108c84413","fixation","","","img/fixation.png","null","","","test","","","","","","","","","","","","","","","","","","","",""
"368.5","312534","SARL_v6","SARL_v6fl0dllzj","5e9f70a9eec34b1108c84413","freq","","","img/orange_2bandit_a2.png","70","","70","test","1","","89","","","","square","circle","86","18","4","0.9883720930232558","","","","","","","",""
"null","312970","SARL_v6","SARL_v6fl0dllzj","5e9f70a9eec34b1108c84413","freq_resp","","","img/orange_2bandit_a.png","70","img/orange_2bandit_a.png","70","test","","","","","","","","","","","4","","","","","","","","",""
"null","313126","SARL_v6","SARL_v6fl0dllzj","5e9f70a9eec34b1108c84413","fixation","","","img/fixation.png","null","","","test","","","","","","","","","","","","","","","","","","","",""
"356.2000000476837","313485","SARL_v6","SARL_v6fl0dllzj","5e9f70a9eec34b1108c84413","freq","","","img/orange_2bandit_a2.png","70","","70","test","1","","90","","","","square","circle","87","19","4","0.9885057471264368","","","","","","","",""
"null","313945","SARL_v6","SARL_v6fl0dllzj","5e9f70a9eec34b1108c84413","freq_resp","","","img/orange_2bandit_a.png","70","img/orange_2bandit_a.png","70","test","","","","","","","","","","","4","","","","","","","","",""
"null","314103","SARL_v6","SARL_v6fl0dllzj","5e9f70a9eec34b1108c84413","fixation","","","img/fixation.png","null","","","test","","","","","","","","","","","","","","","","","","","",""
"401","314506","SARL_v6","SARL_v6fl0dllzj","5e9f70a9eec34b1108c84413","freq","","","img/orange_2bandit_a2.png","70","","70","test","1","","91","","","","square","circle","88","20","4","0.9886363636363636","","","","","","","",""
"null","314920","SARL_v6","SARL_v6fl0dllzj","5e9f70a9eec34b1108c84413","freq_resp","","","img/orange_2bandit_a.png","70","img/orange_2bandit_a.png","70","test","","","","","","","","","","","4","","","","","","","","",""
"null","315077","SARL_v6","SARL_v6fl0dllzj","5e9f70a9eec34b1108c84413","fixation","","","img/fixation.png","null","","","test","","","","","","","","","","","","","","","","","","","",""
"318","315397","SARL_v6","SARL_v6fl0dllzj","5e9f70a9eec34b1108c84413","freq","","","img/orange_2bandit_a2.png","70","","70","test","1","","92","","","","square","circle","89","21","4","0.9887640449438202","","","","","","","",""
"null","315893","SARL_v6","SARL_v6fl0dllzj","5e9f70a9eec34b1108c84413","freq_resp","","","img/orange_2bandit_a.png","70","img/orange_2bandit_a.png","70","test","","","","","","","","","","","4","","","","","","","","",""
"null","316046","SARL_v6","SARL_v6fl0dllzj","5e9f70a9eec34b1108c84413","fixation","","","img/fixation.png","null","","","test","","","","","","","","","","","","","","","","","","","",""
"697.1999998092651","316745","SARL_v6","SARL_v6fl0dllzj","5e9f70a9eec34b1108c84413","rl","","","img/black_2bandit_a2.png","75","","0","test","","","93","","","-12","square","circle","","0","4","","75","-12","0","0","-12","circle","4","0"
"null","317509","SARL_v6","SARL_v6fl0dllzj","5e9f70a9eec34b1108c84413","feedback","","","<div class=""verylowPoints""> -12 </div>","null","","na","test","","","NaN","","","","","","","","4","","75","","","","","","4",""
"578.5","318089","SARL_v6","SARL_v6fl0dllzj","5e9f70a9eec34b1108c84413","freq","","","img/orange_2bandit_a2.png","70","","70","test","1","","94","","","","square","circle","90","1","5","0.9888888888888889","","","","","","","",""
"null","318322","SARL_v6","SARL_v6fl0dllzj","5e9f70a9eec34b1108c84413","freq_resp","","","img/orange_2bandit_a.png","70","img/orange_2bandit_a.png","70","test","","","","","","","","","","","5","","","","","","","","",""
"null","318479","SARL_v6","SARL_v6fl0dllzj","5e9f70a9eec34b1108c84413","fixation","","","img/fixation.png","null","","","test","","","","","","","","","","","","","","","","","","","",""
"512.0999999046326","318993","SARL_v6","SARL_v6fl0dllzj","5e9f70a9eec34b1108c84413","freq","","","img/orange_2bandit_a2.png","70","","70","test","1","","95","","","","square","circle","91","2","5","0.989010989010989","","","","","","","",""
"null","319293","SARL_v6","SARL_v6fl0dllzj","5e9f70a9eec34b1108c84413","freq_resp","","","img/orange_2bandit_a.png","70","img/orange_2bandit_a.png","70","test","","","","","","","","","","","5","","","","","","","","",""
"null","319445","SARL_v6","SARL_v6fl0dllzj","5e9f70a9eec34b1108c84413","fixation","","","img/fixation.png","null","","","test","","","","","","","","","","","","","","","","","","","",""
"470","319917","SARL_v6","SARL_v6fl0dllzj","5e9f70a9eec34b1108c84413","freq","","","img/orange_2bandit_a2.png","70","","70","test","1","","96","","","","square","circle","92","3","5","0.9891304347826086","","","","","","","",""
"null","320260","SARL_v6","SARL_v6fl0dllzj","5e9f70a9eec34b1108c84413","freq_resp","","","img/orange_2bandit_a.png","70","img/orange_2bandit_a.png","70","test","","","","","","","","","","","5","","","","","","","","",""
"null","320412","SARL_v6","SARL_v6fl0dllzj","5e9f70a9eec34b1108c84413","fixation","","","img/fixation.png","null","","","test","","","","","","","","","","","","","","","","","","","",""
"317.2000000476837","320732","SARL_v6","SARL_v6fl0dllzj","5e9f70a9eec34b1108c84413","freq","","","img/orange_2bandit_a2.png","70","","70","test","1","","97","","","","square","circle","93","4","5","0.989247311827957","","","","","","","",""
"null","321216","SARL_v6","SARL_v6fl0dllzj","5e9f70a9eec34b1108c84413","freq_resp","","","img/orange_2bandit_a.png","70","img/orange_2bandit_a.png","70","test","","","","","","","","","","","5","","","","","","","","",""
"null","321375","SARL_v6","SARL_v6fl0dllzj","5e9f70a9eec34b1108c84413","fixation","","","img/fixation.png","null","","","test","","","","","","","","","","","","","","","","","","","",""
"394.40000009536743","321772","SARL_v6","SARL_v6fl0dllzj","5e9f70a9eec34b1108c84413","infreq","","","img/blue_2bandit_a2.png","70","","68","test","0","","98","","","","square","circle","94","5","5","0.9787234042553191","","","","","","","",""
"null","322184","SARL_v6","SARL_v6fl0dllzj","5e9f70a9eec34b1108c84413","infreq_resp","","","img/blue_2bandit_a.png","70","img/blue_2bandit_a.png","68","test","","","","","","","","","","","5","","","","","","","","",""
"null","322342","SARL_v6","SARL_v6fl0dllzj","5e9f70a9eec34b1108c84413","fixation","","","img/fixation.png","null","","","test","","","","","","","","","","","","","","","","","","","",""
"563.0999999046326","322907","SARL_v6","SARL_v6fl0dllzj","5e9f70a9eec34b1108c84413","infreq","","","img/blue_2bandit_a2.png","68","","68","test","1","","99","","","","square","circle","95","6","5","0.9789473684210527","","","","","","","",""
"null","323158","SARL_v6","SARL_v6fl0dllzj","5e9f70a9eec34b1108c84413","infreq_resp","","","img/blue_2bandit_a.png","68","img/blue_2bandit_a.png","68","test","","","","","","","","","","","5","","","","","","","","",""
"null","323315","SARL_v6","SARL_v6fl0dllzj","5e9f70a9eec34b1108c84413","fixation","","","img/fixation.png","null","","","test","","","","","","","","","","","","","","","","","","","",""
"386.2000000476837","323703","SARL_v6","SARL_v6fl0dllzj","5e9f70a9eec34b1108c84413","freq","","","img/orange_2bandit_a2.png","70","","70","test","1","","100","","","","square","circle","96","7","5","0.9791666666666666","","","","","","","",""
"null","324131","SARL_v6","SARL_v6fl0dllzj","5e9f70a9eec34b1108c84413","freq_resp","","","img/orange_2bandit_a.png","70","img/orange_2bandit_a.png","70","test","","","","","","","","","","","5","","","","","","","","",""
"null","324288","SARL_v6","SARL_v6fl0dllzj","5e9f70a9eec34b1108c84413","fixation","","","img/fixation.png","null","","","test","","","","","","","","","","","","","","","","","","","",""
"433.59999990463257","324724","SARL_v6","SARL_v6fl0dllzj","5e9f70a9eec34b1108c84413","freq","","","img/orange_2bandit_a2.png","70","","70","test","1","","101","","","","square","circle","97","8","5","0.979381443298969","","","","","","","",""
"null","325103","SARL_v6","SARL_v6fl0dllzj","5e9f70a9eec34b1108c84413","freq_resp","","","img/orange_2bandit_a.png","70","img/orange_2bandit_a.png","70","test","","","","","","","","","","","5","","","","","","","","",""
"null","325259","SARL_v6","SARL_v6fl0dllzj","5e9f70a9eec34b1108c84413","fixation","","","img/fixation.png","null","","","test","","","","","","","","","","","","","","","","","","","",""
"420.40000009536743","325682","SARL_v6","SARL_v6fl0dllzj","5e9f70a9eec34b1108c84413","freq","","","img/orange_2bandit_a2.png","70","","70","test","1","","102","","","","square","circle","98","9","5","0.9795918367346939","","","","","","","",""
"null","326076","SARL_v6","SARL_v6fl0dllzj","5e9f70a9eec34b1108c84413","freq_resp","","","img/orange_2bandit_a.png","70","img/orange_2bandit_a.png","70","test","","","","","","","","","","","5","","","","","","","","",""
"null","326234","SARL_v6","SARL_v6fl0dllzj","5e9f70a9eec34b1108c84413","fixation","","","img/fixation.png","null","","","test","","","","","","","","","","","","","","","","","","","",""
"500","326736","SARL_v6","SARL_v6fl0dllzj","5e9f70a9eec34b1108c84413","freq","","","img/orange_2bandit_a2.png","70","","70","test","1","","103","","","","square","circle","99","10","5","0.9797979797979798","","","","","","","",""
"null","327052","SARL_v6","SARL_v6fl0dllzj","5e9f70a9eec34b1108c84413","freq_resp","","","img/orange_2bandit_a.png","70","img/orange_2bandit_a.png","70","test","","","","","","","","","","","5","","","","","","","","",""
"null","327209","SARL_v6","SARL_v6fl0dllzj","5e9f70a9eec34b1108c84413","fixation","","","img/fixation.png","null","","","test","","","","","","","","","","","","","","","","","","","",""
"423.5","327634","SARL_v6","SARL_v6fl0dllzj","5e9f70a9eec34b1108c84413","freq","","","img/orange_2bandit_a2.png","70","","70","test","1","","104","","","","square","circle","100","11","5","0.98","","","","","","","",""
"null","328019","SARL_v6","SARL_v6fl0dllzj","5e9f70a9eec34b1108c84413","freq_resp","","","img/orange_2bandit_a.png","70","img/orange_2bandit_a.png","70","test","","","","","","","","","","","5","","","","","","","","",""
"null","328176","SARL_v6","SARL_v6fl0dllzj","5e9f70a9eec34b1108c84413","fixation","","","img/fixation.png","null","","","test","","","","","","","","","","","","","","","","","","","",""
"505.2999999523163","328683","SARL_v6","SARL_v6fl0dllzj","5e9f70a9eec34b1108c84413","freq","","","img/orange_2bandit_a2.png","70","","70","test","1","","105","","","","square","circle","101","12","5","0.9801980198019802","","","","","","","",""
"null","328980","SARL_v6","SARL_v6fl0dllzj","5e9f70a9eec34b1108c84413","freq_resp","","","img/orange_2bandit_a.png","70","img/orange_2bandit_a.png","70","test","","","","","","","","","","","5","","","","","","","","",""
"null","329133","SARL_v6","SARL_v6fl0dllzj","5e9f70a9eec34b1108c84413","fixation","","","img/fixation.png","null","","","test","","","","","","","","","","","","","","","","","","","",""
"691.2000000476837","329826","SARL_v6","SARL_v6fl0dllzj","5e9f70a9eec34b1108c84413","freq","","","img/orange_2bandit_a2.png","70","","70","test","1","","106","","","","square","circle","102","13","5","0.9803921568627451","","","","","","","",""
"null","329938","SARL_v6","SARL_v6fl0dllzj","5e9f70a9eec34b1108c84413","freq_resp","","","img/orange_2bandit_a.png","70","img/orange_2bandit_a.png","70","test","","","","","","","","","","","5","","","","","","","","",""
"null","330097","SARL_v6","SARL_v6fl0dllzj","5e9f70a9eec34b1108c84413","fixation","","","img/fixation.png","null","","","test","","","","","","","","","","","","","","","","","","","",""
"492","330591","SARL_v6","SARL_v6fl0dllzj","5e9f70a9eec34b1108c84413","freq","","","img/orange_2bandit_a2.png","70","","70","test","1","","107","","","","square","circle","103","14","5","0.9805825242718447","","","","","","","",""
"null","330911","SARL_v6","SARL_v6fl0dllzj","5e9f70a9eec34b1108c84413","freq_resp","","","img/orange_2bandit_a.png","70","img/orange_2bandit_a.png","70","test","","","","","","","","","","","5","","","","","","","","",""
"null","331064","SARL_v6","SARL_v6fl0dllzj","5e9f70a9eec34b1108c84413","fixation","","","img/fixation.png","null","","","test","","","","","","","","","","","","","","","","","","","",""
"578.5","331644","SARL_v6","SARL_v6fl0dllzj","5e9f70a9eec34b1108c84413","freq","","","img/orange_2bandit_a2.png","70","","70","test","1","","108","","","","square","circle","104","15","5","0.9807692307692307","","","","","","","",""
"null","331869","SARL_v6","SARL_v6fl0dllzj","5e9f70a9eec34b1108c84413","freq_resp","","","img/orange_2bandit_a.png","70","img/orange_2bandit_a.png","70","test","","","","","","","","","","","5","","","","","","","","",""
"null","332021","SARL_v6","SARL_v6fl0dllzj","5e9f70a9eec34b1108c84413","fixation","","","img/fixation.png","null","","","test","","","","","","","","","","","","","","","","","","","",""
"640.7000000476837","332664","SARL_v6","SARL_v6fl0dllzj","5e9f70a9eec34b1108c84413","freq","","","img/orange_2bandit_a2.png","70","","70","test","1","","109","","","","square","circle","105","16","5","0.9809523809523809","","","","","","","",""
"null","332825","SARL_v6","SARL_v6fl0dllzj","5e9f70a9eec34b1108c84413","freq_resp","","","img/orange_2bandit_a.png","70","img/orange_2bandit_a.png","70","test","","","","","","","","","","","5","","","","","","","","",""
"null","332983","SARL_v6","SARL_v6fl0dllzj","5e9f70a9eec34b1108c84413","fixation","","","img/fixation.png","null","","","test","","","","","","","","","","","","","","","","","","","",""
"502.90000009536743","333488","SARL_v6","SARL_v6fl0dllzj","5e9f70a9eec34b1108c84413","freq","","","img/orange_2bandit_a2.png","70","","70","test","1","","110","","","","square","circle","106","17","5","0.9811320754716981","","","","","","","",""
"null","333799","SARL_v6","SARL_v6fl0dllzj","5e9f70a9eec34b1108c84413","freq_resp","","","img/orange_2bandit_a.png","70","img/orange_2bandit_a.png","70","test","","","","","","","","","","","5","","","","","","","","",""
"null","333952","SARL_v6","SARL_v6fl0dllzj","5e9f70a9eec34b1108c84413","fixation","","","img/fixation.png","null","","","test","","","","","","","","","","","","","","","","","","","",""
"327.39999985694885","334281","SARL_v6","SARL_v6fl0dllzj","5e9f70a9eec34b1108c84413","freq","","","img/orange_2bandit_a2.png","70","","70","test","1","","111","","","","square","circle","107","18","5","0.9813084112149533","","","","","","","",""
"null","334766","SARL_v6","SARL_v6fl0dllzj","5e9f70a9eec34b1108c84413","freq_resp","","","img/orange_2bandit_a.png","70","img/orange_2bandit_a.png","70","test","","","","","","","","","","","5","","","","","","","","",""
"null","334918","SARL_v6","SARL_v6fl0dllzj","5e9f70a9eec34b1108c84413","fixation","","","img/fixation.png","null","","","test","","","","","","","","","","","","","","","","","","","",""
"296.5","335217","SARL_v6","SARL_v6fl0dllzj","5e9f70a9eec34b1108c84413","freq","","","img/orange_2bandit_a2.png","70","","70","test","1","","112","","","","square","circle","108","19","5","0.9814814814814815","","","","","","","",""
"null","335724","SARL_v6","SARL_v6fl0dllzj","5e9f70a9eec34b1108c84413","freq_resp","","","img/orange_2bandit_a.png","70","img/orange_2bandit_a.png","70","test","","","","","","","","","","","5","","","","","","","","",""
"null","335877","SARL_v6","SARL_v6fl0dllzj","5e9f70a9eec34b1108c84413","fixation","","","img/fixation.png","null","","","test","","","","","","","","","","","","","","","","","","","",""
"333.30000019073486","336213","SARL_v6","SARL_v6fl0dllzj","5e9f70a9eec34b1108c84413","freq","","","img/orange_2bandit_a2.png","70","","70","test","1","","113","","","","square","circle","109","20","5","0.981651376146789","","","","","","","",""
"null","336695","SARL_v6","SARL_v6fl0dllzj","5e9f70a9eec34b1108c84413","freq_resp","","","img/orange_2bandit_a.png","70","img/orange_2bandit_a.png","70","test","","","","","","","","","","","5","","","","","","","","",""
"null","336847","SARL_v6","SARL_v6fl0dllzj","5e9f70a9eec34b1108c84413","fixation","","","img/fixation.png","null","","","test","","","","","","","","","","","","","","","","","","","",""
"379.90000009536743","337229","SARL_v6","SARL_v6fl0dllzj","5e9f70a9eec34b1108c84413","freq","","","img/orange_2bandit_a2.png","70","","70","test","1","","114","","","","square","circle","110","21","5","0.9818181818181818","","","","","","","",""
"null","337694","SARL_v6","SARL_v6fl0dllzj","5e9f70a9eec34b1108c84413","freq_resp","","","img/orange_2bandit_a.png","70","img/orange_2bandit_a.png","70","test","","","","","","","","","","","5","","","","","","","","",""
"null","337847","SARL_v6","SARL_v6fl0dllzj","5e9f70a9eec34b1108c84413","fixation","","","img/fixation.png","null","","","test","","","","","","","","","","","","","","","","","","","",""
"284","338133","SARL_v6","SARL_v6fl0dllzj","5e9f70a9eec34b1108c84413","freq","","","img/orange_2bandit_a2.png","70","","70","test","1","","115","","","","square","circle","111","22","5","0.9819819819819819","","","","","","","",""
"null","338653","SARL_v6","SARL_v6fl0dllzj","5e9f70a9eec34b1108c84413","freq_resp","","","img/orange_2bandit_a.png","70","img/orange_2bandit_a.png","70","test","","","","","","","","","","","5","","","","","","","","",""
"null","338806","SARL_v6","SARL_v6fl0dllzj","5e9f70a9eec34b1108c84413","fixation","","","img/fixation.png","null","","","test","","","","","","","","","","","","","","","","","","","",""
"251.90000009536743","339060","SARL_v6","SARL_v6fl0dllzj","5e9f70a9eec34b1108c84413","freq","","","img/orange_2bandit_a2.png","70","","70","test","1","","116","","","","square","circle","112","23","5","0.9821428571428571","","","","","","","",""
"null","339624","SARL_v6","SARL_v6fl0dllzj","5e9f70a9eec34b1108c84413","freq_resp","","","img/orange_2bandit_a.png","70","img/orange_2bandit_a.png","70","test","","","","","","","","","","","5","","","","","","","","",""
"null","339777","SARL_v6","SARL_v6fl0dllzj","5e9f70a9eec34b1108c84413","fixation","","","img/fixation.png","null","","","test","","","","","","","","","","","","","","","","","","","",""
"437.09999990463257","340216","SARL_v6","SARL_v6fl0dllzj","5e9f70a9eec34b1108c84413","infreq","","","img/blue_2bandit_a2.png","68","","68","test","1","","117","","","","square","circle","113","24","5","0.9823008849557522","","","","","","","",""
"null","340583","SARL_v6","SARL_v6fl0dllzj","5e9f70a9eec34b1108c84413","infreq_resp","","","img/blue_2bandit_a.png","68","img/blue_2bandit_a.png","68","test","","","","","","","","","","","5","","","","","","","","",""
"null","340739","SARL_v6","SARL_v6fl0dllzj","5e9f70a9eec34b1108c84413","fixation","","","img/fixation.png","null","","","test","","","","","","","","","","","","","","","","","","","",""
"707.1000001430511","341449","SARL_v6","SARL_v6fl0dllzj","5e9f70a9eec34b1108c84413","freq","","","img/orange_2bandit_a2.png","70","","70","test","1","","118","","","","square","circle","114","25","5","0.9824561403508771","","","","","","","",""
"null","341553","SARL_v6","SARL_v6fl0dllzj","5e9f70a9eec34b1108c84413","freq_resp","","","img/orange_2bandit_a.png","70","img/orange_2bandit_a.png","70","test","","","","","","","","","","","5","","","","","","","","",""
"null","341710","SARL_v6","SARL_v6fl0dllzj","5e9f70a9eec34b1108c84413","fixation","","","img/fixation.png","null","","","test","","","","","","","","","","","","","","","","","","","",""
"558.0999999046326","342270","SARL_v6","SARL_v6fl0dllzj","5e9f70a9eec34b1108c84413","rl","","","img/black_2bandit_a2.png","74","","0","test","","","119","","","4","square","circle","","0","5","","74","-7","4","4","-7","square","5","0"
"null","343034","SARL_v6","SARL_v6fl0dllzj","5e9f70a9eec34b1108c84413","feedback","","","<div class=""veryhighPoints_sq""> 4 </div>","null","","na","test","","","NaN","","","","","","","","5","","74","","","","","","5",""
"564.0999999046326","343600","SARL_v6","SARL_v6fl0dllzj","5e9f70a9eec34b1108c84413","freq","","","img/orange_2bandit_a2.png","70","","70","test","1","","120","","","","square","circle","115","1","6","0.9826086956521739","","","","","","","",""
"null","343848","SARL_v6","SARL_v6fl0dllzj","5e9f70a9eec34b1108c84413","freq_resp","","","img/orange_2bandit_a.png","70","img/orange_2bandit_a.png","70","test","","","","","","","","","","","6","","","","","","","","",""
"null","344002","SARL_v6","SARL_v6fl0dllzj","5e9f70a9eec34b1108c84413","fixation","","","img/fixation.png","null","","","test","","","","","","","","","","","","","","","","","","","",""
"386.2000000476837","344390","SARL_v6","SARL_v6fl0dllzj","5e9f70a9eec34b1108c84413","freq","","","img/orange_2bandit_a2.png","70","","70","test","1","","121","","","","square","circle","116","2","6","0.9827586206896551","","","","","","","",""
"null","344820","SARL_v6","SARL_v6fl0dllzj","5e9f70a9eec34b1108c84413","freq_resp","","","img/orange_2bandit_a.png","70","img/orange_2bandit_a.png","70","test","","","","","","","","","","","6","","","","","","","","",""
"null","344975","SARL_v6","SARL_v6fl0dllzj","5e9f70a9eec34b1108c84413","fixation","","","img/fixation.png","null","","","test","","","","","","","","","","","","","","","","","","","",""
"443.59999990463257","345421","SARL_v6","SARL_v6fl0dllzj","5e9f70a9eec34b1108c84413","freq","","","img/orange_2bandit_a2.png","70","","70","test","1","","122","","","","square","circle","117","3","6","0.9829059829059829","","","","","","","",""
"null","345788","SARL_v6","SARL_v6fl0dllzj","5e9f70a9eec34b1108c84413","freq_resp","","","img/orange_2bandit_a.png","70","img/orange_2bandit_a.png","70","test","","","","","","","","","","","6","","","","","","","","",""
"null","345943","SARL_v6","SARL_v6fl0dllzj","5e9f70a9eec34b1108c84413","fixation","","","img/fixation.png","null","","","test","","","","","","","","","","","","","","","","","","","",""
"425.5","346371","SARL_v6","SARL_v6fl0dllzj","5e9f70a9eec34b1108c84413","freq","","","img/orange_2bandit_a2.png","70","","70","test","1","","123","","","","square","circle","118","4","6","0.9830508474576272","","","","","","","",""
"null","346759","SARL_v6","SARL_v6fl0dllzj","5e9f70a9eec34b1108c84413","freq_resp","","","img/orange_2bandit_a.png","70","img/orange_2bandit_a.png","70","test","","","","","","","","","","","6","","","","","","","","",""
"null","346915","SARL_v6","SARL_v6fl0dllzj","5e9f70a9eec34b1108c84413","fixation","","","img/fixation.png","null","","","test","","","","","","","","","","","","","","","","","","","",""
"287.5","347206","SARL_v6","SARL_v6fl0dllzj","5e9f70a9eec34b1108c84413","freq","","","img/orange_2bandit_a2.png","70","","70","test","1","","124","","","","square","circle","119","5","6","0.9831932773109243","","","","","","","",""
"null","347726","SARL_v6","SARL_v6fl0dllzj","5e9f70a9eec34b1108c84413","freq_resp","","","img/orange_2bandit_a.png","70","img/orange_2bandit_a.png","70","test","","","","","","","","","","","6","","","","","","","","",""
"null","347879","SARL_v6","SARL_v6fl0dllzj","5e9f70a9eec34b1108c84413","fixation","","","img/fixation.png","null","","","test","","","","","","","","","","","","","","","","","","","",""
"325.7999999523163","348207","SARL_v6","SARL_v6fl0dllzj","5e9f70a9eec34b1108c84413","freq","","","img/orange_2bandit_a2.png","70","","70","test","1","","125","","","","square","circle","120","6","6","0.9833333333333333","","","","","","","",""
"null","348697","SARL_v6","SARL_v6fl0dllzj","5e9f70a9eec34b1108c84413","freq_resp","","","img/orange_2bandit_a.png","70","img/orange_2bandit_a.png","70","test","","","","","","","","","","","6","","","","","","","","",""
"null","348849","SARL_v6","SARL_v6fl0dllzj","5e9f70a9eec34b1108c84413","fixation","","","img/fixation.png","null","","","test","","","","","","","","","","","","","","","","","","","",""
"487.59999990463257","349339","SARL_v6","SARL_v6fl0dllzj","5e9f70a9eec34b1108c84413","freq","","","img/orange_2bandit_a2.png","70","","70","test","1","","126","","","","square","circle","121","7","6","0.9834710743801653","","","","","","","",""
"null","349668","SARL_v6","SARL_v6fl0dllzj","5e9f70a9eec34b1108c84413","freq_resp","","","img/orange_2bandit_a.png","70","img/orange_2bandit_a.png","70","test","","","","","","","","","","","6","","","","","","","","",""
"null","349821","SARL_v6","SARL_v6fl0dllzj","5e9f70a9eec34b1108c84413","fixation","","","img/fixation.png","null","","","test","","","","","","","","","","","","","","","","","","","",""
"405.80000019073486","350229","SARL_v6","SARL_v6fl0dllzj","5e9f70a9eec34b1108c84413","freq","","","img/orange_2bandit_a2.png","70","","70","test","1","","127","","","","square","circle","122","8","6","0.9836065573770492","","","","","","","",""
"null","350641","SARL_v6","SARL_v6fl0dllzj","5e9f70a9eec34b1108c84413","freq_resp","","","img/orange_2bandit_a.png","70","img/orange_2bandit_a.png","70","test","","","","","","","","","","","6","","","","","","","","",""
"null","350797","SARL_v6","SARL_v6fl0dllzj","5e9f70a9eec34b1108c84413","fixation","","","img/fixation.png","null","","","test","","","","","","","","","","","","","","","","","","","",""
"370.2999999523163","351169","SARL_v6","SARL_v6fl0dllzj","5e9f70a9eec34b1108c84413","infreq","","","img/blue_2bandit_a2.png","68","","68","test","1","","128","","","","square","circle","123","9","6","0.983739837398374","","","","","","","",""
"null","351614","SARL_v6","SARL_v6fl0dllzj","5e9f70a9eec34b1108c84413","infreq_resp","","","img/blue_2bandit_a.png","68","img/blue_2bandit_a.png","68","test","","","","","","","","","","","6","","","","","","","","",""
"null","351772","SARL_v6","SARL_v6fl0dllzj","5e9f70a9eec34b1108c84413","fixation","","","img/fixation.png","null","","","test","","","","","","","","","","","","","","","","","","","",""
"535.2000000476837","352309","SARL_v6","SARL_v6fl0dllzj","5e9f70a9eec34b1108c84413","freq","","","img/orange_2bandit_a2.png","70","","70","test","1","","129","","","","square","circle","124","10","6","0.9838709677419355","","","","","","","",""
"null","352586","SARL_v6","SARL_v6fl0dllzj","5e9f70a9eec34b1108c84413","freq_resp","","","img/orange_2bandit_a.png","70","img/orange_2bandit_a.png","70","test","","","","","","","","","","","6","","","","","","","","",""
"null","352740","SARL_v6","SARL_v6fl0dllzj","5e9f70a9eec34b1108c84413","fixation","","","img/fixation.png","null","","","test","","","","","","","","","","","","","","","","","","","",""
"351.59999990463257","353093","SARL_v6","SARL_v6fl0dllzj","5e9f70a9eec34b1108c84413","freq","","","img/orange_2bandit_a2.png","70","","70","test","1","","130","","","","square","circle","125","11","6","0.984","","","","","","","",""
"null","353554","SARL_v6","SARL_v6fl0dllzj","5e9f70a9eec34b1108c84413","freq_resp","","","img/orange_2bandit_a.png","70","img/orange_2bandit_a.png","70","test","","","","","","","","","","","6","","","","","","","","",""
"null","353708","SARL_v6","SARL_v6fl0dllzj","5e9f70a9eec34b1108c84413","fixation","","","img/fixation.png","null","","","test","","","","","","","","","","","","","","","","","","","",""
