"rt","time_elapsed","expId","subject","prolificID","trialType","rlType","attType","stimulus","key_press","stim","corrresp","phase","corr","pracCounter","trialNum","rewardOne","rewardTwo","reward","bandOne","bandTwo","attentionNum","attentionRunNum","blockNum","performance","bandChosen","circleVal","squareVal","bandOneVal","bandTwoVal","shapeChosen","rlNum","badFlag"
"1730","1734","SARL_v6","SARL_v6n8zwx5p9","614e2b2bd900d5f91096ac12","","","","","","","","","","","","","","","","","","","","","","","","","","","",""
"","4100","SARL_v6","SARL_v6n8zwx5p9","614e2b2bd900d5f91096ac12","fullscreen","fullscreen","fullscreen","","","","","","","","","","","","","","","","","","","","","","","","",""
"38328","42431","SARL_v6","SARL_v6n8zwx5p9","614e2b2bd900d5f91096ac12","","","","","","","","","","","","","","","","","","","","","","","","","","","",""
"null","43246","SARL_v6","SARL_v6n8zwx5p9","614e2b2bd900d5f91096ac12","freqPrac","","","img/blue_2bandit_a2.png","null","img/blue_2bandit_a2.png","70","prac","0","1","","","","","","","","","","","","","","","","","",""
"null","44255","SARL_v6","SARL_v6n8zwx5p9","614e2b2bd900d5f91096ac12","feedback","","","img/tooSlow.png","null","","na","prac","","","","","","","","","","","","","","","","","","","",""
"null","44415","SARL_v6","SARL_v6n8zwx5p9","614e2b2bd900d5f91096ac12","fixation","","","img/fixation.png","null","","","prac","","","","","","","","","","","","","","","","","","","",""
"494","44912","SARL_v6","SARL_v6n8zwx5p9","614e2b2bd900d5f91096ac12","infreqPrac","","","img/orange_2bandit_a2.png","68","img/orange_2bandit_a2.png","68","prac","1","1","","","","","","","","","","","","","","","","","",""
"494","45228","SARL_v6","SARL_v6n8zwx5p9","614e2b2bd900d5f91096ac12","infreqPrac_resp","","","img/orange_2bandit_a.png","68","img/orange_2bandit_a.png","68","prac","","","","","","","","","","","","","","","","","","","",""
"null","45389","SARL_v6","SARL_v6n8zwx5p9","614e2b2bd900d5f91096ac12","fixation","","","img/fixation.png","null","","","prac","","","","","","","","","","","","","","","","","","","",""
"400","45790","SARL_v6","SARL_v6n8zwx5p9","614e2b2bd900d5f91096ac12","freqPrac","","","img/blue_2bandit_a2.png","70","img/blue_2bandit_a2.png","70","prac","1","1","","","","","","","","","","","","","","","","","",""
"400","46202","SARL_v6","SARL_v6n8zwx5p9","614e2b2bd900d5f91096ac12","freqPrac_resp","","","img/blue_2bandit_a.png","70","img/blue_2bandit_a.png","70","prac","","","","","","","","","","","","","","","","","","","",""
"null","46362","SARL_v6","SARL_v6n8zwx5p9","614e2b2bd900d5f91096ac12","fixation","","","img/fixation.png","null","","","prac","","","","","","","","","","","","","","","","","","","",""
"521","46885","SARL_v6","SARL_v6n8zwx5p9","614e2b2bd900d5f91096ac12","infreqPrac","","","img/orange_2bandit_a2.png","70","img/orange_2bandit_a2.png","68","prac","0","2","","","","","","","","","","","","","","","","","",""
"521","47171","SARL_v6","SARL_v6n8zwx5p9","614e2b2bd900d5f91096ac12","infreqPrac_resp","","","img/orange_2bandit_a.png","70","img/orange_2bandit_a.png","68","prac","","","","","","","","","","","","","","","","","","","",""
"null","48179","SARL_v6","SARL_v6n8zwx5p9","614e2b2bd900d5f91096ac12","feedback","","","img/wrongKey.png","null","","na","prac","","","","","","","","","","","","","","","","","","","",""
"null","48341","SARL_v6","SARL_v6n8zwx5p9","614e2b2bd900d5f91096ac12","fixation","","","img/fixation.png","null","","","prac","","","","","","","","","","","","","","","","","","","",""
"503","48846","SARL_v6","SARL_v6n8zwx5p9","614e2b2bd900d5f91096ac12","infreqPrac","","","img/orange_2bandit_a2.png","68","img/orange_2bandit_a2.png","68","prac","1","2","","","","","","","","","","","","","","","","","",""
"503","49149","SARL_v6","SARL_v6n8zwx5p9","614e2b2bd900d5f91096ac12","infreqPrac_resp","","","img/orange_2bandit_a.png","68","img/orange_2bandit_a.png","68","prac","","","","","","","","","","","","","","","","","","","",""
"null","49309","SARL_v6","SARL_v6n8zwx5p9","614e2b2bd900d5f91096ac12","fixation","","","img/fixation.png","null","","","prac","","","","","","","","","","","","","","","","","","","",""
"467","49778","SARL_v6","SARL_v6n8zwx5p9","614e2b2bd900d5f91096ac12","infreqPrac","","","img/orange_2bandit_a2.png","68","img/orange_2bandit_a2.png","68","prac","1","2","","","","","","","","","","","","","","","","","",""
"467","50125","SARL_v6","SARL_v6n8zwx5p9","614e2b2bd900d5f91096ac12","infreqPrac_resp","","","img/orange_2bandit_a.png","68","img/orange_2bandit_a.png","68","prac","","","","","","","","","","","","","","","","","","","",""
"null","50288","SARL_v6","SARL_v6n8zwx5p9","614e2b2bd900d5f91096ac12","fixation","","","img/fixation.png","null","","","prac","","","","","","","","","","","","","","","","","","","",""
"356","50646","SARL_v6","SARL_v6n8zwx5p9","614e2b2bd900d5f91096ac12","freqPrac","","","img/blue_2bandit_a2.png","70","img/blue_2bandit_a2.png","70","prac","1","2","","","","","","","","","","","","","","","","","",""
"356","51102","SARL_v6","SARL_v6n8zwx5p9","614e2b2bd900d5f91096ac12","freqPrac_resp","","","img/blue_2bandit_a.png","70","img/blue_2bandit_a.png","70","prac","","","","","","","","","","","","","","","","","","","",""
"null","51263","SARL_v6","SARL_v6n8zwx5p9","614e2b2bd900d5f91096ac12","fixation","","","img/fixation.png","null","","","prac","","","","","","","","","","","","","","","","","","","",""
"423","51688","SARL_v6","SARL_v6n8zwx5p9","614e2b2bd900d5f91096ac12","infreqPrac","","","img/orange_2bandit_a2.png","68","img/orange_2bandit_a2.png","68","prac","1","2","","","","","","","","","","","","","","","","","",""
"423","52068","SARL_v6","SARL_v6n8zwx5p9","614e2b2bd900d5f91096ac12","infreqPrac_resp","","","img/orange_2bandit_a.png","68","img/orange_2bandit_a.png","68","prac","","","","","","","","","","","","","","","","","","","",""
"null","52229","SARL_v6","SARL_v6n8zwx5p9","614e2b2bd900d5f91096ac12","fixation","","","img/fixation.png","null","","","prac","","","","","","","","","","","","","","","","","","","",""
"406","52636","SARL_v6","SARL_v6n8zwx5p9","614e2b2bd900d5f91096ac12","freqPrac","","","img/blue_2bandit_a2.png","70","img/blue_2bandit_a2.png","70","prac","1","2","","","","","","","","","","","","","","","","","",""
"406","53046","SARL_v6","SARL_v6n8zwx5p9","614e2b2bd900d5f91096ac12","freqPrac_resp","","","img/blue_2bandit_a.png","70","img/blue_2bandit_a.png","70","prac","","","","","","","","","","","","","","","","","","","",""
"null","53207","SARL_v6","SARL_v6n8zwx5p9","614e2b2bd900d5f91096ac12","fixation","","","img/fixation.png","null","","","prac","","","","","","","","","","","","","","","","","","","",""
"429","53639","SARL_v6","SARL_v6n8zwx5p9","614e2b2bd900d5f91096ac12","freqPrac","","","img/blue_2bandit_a2.png","70","img/blue_2bandit_a2.png","70","prac","1","2","","","","","","","","","","","","","","","","","",""
"429","54019","SARL_v6","SARL_v6n8zwx5p9","614e2b2bd900d5f91096ac12","freqPrac_resp","","","img/blue_2bandit_a.png","70","img/blue_2bandit_a.png","70","prac","","","","","","","","","","","","","","","","","","","",""
"null","54174","SARL_v6","SARL_v6n8zwx5p9","614e2b2bd900d5f91096ac12","fixation","","","img/fixation.png","null","","","prac","","","","","","","","","","","","","","","","","","","",""
"30702","84879","SARL_v6","SARL_v6n8zwx5p9","614e2b2bd900d5f91096ac12","","","","","","","","prac","","","","","","","","","","","","","","","","","","","",""
"772","85652","SARL_v6","SARL_v6n8zwx5p9","614e2b2bd900d5f91096ac12","rlPractice","","","img/black_2bandit_a2.png","75","img/black_2bandit_a2.png","","prac","","","0","","","","","","","","","","","","","","","","",""
"null","86407","SARL_v6","SARL_v6n8zwx5p9","614e2b2bd900d5f91096ac12","feedback","","","<div class=""veryhighPoints""> 10 </div>","null","","na","prac","","","1","10","-14","10","","","","","","","","","","","","","",""
"null","86569","SARL_v6","SARL_v6n8zwx5p9","614e2b2bd900d5f91096ac12","fixation","","","img/fixation.png","null","","","prac","","","","","","","","","","","","","","","","","","","",""
"417","86988","SARL_v6","SARL_v6n8zwx5p9","614e2b2bd900d5f91096ac12","rlPractice","","","img/black_2bandit_a2.png","75","img/black_2bandit_a2.png","","prac","","","1","","","","","","","","","","","","","","","","",""
"null","87742","SARL_v6","SARL_v6n8zwx5p9","614e2b2bd900d5f91096ac12","feedback","","","<div class=""veryhighPoints""> 5 </div>","null","","na","prac","","","2","5","-5","5","","","","","","","","","","","","","",""
"null","87903","SARL_v6","SARL_v6n8zwx5p9","614e2b2bd900d5f91096ac12","fixation","","","img/fixation.png","null","","","prac","","","","","","","","","","","","","","","","","","","",""
"504","88409","SARL_v6","SARL_v6n8zwx5p9","614e2b2bd900d5f91096ac12","rlPractice","","","img/black_2bandit_a2.png","75","img/black_2bandit_a2.png","","prac","","","2","","","","","","","","","","","","","","","","",""
"null","89163","SARL_v6","SARL_v6n8zwx5p9","614e2b2bd900d5f91096ac12","feedback","","","<div class=""veryhighPoints""> 30 </div>","null","","na","prac","","","3","30","2","30","","","","","","","","","","","","","",""
"null","89325","SARL_v6","SARL_v6n8zwx5p9","614e2b2bd900d5f91096ac12","fixation","","","img/fixation.png","null","","","prac","","","","","","","","","","","","","","","","","","","",""
"485","89812","SARL_v6","SARL_v6n8zwx5p9","614e2b2bd900d5f91096ac12","rlPractice","","","img/black_2bandit_a2.png","75","img/black_2bandit_a2.png","","prac","","","3","","","","","","","","","","","","","","","","",""
"null","90568","SARL_v6","SARL_v6n8zwx5p9","614e2b2bd900d5f91096ac12","feedback","","","<div class=""verylowPoints""> -2 </div>","null","","na","prac","","","4","-2","20","-2","","","","","","","","","","","","","",""
"null","90728","SARL_v6","SARL_v6n8zwx5p9","614e2b2bd900d5f91096ac12","fixation","","","img/fixation.png","null","","","prac","","","","","","","","","","","","","","","","","","","",""
"16641","107370","SARL_v6","SARL_v6n8zwx5p9","614e2b2bd900d5f91096ac12","","","","","","","","prac","","","","","","","","","","","","","","","","","","","",""
"626","107999","SARL_v6","SARL_v6n8zwx5p9","614e2b2bd900d5f91096ac12","mixAttFreqPrac","","","img/blue_2bandit_a2.png","70","img/blue_2bandit_a2.png","70","prac","","","1","","","","","","","","","","","","","","","","",""
"626","108176","SARL_v6","SARL_v6n8zwx5p9","614e2b2bd900d5f91096ac12","freqPrac_resp","","","img/blue_2bandit_a.png","70","img/blue_2bandit_a.png","70","prac","","","1","","","","","","","","","","","","","","","","",""
"null","108342","SARL_v6","SARL_v6n8zwx5p9","614e2b2bd900d5f91096ac12","fixation","","","img/fixation.png","null","","","prac","","","","","","","","","","","","","","","","","","","",""
"410","108754","SARL_v6","SARL_v6n8zwx5p9","614e2b2bd900d5f91096ac12","mixAttInfreqPrac","","","img/orange_2bandit_a2.png","68","img/orange_2bandit_a2.png","68","prac","","","2","","","","","","","","","","","","","","","","",""
"410","109152","SARL_v6","SARL_v6n8zwx5p9","614e2b2bd900d5f91096ac12","infreqPrac_resp","","","img/orange_2bandit_a.png","68","img/blue_2bandit_a.png","68","prac","","","2","","","","","","","","","","","","","","","","",""
"null","109314","SARL_v6","SARL_v6n8zwx5p9","614e2b2bd900d5f91096ac12","fixation","","","img/fixation.png","null","","","prac","","","","","","","","","","","","","","","","","","","",""
"553","109870","SARL_v6","SARL_v6n8zwx5p9","614e2b2bd900d5f91096ac12","mixAttInfreqPrac","","","img/orange_2bandit_a2.png","68","img/orange_2bandit_a2.png","68","prac","","","3","","","","","","","","","","","","","","","","",""
"553","110123","SARL_v6","SARL_v6n8zwx5p9","614e2b2bd900d5f91096ac12","infreqPrac_resp","","","img/orange_2bandit_a.png","68","img/blue_2bandit_a.png","68","prac","","","3","","","","","","","","","","","","","","","","",""
"null","110284","SARL_v6","SARL_v6n8zwx5p9","614e2b2bd900d5f91096ac12","fixation","","","img/fixation.png","null","","","prac","","","","","","","","","","","","","","","","","","","",""
"439","110725","SARL_v6","SARL_v6n8zwx5p9","614e2b2bd900d5f91096ac12","mixAttInfreqPrac","","","img/orange_2bandit_a2.png","68","img/orange_2bandit_a2.png","68","prac","","","4","","","","","","","","","","","","","","","","",""
"439","111104","SARL_v6","SARL_v6n8zwx5p9","614e2b2bd900d5f91096ac12","infreqPrac_resp","","","img/orange_2bandit_a.png","68","img/blue_2bandit_a.png","68","prac","","","4","","","","","","","","","","","","","","","","",""
"null","111265","SARL_v6","SARL_v6n8zwx5p9","614e2b2bd900d5f91096ac12","fixation","","","img/fixation.png","null","","","prac","","","","","","","","","","","","","","","","","","","",""
"369","111637","SARL_v6","SARL_v6n8zwx5p9","614e2b2bd900d5f91096ac12","mixAttFreqPrac","","","img/blue_2bandit_a2.png","70","img/blue_2bandit_a2.png","70","prac","","","5","","","","","","","","","","","","","","","","",""
"369","112080","SARL_v6","SARL_v6n8zwx5p9","614e2b2bd900d5f91096ac12","freqPrac_resp","","","img/blue_2bandit_a.png","70","img/blue_2bandit_a.png","70","prac","","","5","","","","","","","","","","","","","","","","",""
"null","112240","SARL_v6","SARL_v6n8zwx5p9","614e2b2bd900d5f91096ac12","fixation","","","img/fixation.png","null","","","prac","","","","","","","","","","","","","","","","","","","",""
"518","112759","SARL_v6","SARL_v6n8zwx5p9","614e2b2bd900d5f91096ac12","mixRLPractice","","","img/black_2bandit_a2.png","75","img/black_2bandit_a2.png","","prac","","","5","","","","","","","","","","","","","","","","",""
"null","113513","SARL_v6","SARL_v6n8zwx5p9","614e2b2bd900d5f91096ac12","feedback","","","<div class=""verylowPoints""> -14 </div>","null","","na","prac","","","6","-14","10","-14","","","","","","","","","","","","","",""
"null","113674","SARL_v6","SARL_v6n8zwx5p9","614e2b2bd900d5f91096ac12","fixation","","","img/fixation.png","null","","","prac","","","","","","","","","","","","","","","","","","","",""
"693","114369","SARL_v6","SARL_v6n8zwx5p9","614e2b2bd900d5f91096ac12","mixAttFreqPrac","","","img/blue_2bandit_a2.png","70","img/blue_2bandit_a2.png","70","prac","","","7","","","","","","","","","","","","","","","","",""
"693","114483","SARL_v6","SARL_v6n8zwx5p9","614e2b2bd900d5f91096ac12","freqPrac_resp","","","img/blue_2bandit_a.png","70","img/blue_2bandit_a.png","70","prac","","","7","","","","","","","","","","","","","","","","",""
"null","114648","SARL_v6","SARL_v6n8zwx5p9","614e2b2bd900d5f91096ac12","fixation","","","img/fixation.png","null","","","prac","","","","","","","","","","","","","","","","","","","",""
"384","115034","SARL_v6","SARL_v6n8zwx5p9","614e2b2bd900d5f91096ac12","mixAttInfreqPrac","","","img/orange_2bandit_a2.png","68","img/orange_2bandit_a2.png","68","prac","","","8","","","","","","","","","","","","","","","","",""
"384","115460","SARL_v6","SARL_v6n8zwx5p9","614e2b2bd900d5f91096ac12","infreqPrac_resp","","","img/orange_2bandit_a.png","68","img/blue_2bandit_a.png","68","prac","","","8","","","","","","","","","","","","","","","","",""
"null","115622","SARL_v6","SARL_v6n8zwx5p9","614e2b2bd900d5f91096ac12","fixation","","","img/fixation.png","null","","","prac","","","","","","","","","","","","","","","","","","","",""
"397","116021","SARL_v6","SARL_v6n8zwx5p9","614e2b2bd900d5f91096ac12","mixAttFreqPrac","","","img/blue_2bandit_a2.png","70","img/blue_2bandit_a2.png","70","prac","","","9","","","","","","","","","","","","","","","","",""
"397","116433","SARL_v6","SARL_v6n8zwx5p9","614e2b2bd900d5f91096ac12","freqPrac_resp","","","img/blue_2bandit_a.png","70","img/blue_2bandit_a.png","70","prac","","","9","","","","","","","","","","","","","","","","",""
"null","116593","SARL_v6","SARL_v6n8zwx5p9","614e2b2bd900d5f91096ac12","fixation","","","img/fixation.png","null","","","prac","","","","","","","","","","","","","","","","","","","",""
"395","116990","SARL_v6","SARL_v6n8zwx5p9","614e2b2bd900d5f91096ac12","mixAttFreqPrac","","","img/blue_2bandit_a2.png","70","img/blue_2bandit_a2.png","70","prac","","","10","","","","","","","","","","","","","","","","",""
"395","117400","SARL_v6","SARL_v6n8zwx5p9","614e2b2bd900d5f91096ac12","freqPrac_resp","","","img/blue_2bandit_a.png","70","img/blue_2bandit_a.png","70","prac","","","10","","","","","","","","","","","","","","","","",""
"null","117562","SARL_v6","SARL_v6n8zwx5p9","614e2b2bd900d5f91096ac12","fixation","","","img/fixation.png","null","","","prac","","","","","","","","","","","","","","","","","","","",""
"501","118065","SARL_v6","SARL_v6n8zwx5p9","614e2b2bd900d5f91096ac12","mixAttInfreqPrac","","","img/orange_2bandit_a2.png","68","img/orange_2bandit_a2.png","68","prac","","","11","","","","","","","","","","","","","","","","",""
"501","118367","SARL_v6","SARL_v6n8zwx5p9","614e2b2bd900d5f91096ac12","infreqPrac_resp","","","img/orange_2bandit_a.png","68","img/blue_2bandit_a.png","68","prac","","","11","","","","","","","","","","","","","","","","",""
"null","118528","SARL_v6","SARL_v6n8zwx5p9","614e2b2bd900d5f91096ac12","fixation","","","img/fixation.png","null","","","prac","","","","","","","","","","","","","","","","","","","",""
"457","118988","SARL_v6","SARL_v6n8zwx5p9","614e2b2bd900d5f91096ac12","mixRLPractice","","","img/black_2bandit_a2.png","75","img/black_2bandit_a2.png","","prac","","","11","","","","","","","","","","","","","","","","",""
"null","119744","SARL_v6","SARL_v6n8zwx5p9","614e2b2bd900d5f91096ac12","feedback","","","<div class=""veryhighPoints""> 5 </div>","null","","na","prac","","","12","5","-5","5","","","","","","","","","","","","","",""
"null","119905","SARL_v6","SARL_v6n8zwx5p9","614e2b2bd900d5f91096ac12","fixation","","","img/fixation.png","null","","","prac","","","","","","","","","","","","","","","","","","","",""
"10859","130766","SARL_v6","SARL_v6n8zwx5p9","614e2b2bd900d5f91096ac12","","","","","","","","prac","","","","","","","","","","","","","","","","","","","",""
"525","131293","SARL_v6","SARL_v6n8zwx5p9","614e2b2bd900d5f91096ac12","freq","","","img/blue_2bandit_a2.png","70","","70","test","1","","1","","","","square","circle","1","1","1","1","","","","","","","",""
"null","131578","SARL_v6","SARL_v6n8zwx5p9","614e2b2bd900d5f91096ac12","freq_resp","","","img/blue_2bandit_a.png","70","img/blue_2bandit_a.png","70","test","","","","","","","","","","","1","","","","","","","","",""
"null","131739","SARL_v6","SARL_v6n8zwx5p9","614e2b2bd900d5f91096ac12","fixation","","","img/fixation.png","null","","","test","","","","","","","","","","","","","","","","","","","",""
"354","132096","SARL_v6","SARL_v6n8zwx5p9","614e2b2bd900d5f91096ac12","freq","","","img/blue_2bandit_a2.png","70","","70","test","1","","2","","","","square","circle","2","2","1","1","","","","","","","",""
"null","132554","SARL_v6","SARL_v6n8zwx5p9","614e2b2bd900d5f91096ac12","freq_resp","","","img/blue_2bandit_a.png","70","img/blue_2bandit_a.png","70","test","","","","","","","","","","","1","","","","","","","","",""
"null","132722","SARL_v6","SARL_v6n8zwx5p9","614e2b2bd900d5f91096ac12","fixation","","","img/fixation.png","null","","","test","","","","","","","","","","","","","","","","","","","",""
"427","133150","SARL_v6","SARL_v6n8zwx5p9","614e2b2bd900d5f91096ac12","freq","","","img/blue_2bandit_a2.png","70","","70","test","1","","3","","","","square","circle","3","3","1","1","","","","","","","",""
"null","133531","SARL_v6","SARL_v6n8zwx5p9","614e2b2bd900d5f91096ac12","freq_resp","","","img/blue_2bandit_a.png","70","img/blue_2bandit_a.png","70","test","","","","","","","","","","","1","","","","","","","","",""
"null","133692","SARL_v6","SARL_v6n8zwx5p9","614e2b2bd900d5f91096ac12","fixation","","","img/fixation.png","null","","","test","","","","","","","","","","","","","","","","","","","",""
"436","134130","SARL_v6","SARL_v6n8zwx5p9","614e2b2bd900d5f91096ac12","freq","","","img/blue_2bandit_a2.png","70","","70","test","1","","4","","","","square","circle","4","4","1","1","","","","","","","",""
"null","134510","SARL_v6","SARL_v6n8zwx5p9","614e2b2bd900d5f91096ac12","freq_resp","","","img/blue_2bandit_a.png","70","img/blue_2bandit_a.png","70","test","","","","","","","","","","","1","","","","","","","","",""
"null","134671","SARL_v6","SARL_v6n8zwx5p9","614e2b2bd900d5f91096ac12","fixation","","","img/fixation.png","null","","","test","","","","","","","","","","","","","","","","","","","",""
"398","135071","SARL_v6","SARL_v6n8zwx5p9","614e2b2bd900d5f91096ac12","freq","","","img/blue_2bandit_a2.png","70","","70","test","1","","5","","","","square","circle","5","5","1","1","","","","","","","",""
"null","135483","SARL_v6","SARL_v6n8zwx5p9","614e2b2bd900d5f91096ac12","freq_resp","","","img/blue_2bandit_a.png","70","img/blue_2bandit_a.png","70","test","","","","","","","","","","","1","","","","","","","","",""
"null","135644","SARL_v6","SARL_v6n8zwx5p9","614e2b2bd900d5f91096ac12","fixation","","","img/fixation.png","null","","","test","","","","","","","","","","","","","","","","","","","",""
"342","135988","SARL_v6","SARL_v6n8zwx5p9","614e2b2bd900d5f91096ac12","infreq","","","img/orange_2bandit_a2.png","68","","68","test","1","","6","","","","square","circle","6","6","1","1","","","","","","","",""
"null","136462","SARL_v6","SARL_v6n8zwx5p9","614e2b2bd900d5f91096ac12","infreq_resp","","","img/orange_2bandit_a.png","68","img/orange_2bandit_a.png","68","test","","","","","","","","","","","1","","","","","","","","",""
"null","136623","SARL_v6","SARL_v6n8zwx5p9","614e2b2bd900d5f91096ac12","fixation","","","img/fixation.png","null","","","test","","","","","","","","","","","","","","","","","","","",""
"400","137026","SARL_v6","SARL_v6n8zwx5p9","614e2b2bd900d5f91096ac12","freq","","","img/blue_2bandit_a2.png","70","","70","test","1","","7","","","","square","circle","7","7","1","1","","","","","","","",""
"null","137437","SARL_v6","SARL_v6n8zwx5p9","614e2b2bd900d5f91096ac12","freq_resp","","","img/blue_2bandit_a.png","70","img/blue_2bandit_a.png","70","test","","","","","","","","","","","1","","","","","","","","",""
"null","137597","SARL_v6","SARL_v6n8zwx5p9","614e2b2bd900d5f91096ac12","fixation","","","img/fixation.png","null","","","test","","","","","","","","","","","","","","","","","","","",""
"434","138032","SARL_v6","SARL_v6n8zwx5p9","614e2b2bd900d5f91096ac12","freq","","","img/blue_2bandit_a2.png","70","","70","test","1","","8","","","","square","circle","8","8","1","1","","","","","","","",""
"null","138412","SARL_v6","SARL_v6n8zwx5p9","614e2b2bd900d5f91096ac12","freq_resp","","","img/blue_2bandit_a.png","70","img/blue_2bandit_a.png","70","test","","","","","","","","","","","1","","","","","","","","",""
"null","138573","SARL_v6","SARL_v6n8zwx5p9","614e2b2bd900d5f91096ac12","fixation","","","img/fixation.png","null","","","test","","","","","","","","","","","","","","","","","","","",""
"401","138976","SARL_v6","SARL_v6n8zwx5p9","614e2b2bd900d5f91096ac12","freq","","","img/blue_2bandit_a2.png","70","","70","test","1","","9","","","","square","circle","9","9","1","1","","","","","","","",""
"null","139389","SARL_v6","SARL_v6n8zwx5p9","614e2b2bd900d5f91096ac12","freq_resp","","","img/blue_2bandit_a.png","70","img/blue_2bandit_a.png","70","test","","","","","","","","","","","1","","","","","","","","",""
"null","139550","SARL_v6","SARL_v6n8zwx5p9","614e2b2bd900d5f91096ac12","fixation","","","img/fixation.png","null","","","test","","","","","","","","","","","","","","","","","","","",""
"386","139938","SARL_v6","SARL_v6n8zwx5p9","614e2b2bd900d5f91096ac12","freq","","","img/blue_2bandit_a2.png","70","","70","test","1","","10","","","","square","circle","10","10","1","1","","","","","","","",""
"null","140366","SARL_v6","SARL_v6n8zwx5p9","614e2b2bd900d5f91096ac12","freq_resp","","","img/blue_2bandit_a.png","70","img/blue_2bandit_a.png","70","test","","","","","","","","","","","1","","","","","","","","",""
"null","140527","SARL_v6","SARL_v6n8zwx5p9","614e2b2bd900d5f91096ac12","fixation","","","img/fixation.png","null","","","test","","","","","","","","","","","","","","","","","","","",""
"404","140932","SARL_v6","SARL_v6n8zwx5p9","614e2b2bd900d5f91096ac12","freq","","","img/blue_2bandit_a2.png","70","","70","test","1","","11","","","","square","circle","11","11","1","1","","","","","","","",""
"null","141344","SARL_v6","SARL_v6n8zwx5p9","614e2b2bd900d5f91096ac12","freq_resp","","","img/blue_2bandit_a.png","70","img/blue_2bandit_a.png","70","test","","","","","","","","","","","1","","","","","","","","",""
"null","141506","SARL_v6","SARL_v6n8zwx5p9","614e2b2bd900d5f91096ac12","fixation","","","img/fixation.png","null","","","test","","","","","","","","","","","","","","","","","","","",""
"383","141890","SARL_v6","SARL_v6n8zwx5p9","614e2b2bd900d5f91096ac12","freq","","","img/blue_2bandit_a2.png","70","","70","test","1","","12","","","","square","circle","12","12","1","1","","","","","","","",""
"null","142317","SARL_v6","SARL_v6n8zwx5p9","614e2b2bd900d5f91096ac12","freq_resp","","","img/blue_2bandit_a.png","70","img/blue_2bandit_a.png","70","test","","","","","","","","","","","1","","","","","","","","",""
"null","142478","SARL_v6","SARL_v6n8zwx5p9","614e2b2bd900d5f91096ac12","fixation","","","img/fixation.png","null","","","test","","","","","","","","","","","","","","","","","","","",""
"333","142813","SARL_v6","SARL_v6n8zwx5p9","614e2b2bd900d5f91096ac12","freq","","","img/blue_2bandit_a2.png","70","","70","test","1","","13","","","","square","circle","13","13","1","1","","","","","","","",""
"null","143286","SARL_v6","SARL_v6n8zwx5p9","614e2b2bd900d5f91096ac12","freq_resp","","","img/blue_2bandit_a.png","70","img/blue_2bandit_a.png","70","test","","","","","","","","","","","1","","","","","","","","",""
"null","143448","SARL_v6","SARL_v6n8zwx5p9","614e2b2bd900d5f91096ac12","fixation","","","img/fixation.png","null","","","test","","","","","","","","","","","","","","","","","","","",""
"377","143827","SARL_v6","SARL_v6n8zwx5p9","614e2b2bd900d5f91096ac12","freq","","","img/blue_2bandit_a2.png","70","","70","test","1","","14","","","","square","circle","14","14","1","1","","","","","","","",""
"null","144254","SARL_v6","SARL_v6n8zwx5p9","614e2b2bd900d5f91096ac12","freq_resp","","","img/blue_2bandit_a.png","70","img/blue_2bandit_a.png","70","test","","","","","","","","","","","1","","","","","","","","",""
"null","144415","SARL_v6","SARL_v6n8zwx5p9","614e2b2bd900d5f91096ac12","fixation","","","img/fixation.png","null","","","test","","","","","","","","","","","","","","","","","","","",""
"390","144807","SARL_v6","SARL_v6n8zwx5p9","614e2b2bd900d5f91096ac12","freq","","","img/blue_2bandit_a2.png","70","","70","test","1","","15","","","","square","circle","15","15","1","1","","","","","","","",""
"null","145222","SARL_v6","SARL_v6n8zwx5p9","614e2b2bd900d5f91096ac12","freq_resp","","","img/blue_2bandit_a.png","70","img/blue_2bandit_a.png","70","test","","","","","","","","","","","1","","","","","","","","",""
"null","145383","SARL_v6","SARL_v6n8zwx5p9","614e2b2bd900d5f91096ac12","fixation","","","img/fixation.png","null","","","test","","","","","","","","","","","","","","","","","","","",""
"384","145769","SARL_v6","SARL_v6n8zwx5p9","614e2b2bd900d5f91096ac12","freq","","","img/blue_2bandit_a2.png","70","","70","test","1","","16","","","","square","circle","16","16","1","1","","","","","","","",""
"null","146196","SARL_v6","SARL_v6n8zwx5p9","614e2b2bd900d5f91096ac12","freq_resp","","","img/blue_2bandit_a.png","70","img/blue_2bandit_a.png","70","test","","","","","","","","","","","1","","","","","","","","",""
"null","146356","SARL_v6","SARL_v6n8zwx5p9","614e2b2bd900d5f91096ac12","fixation","","","img/fixation.png","null","","","test","","","","","","","","","","","","","","","","","","","",""
"341","146701","SARL_v6","SARL_v6n8zwx5p9","614e2b2bd900d5f91096ac12","freq","","","img/blue_2bandit_a2.png","70","","70","test","1","","17","","","","square","circle","17","17","1","1","","","","","","","",""
"null","147173","SARL_v6","SARL_v6n8zwx5p9","614e2b2bd900d5f91096ac12","freq_resp","","","img/blue_2bandit_a.png","70","img/blue_2bandit_a.png","70","test","","","","","","","","","","","1","","","","","","","","",""
"null","147335","SARL_v6","SARL_v6n8zwx5p9","614e2b2bd900d5f91096ac12","fixation","","","img/fixation.png","null","","","test","","","","","","","","","","","","","","","","","","","",""
"365","147703","SARL_v6","SARL_v6n8zwx5p9","614e2b2bd900d5f91096ac12","freq","","","img/blue_2bandit_a2.png","70","","70","test","1","","18","","","","square","circle","18","18","1","1","","","","","","","",""
"null","148145","SARL_v6","SARL_v6n8zwx5p9","614e2b2bd900d5f91096ac12","freq_resp","","","img/blue_2bandit_a.png","70","img/blue_2bandit_a.png","70","test","","","","","","","","","","","1","","","","","","","","",""
"null","148305","SARL_v6","SARL_v6n8zwx5p9","614e2b2bd900d5f91096ac12","fixation","","","img/fixation.png","null","","","test","","","","","","","","","","","","","","","","","","","",""
"429","148737","SARL_v6","SARL_v6n8zwx5p9","614e2b2bd900d5f91096ac12","infreq","","","img/orange_2bandit_a2.png","68","","68","test","1","","19","","","","square","circle","19","19","1","1","","","","","","","",""
"null","149117","SARL_v6","SARL_v6n8zwx5p9","614e2b2bd900d5f91096ac12","infreq_resp","","","img/orange_2bandit_a.png","68","img/orange_2bandit_a.png","68","test","","","","","","","","","","","1","","","","","","","","",""
"null","149278","SARL_v6","SARL_v6n8zwx5p9","614e2b2bd900d5f91096ac12","fixation","","","img/fixation.png","null","","","test","","","","","","","","","","","","","","","","","","","",""
"401","149680","SARL_v6","SARL_v6n8zwx5p9","614e2b2bd900d5f91096ac12","freq","","","img/blue_2bandit_a2.png","70","","70","test","1","","20","","","","square","circle","20","20","1","1","","","","","","","",""
"null","150090","SARL_v6","SARL_v6n8zwx5p9","614e2b2bd900d5f91096ac12","freq_resp","","","img/blue_2bandit_a.png","70","img/blue_2bandit_a.png","70","test","","","","","","","","","","","1","","","","","","","","",""
"null","150251","SARL_v6","SARL_v6n8zwx5p9","614e2b2bd900d5f91096ac12","fixation","","","img/fixation.png","null","","","test","","","","","","","","","","","","","","","","","","","",""
"355","150608","SARL_v6","SARL_v6n8zwx5p9","614e2b2bd900d5f91096ac12","freq","","","img/blue_2bandit_a2.png","70","","70","test","1","","21","","","","square","circle","21","21","1","1","","","","","","","",""
"null","151066","SARL_v6","SARL_v6n8zwx5p9","614e2b2bd900d5f91096ac12","freq_resp","","","img/blue_2bandit_a.png","70","img/blue_2bandit_a.png","70","test","","","","","","","","","","","1","","","","","","","","",""
"null","151227","SARL_v6","SARL_v6n8zwx5p9","614e2b2bd900d5f91096ac12","fixation","","","img/fixation.png","null","","","test","","","","","","","","","","","","","","","","","","","",""
"406","151635","SARL_v6","SARL_v6n8zwx5p9","614e2b2bd900d5f91096ac12","freq","","","img/blue_2bandit_a2.png","70","","70","test","1","","22","","","","square","circle","22","22","1","1","","","","","","","",""
"null","152046","SARL_v6","SARL_v6n8zwx5p9","614e2b2bd900d5f91096ac12","freq_resp","","","img/blue_2bandit_a.png","70","img/blue_2bandit_a.png","70","test","","","","","","","","","","","1","","","","","","","","",""
"null","152207","SARL_v6","SARL_v6n8zwx5p9","614e2b2bd900d5f91096ac12","fixation","","","img/fixation.png","null","","","test","","","","","","","","","","","","","","","","","","","",""
"318","152528","SARL_v6","SARL_v6n8zwx5p9","614e2b2bd900d5f91096ac12","freq","","","img/blue_2bandit_a2.png","70","","70","test","1","","23","","","","square","circle","23","23","1","1","","","","","","","",""
"null","153015","SARL_v6","SARL_v6n8zwx5p9","614e2b2bd900d5f91096ac12","freq_resp","","","img/blue_2bandit_a.png","70","img/blue_2bandit_a.png","70","test","","","","","","","","","","","1","","","","","","","","",""
"null","153176","SARL_v6","SARL_v6n8zwx5p9","614e2b2bd900d5f91096ac12","fixation","","","img/fixation.png","null","","","test","","","","","","","","","","","","","","","","","","","",""
"361","153540","SARL_v6","SARL_v6n8zwx5p9","614e2b2bd900d5f91096ac12","freq","","","img/blue_2bandit_a2.png","70","","70","test","1","","24","","","","square","circle","24","24","1","1","","","","","","","",""
"null","153992","SARL_v6","SARL_v6n8zwx5p9","614e2b2bd900d5f91096ac12","freq_resp","","","img/blue_2bandit_a.png","70","img/blue_2bandit_a.png","70","test","","","","","","","","","","","1","","","","","","","","",""
"null","154149","SARL_v6","SARL_v6n8zwx5p9","614e2b2bd900d5f91096ac12","fixation","","","img/fixation.png","null","","","test","","","","","","","","","","","","","","","","","","","",""
"376","154526","SARL_v6","SARL_v6n8zwx5p9","614e2b2bd900d5f91096ac12","freq","","","img/blue_2bandit_a2.png","70","","70","test","1","","25","","","","square","circle","25","25","1","1","","","","","","","",""
"null","154953","SARL_v6","SARL_v6n8zwx5p9","614e2b2bd900d5f91096ac12","freq_resp","","","img/blue_2bandit_a.png","70","img/blue_2bandit_a.png","70","test","","","","","","","","","","","1","","","","","","","","",""
"null","155115","SARL_v6","SARL_v6n8zwx5p9","614e2b2bd900d5f91096ac12","fixation","","","img/fixation.png","null","","","test","","","","","","","","","","","","","","","","","","","",""
"349","155467","SARL_v6","SARL_v6n8zwx5p9","614e2b2bd900d5f91096ac12","freq","","","img/blue_2bandit_a2.png","70","","70","test","1","","26","","","","square","circle","26","26","1","1","","","","","","","",""
"null","155925","SARL_v6","SARL_v6n8zwx5p9","614e2b2bd900d5f91096ac12","freq_resp","","","img/blue_2bandit_a.png","70","img/blue_2bandit_a.png","70","test","","","","","","","","","","","1","","","","","","","","",""
"null","156085","SARL_v6","SARL_v6n8zwx5p9","614e2b2bd900d5f91096ac12","fixation","","","img/fixation.png","null","","","test","","","","","","","","","","","","","","","","","","","",""
"902","156989","SARL_v6","SARL_v6n8zwx5p9","614e2b2bd900d5f91096ac12","rl","","","img/black_2bandit_a2.png","75","","0","test","","","27","","","-3","square","circle","","0","1","","75","-3","-3","-3","-3","circle","1","0"
"null","157744","SARL_v6","SARL_v6n8zwx5p9","614e2b2bd900d5f91096ac12","feedback","","","<div class=""verylowPoints""> -3 </div>","null","","na","test","","","NaN","","","","","","","","1","","75","","","","","","1",""
"529","158277","SARL_v6","SARL_v6n8zwx5p9","614e2b2bd900d5f91096ac12","freq","","","img/blue_2bandit_a2.png","70","","70","test","1","","28","","","","square","circle","27","1","2","1","","","","","","","",""
"null","158563","SARL_v6","SARL_v6n8zwx5p9","614e2b2bd900d5f91096ac12","freq_resp","","","img/blue_2bandit_a.png","70","img/blue_2bandit_a.png","70","test","","","","","","","","","","","2","","","","","","","","",""
"null","158724","SARL_v6","SARL_v6n8zwx5p9","614e2b2bd900d5f91096ac12","fixation","","","img/fixation.png","null","","","test","","","","","","","","","","","","","","","","","","","",""
"408","159135","SARL_v6","SARL_v6n8zwx5p9","614e2b2bd900d5f91096ac12","freq","","","img/blue_2bandit_a2.png","70","","70","test","1","","29","","","","square","circle","28","2","2","1","","","","","","","",""
"null","159531","SARL_v6","SARL_v6n8zwx5p9","614e2b2bd900d5f91096ac12","freq_resp","","","img/blue_2bandit_a.png","70","img/blue_2bandit_a.png","70","test","","","","","","","","","","","2","","","","","","","","",""
"null","159692","SARL_v6","SARL_v6n8zwx5p9","614e2b2bd900d5f91096ac12","fixation","","","img/fixation.png","null","","","test","","","","","","","","","","","","","","","","","","","",""
"389","160084","SARL_v6","SARL_v6n8zwx5p9","614e2b2bd900d5f91096ac12","freq","","","img/blue_2bandit_a2.png","70","","70","test","1","","30","","","","square","circle","29","3","2","1","","","","","","","",""
"null","160510","SARL_v6","SARL_v6n8zwx5p9","614e2b2bd900d5f91096ac12","freq_resp","","","img/blue_2bandit_a.png","70","img/blue_2bandit_a.png","70","test","","","","","","","","","","","2","","","","","","","","",""
"null","160671","SARL_v6","SARL_v6n8zwx5p9","614e2b2bd900d5f91096ac12","fixation","","","img/fixation.png","null","","","test","","","","","","","","","","","","","","","","","","","",""
"360","161033","SARL_v6","SARL_v6n8zwx5p9","614e2b2bd900d5f91096ac12","freq","","","img/blue_2bandit_a2.png","70","","70","test","1","","31","","","","square","circle","30","4","2","1","","","","","","","",""
"null","161476","SARL_v6","SARL_v6n8zwx5p9","614e2b2bd900d5f91096ac12","freq_resp","","","img/blue_2bandit_a.png","70","img/blue_2bandit_a.png","70","test","","","","","","","","","","","2","","","","","","","","",""
"null","161636","SARL_v6","SARL_v6n8zwx5p9","614e2b2bd900d5f91096ac12","fixation","","","img/fixation.png","null","","","test","","","","","","","","","","","","","","","","","","","",""
"441","162079","SARL_v6","SARL_v6n8zwx5p9","614e2b2bd900d5f91096ac12","freq","","","img/blue_2bandit_a2.png","70","","70","test","1","","32","","","","square","circle","31","5","2","1","","","","","","","",""
"null","162442","SARL_v6","SARL_v6n8zwx5p9","614e2b2bd900d5f91096ac12","freq_resp","","","img/blue_2bandit_a.png","70","img/blue_2bandit_a.png","70","test","","","","","","","","","","","2","","","","","","","","",""
"null","162603","SARL_v6","SARL_v6n8zwx5p9","614e2b2bd900d5f91096ac12","fixation","","","img/fixation.png","null","","","test","","","","","","","","","","","","","","","","","","","",""
"343","162947","SARL_v6","SARL_v6n8zwx5p9","614e2b2bd900d5f91096ac12","freq","","","img/blue_2bandit_a2.png","70","","70","test","1","","33","","","","square","circle","32","6","2","1","","","","","","","",""
"null","163421","SARL_v6","SARL_v6n8zwx5p9","614e2b2bd900d5f91096ac12","freq_resp","","","img/blue_2bandit_a.png","70","img/blue_2bandit_a.png","70","test","","","","","","","","","","","2","","","","","","","","",""
"null","163583","SARL_v6","SARL_v6n8zwx5p9","614e2b2bd900d5f91096ac12","fixation","","","img/fixation.png","null","","","test","","","","","","","","","","","","","","","","","","","",""
"300","163885","SARL_v6","SARL_v6n8zwx5p9","614e2b2bd900d5f91096ac12","freq","","","img/blue_2bandit_a2.png","70","","70","test","1","","34","","","","square","circle","33","7","2","1","","","","","","","",""
"null","164390","SARL_v6","SARL_v6n8zwx5p9","614e2b2bd900d5f91096ac12","freq_resp","","","img/blue_2bandit_a.png","70","img/blue_2bandit_a.png","70","test","","","","","","","","","","","2","","","","","","","","",""
"null","164552","SARL_v6","SARL_v6n8zwx5p9","614e2b2bd900d5f91096ac12","fixation","","","img/fixation.png","null","","","test","","","","","","","","","","","","","","","","","","","",""
"321","164874","SARL_v6","SARL_v6n8zwx5p9","614e2b2bd900d5f91096ac12","freq","","","img/blue_2bandit_a2.png","70","","70","test","1","","35","","","","square","circle","34","8","2","1","","","","","","","",""
"null","165365","SARL_v6","SARL_v6n8zwx5p9","614e2b2bd900d5f91096ac12","freq_resp","","","img/blue_2bandit_a.png","70","img/blue_2bandit_a.png","70","test","","","","","","","","","","","2","","","","","","","","",""
"null","165526","SARL_v6","SARL_v6n8zwx5p9","614e2b2bd900d5f91096ac12","fixation","","","img/fixation.png","null","","","test","","","","","","","","","","","","","","","","","","","",""
"505","166034","SARL_v6","SARL_v6n8zwx5p9","614e2b2bd900d5f91096ac12","infreq","","","img/orange_2bandit_a2.png","68","","68","test","1","","36","","","","square","circle","35","9","2","1","","","","","","","",""
"null","166335","SARL_v6","SARL_v6n8zwx5p9","614e2b2bd900d5f91096ac12","infreq_resp","","","img/orange_2bandit_a.png","68","img/orange_2bandit_a.png","68","test","","","","","","","","","","","2","","","","","","","","",""
"null","166496","SARL_v6","SARL_v6n8zwx5p9","614e2b2bd900d5f91096ac12","fixation","","","img/fixation.png","null","","","test","","","","","","","","","","","","","","","","","","","",""
"378","166875","SARL_v6","SARL_v6n8zwx5p9","614e2b2bd900d5f91096ac12","freq","","","img/blue_2bandit_a2.png","70","","70","test","1","","37","","","","square","circle","36","10","2","1","","","","","","","",""
"null","167302","SARL_v6","SARL_v6n8zwx5p9","614e2b2bd900d5f91096ac12","freq_resp","","","img/blue_2bandit_a.png","70","img/blue_2bandit_a.png","70","test","","","","","","","","","","","2","","","","","","","","",""
"null","167462","SARL_v6","SARL_v6n8zwx5p9","614e2b2bd900d5f91096ac12","fixation","","","img/fixation.png","null","","","test","","","","","","","","","","","","","","","","","","","",""
"555","168020","SARL_v6","SARL_v6n8zwx5p9","614e2b2bd900d5f91096ac12","freq","","","img/blue_2bandit_a2.png","70","","70","test","1","","38","","","","square","circle","37","11","2","1","","","","","","","",""
"null","168274","SARL_v6","SARL_v6n8zwx5p9","614e2b2bd900d5f91096ac12","freq_resp","","","img/blue_2bandit_a.png","70","img/blue_2bandit_a.png","70","test","","","","","","","","","","","2","","","","","","","","",""
"null","168435","SARL_v6","SARL_v6n8zwx5p9","614e2b2bd900d5f91096ac12","fixation","","","img/fixation.png","null","","","test","","","","","","","","","","","","","","","","","","","",""
"344","168779","SARL_v6","SARL_v6n8zwx5p9","614e2b2bd900d5f91096ac12","freq","","","img/blue_2bandit_a2.png","70","","70","test","1","","39","","","","square","circle","38","12","2","1","","","","","","","",""
"null","169245","SARL_v6","SARL_v6n8zwx5p9","614e2b2bd900d5f91096ac12","freq_resp","","","img/blue_2bandit_a.png","70","img/blue_2bandit_a.png","70","test","","","","","","","","","","","2","","","","","","","","",""
"null","169407","SARL_v6","SARL_v6n8zwx5p9","614e2b2bd900d5f91096ac12","fixation","","","img/fixation.png","null","","","test","","","","","","","","","","","","","","","","","","","",""
"423","169832","SARL_v6","SARL_v6n8zwx5p9","614e2b2bd900d5f91096ac12","freq","","","img/blue_2bandit_a2.png","70","","70","test","1","","40","","","","square","circle","39","13","2","1","","","","","","","",""
"null","170212","SARL_v6","SARL_v6n8zwx5p9","614e2b2bd900d5f91096ac12","freq_resp","","","img/blue_2bandit_a.png","70","img/blue_2bandit_a.png","70","test","","","","","","","","","","","2","","","","","","","","",""
"null","170373","SARL_v6","SARL_v6n8zwx5p9","614e2b2bd900d5f91096ac12","fixation","","","img/fixation.png","null","","","test","","","","","","","","","","","","","","","","","","","",""
"308","170684","SARL_v6","SARL_v6n8zwx5p9","614e2b2bd900d5f91096ac12","freq","","","img/blue_2bandit_a2.png","70","","70","test","1","","41","","","","square","circle","40","14","2","1","","","","","","","",""
"null","171190","SARL_v6","SARL_v6n8zwx5p9","614e2b2bd900d5f91096ac12","freq_resp","","","img/blue_2bandit_a.png","70","img/blue_2bandit_a.png","70","test","","","","","","","","","","","2","","","","","","","","",""
"null","171351","SARL_v6","SARL_v6n8zwx5p9","614e2b2bd900d5f91096ac12","fixation","","","img/fixation.png","null","","","test","","","","","","","","","","","","","","","","","","","",""
"291","171644","SARL_v6","SARL_v6n8zwx5p9","614e2b2bd900d5f91096ac12","freq","","","img/blue_2bandit_a2.png","70","","70","test","1","","42","","","","square","circle","41","15","2","1","","","","","","","",""
"null","172165","SARL_v6","SARL_v6n8zwx5p9","614e2b2bd900d5f91096ac12","freq_resp","","","img/blue_2bandit_a.png","70","img/blue_2bandit_a.png","70","test","","","","","","","","","","","2","","","","","","","","",""
"null","172327","SARL_v6","SARL_v6n8zwx5p9","614e2b2bd900d5f91096ac12","fixation","","","img/fixation.png","null","","","test","","","","","","","","","","","","","","","","","","","",""
"304","172633","SARL_v6","SARL_v6n8zwx5p9","614e2b2bd900d5f91096ac12","freq","","","img/blue_2bandit_a2.png","70","","70","test","1","","43","","","","square","circle","42","16","2","1","","","","","","","",""
"null","173142","SARL_v6","SARL_v6n8zwx5p9","614e2b2bd900d5f91096ac12","freq_resp","","","img/blue_2bandit_a.png","70","img/blue_2bandit_a.png","70","test","","","","","","","","","","","2","","","","","","","","",""
"null","173302","SARL_v6","SARL_v6n8zwx5p9","614e2b2bd900d5f91096ac12","fixation","","","img/fixation.png","null","","","test","","","","","","","","","","","","","","","","","","","",""
"498","173803","SARL_v6","SARL_v6n8zwx5p9","614e2b2bd900d5f91096ac12","infreq","","","img/orange_2bandit_a2.png","68","","68","test","1","","44","","","","square","circle","43","17","2","1","","","","","","","",""
"null","174121","SARL_v6","SARL_v6n8zwx5p9","614e2b2bd900d5f91096ac12","infreq_resp","","","img/orange_2bandit_a.png","68","img/orange_2bandit_a.png","68","test","","","","","","","","","","","2","","","","","","","","",""
"null","174282","SARL_v6","SARL_v6n8zwx5p9","614e2b2bd900d5f91096ac12","fixation","","","img/fixation.png","null","","","test","","","","","","","","","","","","","","","","","","","",""
"429","174712","SARL_v6","SARL_v6n8zwx5p9","614e2b2bd900d5f91096ac12","infreq","","","img/orange_2bandit_a2.png","68","","68","test","1","","45","","","","square","circle","44","18","2","1","","","","","","","",""
"null","175090","SARL_v6","SARL_v6n8zwx5p9","614e2b2bd900d5f91096ac12","infreq_resp","","","img/orange_2bandit_a.png","68","img/orange_2bandit_a.png","68","test","","","","","","","","","","","2","","","","","","","","",""
"null","175251","SARL_v6","SARL_v6n8zwx5p9","614e2b2bd900d5f91096ac12","fixation","","","img/fixation.png","null","","","test","","","","","","","","","","","","","","","","","","","",""
"361","175613","SARL_v6","SARL_v6n8zwx5p9","614e2b2bd900d5f91096ac12","freq","","","img/blue_2bandit_a2.png","70","","70","test","1","","46","","","","square","circle","45","19","2","1","","","","","","","",""
"null","176064","SARL_v6","SARL_v6n8zwx5p9","614e2b2bd900d5f91096ac12","freq_resp","","","img/blue_2bandit_a.png","70","img/blue_2bandit_a.png","70","test","","","","","","","","","","","2","","","","","","","","",""
"null","176225","SARL_v6","SARL_v6n8zwx5p9","614e2b2bd900d5f91096ac12","fixation","","","img/fixation.png","null","","","test","","","","","","","","","","","","","","","","","","","",""
"382","176608","SARL_v6","SARL_v6n8zwx5p9","614e2b2bd900d5f91096ac12","freq","","","img/blue_2bandit_a2.png","70","","70","test","1","","47","","","","square","circle","46","20","2","1","","","","","","","",""
"null","177035","SARL_v6","SARL_v6n8zwx5p9","614e2b2bd900d5f91096ac12","freq_resp","","","img/blue_2bandit_a.png","70","img/blue_2bandit_a.png","70","test","","","","","","","","","","","2","","","","","","","","",""
"null","177197","SARL_v6","SARL_v6n8zwx5p9","614e2b2bd900d5f91096ac12","fixation","","","img/fixation.png","null","","","test","","","","","","","","","","","","","","","","","","","",""
"335","177535","SARL_v6","SARL_v6n8zwx5p9","614e2b2bd900d5f91096ac12","freq","","","img/blue_2bandit_a2.png","70","","70","test","1","","48","","","","square","circle","47","21","2","1","","","","","","","",""
"null","178010","SARL_v6","SARL_v6n8zwx5p9","614e2b2bd900d5f91096ac12","freq_resp","","","img/blue_2bandit_a.png","70","img/blue_2bandit_a.png","70","test","","","","","","","","","","","2","","","","","","","","",""
"null","178170","SARL_v6","SARL_v6n8zwx5p9","614e2b2bd900d5f91096ac12","fixation","","","img/fixation.png","null","","","test","","","","","","","","","","","","","","","","","","","",""
"716","178888","SARL_v6","SARL_v6n8zwx5p9","614e2b2bd900d5f91096ac12","rl","","","img/black_2bandit_a2.png","75","","0","test","","","49","","","-5","square","circle","","0","2","","75","-5","-8","-8","-5","circle","2","0"
"null","179643","SARL_v6","SARL_v6n8zwx5p9","614e2b2bd900d5f91096ac12","feedback","","","<div class=""verylowPoints""> -5 </div>","null","","na","test","","","NaN","","","","","","","","2","","75","","","","","","2",""
"618","180264","SARL_v6","SARL_v6n8zwx5p9","614e2b2bd900d5f91096ac12","freq","","","img/blue_2bandit_a2.png","70","","70","test","1","","50","","","","square","circle","48","1","3","1","","","","","","","",""
"null","180457","SARL_v6","SARL_v6n8zwx5p9","614e2b2bd900d5f91096ac12","freq_resp","","","img/blue_2bandit_a.png","70","img/blue_2bandit_a.png","70","test","","","","","","","","","","","3","","","","","","","","",""
"null","180623","SARL_v6","SARL_v6n8zwx5p9","614e2b2bd900d5f91096ac12","fixation","","","img/fixation.png","null","","","test","","","","","","","","","","","","","","","","","","","",""
"800","181426","SARL_v6","SARL_v6n8zwx5p9","614e2b2bd900d5f91096ac12","freq","","","img/blue_2bandit_a2.png","70","","70","test","1","","51","","","","square","circle","49","2","3","1","","","","","","","",""
"null","181587","SARL_v6","SARL_v6n8zwx5p9","614e2b2bd900d5f91096ac12","fixation","","","img/fixation.png","null","","","test","","","","","","","","","","","","","","","","","","","",""
"542","182131","SARL_v6","SARL_v6n8zwx5p9","614e2b2bd900d5f91096ac12","freq","","","img/blue_2bandit_a2.png","70","","70","test","1","","52","","","","square","circle","50","3","3","1","","","","","","","",""
"null","182402","SARL_v6","SARL_v6n8zwx5p9","614e2b2bd900d5f91096ac12","freq_resp","","","img/blue_2bandit_a.png","70","img/blue_2bandit_a.png","70","test","","","","","","","","","","","3","","","","","","","","",""
"null","182563","SARL_v6","SARL_v6n8zwx5p9","614e2b2bd900d5f91096ac12","fixation","","","img/fixation.png","null","","","test","","","","","","","","","","","","","","","","","","","",""
"471","183037","SARL_v6","SARL_v6n8zwx5p9","614e2b2bd900d5f91096ac12","freq","","","img/blue_2bandit_a2.png","70","","70","test","1","","53","","","","square","circle","51","4","3","1","","","","","","","",""
"null","183370","SARL_v6","SARL_v6n8zwx5p9","614e2b2bd900d5f91096ac12","freq_resp","","","img/blue_2bandit_a.png","70","img/blue_2bandit_a.png","70","test","","","","","","","","","","","3","","","","","","","","",""
"null","183531","SARL_v6","SARL_v6n8zwx5p9","614e2b2bd900d5f91096ac12","fixation","","","img/fixation.png","null","","","test","","","","","","","","","","","","","","","","","","","",""
"345","183878","SARL_v6","SARL_v6n8zwx5p9","614e2b2bd900d5f91096ac12","freq","","","img/blue_2bandit_a2.png","70","","70","test","1","","54","","","","square","circle","52","5","3","1","","","","","","","",""
"null","184336","SARL_v6","SARL_v6n8zwx5p9","614e2b2bd900d5f91096ac12","freq_resp","","","img/blue_2bandit_a.png","70","img/blue_2bandit_a.png","70","test","","","","","","","","","","","3","","","","","","","","",""
"null","184497","SARL_v6","SARL_v6n8zwx5p9","614e2b2bd900d5f91096ac12","fixation","","","img/fixation.png","null","","","test","","","","","","","","","","","","","","","","","","","",""
"368","184867","SARL_v6","SARL_v6n8zwx5p9","614e2b2bd900d5f91096ac12","freq","","","img/blue_2bandit_a2.png","70","","70","test","1","","55","","","","square","circle","53","6","3","1","","","","","","","",""
"null","185310","SARL_v6","SARL_v6n8zwx5p9","614e2b2bd900d5f91096ac12","freq_resp","","","img/blue_2bandit_a.png","70","img/blue_2bandit_a.png","70","test","","","","","","","","","","","3","","","","","","","","",""
"null","185471","SARL_v6","SARL_v6n8zwx5p9","614e2b2bd900d5f91096ac12","fixation","","","img/fixation.png","null","","","test","","","","","","","","","","","","","","","","","","","",""
"327","185800","SARL_v6","SARL_v6n8zwx5p9","614e2b2bd900d5f91096ac12","freq","","","img/blue_2bandit_a2.png","70","","70","test","1","","56","","","","square","circle","54","7","3","1","","","","","","","",""
"null","186289","SARL_v6","SARL_v6n8zwx5p9","614e2b2bd900d5f91096ac12","freq_resp","","","img/blue_2bandit_a.png","70","img/blue_2bandit_a.png","70","test","","","","","","","","","","","3","","","","","","","","",""
"null","186450","SARL_v6","SARL_v6n8zwx5p9","614e2b2bd900d5f91096ac12","fixation","","","img/fixation.png","null","","","test","","","","","","","","","","","","","","","","","","","",""
"381","186833","SARL_v6","SARL_v6n8zwx5p9","614e2b2bd900d5f91096ac12","freq","","","img/blue_2bandit_a2.png","70","","70","test","1","","57","","","","square","circle","55","8","3","1","","","","","","","",""
"null","187260","SARL_v6","SARL_v6n8zwx5p9","614e2b2bd900d5f91096ac12","freq_resp","","","img/blue_2bandit_a.png","70","img/blue_2bandit_a.png","70","test","","","","","","","","","","","3","","","","","","","","",""
"null","187420","SARL_v6","SARL_v6n8zwx5p9","614e2b2bd900d5f91096ac12","fixation","","","img/fixation.png","null","","","test","","","","","","","","","","","","","","","","","","","",""
"333","187756","SARL_v6","SARL_v6n8zwx5p9","614e2b2bd900d5f91096ac12","freq","","","img/blue_2bandit_a2.png","70","","70","test","1","","58","","","","square","circle","56","9","3","1","","","","","","","",""
"null","188229","SARL_v6","SARL_v6n8zwx5p9","614e2b2bd900d5f91096ac12","freq_resp","","","img/blue_2bandit_a.png","70","img/blue_2bandit_a.png","70","test","","","","","","","","","","","3","","","","","","","","",""
"null","188390","SARL_v6","SARL_v6n8zwx5p9","614e2b2bd900d5f91096ac12","fixation","","","img/fixation.png","null","","","test","","","","","","","","","","","","","","","","","","","",""
"369","188761","SARL_v6","SARL_v6n8zwx5p9","614e2b2bd900d5f91096ac12","infreq","","","img/orange_2bandit_a2.png","68","","68","test","1","","59","","","","square","circle","57","10","3","1","","","","","","","",""
"null","189205","SARL_v6","SARL_v6n8zwx5p9","614e2b2bd900d5f91096ac12","infreq_resp","","","img/orange_2bandit_a.png","68","img/orange_2bandit_a.png","68","test","","","","","","","","","","","3","","","","","","","","",""
"null","189366","SARL_v6","SARL_v6n8zwx5p9","614e2b2bd900d5f91096ac12","fixation","","","img/fixation.png","null","","","test","","","","","","","","","","","","","","","","","","","",""
"482","189851","SARL_v6","SARL_v6n8zwx5p9","614e2b2bd900d5f91096ac12","infreq","","","img/orange_2bandit_a2.png","68","","68","test","1","","60","","","","square","circle","58","11","3","1","","","","","","","",""
"null","190184","SARL_v6","SARL_v6n8zwx5p9","614e2b2bd900d5f91096ac12","infreq_resp","","","img/orange_2bandit_a.png","68","img/orange_2bandit_a.png","68","test","","","","","","","","","","","3","","","","","","","","",""
"null","190347","SARL_v6","SARL_v6n8zwx5p9","614e2b2bd900d5f91096ac12","fixation","","","img/fixation.png","null","","","test","","","","","","","","","","","","","","","","","","","",""
"499","190848","SARL_v6","SARL_v6n8zwx5p9","614e2b2bd900d5f91096ac12","freq","","","img/blue_2bandit_a2.png","70","","70","test","1","","61","","","","square","circle","59","12","3","1","","","","","","","",""
"null","191165","SARL_v6","SARL_v6n8zwx5p9","614e2b2bd900d5f91096ac12","freq_resp","","","img/blue_2bandit_a.png","70","img/blue_2bandit_a.png","70","test","","","","","","","","","","","3","","","","","","","","",""
"null","191325","SARL_v6","SARL_v6n8zwx5p9","614e2b2bd900d5f91096ac12","fixation","","","img/fixation.png","null","","","test","","","","","","","","","","","","","","","","","","","",""
"464","191791","SARL_v6","SARL_v6n8zwx5p9","614e2b2bd900d5f91096ac12","freq","","","img/blue_2bandit_a2.png","70","","70","test","1","","62","","","","square","circle","60","13","3","1","","","","","","","",""
"null","192139","SARL_v6","SARL_v6n8zwx5p9","614e2b2bd900d5f91096ac12","freq_resp","","","img/blue_2bandit_a.png","70","img/blue_2bandit_a.png","70","test","","","","","","","","","","","3","","","","","","","","",""
"null","192301","SARL_v6","SARL_v6n8zwx5p9","614e2b2bd900d5f91096ac12","fixation","","","img/fixation.png","null","","","test","","","","","","","","","","","","","","","","","","","",""
"425","192729","SARL_v6","SARL_v6n8zwx5p9","614e2b2bd900d5f91096ac12","freq","","","img/blue_2bandit_a2.png","70","","70","test","1","","63","","","","square","circle","61","14","3","1","","","","","","","",""
"null","193123","SARL_v6","SARL_v6n8zwx5p9","614e2b2bd900d5f91096ac12","freq_resp","","","img/blue_2bandit_a.png","70","img/blue_2bandit_a.png","70","test","","","","","","","","","","","3","","","","","","","","",""
"null","193282","SARL_v6","SARL_v6n8zwx5p9","614e2b2bd900d5f91096ac12","fixation","","","img/fixation.png","null","","","test","","","","","","","","","","","","","","","","","","","",""
"480","193764","SARL_v6","SARL_v6n8zwx5p9","614e2b2bd900d5f91096ac12","freq","","","img/blue_2bandit_a2.png","70","","70","test","1","","64","","","","square","circle","62","15","3","1","","","","","","","",""
"null","194098","SARL_v6","SARL_v6n8zwx5p9","614e2b2bd900d5f91096ac12","freq_resp","","","img/blue_2bandit_a.png","70","img/blue_2bandit_a.png","70","test","","","","","","","","","","","3","","","","","","","","",""
"null","194259","SARL_v6","SARL_v6n8zwx5p9","614e2b2bd900d5f91096ac12","fixation","","","img/fixation.png","null","","","test","","","","","","","","","","","","","","","","","","","",""
"368","194629","SARL_v6","SARL_v6n8zwx5p9","614e2b2bd900d5f91096ac12","freq","","","img/blue_2bandit_a2.png","70","","70","test","1","","65","","","","square","circle","63","16","3","1","","","","","","","",""
"null","195072","SARL_v6","SARL_v6n8zwx5p9","614e2b2bd900d5f91096ac12","freq_resp","","","img/blue_2bandit_a.png","70","img/blue_2bandit_a.png","70","test","","","","","","","","","","","3","","","","","","","","",""
"null","195234","SARL_v6","SARL_v6n8zwx5p9","614e2b2bd900d5f91096ac12","fixation","","","img/fixation.png","null","","","test","","","","","","","","","","","","","","","","","","","",""
"386","195622","SARL_v6","SARL_v6n8zwx5p9","614e2b2bd900d5f91096ac12","freq","","","img/blue_2bandit_a2.png","70","","70","test","1","","66","","","","square","circle","64","17","3","1","","","","","","","",""
"null","196050","SARL_v6","SARL_v6n8zwx5p9","614e2b2bd900d5f91096ac12","freq_resp","","","img/blue_2bandit_a.png","70","img/blue_2bandit_a.png","70","test","","","","","","","","","","","3","","","","","","","","",""
"null","196211","SARL_v6","SARL_v6n8zwx5p9","614e2b2bd900d5f91096ac12","fixation","","","img/fixation.png","null","","","test","","","","","","","","","","","","","","","","","","","",""
"390","196603","SARL_v6","SARL_v6n8zwx5p9","614e2b2bd900d5f91096ac12","freq","","","img/blue_2bandit_a2.png","70","","70","test","1","","67","","","","square","circle","65","18","3","1","","","","","","","",""
"null","197029","SARL_v6","SARL_v6n8zwx5p9","614e2b2bd900d5f91096ac12","freq_resp","","","img/blue_2bandit_a.png","70","img/blue_2bandit_a.png","70","test","","","","","","","","","","","3","","","","","","","","",""
"null","197190","SARL_v6","SARL_v6n8zwx5p9","614e2b2bd900d5f91096ac12","fixation","","","img/fixation.png","null","","","test","","","","","","","","","","","","","","","","","","","",""
"352","197544","SARL_v6","SARL_v6n8zwx5p9","614e2b2bd900d5f91096ac12","freq","","","img/blue_2bandit_a2.png","70","","70","test","1","","68","","","","square","circle","66","19","3","1","","","","","","","",""
"null","198003","SARL_v6","SARL_v6n8zwx5p9","614e2b2bd900d5f91096ac12","freq_resp","","","img/blue_2bandit_a.png","70","img/blue_2bandit_a.png","70","test","","","","","","","","","","","3","","","","","","","","",""
"null","198164","SARL_v6","SARL_v6n8zwx5p9","614e2b2bd900d5f91096ac12","fixation","","","img/fixation.png","null","","","test","","","","","","","","","","","","","","","","","","","",""
"400","198567","SARL_v6","SARL_v6n8zwx5p9","614e2b2bd900d5f91096ac12","freq","","","img/blue_2bandit_a2.png","70","","70","test","1","","69","","","","square","circle","67","20","3","1","","","","","","","",""
"null","198971","SARL_v6","SARL_v6n8zwx5p9","614e2b2bd900d5f91096ac12","freq_resp","","","img/blue_2bandit_a.png","70","img/blue_2bandit_a.png","70","test","","","","","","","","","","","3","","","","","","","","",""
"null","199129","SARL_v6","SARL_v6n8zwx5p9","614e2b2bd900d5f91096ac12","fixation","","","img/fixation.png","null","","","test","","","","","","","","","","","","","","","","","","","",""
"322","199453","SARL_v6","SARL_v6n8zwx5p9","614e2b2bd900d5f91096ac12","freq","","","img/blue_2bandit_a2.png","70","","70","test","1","","70","","","","square","circle","68","21","3","1","","","","","","","",""
"null","199943","SARL_v6","SARL_v6n8zwx5p9","614e2b2bd900d5f91096ac12","freq_resp","","","img/blue_2bandit_a.png","70","img/blue_2bandit_a.png","70","test","","","","","","","","","","","3","","","","","","","","",""
"null","200104","SARL_v6","SARL_v6n8zwx5p9","614e2b2bd900d5f91096ac12","fixation","","","img/fixation.png","null","","","test","","","","","","","","","","","","","","","","","","","",""
"624","200730","SARL_v6","SARL_v6n8zwx5p9","614e2b2bd900d5f91096ac12","rl","","","img/black_2bandit_a2.png","74","","0","test","","","71","","","-8","square","circle","","0","3","","74","-4","-8","-8","-4","square","3","0"
"null","201485","SARL_v6","SARL_v6n8zwx5p9","614e2b2bd900d5f91096ac12","feedback","","","<div class=""verylowPoints_sq""> -8 </div>","null","","na","test","","","NaN","","","","","","","","3","","74","","","","","","3",""
"535","202022","SARL_v6","SARL_v6n8zwx5p9","614e2b2bd900d5f91096ac12","freq","","","img/blue_2bandit_a2.png","70","","70","test","1","","72","","","","square","circle","69","1","4","1","","","","","","","",""
"null","202292","SARL_v6","SARL_v6n8zwx5p9","614e2b2bd900d5f91096ac12","freq_resp","","","img/blue_2bandit_a.png","70","img/blue_2bandit_a.png","70","test","","","","","","","","","","","4","","","","","","","","",""
"null","202452","SARL_v6","SARL_v6n8zwx5p9","614e2b2bd900d5f91096ac12","fixation","","","img/fixation.png","null","","","test","","","","","","","","","","","","","","","","","","","",""
"370","202824","SARL_v6","SARL_v6n8zwx5p9","614e2b2bd900d5f91096ac12","freq","","","img/blue_2bandit_a2.png","70","","70","test","1","","73","","","","square","circle","70","2","4","1","","","","","","","",""
"null","203268","SARL_v6","SARL_v6n8zwx5p9","614e2b2bd900d5f91096ac12","freq_resp","","","img/blue_2bandit_a.png","70","img/blue_2bandit_a.png","70","test","","","","","","","","","","","4","","","","","","","","",""
"null","203429","SARL_v6","SARL_v6n8zwx5p9","614e2b2bd900d5f91096ac12","fixation","","","img/fixation.png","null","","","test","","","","","","","","","","","","","","","","","","","",""
"346","203778","SARL_v6","SARL_v6n8zwx5p9","614e2b2bd900d5f91096ac12","freq","","","img/blue_2bandit_a2.png","70","","70","test","1","","74","","","","square","circle","71","3","4","1","","","","","","","",""
"null","204235","SARL_v6","SARL_v6n8zwx5p9","614e2b2bd900d5f91096ac12","freq_resp","","","img/blue_2bandit_a.png","70","img/blue_2bandit_a.png","70","test","","","","","","","","","","","4","","","","","","","","",""
"null","204396","SARL_v6","SARL_v6n8zwx5p9","614e2b2bd900d5f91096ac12","fixation","","","img/fixation.png","null","","","test","","","","","","","","","","","","","","","","","","","",""
"367","204766","SARL_v6","SARL_v6n8zwx5p9","614e2b2bd900d5f91096ac12","freq","","","img/blue_2bandit_a2.png","70","","70","test","1","","75","","","","square","circle","72","4","4","1","","","","","","","",""
"null","205208","SARL_v6","SARL_v6n8zwx5p9","614e2b2bd900d5f91096ac12","freq_resp","","","img/blue_2bandit_a.png","70","img/blue_2bandit_a.png","70","test","","","","","","","","","","","4","","","","","","","","",""
"null","205369","SARL_v6","SARL_v6n8zwx5p9","614e2b2bd900d5f91096ac12","fixation","","","img/fixation.png","null","","","test","","","","","","","","","","","","","","","","","","","",""
"304","205675","SARL_v6","SARL_v6n8zwx5p9","614e2b2bd900d5f91096ac12","freq","","","img/blue_2bandit_a2.png","70","","70","test","1","","76","","","","square","circle","73","5","4","1","","","","","","","",""
"null","206179","SARL_v6","SARL_v6n8zwx5p9","614e2b2bd900d5f91096ac12","freq_resp","","","img/blue_2bandit_a.png","70","img/blue_2bandit_a.png","70","test","","","","","","","","","","","4","","","","","","","","",""
"null","206340","SARL_v6","SARL_v6n8zwx5p9","614e2b2bd900d5f91096ac12","fixation","","","img/fixation.png","null","","","test","","","","","","","","","","","","","","","","","","","",""
"328","206668","SARL_v6","SARL_v6n8zwx5p9","614e2b2bd900d5f91096ac12","freq","","","img/blue_2bandit_a2.png","70","","70","test","1","","77","","","","square","circle","74","6","4","1","","","","","","","",""
"null","207158","SARL_v6","SARL_v6n8zwx5p9","614e2b2bd900d5f91096ac12","freq_resp","","","img/blue_2bandit_a.png","70","img/blue_2bandit_a.png","70","test","","","","","","","","","","","4","","","","","","","","",""
"null","207318","SARL_v6","SARL_v6n8zwx5p9","614e2b2bd900d5f91096ac12","fixation","","","img/fixation.png","null","","","test","","","","","","","","","","","","","","","","","","","",""
"543","207864","SARL_v6","SARL_v6n8zwx5p9","614e2b2bd900d5f91096ac12","infreq","","","img/orange_2bandit_a2.png","68","","68","test","1","","78","","","","square","circle","75","7","4","1","","","","","","","",""
"null","208134","SARL_v6","SARL_v6n8zwx5p9","614e2b2bd900d5f91096ac12","infreq_resp","","","img/orange_2bandit_a.png","68","img/orange_2bandit_a.png","68","test","","","","","","","","","","","4","","","","","","","","",""
"null","208294","SARL_v6","SARL_v6n8zwx5p9","614e2b2bd900d5f91096ac12","fixation","","","img/fixation.png","null","","","test","","","","","","","","","","","","","","","","","","","",""
"392","208689","SARL_v6","SARL_v6n8zwx5p9","614e2b2bd900d5f91096ac12","freq","","","img/blue_2bandit_a2.png","70","","70","test","1","","79","","","","square","circle","76","8","4","1","","","","","","","",""
"null","209101","SARL_v6","SARL_v6n8zwx5p9","614e2b2bd900d5f91096ac12","freq_resp","","","img/blue_2bandit_a.png","70","img/blue_2bandit_a.png","70","test","","","","","","","","","","","4","","","","","","","","",""
"null","209261","SARL_v6","SARL_v6n8zwx5p9","614e2b2bd900d5f91096ac12","fixation","","","img/fixation.png","null","","","test","","","","","","","","","","","","","","","","","","","",""
"486","209749","SARL_v6","SARL_v6n8zwx5p9","614e2b2bd900d5f91096ac12","freq","","","img/blue_2bandit_a2.png","70","","70","test","1","","80","","","","square","circle","77","9","4","1","","","","","","","",""
"null","210066","SARL_v6","SARL_v6n8zwx5p9","614e2b2bd900d5f91096ac12","freq_resp","","","img/blue_2bandit_a.png","70","img/blue_2bandit_a.png","70","test","","","","","","","","","","","4","","","","","","","","",""
"null","210227","SARL_v6","SARL_v6n8zwx5p9","614e2b2bd900d5f91096ac12","fixation","","","img/fixation.png","null","","","test","","","","","","","","","","","","","","","","","","","",""
"385","210615","SARL_v6","SARL_v6n8zwx5p9","614e2b2bd900d5f91096ac12","freq","","","img/blue_2bandit_a2.png","70","","70","test","1","","81","","","","square","circle","78","10","4","1","","","","","","","",""
"null","211041","SARL_v6","SARL_v6n8zwx5p9","614e2b2bd900d5f91096ac12","freq_resp","","","img/blue_2bandit_a.png","70","img/blue_2bandit_a.png","70","test","","","","","","","","","","","4","","","","","","","","",""
"null","211203","SARL_v6","SARL_v6n8zwx5p9","614e2b2bd900d5f91096ac12","fixation","","","img/fixation.png","null","","","test","","","","","","","","","","","","","","","","","","","",""
"386","211590","SARL_v6","SARL_v6n8zwx5p9","614e2b2bd900d5f91096ac12","freq","","","img/blue_2bandit_a2.png","70","","70","test","1","","82","","","","square","circle","79","11","4","1","","","","","","","",""
"null","212018","SARL_v6","SARL_v6n8zwx5p9","614e2b2bd900d5f91096ac12","freq_resp","","","img/blue_2bandit_a.png","70","img/blue_2bandit_a.png","70","test","","","","","","","","","","","4","","","","","","","","",""
"null","212179","SARL_v6","SARL_v6n8zwx5p9","614e2b2bd900d5f91096ac12","fixation","","","img/fixation.png","null","","","test","","","","","","","","","","","","","","","","","","","",""
"319","212500","SARL_v6","SARL_v6n8zwx5p9","614e2b2bd900d5f91096ac12","freq","","","img/blue_2bandit_a2.png","70","","70","test","1","","83","","","","square","circle","80","12","4","1","","","","","","","",""
"null","212990","SARL_v6","SARL_v6n8zwx5p9","614e2b2bd900d5f91096ac12","freq_resp","","","img/blue_2bandit_a.png","70","img/blue_2bandit_a.png","70","test","","","","","","","","","","","4","","","","","","","","",""
"null","213152","SARL_v6","SARL_v6n8zwx5p9","614e2b2bd900d5f91096ac12","fixation","","","img/fixation.png","null","","","test","","","","","","","","","","","","","","","","","","","",""
"333","213487","SARL_v6","SARL_v6n8zwx5p9","614e2b2bd900d5f91096ac12","freq","","","img/blue_2bandit_a2.png","70","","70","test","1","","84","","","","square","circle","81","13","4","1","","","","","","","",""
"null","213961","SARL_v6","SARL_v6n8zwx5p9","614e2b2bd900d5f91096ac12","freq_resp","","","img/blue_2bandit_a.png","70","img/blue_2bandit_a.png","70","test","","","","","","","","","","","4","","","","","","","","",""
"null","214122","SARL_v6","SARL_v6n8zwx5p9","614e2b2bd900d5f91096ac12","fixation","","","img/fixation.png","null","","","test","","","","","","","","","","","","","","","","","","","",""
"null","214929","SARL_v6","SARL_v6n8zwx5p9","614e2b2bd900d5f91096ac12","infreq","","","img/orange_2bandit_a2.png","null","","68","test","0","","85","","","","square","circle","82","14","4","0.9878048780487805","","","","","","","",""
"null","215090","SARL_v6","SARL_v6n8zwx5p9","614e2b2bd900d5f91096ac12","fixation","","","img/fixation.png","null","","","test","","","","","","","","","","","","","","","","","","","",""
"470","215562","SARL_v6","SARL_v6n8zwx5p9","614e2b2bd900d5f91096ac12","freq","","","img/blue_2bandit_a2.png","70","","70","test","1","","86","","","","square","circle","83","15","4","0.9879518072289156","","","","","","","",""
"null","215907","SARL_v6","SARL_v6n8zwx5p9","614e2b2bd900d5f91096ac12","freq_resp","","","img/blue_2bandit_a.png","70","img/blue_2bandit_a.png","70","test","","","","","","","","","","","4","","","","","","","","",""
"null","216067","SARL_v6","SARL_v6n8zwx5p9","614e2b2bd900d5f91096ac12","fixation","","","img/fixation.png","null","","","test","","","","","","","","","","","","","","","","","","","",""
"493","216562","SARL_v6","SARL_v6n8zwx5p9","614e2b2bd900d5f91096ac12","freq","","","img/blue_2bandit_a2.png","70","","70","test","1","","87","","","","square","circle","84","16","4","0.9880952380952381","","","","","","","",""
"null","216885","SARL_v6","SARL_v6n8zwx5p9","614e2b2bd900d5f91096ac12","freq_resp","","","img/blue_2bandit_a.png","70","img/blue_2bandit_a.png","70","test","","","","","","","","","","","4","","","","","","","","",""
"null","217046","SARL_v6","SARL_v6n8zwx5p9","614e2b2bd900d5f91096ac12","fixation","","","img/fixation.png","null","","","test","","","","","","","","","","","","","","","","","","","",""
"382","217430","SARL_v6","SARL_v6n8zwx5p9","614e2b2bd900d5f91096ac12","freq","","","img/blue_2bandit_a2.png","70","","70","test","1","","88","","","","square","circle","85","17","4","0.9882352941176471","","","","","","","",""
"null","217856","SARL_v6","SARL_v6n8zwx5p9","614e2b2bd900d5f91096ac12","freq_resp","","","img/blue_2bandit_a.png","70","img/blue_2bandit_a.png","70","test","","","","","","","","","","","4","","","","","","","","",""
"null","218018","SARL_v6","SARL_v6n8zwx5p9","614e2b2bd900d5f91096ac12","fixation","","","img/fixation.png","null","","","test","","","","","","","","","","","","","","","","","","","",""
"545","218566","SARL_v6","SARL_v6n8zwx5p9","614e2b2bd900d5f91096ac12","freq","","","img/blue_2bandit_a2.png","70","","70","test","1","","89","","","","square","circle","86","18","4","0.9883720930232558","","","","","","","",""
"null","218836","SARL_v6","SARL_v6n8zwx5p9","614e2b2bd900d5f91096ac12","freq_resp","","","img/blue_2bandit_a.png","70","img/blue_2bandit_a.png","70","test","","","","","","","","","","","4","","","","","","","","",""
"null","218996","SARL_v6","SARL_v6n8zwx5p9","614e2b2bd900d5f91096ac12","fixation","","","img/fixation.png","null","","","test","","","","","","","","","","","","","","","","","","","",""
"367","219366","SARL_v6","SARL_v6n8zwx5p9","614e2b2bd900d5f91096ac12","freq","","","img/blue_2bandit_a2.png","70","","70","test","1","","90","","","","square","circle","87","19","4","0.9885057471264368","","","","","","","",""
"null","219809","SARL_v6","SARL_v6n8zwx5p9","614e2b2bd900d5f91096ac12","freq_resp","","","img/blue_2bandit_a.png","70","img/blue_2bandit_a.png","70","test","","","","","","","","","","","4","","","","","","","","",""
"null","219969","SARL_v6","SARL_v6n8zwx5p9","614e2b2bd900d5f91096ac12","fixation","","","img/fixation.png","null","","","test","","","","","","","","","","","","","","","","","","","",""
"330","220301","SARL_v6","SARL_v6n8zwx5p9","614e2b2bd900d5f91096ac12","freq","","","img/blue_2bandit_a2.png","70","","70","test","1","","91","","","","square","circle","88","20","4","0.9886363636363636","","","","","","","",""
"null","220775","SARL_v6","SARL_v6n8zwx5p9","614e2b2bd900d5f91096ac12","freq_resp","","","img/blue_2bandit_a.png","70","img/blue_2bandit_a.png","70","test","","","","","","","","","","","4","","","","","","","","",""
"null","220935","SARL_v6","SARL_v6n8zwx5p9","614e2b2bd900d5f91096ac12","fixation","","","img/fixation.png","null","","","test","","","","","","","","","","","","","","","","","","","",""
"421","221358","SARL_v6","SARL_v6n8zwx5p9","614e2b2bd900d5f91096ac12","freq","","","img/blue_2bandit_a2.png","70","","70","test","1","","92","","","","square","circle","89","21","4","0.9887640449438202","","","","","","","",""
"null","221755","SARL_v6","SARL_v6n8zwx5p9","614e2b2bd900d5f91096ac12","freq_resp","","","img/blue_2bandit_a.png","70","img/blue_2bandit_a.png","70","test","","","","","","","","","","","4","","","","","","","","",""
"null","221918","SARL_v6","SARL_v6n8zwx5p9","614e2b2bd900d5f91096ac12","fixation","","","img/fixation.png","null","","","test","","","","","","","","","","","","","","","","","","","",""
"629","222549","SARL_v6","SARL_v6n8zwx5p9","614e2b2bd900d5f91096ac12","rl","","","img/black_2bandit_a2.png","75","","0","test","","","93","","","0","square","circle","","0","4","","75","0","-12","-12","0","circle","4","0"
"null","223304","SARL_v6","SARL_v6n8zwx5p9","614e2b2bd900d5f91096ac12","feedback","","","<div class=""verylowPoints""> 0 </div>","null","","na","test","","","NaN","","","","","","","","4","","75","","","","","","4",""
"513","223819","SARL_v6","SARL_v6n8zwx5p9","614e2b2bd900d5f91096ac12","freq","","","img/blue_2bandit_a2.png","70","","70","test","1","","94","","","","square","circle","90","1","5","0.9888888888888889","","","","","","","",""
"null","224121","SARL_v6","SARL_v6n8zwx5p9","614e2b2bd900d5f91096ac12","freq_resp","","","img/blue_2bandit_a.png","70","img/blue_2bandit_a.png","70","test","","","","","","","","","","","5","","","","","","","","",""
"null","224283","SARL_v6","SARL_v6n8zwx5p9","614e2b2bd900d5f91096ac12","fixation","","","img/fixation.png","null","","","test","","","","","","","","","","","","","","","","","","","",""
"402","224687","SARL_v6","SARL_v6n8zwx5p9","614e2b2bd900d5f91096ac12","freq","","","img/blue_2bandit_a2.png","70","","70","test","1","","95","","","","square","circle","91","2","5","0.989010989010989","","","","","","","",""
"null","225089","SARL_v6","SARL_v6n8zwx5p9","614e2b2bd900d5f91096ac12","freq_resp","","","img/blue_2bandit_a.png","70","img/blue_2bandit_a.png","70","test","","","","","","","","","","","5","","","","","","","","",""
"null","225250","SARL_v6","SARL_v6n8zwx5p9","614e2b2bd900d5f91096ac12","fixation","","","img/fixation.png","null","","","test","","","","","","","","","","","","","","","","","","","",""
"374","225626","SARL_v6","SARL_v6n8zwx5p9","614e2b2bd900d5f91096ac12","freq","","","img/blue_2bandit_a2.png","70","","70","test","1","","96","","","","square","circle","92","3","5","0.9891304347826086","","","","","","","",""
"null","226058","SARL_v6","SARL_v6n8zwx5p9","614e2b2bd900d5f91096ac12","freq_resp","","","img/blue_2bandit_a.png","70","img/blue_2bandit_a.png","70","test","","","","","","","","","","","5","","","","","","","","",""
"null","226220","SARL_v6","SARL_v6n8zwx5p9","614e2b2bd900d5f91096ac12","fixation","","","img/fixation.png","null","","","test","","","","","","","","","","","","","","","","","","","",""
"433","226654","SARL_v6","SARL_v6n8zwx5p9","614e2b2bd900d5f91096ac12","freq","","","img/blue_2bandit_a2.png","70","","70","test","1","","97","","","","square","circle","93","4","5","0.989247311827957","","","","","","","",""
"null","227033","SARL_v6","SARL_v6n8zwx5p9","614e2b2bd900d5f91096ac12","freq_resp","","","img/blue_2bandit_a.png","70","img/blue_2bandit_a.png","70","test","","","","","","","","","","","5","","","","","","","","",""
"null","227194","SARL_v6","SARL_v6n8zwx5p9","614e2b2bd900d5f91096ac12","fixation","","","img/fixation.png","null","","","test","","","","","","","","","","","","","","","","","","","",""
"527","227723","SARL_v6","SARL_v6n8zwx5p9","614e2b2bd900d5f91096ac12","infreq","","","img/orange_2bandit_a2.png","68","","68","test","1","","98","","","","square","circle","94","5","5","0.9893617021276596","","","","","","","",""
"null","228008","SARL_v6","SARL_v6n8zwx5p9","614e2b2bd900d5f91096ac12","infreq_resp","","","img/orange_2bandit_a.png","68","img/orange_2bandit_a.png","68","test","","","","","","","","","","","5","","","","","","","","",""
"null","228169","SARL_v6","SARL_v6n8zwx5p9","614e2b2bd900d5f91096ac12","fixation","","","img/fixation.png","null","","","test","","","","","","","","","","","","","","","","","","","",""
"442","228613","SARL_v6","SARL_v6n8zwx5p9","614e2b2bd900d5f91096ac12","infreq","","","img/orange_2bandit_a2.png","68","","68","test","1","","99","","","","square","circle","95","6","5","0.9894736842105263","","","","","","","",""
"null","228976","SARL_v6","SARL_v6n8zwx5p9","614e2b2bd900d5f91096ac12","infreq_resp","","","img/orange_2bandit_a.png","68","img/orange_2bandit_a.png","68","test","","","","","","","","","","","5","","","","","","","","",""
"null","229137","SARL_v6","SARL_v6n8zwx5p9","614e2b2bd900d5f91096ac12","fixation","","","img/fixation.png","null","","","test","","","","","","","","","","","","","","","","","","","",""
"487","229627","SARL_v6","SARL_v6n8zwx5p9","614e2b2bd900d5f91096ac12","freq","","","img/blue_2bandit_a2.png","70","","70","test","1","","100","","","","square","circle","96","7","5","0.9895833333333334","","","","","","","",""
"null","229945","SARL_v6","SARL_v6n8zwx5p9","614e2b2bd900d5f91096ac12","freq_resp","","","img/blue_2bandit_a.png","70","img/blue_2bandit_a.png","70","test","","","","","","","","","","","5","","","","","","","","",""
"null","230105","SARL_v6","SARL_v6n8zwx5p9","614e2b2bd900d5f91096ac12","fixation","","","img/fixation.png","null","","","test","","","","","","","","","","","","","","","","","","","",""
"450","230558","SARL_v6","SARL_v6n8zwx5p9","614e2b2bd900d5f91096ac12","freq","","","img/blue_2bandit_a2.png","70","","70","test","1","","101","","","","square","circle","97","8","5","0.9896907216494846","","","","","","","",""
"null","230923","SARL_v6","SARL_v6n8zwx5p9","614e2b2bd900d5f91096ac12","freq_resp","","","img/blue_2bandit_a.png","70","img/blue_2bandit_a.png","70","test","","","","","","","","","","","5","","","","","","","","",""
"null","231084","SARL_v6","SARL_v6n8zwx5p9","614e2b2bd900d5f91096ac12","fixation","","","img/fixation.png","null","","","test","","","","","","","","","","","","","","","","","","","",""
"440","231526","SARL_v6","SARL_v6n8zwx5p9","614e2b2bd900d5f91096ac12","freq","","","img/blue_2bandit_a2.png","70","","70","test","1","","102","","","","square","circle","98","9","5","0.9897959183673469","","","","","","","",""
"null","231889","SARL_v6","SARL_v6n8zwx5p9","614e2b2bd900d5f91096ac12","freq_resp","","","img/blue_2bandit_a.png","70","img/blue_2bandit_a.png","70","test","","","","","","","","","","","5","","","","","","","","",""
"null","232051","SARL_v6","SARL_v6n8zwx5p9","614e2b2bd900d5f91096ac12","fixation","","","img/fixation.png","null","","","test","","","","","","","","","","","","","","","","","","","",""
"421","232475","SARL_v6","SARL_v6n8zwx5p9","614e2b2bd900d5f91096ac12","freq","","","img/blue_2bandit_a2.png","70","","70","test","1","","103","","","","square","circle","99","10","5","0.98989898989899","","","","","","","",""
"null","232868","SARL_v6","SARL_v6n8zwx5p9","614e2b2bd900d5f91096ac12","freq_resp","","","img/blue_2bandit_a.png","70","img/blue_2bandit_a.png","70","test","","","","","","","","","","","5","","","","","","","","",""
"null","233030","SARL_v6","SARL_v6n8zwx5p9","614e2b2bd900d5f91096ac12","fixation","","","img/fixation.png","null","","","test","","","","","","","","","","","","","","","","","","","",""
"344","233377","SARL_v6","SARL_v6n8zwx5p9","614e2b2bd900d5f91096ac12","freq","","","img/blue_2bandit_a2.png","70","","70","test","1","","104","","","","square","circle","100","11","5","0.99","","","","","","","",""
"null","233850","SARL_v6","SARL_v6n8zwx5p9","614e2b2bd900d5f91096ac12","freq_resp","","","img/blue_2bandit_a.png","70","img/blue_2bandit_a.png","70","test","","","","","","","","","","","5","","","","","","","","",""
"null","234011","SARL_v6","SARL_v6n8zwx5p9","614e2b2bd900d5f91096ac12","fixation","","","img/fixation.png","null","","","test","","","","","","","","","","","","","","","","","","","",""
"306","234319","SARL_v6","SARL_v6n8zwx5p9","614e2b2bd900d5f91096ac12","freq","","","img/blue_2bandit_a2.png","70","","70","test","1","","105","","","","square","circle","101","12","5","0.9900990099009901","","","","","","","",""
"null","234822","SARL_v6","SARL_v6n8zwx5p9","614e2b2bd900d5f91096ac12","freq_resp","","","img/blue_2bandit_a.png","70","img/blue_2bandit_a.png","70","test","","","","","","","","","","","5","","","","","","","","",""
"null","234984","SARL_v6","SARL_v6n8zwx5p9","614e2b2bd900d5f91096ac12","fixation","","","img/fixation.png","null","","","test","","","","","","","","","","","","","","","","","","","",""
"326","235313","SARL_v6","SARL_v6n8zwx5p9","614e2b2bd900d5f91096ac12","freq","","","img/blue_2bandit_a2.png","70","","70","test","1","","106","","","","square","circle","102","13","5","0.9901960784313726","","","","","","","",""
"null","235803","SARL_v6","SARL_v6n8zwx5p9","614e2b2bd900d5f91096ac12","freq_resp","","","img/blue_2bandit_a.png","70","img/blue_2bandit_a.png","70","test","","","","","","","","","","","5","","","","","","","","",""
"null","235964","SARL_v6","SARL_v6n8zwx5p9","614e2b2bd900d5f91096ac12","fixation","","","img/fixation.png","null","","","test","","","","","","","","","","","","","","","","","","","",""
"345","236311","SARL_v6","SARL_v6n8zwx5p9","614e2b2bd900d5f91096ac12","freq","","","img/blue_2bandit_a2.png","70","","70","test","1","","107","","","","square","circle","103","14","5","0.9902912621359223","","","","","","","",""
"null","236768","SARL_v6","SARL_v6n8zwx5p9","614e2b2bd900d5f91096ac12","freq_resp","","","img/blue_2bandit_a.png","70","img/blue_2bandit_a.png","70","test","","","","","","","","","","","5","","","","","","","","",""
"null","236929","SARL_v6","SARL_v6n8zwx5p9","614e2b2bd900d5f91096ac12","fixation","","","img/fixation.png","null","","","test","","","","","","","","","","","","","","","","","","","",""
"394","237325","SARL_v6","SARL_v6n8zwx5p9","614e2b2bd900d5f91096ac12","freq","","","img/blue_2bandit_a2.png","70","","70","test","1","","108","","","","square","circle","104","15","5","0.9903846153846154","","","","","","","",""
"null","237736","SARL_v6","SARL_v6n8zwx5p9","614e2b2bd900d5f91096ac12","freq_resp","","","img/blue_2bandit_a.png","70","img/blue_2bandit_a.png","70","test","","","","","","","","","","","5","","","","","","","","",""
"null","237897","SARL_v6","SARL_v6n8zwx5p9","614e2b2bd900d5f91096ac12","fixation","","","img/fixation.png","null","","","test","","","","","","","","","","","","","","","","","","","",""
"364","238263","SARL_v6","SARL_v6n8zwx5p9","614e2b2bd900d5f91096ac12","freq","","","img/blue_2bandit_a2.png","70","","70","test","1","","109","","","","square","circle","105","16","5","0.9904761904761905","","","","","","","",""
"null","238705","SARL_v6","SARL_v6n8zwx5p9","614e2b2bd900d5f91096ac12","freq_resp","","","img/blue_2bandit_a.png","70","img/blue_2bandit_a.png","70","test","","","","","","","","","","","5","","","","","","","","",""
"null","238864","SARL_v6","SARL_v6n8zwx5p9","614e2b2bd900d5f91096ac12","fixation","","","img/fixation.png","null","","","test","","","","","","","","","","","","","","","","","","","",""
"342","239208","SARL_v6","SARL_v6n8zwx5p9","614e2b2bd900d5f91096ac12","freq","","","img/blue_2bandit_a2.png","70","","70","test","1","","110","","","","square","circle","106","17","5","0.9905660377358491","","","","","","","",""
"null","239683","SARL_v6","SARL_v6n8zwx5p9","614e2b2bd900d5f91096ac12","freq_resp","","","img/blue_2bandit_a.png","70","img/blue_2bandit_a.png","70","test","","","","","","","","","","","5","","","","","","","","",""
"null","239844","SARL_v6","SARL_v6n8zwx5p9","614e2b2bd900d5f91096ac12","fixation","","","img/fixation.png","null","","","test","","","","","","","","","","","","","","","","","","","",""
"321","240167","SARL_v6","SARL_v6n8zwx5p9","614e2b2bd900d5f91096ac12","freq","","","img/blue_2bandit_a2.png","70","","70","test","1","","111","","","","square","circle","107","18","5","0.9906542056074766","","","","","","","",""
"null","240656","SARL_v6","SARL_v6n8zwx5p9","614e2b2bd900d5f91096ac12","freq_resp","","","img/blue_2bandit_a.png","70","img/blue_2bandit_a.png","70","test","","","","","","","","","","","5","","","","","","","","",""
"null","240817","SARL_v6","SARL_v6n8zwx5p9","614e2b2bd900d5f91096ac12","fixation","","","img/fixation.png","null","","","test","","","","","","","","","","","","","","","","","","","",""
"351","241170","SARL_v6","SARL_v6n8zwx5p9","614e2b2bd900d5f91096ac12","freq","","","img/blue_2bandit_a2.png","70","","70","test","1","","112","","","","square","circle","108","19","5","0.9907407407407407","","","","","","","",""
"null","241628","SARL_v6","SARL_v6n8zwx5p9","614e2b2bd900d5f91096ac12","freq_resp","","","img/blue_2bandit_a.png","70","img/blue_2bandit_a.png","70","test","","","","","","","","","","","5","","","","","","","","",""
"null","241789","SARL_v6","SARL_v6n8zwx5p9","614e2b2bd900d5f91096ac12","fixation","","","img/fixation.png","null","","","test","","","","","","","","","","","","","","","","","","","",""
"362","242154","SARL_v6","SARL_v6n8zwx5p9","614e2b2bd900d5f91096ac12","freq","","","img/blue_2bandit_a2.png","70","","70","test","1","","113","","","","square","circle","109","20","5","0.9908256880733946","","","","","","","",""
"null","242596","SARL_v6","SARL_v6n8zwx5p9","614e2b2bd900d5f91096ac12","freq_resp","","","img/blue_2bandit_a.png","70","img/blue_2bandit_a.png","70","test","","","","","","","","","","","5","","","","","","","","",""
"null","242751","SARL_v6","SARL_v6n8zwx5p9","614e2b2bd900d5f91096ac12","fixation","","","img/fixation.png","null","","","test","","","","","","","","","","","","","","","","","","","",""
"345","243098","SARL_v6","SARL_v6n8zwx5p9","614e2b2bd900d5f91096ac12","freq","","","img/blue_2bandit_a2.png","70","","70","test","1","","114","","","","square","circle","110","21","5","0.990909090909091","","","","","","","",""
"null","243556","SARL_v6","SARL_v6n8zwx5p9","614e2b2bd900d5f91096ac12","freq_resp","","","img/blue_2bandit_a.png","70","img/blue_2bandit_a.png","70","test","","","","","","","","","","","5","","","","","","","","",""
"null","243717","SARL_v6","SARL_v6n8zwx5p9","614e2b2bd900d5f91096ac12","fixation","","","img/fixation.png","null","","","test","","","","","","","","","","","","","","","","","","","",""
"308","244027","SARL_v6","SARL_v6n8zwx5p9","614e2b2bd900d5f91096ac12","freq","","","img/blue_2bandit_a2.png","70","","70","test","1","","115","","","","square","circle","111","22","5","0.990990990990991","","","","","","","",""
"null","244523","SARL_v6","SARL_v6n8zwx5p9","614e2b2bd900d5f91096ac12","freq_resp","","","img/blue_2bandit_a.png","70","img/blue_2bandit_a.png","70","test","","","","","","","","","","","5","","","","","","","","",""
"null","244683","SARL_v6","SARL_v6n8zwx5p9","614e2b2bd900d5f91096ac12","fixation","","","img/fixation.png","null","","","test","","","","","","","","","","","","","","","","","","","",""
"344","245029","SARL_v6","SARL_v6n8zwx5p9","614e2b2bd900d5f91096ac12","freq","","","img/blue_2bandit_a2.png","70","","70","test","1","","116","","","","square","circle","112","23","5","0.9910714285714286","","","","","","","",""
"null","245502","SARL_v6","SARL_v6n8zwx5p9","614e2b2bd900d5f91096ac12","freq_resp","","","img/blue_2bandit_a.png","70","img/blue_2bandit_a.png","70","test","","","","","","","","","","","5","","","","","","","","",""
"null","245663","SARL_v6","SARL_v6n8zwx5p9","614e2b2bd900d5f91096ac12","fixation","","","img/fixation.png","null","","","test","","","","","","","","","","","","","","","","","","","",""
"529","246195","SARL_v6","SARL_v6n8zwx5p9","614e2b2bd900d5f91096ac12","infreq","","","img/orange_2bandit_a2.png","68","","68","test","1","","117","","","","square","circle","113","24","5","0.9911504424778761","","","","","","","",""
"null","246482","SARL_v6","SARL_v6n8zwx5p9","614e2b2bd900d5f91096ac12","infreq_resp","","","img/orange_2bandit_a.png","68","img/orange_2bandit_a.png","68","test","","","","","","","","","","","5","","","","","","","","",""
"null","246644","SARL_v6","SARL_v6n8zwx5p9","614e2b2bd900d5f91096ac12","fixation","","","img/fixation.png","null","","","test","","","","","","","","","","","","","","","","","","","",""
"409","247056","SARL_v6","SARL_v6n8zwx5p9","614e2b2bd900d5f91096ac12","freq","","","img/blue_2bandit_a2.png","70","","70","test","1","","118","","","","square","circle","114","25","5","0.9912280701754386","","","","","","","",""
"null","247452","SARL_v6","SARL_v6n8zwx5p9","614e2b2bd900d5f91096ac12","freq_resp","","","img/blue_2bandit_a.png","70","img/blue_2bandit_a.png","70","test","","","","","","","","","","","5","","","","","","","","",""
"null","247613","SARL_v6","SARL_v6n8zwx5p9","614e2b2bd900d5f91096ac12","fixation","","","img/fixation.png","null","","","test","","","","","","","","","","","","","","","","","","","",""
"639","248255","SARL_v6","SARL_v6n8zwx5p9","614e2b2bd900d5f91096ac12","rl","","","img/black_2bandit_a2.png","74","","0","test","","","119","","","-7","square","circle","","0","5","","74","4","-7","-7","4","square","5","0"
"null","249010","SARL_v6","SARL_v6n8zwx5p9","614e2b2bd900d5f91096ac12","feedback","","","<div class=""verylowPoints_sq""> -7 </div>","null","","na","test","","","NaN","","","","","","","","5","","74","","","","","","5",""
"532","249544","SARL_v6","SARL_v6n8zwx5p9","614e2b2bd900d5f91096ac12","freq","","","img/blue_2bandit_a2.png","70","","70","test","1","","120","","","","square","circle","115","1","6","0.991304347826087","","","","","","","",""
"null","249825","SARL_v6","SARL_v6n8zwx5p9","614e2b2bd900d5f91096ac12","freq_resp","","","img/blue_2bandit_a.png","70","img/blue_2bandit_a.png","70","test","","","","","","","","","","","6","","","","","","","","",""
"null","249987","SARL_v6","SARL_v6n8zwx5p9","614e2b2bd900d5f91096ac12","fixation","","","img/fixation.png","null","","","test","","","","","","","","","","","","","","","","","","","",""
"378","250367","SARL_v6","SARL_v6n8zwx5p9","614e2b2bd900d5f91096ac12","freq","","","img/blue_2bandit_a2.png","70","","70","test","1","","121","","","","square","circle","116","2","6","0.9913793103448276","","","","","","","",""
"null","250794","SARL_v6","SARL_v6n8zwx5p9","614e2b2bd900d5f91096ac12","freq_resp","","","img/blue_2bandit_a.png","70","img/blue_2bandit_a.png","70","test","","","","","","","","","","","6","","","","","","","","",""
"null","250955","SARL_v6","SARL_v6n8zwx5p9","614e2b2bd900d5f91096ac12","fixation","","","img/fixation.png","null","","","test","","","","","","","","","","","","","","","","","","","",""
"352","251309","SARL_v6","SARL_v6n8zwx5p9","614e2b2bd900d5f91096ac12","freq","","","img/blue_2bandit_a2.png","70","","70","test","1","","122","","","","square","circle","117","3","6","0.9914529914529915","","","","","","","",""
"null","251767","SARL_v6","SARL_v6n8zwx5p9","614e2b2bd900d5f91096ac12","freq_resp","","","img/blue_2bandit_a.png","70","img/blue_2bandit_a.png","70","test","","","","","","","","","","","6","","","","","","","","",""
"null","251929","SARL_v6","SARL_v6n8zwx5p9","614e2b2bd900d5f91096ac12","fixation","","","img/fixation.png","null","","","test","","","","","","","","","","","","","","","","","","","",""
"334","252266","SARL_v6","SARL_v6n8zwx5p9","614e2b2bd900d5f91096ac12","freq","","","img/blue_2bandit_a2.png","70","","70","test","1","","123","","","","square","circle","118","4","6","0.9915254237288136","","","","","","","",""
"null","252741","SARL_v6","SARL_v6n8zwx5p9","614e2b2bd900d5f91096ac12","freq_resp","","","img/blue_2bandit_a.png","70","img/blue_2bandit_a.png","70","test","","","","","","","","","","","6","","","","","","","","",""
"null","252902","SARL_v6","SARL_v6n8zwx5p9","614e2b2bd900d5f91096ac12","fixation","","","img/fixation.png","null","","","test","","","","","","","","","","","","","","","","","","","",""
"353","253258","SARL_v6","SARL_v6n8zwx5p9","614e2b2bd900d5f91096ac12","freq","","","img/blue_2bandit_a2.png","70","","70","test","1","","124","","","","square","circle","119","5","6","0.9915966386554622","","","","","","","",""
"null","253716","SARL_v6","SARL_v6n8zwx5p9","614e2b2bd900d5f91096ac12","freq_resp","","","img/blue_2bandit_a.png","70","img/blue_2bandit_a.png","70","test","","","","","","","","","","","6","","","","","","","","",""
"null","253877","SARL_v6","SARL_v6n8zwx5p9","614e2b2bd900d5f91096ac12","fixation","","","img/fixation.png","null","","","test","","","","","","","","","","","","","","","","","","","",""
"384","254263","SARL_v6","SARL_v6n8zwx5p9","614e2b2bd900d5f91096ac12","freq","","","img/blue_2bandit_a2.png","70","","70","test","1","","125","","","","square","circle","120","6","6","0.9916666666666667","","","","","","","",""
"null","254691","SARL_v6","SARL_v6n8zwx5p9","614e2b2bd900d5f91096ac12","freq_resp","","","img/blue_2bandit_a.png","70","img/blue_2bandit_a.png","70","test","","","","","","","","","","","6","","","","","","","","",""
"null","254851","SARL_v6","SARL_v6n8zwx5p9","614e2b2bd900d5f91096ac12","fixation","","","img/fixation.png","null","","","test","","","","","","","","","","","","","","","","","","","",""
"295","255147","SARL_v6","SARL_v6n8zwx5p9","614e2b2bd900d5f91096ac12","freq","","","img/blue_2bandit_a2.png","70","","70","test","1","","126","","","","square","circle","121","7","6","0.9917355371900827","","","","","","","",""
"null","255660","SARL_v6","SARL_v6n8zwx5p9","614e2b2bd900d5f91096ac12","freq_resp","","","img/blue_2bandit_a.png","70","img/blue_2bandit_a.png","70","test","","","","","","","","","","","6","","","","","","","","",""
"null","255821","SARL_v6","SARL_v6n8zwx5p9","614e2b2bd900d5f91096ac12","fixation","","","img/fixation.png","null","","","test","","","","","","","","","","","","","","","","","","","",""
"362","256184","SARL_v6","SARL_v6n8zwx5p9","614e2b2bd900d5f91096ac12","freq","","","img/blue_2bandit_a2.png","70","","70","test","1","","127","","","","square","circle","122","8","6","0.9918032786885246","","","","","","","",""
"null","256628","SARL_v6","SARL_v6n8zwx5p9","614e2b2bd900d5f91096ac12","freq_resp","","","img/blue_2bandit_a.png","70","img/blue_2bandit_a.png","70","test","","","","","","","","","","","6","","","","","","","","",""
"null","256789","SARL_v6","SARL_v6n8zwx5p9","614e2b2bd900d5f91096ac12","fixation","","","img/fixation.png","null","","","test","","","","","","","","","","","","","","","","","","","",""
"442","257232","SARL_v6","SARL_v6n8zwx5p9","614e2b2bd900d5f91096ac12","infreq","","","img/orange_2bandit_a2.png","68","","68","test","1","","128","","","","square","circle","123","9","6","0.991869918699187","","","","","","","",""
"null","257595","SARL_v6","SARL_v6n8zwx5p9","614e2b2bd900d5f91096ac12","infreq_resp","","","img/orange_2bandit_a.png","68","img/orange_2bandit_a.png","68","test","","","","","","","","","","","6","","","","","","","","",""
"null","257756","SARL_v6","SARL_v6n8zwx5p9","614e2b2bd900d5f91096ac12","fixation","","","img/fixation.png","null","","","test","","","","","","","","","","","","","","","","","","","",""
"381","258139","SARL_v6","SARL_v6n8zwx5p9","614e2b2bd900d5f91096ac12","freq","","","img/blue_2bandit_a2.png","70","","70","test","1","","129","","","","square","circle","124","10","6","0.9919354838709677","","","","","","","",""
"null","258565","SARL_v6","SARL_v6n8zwx5p9","614e2b2bd900d5f91096ac12","freq_resp","","","img/blue_2bandit_a.png","70","img/blue_2bandit_a.png","70","test","","","","","","","","","","","6","","","","","","","","",""
"null","258726","SARL_v6","SARL_v6n8zwx5p9","614e2b2bd900d5f91096ac12","fixation","","","img/fixation.png","null","","","test","","","","","","","","","","","","","","","","","","","",""
"358","259085","SARL_v6","SARL_v6n8zwx5p9","614e2b2bd900d5f91096ac12","freq","","","img/blue_2bandit_a2.png","70","","70","test","1","","130","","","","square","circle","125","11","6","0.992","","","","","","","",""
"null","259543","SARL_v6","SARL_v6n8zwx5p9","614e2b2bd900d5f91096ac12","freq_resp","","","img/blue_2bandit_a.png","70","img/blue_2bandit_a.png","70","test","","","","","","","","","","","6","","","","","","","","",""
"null","259704","SARL_v6","SARL_v6n8zwx5p9","614e2b2bd900d5f91096ac12","fixation","","","img/fixation.png","null","","","test","","","","","","","","","","","","","","","","","","","",""
"367","260073","SARL_v6","SARL_v6n8zwx5p9","614e2b2bd900d5f91096ac12","freq","","","img/blue_2bandit_a2.png","70","","70","test","1","","131","","","","square","circle","126","12","6","0.9920634920634921","","","","","","","",""
"null","260517","SARL_v6","SARL_v6n8zwx5p9","614e2b2bd900d5f91096ac12","freq_resp","","","img/blue_2bandit_a.png","70","img/blue_2bandit_a.png","70","test","","","","","","","","","","","6","","","","","","","","",""
"null","260678","SARL_v6","SARL_v6n8zwx5p9","614e2b2bd900d5f91096ac12","fixation","","","img/fixation.png","null","","","test","","","","","","","","","","","","","","","","","","","",""
"333","261013","SARL_v6","SARL_v6n8zwx5p9","614e2b2bd900d5f91096ac12","infreq","","","img/orange_2bandit_a2.png","68","","68","test","1","","132","","","","square","circle","127","13","6","0.9921259842519685","","","","","","","",""
"null","261487","SARL_v6","SARL_v6n8zwx5p9","614e2b2bd900d5f91096ac12","infreq_resp","","","img/orange_2bandit_a.png","68","img/orange_2bandit_a.png","68","test","","","","","","","","","","","6","","","","","","","","",""
"null","261647","SARL_v6","SARL_v6n8zwx5p9","614e2b2bd900d5f91096ac12","fixation","","","img/fixation.png","null","","","test","","","","","","","","","","","","","","","","","","","",""
"351","262000","SARL_v6","SARL_v6n8zwx5p9","614e2b2bd900d5f91096ac12","freq","","","img/blue_2bandit_a2.png","70","","70","test","1","","133","","","","square","circle","128","14","6","0.9921875","","","","","","","",""
"null","262456","SARL_v6","SARL_v6n8zwx5p9","614e2b2bd900d5f91096ac12","freq_resp","","","img/blue_2bandit_a.png","70","img/blue_2bandit_a.png","70","test","","","","","","","","","","","6","","","","","","","","",""
"null","262609","SARL_v6","SARL_v6n8zwx5p9","614e2b2bd900d5f91096ac12","fixation","","","img/fixation.png","null","","","test","","","","","","","","","","","","","","","","","","","",""
"319","262930","SARL_v6","SARL_v6n8zwx5p9","614e2b2bd900d5f91096ac12","freq","","","img/blue_2bandit_a2.png","70","","70","test","1","","134","","","","square","circle","129","15","6","0.9922480620155039","","","","","","","",""
"null","263418","SARL_v6","SARL_v6n8zwx5p9","614e2b2bd900d5f91096ac12","freq_resp","","","img/blue_2bandit_a.png","70","img/blue_2bandit_a.png","70","test","","","","","","","","","","","6","","","","","","","","",""
"null","263579","SARL_v6","SARL_v6n8zwx5p9","614e2b2bd900d5f91096ac12","fixation","","","img/fixation.png","null","","","test","","","","","","","","","","","","","","","","","","","",""
"445","264025","SARL_v6","SARL_v6n8zwx5p9","614e2b2bd900d5f91096ac12","freq","","","img/blue_2bandit_a2.png","70","","70","test","1","","135","","","","square","circle","130","16","6","0.9923076923076923","","","","","","","",""
