"rt","time_elapsed","expId","subject","prolificID","trialType","rlType","attType","stimulus","key_press","stim","corrresp","phase","corr","pracCounter","trialNum","rewardOne","rewardTwo","reward","bandOne","bandTwo","attentionNum","attentionRunNum","blockNum","performance","bandChosen","circleVal","squareVal","bandOneVal","bandTwoVal","shapeChosen","rlNum","badFlag"
"1397","1411","SARL_v6","SARL_v64dpcwxlq","6294bdac3f1ed08e968e53bf","","","","","","","","","","","","","","","","","","","","","","","","","","","",""
"","4920","SARL_v6","SARL_v64dpcwxlq","6294bdac3f1ed08e968e53bf","fullscreen","fullscreen","fullscreen","","","","","","","","","","","","","","","","","","","","","","","","",""
"12423","17349","SARL_v6","SARL_v64dpcwxlq","6294bdac3f1ed08e968e53bf","","","","","","","","","","","","","","","","","","","","","","","","","","","",""
"null","18156","SARL_v6","SARL_v64dpcwxlq","6294bdac3f1ed08e968e53bf","freqPrac","","","img/blue_2bandit_b2.png","null","img/blue_2bandit_b2.png","70","prac","0","1","","","","","","","","","","","","","","","","","",""
"null","19168","SARL_v6","SARL_v64dpcwxlq","6294bdac3f1ed08e968e53bf","feedback","","","img/tooSlow.png","null","","na","prac","","","","","","","","","","","","","","","","","","","",""
"null","19324","SARL_v6","SARL_v64dpcwxlq","6294bdac3f1ed08e968e53bf","fixation","","","img/fixation.png","null","","","prac","","","","","","","","","","","","","","","","","","","",""
"null","20133","SARL_v6","SARL_v64dpcwxlq","6294bdac3f1ed08e968e53bf","infreqPrac","","","img/orange_2bandit_b2.png","null","img/orange_2bandit_b2.png","68","prac","0","2","","","","","","","","","","","","","","","","","",""
"null","21143","SARL_v6","SARL_v64dpcwxlq","6294bdac3f1ed08e968e53bf","feedback","","","img/tooSlow.png","null","","na","prac","","","","","","","","","","","","","","","","","","","",""
"null","21297","SARL_v6","SARL_v64dpcwxlq","6294bdac3f1ed08e968e53bf","fixation","","","img/fixation.png","null","","","prac","","","","","","","","","","","","","","","","","","","",""
"215","21517","SARL_v6","SARL_v64dpcwxlq","6294bdac3f1ed08e968e53bf","freqPrac","","","img/blue_2bandit_b2.png","68","img/blue_2bandit_b2.png","70","prac","0","3","","","","","","","","","","","","","","","","","",""
"215","22107","SARL_v6","SARL_v64dpcwxlq","6294bdac3f1ed08e968e53bf","freqPrac_resp","","","img/blue_2bandit_b.png","68","img/blue_2bandit_b.png","70","prac","","","","","","","","","","","","","","","","","","","",""
"null","23119","SARL_v6","SARL_v64dpcwxlq","6294bdac3f1ed08e968e53bf","feedback","","","img/wrongKey.png","null","","na","prac","","","","","","","","","","","","","","","","","","","",""
"null","23274","SARL_v6","SARL_v64dpcwxlq","6294bdac3f1ed08e968e53bf","fixation","","","img/fixation.png","null","","","prac","","","","","","","","","","","","","","","","","","","",""
"662","23941","SARL_v6","SARL_v64dpcwxlq","6294bdac3f1ed08e968e53bf","infreqPrac","","","img/orange_2bandit_b2.png","68","img/orange_2bandit_b2.png","68","prac","1","3","","","","","","","","","","","","","","","","","",""
"662","24085","SARL_v6","SARL_v64dpcwxlq","6294bdac3f1ed08e968e53bf","infreqPrac_resp","","","img/orange_2bandit_b.png","68","img/orange_2bandit_b.png","68","prac","","","","","","","","","","","","","","","","","","","",""
"null","24254","SARL_v6","SARL_v64dpcwxlq","6294bdac3f1ed08e968e53bf","fixation","","","img/fixation.png","null","","","prac","","","","","","","","","","","","","","","","","","","",""
"566","24824","SARL_v6","SARL_v64dpcwxlq","6294bdac3f1ed08e968e53bf","infreqPrac","","","img/orange_2bandit_b2.png","68","img/orange_2bandit_b2.png","68","prac","1","3","","","","","","","","","","","","","","","","","",""
"566","25064","SARL_v6","SARL_v64dpcwxlq","6294bdac3f1ed08e968e53bf","infreqPrac_resp","","","img/orange_2bandit_b.png","68","img/orange_2bandit_b.png","68","prac","","","","","","","","","","","","","","","","","","","",""
"null","25222","SARL_v6","SARL_v64dpcwxlq","6294bdac3f1ed08e968e53bf","fixation","","","img/fixation.png","null","","","prac","","","","","","","","","","","","","","","","","","","",""
"359","25583","SARL_v6","SARL_v64dpcwxlq","6294bdac3f1ed08e968e53bf","infreqPrac","","","img/orange_2bandit_b2.png","68","img/orange_2bandit_b2.png","68","prac","1","3","","","","","","","","","","","","","","","","","",""
"359","26032","SARL_v6","SARL_v64dpcwxlq","6294bdac3f1ed08e968e53bf","infreqPrac_resp","","","img/orange_2bandit_b.png","68","img/orange_2bandit_b.png","68","prac","","","","","","","","","","","","","","","","","","","",""
"null","26189","SARL_v6","SARL_v64dpcwxlq","6294bdac3f1ed08e968e53bf","fixation","","","img/fixation.png","null","","","prac","","","","","","","","","","","","","","","","","","","",""
"245","26439","SARL_v6","SARL_v64dpcwxlq","6294bdac3f1ed08e968e53bf","freqPrac","","","img/blue_2bandit_b2.png","68","img/blue_2bandit_b2.png","70","prac","0","4","","","","","","","","","","","","","","","","","",""
"245","26999","SARL_v6","SARL_v64dpcwxlq","6294bdac3f1ed08e968e53bf","freqPrac_resp","","","img/blue_2bandit_b.png","68","img/blue_2bandit_b.png","70","prac","","","","","","","","","","","","","","","","","","","",""
"null","28007","SARL_v6","SARL_v64dpcwxlq","6294bdac3f1ed08e968e53bf","feedback","","","img/wrongKey.png","null","","na","prac","","","","","","","","","","","","","","","","","","","",""
"null","28162","SARL_v6","SARL_v64dpcwxlq","6294bdac3f1ed08e968e53bf","fixation","","","img/fixation.png","null","","","prac","","","","","","","","","","","","","","","","","","","",""
"478","28643","SARL_v6","SARL_v64dpcwxlq","6294bdac3f1ed08e968e53bf","infreqPrac","","","img/orange_2bandit_b2.png","68","img/orange_2bandit_b2.png","68","prac","1","4","","","","","","","","","","","","","","","","","",""
"478","28973","SARL_v6","SARL_v64dpcwxlq","6294bdac3f1ed08e968e53bf","infreqPrac_resp","","","img/orange_2bandit_b.png","68","img/orange_2bandit_b.png","68","prac","","","","","","","","","","","","","","","","","","","",""
"null","29130","SARL_v6","SARL_v64dpcwxlq","6294bdac3f1ed08e968e53bf","fixation","","","img/fixation.png","null","","","prac","","","","","","","","","","","","","","","","","","","",""
"553","29686","SARL_v6","SARL_v64dpcwxlq","6294bdac3f1ed08e968e53bf","freqPrac","","","img/blue_2bandit_b2.png","70","img/blue_2bandit_b2.png","70","prac","1","4","","","","","","","","","","","","","","","","","",""
"553","29954","SARL_v6","SARL_v64dpcwxlq","6294bdac3f1ed08e968e53bf","freqPrac_resp","","","img/blue_2bandit_b.png","70","img/blue_2bandit_b.png","70","prac","","","","","","","","","","","","","","","","","","","",""
"null","30122","SARL_v6","SARL_v64dpcwxlq","6294bdac3f1ed08e968e53bf","fixation","","","img/fixation.png","null","","","prac","","","","","","","","","","","","","","","","","","","",""
"408","30534","SARL_v6","SARL_v64dpcwxlq","6294bdac3f1ed08e968e53bf","freqPrac","","","img/blue_2bandit_b2.png","70","img/blue_2bandit_b2.png","70","prac","1","4","","","","","","","","","","","","","","","","","",""
"408","30944","SARL_v6","SARL_v64dpcwxlq","6294bdac3f1ed08e968e53bf","freqPrac_resp","","","img/blue_2bandit_b.png","70","img/blue_2bandit_b.png","70","prac","","","","","","","","","","","","","","","","","","","",""
"null","31099","SARL_v6","SARL_v64dpcwxlq","6294bdac3f1ed08e968e53bf","fixation","","","img/fixation.png","null","","","prac","","","","","","","","","","","","","","","","","","","",""
"13882","44985","SARL_v6","SARL_v64dpcwxlq","6294bdac3f1ed08e968e53bf","","","","","","","","prac","","","","","","","","","","","","","","","","","","","",""
"657","45646","SARL_v6","SARL_v64dpcwxlq","6294bdac3f1ed08e968e53bf","rlPractice","","","img/black_2bandit_b2.png","75","img/black_2bandit_b2.png","","prac","","","0","","","","","","","","","","","","","","","","",""
"null","46415","SARL_v6","SARL_v64dpcwxlq","6294bdac3f1ed08e968e53bf","feedback","","","<div class=""verylowPoints_sq""> -14 </div>","null","","na","prac","","","1","10","-14","10","","","","","","","","","","","","","",""
"null","46572","SARL_v6","SARL_v64dpcwxlq","6294bdac3f1ed08e968e53bf","fixation","","","img/fixation.png","null","","","prac","","","","","","","","","","","","","","","","","","","",""
"315","46891","SARL_v6","SARL_v64dpcwxlq","6294bdac3f1ed08e968e53bf","rlPractice","","","img/black_2bandit_b2.png","74","img/black_2bandit_b2.png","","prac","","","1","","","","","","","","","","","","","","","","",""
"null","47659","SARL_v6","SARL_v64dpcwxlq","6294bdac3f1ed08e968e53bf","feedback","","","<div class=""veryhighPoints""> 5 </div>","null","","na","prac","","","2","5","-5","5","","","","","","","","","","","","","",""
"null","47815","SARL_v6","SARL_v64dpcwxlq","6294bdac3f1ed08e968e53bf","fixation","","","img/fixation.png","null","","","prac","","","","","","","","","","","","","","","","","","","",""
"151","47970","SARL_v6","SARL_v64dpcwxlq","6294bdac3f1ed08e968e53bf","rlPractice","","","img/black_2bandit_b2.png","74","img/black_2bandit_b2.png","","prac","","","2","","","","","","","","","","","","","","","","",""
"null","48736","SARL_v6","SARL_v64dpcwxlq","6294bdac3f1ed08e968e53bf","feedback","","","<div class=""veryhighPoints""> 30 </div>","null","","na","prac","","","3","30","2","30","","","","","","","","","","","","","",""
"null","48904","SARL_v6","SARL_v64dpcwxlq","6294bdac3f1ed08e968e53bf","fixation","","","img/fixation.png","null","","","prac","","","","","","","","","","","","","","","","","","","",""
"298","49204","SARL_v6","SARL_v64dpcwxlq","6294bdac3f1ed08e968e53bf","rlPractice","","","img/black_2bandit_b2.png","74","img/black_2bandit_b2.png","","prac","","","3","","","","","","","","","","","","","","","","",""
"null","49963","SARL_v6","SARL_v64dpcwxlq","6294bdac3f1ed08e968e53bf","feedback","","","<div class=""verylowPoints""> -2 </div>","null","","na","prac","","","4","-2","20","-2","","","","","","","","","","","","","",""
"null","50122","SARL_v6","SARL_v64dpcwxlq","6294bdac3f1ed08e968e53bf","fixation","","","img/fixation.png","null","","","prac","","","","","","","","","","","","","","","","","","","",""
"1715","51839","SARL_v6","SARL_v64dpcwxlq","6294bdac3f1ed08e968e53bf","","","","","","","","prac","","","","","","","","","","","","","","","","","","","",""
"null","52658","SARL_v6","SARL_v64dpcwxlq","6294bdac3f1ed08e968e53bf","mixAttFreqPrac","","","img/blue_2bandit_b2.png","null","img/blue_2bandit_b2.png","70","prac","","","1","","","","","","","","","","","","","","","","",""
"null","52816","SARL_v6","SARL_v64dpcwxlq","6294bdac3f1ed08e968e53bf","fixation","","","img/fixation.png","null","","","prac","","","","","","","","","","","","","","","","","","","",""
"null","53626","SARL_v6","SARL_v64dpcwxlq","6294bdac3f1ed08e968e53bf","mixAttInfreqPrac","","","img/orange_2bandit_b2.png","null","img/orange_2bandit_b2.png","68","prac","","","2","","","","","","","","","","","","","","","","",""
"null","53782","SARL_v6","SARL_v64dpcwxlq","6294bdac3f1ed08e968e53bf","fixation","","","img/fixation.png","null","","","prac","","","","","","","","","","","","","","","","","","","",""
"788","54574","SARL_v6","SARL_v64dpcwxlq","6294bdac3f1ed08e968e53bf","mixAttInfreqPrac","","","img/orange_2bandit_b2.png","70","img/orange_2bandit_b2.png","68","prac","","","3","","","","","","","","","","","","","","","","",""
"788","54590","SARL_v6","SARL_v64dpcwxlq","6294bdac3f1ed08e968e53bf","infreqPrac_resp","","","img/orange_2bandit_b.png","70","img/blue_2bandit_b.png","68","prac","","","3","","","","","","","","","","","","","","","","",""
"null","54747","SARL_v6","SARL_v64dpcwxlq","6294bdac3f1ed08e968e53bf","fixation","","","img/fixation.png","null","","","prac","","","","","","","","","","","","","","","","","","","",""
"431","55182","SARL_v6","SARL_v64dpcwxlq","6294bdac3f1ed08e968e53bf","mixAttInfreqPrac","","","img/orange_2bandit_b2.png","68","img/orange_2bandit_b2.png","68","prac","","","4","","","","","","","","","","","","","","","","",""
"431","55556","SARL_v6","SARL_v64dpcwxlq","6294bdac3f1ed08e968e53bf","infreqPrac_resp","","","img/orange_2bandit_b.png","68","img/blue_2bandit_b.png","68","prac","","","4","","","","","","","","","","","","","","","","",""
"46","55711","SARL_v6","SARL_v64dpcwxlq","6294bdac3f1ed08e968e53bf","fixation","","","img/fixation.png","70","","","prac","","","","","","","","","","","","","","","","","","","",""
"703","56419","SARL_v6","SARL_v64dpcwxlq","6294bdac3f1ed08e968e53bf","mixAttFreqPrac","","","img/blue_2bandit_b2.png","70","img/blue_2bandit_b2.png","70","prac","","","5","","","","","","","","","","","","","","","","",""
"703","56536","SARL_v6","SARL_v64dpcwxlq","6294bdac3f1ed08e968e53bf","freqPrac_resp","","","img/blue_2bandit_b.png","70","img/blue_2bandit_b.png","70","prac","","","5","","","","","","","","","","","","","","","","",""
"null","56692","SARL_v6","SARL_v64dpcwxlq","6294bdac3f1ed08e968e53bf","fixation","","","img/fixation.png","null","","","prac","","","","","","","","","","","","","","","","","","","",""
"null","58203","SARL_v6","SARL_v64dpcwxlq","6294bdac3f1ed08e968e53bf","mixRLPractice","","","img/black_2bandit_b2.png","null","img/black_2bandit_b2.png","","prac","","","5","","","","","","","","","","","","","","","","",""
"null","58962","SARL_v6","SARL_v64dpcwxlq","6294bdac3f1ed08e968e53bf","feedback","","","<div font size = 80> TOO SLOW  </div>","null","","na","prac","","","6","-14","10","-14","","","","","","","","","","","","","",""
"null","59120","SARL_v6","SARL_v64dpcwxlq","6294bdac3f1ed08e968e53bf","fixation","","","img/fixation.png","null","","","prac","","","","","","","","","","","","","","","","","","","",""
"null","59925","SARL_v6","SARL_v64dpcwxlq","6294bdac3f1ed08e968e53bf","mixAttFreqPrac","","","img/blue_2bandit_b2.png","null","img/blue_2bandit_b2.png","70","prac","","","7","","","","","","","","","","","","","","","","",""
"null","60080","SARL_v6","SARL_v64dpcwxlq","6294bdac3f1ed08e968e53bf","fixation","","","img/fixation.png","null","","","prac","","","","","","","","","","","","","","","","","","","",""
"40","60121","SARL_v6","SARL_v64dpcwxlq","6294bdac3f1ed08e968e53bf","mixAttInfreqPrac","","","img/orange_2bandit_b2.png","70","img/orange_2bandit_b2.png","68","prac","","","8","","","","","","","","","","","","","","","","",""
"40","60889","SARL_v6","SARL_v64dpcwxlq","6294bdac3f1ed08e968e53bf","infreqPrac_resp","","","img/orange_2bandit_b.png","70","img/blue_2bandit_b.png","68","prac","","","8","","","","","","","","","","","","","","","","",""
"15","61045","SARL_v6","SARL_v64dpcwxlq","6294bdac3f1ed08e968e53bf","fixation","","","img/fixation.png","68","","","prac","","","","","","","","","","","","","","","","","","","",""
"562","61610","SARL_v6","SARL_v64dpcwxlq","6294bdac3f1ed08e968e53bf","mixAttFreqPrac","","","img/blue_2bandit_b2.png","70","img/blue_2bandit_b2.png","70","prac","","","9","","","","","","","","","","","","","","","","",""
"562","61853","SARL_v6","SARL_v64dpcwxlq","6294bdac3f1ed08e968e53bf","freqPrac_resp","","","img/blue_2bandit_b.png","70","img/blue_2bandit_b.png","70","prac","","","9","","","","","","","","","","","","","","","","",""
"null","62012","SARL_v6","SARL_v64dpcwxlq","6294bdac3f1ed08e968e53bf","fixation","","","img/fixation.png","null","","","prac","","","","","","","","","","","","","","","","","","","",""
"414","62430","SARL_v6","SARL_v64dpcwxlq","6294bdac3f1ed08e968e53bf","mixAttFreqPrac","","","img/blue_2bandit_b2.png","70","img/blue_2bandit_b2.png","70","prac","","","10","","","","","","","","","","","","","","","","",""
"414","62832","SARL_v6","SARL_v64dpcwxlq","6294bdac3f1ed08e968e53bf","freqPrac_resp","","","img/blue_2bandit_b.png","70","img/blue_2bandit_b.png","70","prac","","","10","","","","","","","","","","","","","","","","",""
"null","62985","SARL_v6","SARL_v64dpcwxlq","6294bdac3f1ed08e968e53bf","fixation","","","img/fixation.png","null","","","prac","","","","","","","","","","","","","","","","","","","",""
"324","63312","SARL_v6","SARL_v64dpcwxlq","6294bdac3f1ed08e968e53bf","mixAttInfreqPrac","","","img/orange_2bandit_b2.png","70","img/orange_2bandit_b2.png","68","prac","","","11","","","","","","","","","","","","","","","","",""
"324","63802","SARL_v6","SARL_v64dpcwxlq","6294bdac3f1ed08e968e53bf","infreqPrac_resp","","","img/orange_2bandit_b.png","70","img/blue_2bandit_b.png","68","prac","","","11","","","","","","","","","","","","","","","","",""
"null","63957","SARL_v6","SARL_v64dpcwxlq","6294bdac3f1ed08e968e53bf","fixation","","","img/fixation.png","null","","","prac","","","","","","","","","","","","","","","","","","","",""
"565","64527","SARL_v6","SARL_v64dpcwxlq","6294bdac3f1ed08e968e53bf","mixRLPractice","","","img/black_2bandit_b2.png","75","img/black_2bandit_b2.png","","prac","","","11","","","","","","","","","","","","","","","","",""
"null","65293","SARL_v6","SARL_v64dpcwxlq","6294bdac3f1ed08e968e53bf","feedback","","","<div class=""verylowPoints_sq""> -5 </div>","null","","na","prac","","","12","5","-5","5","","","","","","","","","","","","","",""
"null","65450","SARL_v6","SARL_v64dpcwxlq","6294bdac3f1ed08e968e53bf","fixation","","","img/fixation.png","null","","","prac","","","","","","","","","","","","","","","","","","","",""
"10751","76203","SARL_v6","SARL_v64dpcwxlq","6294bdac3f1ed08e968e53bf","","","","","","","","prac","","","","","","","","","","","","","","","","","","","",""
"null","77008","SARL_v6","SARL_v64dpcwxlq","6294bdac3f1ed08e968e53bf","freq","","","img/blue_2bandit_b2.png","null","","70","test","0","","1","","","","circle","square","1","1","1","0","","","","","","","",""
"null","77164","SARL_v6","SARL_v64dpcwxlq","6294bdac3f1ed08e968e53bf","fixation","","","img/fixation.png","null","","","test","","","","","","","","","","","","","","","","","","","",""
"567","77734","SARL_v6","SARL_v64dpcwxlq","6294bdac3f1ed08e968e53bf","freq","","","img/blue_2bandit_b2.png","70","","70","test","1","","2","","","","circle","square","2","2","1","0.5","","","","","","","",""
"null","77984","SARL_v6","SARL_v64dpcwxlq","6294bdac3f1ed08e968e53bf","freq_resp","","","img/blue_2bandit_b.png","70","img/blue_2bandit_b.png","70","test","","","","","","","","","","","1","","","","","","","","",""
"null","78138","SARL_v6","SARL_v64dpcwxlq","6294bdac3f1ed08e968e53bf","fixation","","","img/fixation.png","null","","","test","","","","","","","","","","","","","","","","","","","",""
"724","78867","SARL_v6","SARL_v64dpcwxlq","6294bdac3f1ed08e968e53bf","infreq","","","img/orange_2bandit_b2.png","68","","68","test","1","","3","","","","circle","square","3","3","1","0.6666666666666666","","","","","","","",""
"null","78948","SARL_v6","SARL_v64dpcwxlq","6294bdac3f1ed08e968e53bf","infreq_resp","","","img/orange_2bandit_b.png","68","img/orange_2bandit_b.png","68","test","","","","","","","","","","","1","","","","","","","","",""
"null","79103","SARL_v6","SARL_v64dpcwxlq","6294bdac3f1ed08e968e53bf","fixation","","","img/fixation.png","null","","","test","","","","","","","","","","","","","","","","","","","",""
"612","79719","SARL_v6","SARL_v64dpcwxlq","6294bdac3f1ed08e968e53bf","freq","","","img/blue_2bandit_b2.png","70","","70","test","1","","4","","","","circle","square","4","4","1","0.75","","","","","","","",""
"null","79910","SARL_v6","SARL_v64dpcwxlq","6294bdac3f1ed08e968e53bf","freq_resp","","","img/blue_2bandit_b.png","70","img/blue_2bandit_b.png","70","test","","","","","","","","","","","1","","","","","","","","",""
"null","80066","SARL_v6","SARL_v64dpcwxlq","6294bdac3f1ed08e968e53bf","fixation","","","img/fixation.png","null","","","test","","","","","","","","","","","","","","","","","","","",""
"435","80503","SARL_v6","SARL_v64dpcwxlq","6294bdac3f1ed08e968e53bf","freq","","","img/blue_2bandit_b2.png","70","","70","test","1","","5","","","","circle","square","5","5","1","0.8","","","","","","","",""
"null","80877","SARL_v6","SARL_v64dpcwxlq","6294bdac3f1ed08e968e53bf","freq_resp","","","img/blue_2bandit_b.png","70","img/blue_2bandit_b.png","70","test","","","","","","","","","","","1","","","","","","","","",""
"null","81031","SARL_v6","SARL_v64dpcwxlq","6294bdac3f1ed08e968e53bf","fixation","","","img/fixation.png","null","","","test","","","","","","","","","","","","","","","","","","","",""
"442","81474","SARL_v6","SARL_v64dpcwxlq","6294bdac3f1ed08e968e53bf","freq","","","img/blue_2bandit_b2.png","70","","70","test","1","","6","","","","circle","square","6","6","1","0.8333333333333334","","","","","","","",""
"null","81836","SARL_v6","SARL_v64dpcwxlq","6294bdac3f1ed08e968e53bf","freq_resp","","","img/blue_2bandit_b.png","70","img/blue_2bandit_b.png","70","test","","","","","","","","","","","1","","","","","","","","",""
"null","81991","SARL_v6","SARL_v64dpcwxlq","6294bdac3f1ed08e968e53bf","fixation","","","img/fixation.png","null","","","test","","","","","","","","","","","","","","","","","","","",""
"332","82325","SARL_v6","SARL_v64dpcwxlq","6294bdac3f1ed08e968e53bf","freq","","","img/blue_2bandit_b2.png","70","","70","test","1","","7","","","","circle","square","7","7","1","0.8571428571428571","","","","","","","",""
"null","82798","SARL_v6","SARL_v64dpcwxlq","6294bdac3f1ed08e968e53bf","freq_resp","","","img/blue_2bandit_b.png","70","img/blue_2bandit_b.png","70","test","","","","","","","","","","","1","","","","","","","","",""
"null","82954","SARL_v6","SARL_v64dpcwxlq","6294bdac3f1ed08e968e53bf","fixation","","","img/fixation.png","null","","","test","","","","","","","","","","","","","","","","","","","",""
"362","83318","SARL_v6","SARL_v64dpcwxlq","6294bdac3f1ed08e968e53bf","freq","","","img/blue_2bandit_b2.png","70","","70","test","1","","8","","","","circle","square","8","8","1","0.875","","","","","","","",""
"null","83763","SARL_v6","SARL_v64dpcwxlq","6294bdac3f1ed08e968e53bf","freq_resp","","","img/blue_2bandit_b.png","70","img/blue_2bandit_b.png","70","test","","","","","","","","","","","1","","","","","","","","",""
"null","83916","SARL_v6","SARL_v64dpcwxlq","6294bdac3f1ed08e968e53bf","fixation","","","img/fixation.png","null","","","test","","","","","","","","","","","","","","","","","","","",""
"334","84252","SARL_v6","SARL_v64dpcwxlq","6294bdac3f1ed08e968e53bf","freq","","","img/blue_2bandit_b2.png","70","","70","test","1","","9","","","","circle","square","9","9","1","0.8888888888888888","","","","","","","",""
"null","84723","SARL_v6","SARL_v64dpcwxlq","6294bdac3f1ed08e968e53bf","freq_resp","","","img/blue_2bandit_b.png","70","img/blue_2bandit_b.png","70","test","","","","","","","","","","","1","","","","","","","","",""
"null","84881","SARL_v6","SARL_v64dpcwxlq","6294bdac3f1ed08e968e53bf","fixation","","","img/fixation.png","null","","","test","","","","","","","","","","","","","","","","","","","",""
"274","85158","SARL_v6","SARL_v64dpcwxlq","6294bdac3f1ed08e968e53bf","freq","","","img/blue_2bandit_b2.png","70","","70","test","1","","10","","","","circle","square","10","10","1","0.9","","","","","","","",""
"null","85700","SARL_v6","SARL_v64dpcwxlq","6294bdac3f1ed08e968e53bf","freq_resp","","","img/blue_2bandit_b.png","70","img/blue_2bandit_b.png","70","test","","","","","","","","","","","1","","","","","","","","",""
"null","85856","SARL_v6","SARL_v64dpcwxlq","6294bdac3f1ed08e968e53bf","fixation","","","img/fixation.png","null","","","test","","","","","","","","","","","","","","","","","","","",""
"342","86200","SARL_v6","SARL_v64dpcwxlq","6294bdac3f1ed08e968e53bf","freq","","","img/blue_2bandit_b2.png","70","","70","test","1","","11","","","","circle","square","11","11","1","0.9090909090909091","","","","","","","",""
"null","86665","SARL_v6","SARL_v64dpcwxlq","6294bdac3f1ed08e968e53bf","freq_resp","","","img/blue_2bandit_b.png","70","img/blue_2bandit_b.png","70","test","","","","","","","","","","","1","","","","","","","","",""
"null","86824","SARL_v6","SARL_v64dpcwxlq","6294bdac3f1ed08e968e53bf","fixation","","","img/fixation.png","null","","","test","","","","","","","","","","","","","","","","","","","",""
"343","87170","SARL_v6","SARL_v64dpcwxlq","6294bdac3f1ed08e968e53bf","freq","","","img/blue_2bandit_b2.png","70","","70","test","1","","12","","","","circle","square","12","12","1","0.9166666666666666","","","","","","","",""
"null","87631","SARL_v6","SARL_v64dpcwxlq","6294bdac3f1ed08e968e53bf","freq_resp","","","img/blue_2bandit_b.png","70","img/blue_2bandit_b.png","70","test","","","","","","","","","","","1","","","","","","","","",""
"null","87786","SARL_v6","SARL_v64dpcwxlq","6294bdac3f1ed08e968e53bf","fixation","","","img/fixation.png","null","","","test","","","","","","","","","","","","","","","","","","","",""
"326","88113","SARL_v6","SARL_v64dpcwxlq","6294bdac3f1ed08e968e53bf","freq","","","img/blue_2bandit_b2.png","70","","70","test","1","","13","","","","circle","square","13","13","1","0.9230769230769231","","","","","","","",""
"null","88590","SARL_v6","SARL_v64dpcwxlq","6294bdac3f1ed08e968e53bf","freq_resp","","","img/blue_2bandit_b.png","70","img/blue_2bandit_b.png","70","test","","","","","","","","","","","1","","","","","","","","",""
"null","88746","SARL_v6","SARL_v64dpcwxlq","6294bdac3f1ed08e968e53bf","fixation","","","img/fixation.png","null","","","test","","","","","","","","","","","","","","","","","","","",""
"355","89104","SARL_v6","SARL_v64dpcwxlq","6294bdac3f1ed08e968e53bf","freq","","","img/blue_2bandit_b2.png","70","","70","test","1","","14","","","","circle","square","14","14","1","0.9285714285714286","","","","","","","",""
"null","89555","SARL_v6","SARL_v64dpcwxlq","6294bdac3f1ed08e968e53bf","freq_resp","","","img/blue_2bandit_b.png","70","img/blue_2bandit_b.png","70","test","","","","","","","","","","","1","","","","","","","","",""
"null","89712","SARL_v6","SARL_v64dpcwxlq","6294bdac3f1ed08e968e53bf","fixation","","","img/fixation.png","null","","","test","","","","","","","","","","","","","","","","","","","",""
"326","90041","SARL_v6","SARL_v64dpcwxlq","6294bdac3f1ed08e968e53bf","freq","","","img/blue_2bandit_b2.png","70","","70","test","1","","15","","","","circle","square","15","15","1","0.9333333333333333","","","","","","","",""
"null","90533","SARL_v6","SARL_v64dpcwxlq","6294bdac3f1ed08e968e53bf","freq_resp","","","img/blue_2bandit_b.png","70","img/blue_2bandit_b.png","70","test","","","","","","","","","","","1","","","","","","","","",""
"null","90686","SARL_v6","SARL_v64dpcwxlq","6294bdac3f1ed08e968e53bf","fixation","","","img/fixation.png","null","","","test","","","","","","","","","","","","","","","","","","","",""
"278","90968","SARL_v6","SARL_v64dpcwxlq","6294bdac3f1ed08e968e53bf","freq","","","img/blue_2bandit_b2.png","70","","70","test","1","","16","","","","circle","square","16","16","1","0.9375","","","","","","","",""
"null","91499","SARL_v6","SARL_v64dpcwxlq","6294bdac3f1ed08e968e53bf","freq_resp","","","img/blue_2bandit_b.png","70","img/blue_2bandit_b.png","70","test","","","","","","","","","","","1","","","","","","","","",""
"null","91654","SARL_v6","SARL_v64dpcwxlq","6294bdac3f1ed08e968e53bf","fixation","","","img/fixation.png","null","","","test","","","","","","","","","","","","","","","","","","","",""
"246","91905","SARL_v6","SARL_v64dpcwxlq","6294bdac3f1ed08e968e53bf","freq","","","img/blue_2bandit_b2.png","70","","70","test","1","","17","","","","circle","square","17","17","1","0.9411764705882353","","","","","","","",""
"null","92479","SARL_v6","SARL_v64dpcwxlq","6294bdac3f1ed08e968e53bf","freq_resp","","","img/blue_2bandit_b.png","70","img/blue_2bandit_b.png","70","test","","","","","","","","","","","1","","","","","","","","",""
"null","92633","SARL_v6","SARL_v64dpcwxlq","6294bdac3f1ed08e968e53bf","fixation","","","img/fixation.png","null","","","test","","","","","","","","","","","","","","","","","","","",""
"260","92895","SARL_v6","SARL_v64dpcwxlq","6294bdac3f1ed08e968e53bf","infreq","","","img/orange_2bandit_b2.png","70","","68","test","0","","18","","","","circle","square","18","18","1","0.8888888888888888","","","","","","","",""
"null","93444","SARL_v6","SARL_v64dpcwxlq","6294bdac3f1ed08e968e53bf","infreq_resp","","","img/orange_2bandit_b.png","70","img/orange_2bandit_b.png","68","test","","","","","","","","","","","1","","","","","","","","",""
"null","93602","SARL_v6","SARL_v64dpcwxlq","6294bdac3f1ed08e968e53bf","fixation","","","img/fixation.png","null","","","test","","","","","","","","","","","","","","","","","","","",""
"551","94158","SARL_v6","SARL_v64dpcwxlq","6294bdac3f1ed08e968e53bf","freq","","","img/blue_2bandit_b2.png","68","","70","test","0","","19","","","","circle","square","19","19","1","0.8421052631578947","","","","","","","",""
"null","94424","SARL_v6","SARL_v64dpcwxlq","6294bdac3f1ed08e968e53bf","freq_resp","","","img/blue_2bandit_b.png","68","img/blue_2bandit_b.png","70","test","","","","","","","","","","","1","","","","","","","","",""
"null","94579","SARL_v6","SARL_v64dpcwxlq","6294bdac3f1ed08e968e53bf","fixation","","","img/fixation.png","null","","","test","","","","","","","","","","","","","","","","","","","",""
"null","95389","SARL_v6","SARL_v64dpcwxlq","6294bdac3f1ed08e968e53bf","freq","","","img/blue_2bandit_b2.png","null","","70","test","0","","20","","","","circle","square","20","20","1","0.8","","","","","","","",""
"null","95543","SARL_v6","SARL_v64dpcwxlq","6294bdac3f1ed08e968e53bf","fixation","","","img/fixation.png","null","","","test","","","","","","","","","","","","","","","","","","","",""
"573","96122","SARL_v6","SARL_v64dpcwxlq","6294bdac3f1ed08e968e53bf","freq","","","img/blue_2bandit_b2.png","68","","70","test","0","","21","","","","circle","square","21","21","1","0.7619047619047619","","","","","","","",""
"null","96365","SARL_v6","SARL_v64dpcwxlq","6294bdac3f1ed08e968e53bf","freq_resp","","","img/blue_2bandit_b.png","68","img/blue_2bandit_b.png","70","test","","","","","","","","","","","1","","","","","","","","",""
"null","96524","SARL_v6","SARL_v64dpcwxlq","6294bdac3f1ed08e968e53bf","fixation","","","img/fixation.png","null","","","test","","","","","","","","","","","","","","","","","","","",""
"null","97340","SARL_v6","SARL_v64dpcwxlq","6294bdac3f1ed08e968e53bf","freq","","","img/blue_2bandit_b2.png","null","","70","test","0","","22","","","","circle","square","22","22","1","0.7272727272727273","","","","","","","",""
"null","97497","SARL_v6","SARL_v64dpcwxlq","6294bdac3f1ed08e968e53bf","fixation","","","img/fixation.png","null","","","test","","","","","","","","","","","","","","","","","","","",""
"82","97584","SARL_v6","SARL_v64dpcwxlq","6294bdac3f1ed08e968e53bf","freq","","","img/blue_2bandit_b2.png","68","","70","test","0","","23","","","","circle","square","23","23","1","0.6956521739130435","","","","","","","",""
"null","98317","SARL_v6","SARL_v64dpcwxlq","6294bdac3f1ed08e968e53bf","freq_resp","","","img/blue_2bandit_b.png","68","img/blue_2bandit_b.png","70","test","","","","","","","","","","","1","","","","","","","","",""
"null","98474","SARL_v6","SARL_v64dpcwxlq","6294bdac3f1ed08e968e53bf","fixation","","","img/fixation.png","null","","","test","","","","","","","","","","","","","","","","","","","",""
"751","99231","SARL_v6","SARL_v64dpcwxlq","6294bdac3f1ed08e968e53bf","rl","","","img/black_2bandit_b2.png","75","","0","test","","","24","","","-3","circle","square","","0","1","","75","-3","-3","-3","-3","square","1","0"
"null","99988","SARL_v6","SARL_v64dpcwxlq","6294bdac3f1ed08e968e53bf","feedback","","","<div class=""verylowPoints_sq""> -3 </div>","null","","na","test","","","NaN","","","","","","","","1","","75","","","","","","1",""
"null","100795","SARL_v6","SARL_v64dpcwxlq","6294bdac3f1ed08e968e53bf","freq","","","img/blue_2bandit_b2.png","null","","70","test","0","","25","","","","circle","square","24","1","2","0.6666666666666666","","","","","","","",""
"null","100950","SARL_v6","SARL_v64dpcwxlq","6294bdac3f1ed08e968e53bf","fixation","","","img/fixation.png","null","","","test","","","","","","","","","","","","","","","","","","","",""
"559","101512","SARL_v6","SARL_v64dpcwxlq","6294bdac3f1ed08e968e53bf","freq","","","img/blue_2bandit_b2.png","70","","70","test","1","","26","","","","circle","square","25","2","2","0.68","","","","","","","",""
"null","101764","SARL_v6","SARL_v64dpcwxlq","6294bdac3f1ed08e968e53bf","freq_resp","","","img/blue_2bandit_b.png","70","img/blue_2bandit_b.png","70","test","","","","","","","","","","","2","","","","","","","","",""
"null","101919","SARL_v6","SARL_v64dpcwxlq","6294bdac3f1ed08e968e53bf","fixation","","","img/fixation.png","null","","","test","","","","","","","","","","","","","","","","","","","",""
"343","102266","SARL_v6","SARL_v64dpcwxlq","6294bdac3f1ed08e968e53bf","freq","","","img/blue_2bandit_b2.png","70","","70","test","1","","27","","","","circle","square","26","3","2","0.6923076923076923","","","","","","","",""
"null","102731","SARL_v6","SARL_v64dpcwxlq","6294bdac3f1ed08e968e53bf","freq_resp","","","img/blue_2bandit_b.png","70","img/blue_2bandit_b.png","70","test","","","","","","","","","","","2","","","","","","","","",""
"null","102897","SARL_v6","SARL_v64dpcwxlq","6294bdac3f1ed08e968e53bf","fixation","","","img/fixation.png","null","","","test","","","","","","","","","","","","","","","","","","","",""
"310","103209","SARL_v6","SARL_v64dpcwxlq","6294bdac3f1ed08e968e53bf","freq","","","img/blue_2bandit_b2.png","70","","70","test","1","","28","","","","circle","square","27","4","2","0.7037037037037037","","","","","","","",""
"null","103712","SARL_v6","SARL_v64dpcwxlq","6294bdac3f1ed08e968e53bf","freq_resp","","","img/blue_2bandit_b.png","70","img/blue_2bandit_b.png","70","test","","","","","","","","","","","2","","","","","","","","",""
"null","103867","SARL_v6","SARL_v64dpcwxlq","6294bdac3f1ed08e968e53bf","fixation","","","img/fixation.png","null","","","test","","","","","","","","","","","","","","","","","","","",""
"251","104120","SARL_v6","SARL_v64dpcwxlq","6294bdac3f1ed08e968e53bf","infreq","","","img/orange_2bandit_b2.png","70","","68","test","0","","29","","","","circle","square","28","5","2","0.6785714285714286","","","","","","","",""
"null","104671","SARL_v6","SARL_v64dpcwxlq","6294bdac3f1ed08e968e53bf","infreq_resp","","","img/orange_2bandit_b.png","70","img/orange_2bandit_b.png","68","test","","","","","","","","","","","2","","","","","","","","",""
"null","104829","SARL_v6","SARL_v64dpcwxlq","6294bdac3f1ed08e968e53bf","fixation","","","img/fixation.png","null","","","test","","","","","","","","","","","","","","","","","","","",""
"240","105072","SARL_v6","SARL_v64dpcwxlq","6294bdac3f1ed08e968e53bf","freq","","","img/blue_2bandit_b2.png","70","","70","test","1","","30","","","","circle","square","29","6","2","0.6896551724137931","","","","","","","",""
"null","105637","SARL_v6","SARL_v64dpcwxlq","6294bdac3f1ed08e968e53bf","freq_resp","","","img/blue_2bandit_b.png","70","img/blue_2bandit_b.png","70","test","","","","","","","","","","","2","","","","","","","","",""
"null","105792","SARL_v6","SARL_v64dpcwxlq","6294bdac3f1ed08e968e53bf","fixation","","","img/fixation.png","null","","","test","","","","","","","","","","","","","","","","","","","",""
"391","106188","SARL_v6","SARL_v64dpcwxlq","6294bdac3f1ed08e968e53bf","freq","","","img/blue_2bandit_b2.png","70","","70","test","1","","31","","","","circle","square","30","7","2","0.7","","","","","","","",""
"null","106604","SARL_v6","SARL_v64dpcwxlq","6294bdac3f1ed08e968e53bf","freq_resp","","","img/blue_2bandit_b.png","70","img/blue_2bandit_b.png","70","test","","","","","","","","","","","2","","","","","","","","",""
"null","106761","SARL_v6","SARL_v64dpcwxlq","6294bdac3f1ed08e968e53bf","fixation","","","img/fixation.png","null","","","test","","","","","","","","","","","","","","","","","","","",""
"386","107151","SARL_v6","SARL_v64dpcwxlq","6294bdac3f1ed08e968e53bf","freq","","","img/blue_2bandit_b2.png","70","","70","test","1","","32","","","","circle","square","31","8","2","0.7096774193548387","","","","","","","",""
"null","107569","SARL_v6","SARL_v64dpcwxlq","6294bdac3f1ed08e968e53bf","freq_resp","","","img/blue_2bandit_b.png","70","img/blue_2bandit_b.png","70","test","","","","","","","","","","","2","","","","","","","","",""
"null","107726","SARL_v6","SARL_v64dpcwxlq","6294bdac3f1ed08e968e53bf","fixation","","","img/fixation.png","null","","","test","","","","","","","","","","","","","","","","","","","",""
"404","108134","SARL_v6","SARL_v64dpcwxlq","6294bdac3f1ed08e968e53bf","freq","","","img/blue_2bandit_b2.png","70","","70","test","1","","33","","","","circle","square","32","9","2","0.71875","","","","","","","",""
"null","108547","SARL_v6","SARL_v64dpcwxlq","6294bdac3f1ed08e968e53bf","freq_resp","","","img/blue_2bandit_b.png","70","img/blue_2bandit_b.png","70","test","","","","","","","","","","","2","","","","","","","","",""
"null","108704","SARL_v6","SARL_v64dpcwxlq","6294bdac3f1ed08e968e53bf","fixation","","","img/fixation.png","null","","","test","","","","","","","","","","","","","","","","","","","",""
"415","109120","SARL_v6","SARL_v64dpcwxlq","6294bdac3f1ed08e968e53bf","freq","","","img/blue_2bandit_b2.png","70","","70","test","1","","34","","","","circle","square","33","10","2","0.7272727272727273","","","","","","","",""
"null","109524","SARL_v6","SARL_v64dpcwxlq","6294bdac3f1ed08e968e53bf","freq_resp","","","img/blue_2bandit_b.png","70","img/blue_2bandit_b.png","70","test","","","","","","","","","","","2","","","","","","","","",""
"null","109679","SARL_v6","SARL_v64dpcwxlq","6294bdac3f1ed08e968e53bf","fixation","","","img/fixation.png","null","","","test","","","","","","","","","","","","","","","","","","","",""
"438","110118","SARL_v6","SARL_v64dpcwxlq","6294bdac3f1ed08e968e53bf","freq","","","img/blue_2bandit_b2.png","70","","70","test","1","","35","","","","circle","square","34","11","2","0.7352941176470589","","","","","","","",""
"null","110488","SARL_v6","SARL_v64dpcwxlq","6294bdac3f1ed08e968e53bf","freq_resp","","","img/blue_2bandit_b.png","70","img/blue_2bandit_b.png","70","test","","","","","","","","","","","2","","","","","","","","",""
"null","110645","SARL_v6","SARL_v64dpcwxlq","6294bdac3f1ed08e968e53bf","fixation","","","img/fixation.png","null","","","test","","","","","","","","","","","","","","","","","","","",""
"406","111055","SARL_v6","SARL_v64dpcwxlq","6294bdac3f1ed08e968e53bf","freq","","","img/blue_2bandit_b2.png","70","","70","test","1","","36","","","","circle","square","35","12","2","0.7428571428571429","","","","","","","",""
"null","111453","SARL_v6","SARL_v64dpcwxlq","6294bdac3f1ed08e968e53bf","freq_resp","","","img/blue_2bandit_b.png","70","img/blue_2bandit_b.png","70","test","","","","","","","","","","","2","","","","","","","","",""
"null","111609","SARL_v6","SARL_v64dpcwxlq","6294bdac3f1ed08e968e53bf","fixation","","","img/fixation.png","null","","","test","","","","","","","","","","","","","","","","","","","",""
"332","111946","SARL_v6","SARL_v64dpcwxlq","6294bdac3f1ed08e968e53bf","freq","","","img/blue_2bandit_b2.png","70","","70","test","1","","37","","","","circle","square","36","13","2","0.75","","","","","","","",""
"null","112419","SARL_v6","SARL_v64dpcwxlq","6294bdac3f1ed08e968e53bf","freq_resp","","","img/blue_2bandit_b.png","70","img/blue_2bandit_b.png","70","test","","","","","","","","","","","2","","","","","","","","",""
"null","112575","SARL_v6","SARL_v64dpcwxlq","6294bdac3f1ed08e968e53bf","fixation","","","img/fixation.png","null","","","test","","","","","","","","","","","","","","","","","","","",""
"344","112923","SARL_v6","SARL_v64dpcwxlq","6294bdac3f1ed08e968e53bf","freq","","","img/blue_2bandit_b2.png","70","","70","test","1","","38","","","","circle","square","37","14","2","0.7567567567567568","","","","","","","",""
"null","113385","SARL_v6","SARL_v64dpcwxlq","6294bdac3f1ed08e968e53bf","freq_resp","","","img/blue_2bandit_b.png","70","img/blue_2bandit_b.png","70","test","","","","","","","","","","","2","","","","","","","","",""
"null","113538","SARL_v6","SARL_v64dpcwxlq","6294bdac3f1ed08e968e53bf","fixation","","","img/fixation.png","null","","","test","","","","","","","","","","","","","","","","","","","",""
"442","113984","SARL_v6","SARL_v64dpcwxlq","6294bdac3f1ed08e968e53bf","infreq","","","img/orange_2bandit_b2.png","68","","68","test","1","","39","","","","circle","square","38","15","2","0.7631578947368421","","","","","","","",""
"null","114350","SARL_v6","SARL_v64dpcwxlq","6294bdac3f1ed08e968e53bf","infreq_resp","","","img/orange_2bandit_b.png","68","img/orange_2bandit_b.png","68","test","","","","","","","","","","","2","","","","","","","","",""
"null","114504","SARL_v6","SARL_v64dpcwxlq","6294bdac3f1ed08e968e53bf","fixation","","","img/fixation.png","null","","","test","","","","","","","","","","","","","","","","","","","",""
"431","114938","SARL_v6","SARL_v64dpcwxlq","6294bdac3f1ed08e968e53bf","freq","","","img/blue_2bandit_b2.png","70","","70","test","1","","40","","","","circle","square","39","16","2","0.7692307692307693","","","","","","","",""
"null","115316","SARL_v6","SARL_v64dpcwxlq","6294bdac3f1ed08e968e53bf","freq_resp","","","img/blue_2bandit_b.png","70","img/blue_2bandit_b.png","70","test","","","","","","","","","","","2","","","","","","","","",""
"null","115472","SARL_v6","SARL_v64dpcwxlq","6294bdac3f1ed08e968e53bf","fixation","","","img/fixation.png","null","","","test","","","","","","","","","","","","","","","","","","","",""
"332","115806","SARL_v6","SARL_v64dpcwxlq","6294bdac3f1ed08e968e53bf","freq","","","img/blue_2bandit_b2.png","70","","70","test","1","","41","","","","circle","square","40","17","2","0.775","","","","","","","",""
"null","116281","SARL_v6","SARL_v64dpcwxlq","6294bdac3f1ed08e968e53bf","freq_resp","","","img/blue_2bandit_b.png","70","img/blue_2bandit_b.png","70","test","","","","","","","","","","","2","","","","","","","","",""
"null","116437","SARL_v6","SARL_v64dpcwxlq","6294bdac3f1ed08e968e53bf","fixation","","","img/fixation.png","null","","","test","","","","","","","","","","","","","","","","","","","",""
"313","116754","SARL_v6","SARL_v64dpcwxlq","6294bdac3f1ed08e968e53bf","freq","","","img/blue_2bandit_b2.png","70","","70","test","1","","42","","","","circle","square","41","18","2","0.7804878048780488","","","","","","","",""
"null","117244","SARL_v6","SARL_v64dpcwxlq","6294bdac3f1ed08e968e53bf","freq_resp","","","img/blue_2bandit_b.png","70","img/blue_2bandit_b.png","70","test","","","","","","","","","","","2","","","","","","","","",""
"null","117399","SARL_v6","SARL_v64dpcwxlq","6294bdac3f1ed08e968e53bf","fixation","","","img/fixation.png","null","","","test","","","","","","","","","","","","","","","","","","","",""
"175","117578","SARL_v6","SARL_v64dpcwxlq","6294bdac3f1ed08e968e53bf","freq","","","img/blue_2bandit_b2.png","70","","70","test","1","","43","","","","circle","square","42","19","2","0.7857142857142857","","","","","","","",""
"null","118213","SARL_v6","SARL_v64dpcwxlq","6294bdac3f1ed08e968e53bf","freq_resp","","","img/blue_2bandit_b.png","70","img/blue_2bandit_b.png","70","test","","","","","","","","","","","2","","","","","","","","",""
"null","118380","SARL_v6","SARL_v64dpcwxlq","6294bdac3f1ed08e968e53bf","fixation","","","img/fixation.png","null","","","test","","","","","","","","","","","","","","","","","","","",""
"156","118539","SARL_v6","SARL_v64dpcwxlq","6294bdac3f1ed08e968e53bf","freq","","","img/blue_2bandit_b2.png","70","","70","test","1","","44","","","","circle","square","43","20","2","0.7906976744186046","","","","","","","",""
"null","119192","SARL_v6","SARL_v64dpcwxlq","6294bdac3f1ed08e968e53bf","freq_resp","","","img/blue_2bandit_b.png","70","img/blue_2bandit_b.png","70","test","","","","","","","","","","","2","","","","","","","","",""
"null","119360","SARL_v6","SARL_v64dpcwxlq","6294bdac3f1ed08e968e53bf","fixation","","","img/fixation.png","null","","","test","","","","","","","","","","","","","","","","","","","",""
"117","119480","SARL_v6","SARL_v64dpcwxlq","6294bdac3f1ed08e968e53bf","freq","","","img/blue_2bandit_b2.png","70","","70","test","1","","45","","","","circle","square","44","21","2","0.7954545454545454","","","","","","","",""
"null","120168","SARL_v6","SARL_v64dpcwxlq","6294bdac3f1ed08e968e53bf","freq_resp","","","img/blue_2bandit_b.png","70","img/blue_2bandit_b.png","70","test","","","","","","","","","","","2","","","","","","","","",""
"null","120325","SARL_v6","SARL_v64dpcwxlq","6294bdac3f1ed08e968e53bf","fixation","","","img/fixation.png","null","","","test","","","","","","","","","","","","","","","","","","","",""
"101","120431","SARL_v6","SARL_v64dpcwxlq","6294bdac3f1ed08e968e53bf","freq","","","img/blue_2bandit_b2.png","70","","70","test","1","","46","","","","circle","square","45","22","2","0.8","","","","","","","",""
"null","121148","SARL_v6","SARL_v64dpcwxlq","6294bdac3f1ed08e968e53bf","freq_resp","","","img/blue_2bandit_b.png","70","img/blue_2bandit_b.png","70","test","","","","","","","","","","","2","","","","","","","","",""
"null","121303","SARL_v6","SARL_v64dpcwxlq","6294bdac3f1ed08e968e53bf","fixation","","","img/fixation.png","null","","","test","","","","","","","","","","","","","","","","","","","",""
"129","121437","SARL_v6","SARL_v64dpcwxlq","6294bdac3f1ed08e968e53bf","freq","","","img/blue_2bandit_b2.png","70","","70","test","1","","47","","","","circle","square","46","23","2","0.8043478260869565","","","","","","","",""
"null","122112","SARL_v6","SARL_v64dpcwxlq","6294bdac3f1ed08e968e53bf","freq_resp","","","img/blue_2bandit_b.png","70","img/blue_2bandit_b.png","70","test","","","","","","","","","","","2","","","","","","","","",""
"null","122269","SARL_v6","SARL_v64dpcwxlq","6294bdac3f1ed08e968e53bf","fixation","","","img/fixation.png","null","","","test","","","","","","","","","","","","","","","","","","","",""
"203","122476","SARL_v6","SARL_v64dpcwxlq","6294bdac3f1ed08e968e53bf","freq","","","img/blue_2bandit_b2.png","70","","70","test","1","","48","","","","circle","square","47","24","2","0.8085106382978723","","","","","","","",""
"null","123090","SARL_v6","SARL_v64dpcwxlq","6294bdac3f1ed08e968e53bf","freq_resp","","","img/blue_2bandit_b.png","70","img/blue_2bandit_b.png","70","test","","","","","","","","","","","2","","","","","","","","",""
"null","123243","SARL_v6","SARL_v64dpcwxlq","6294bdac3f1ed08e968e53bf","fixation","","","img/fixation.png","null","","","test","","","","","","","","","","","","","","","","","","","",""
"1119","124367","SARL_v6","SARL_v64dpcwxlq","6294bdac3f1ed08e968e53bf","rl","","","img/black_2bandit_b2.png","74","","0","test","","","49","","","-8","circle","square","","0","2","","74","-8","-5","-8","-5","circle","2","0"
"null","125131","SARL_v6","SARL_v64dpcwxlq","6294bdac3f1ed08e968e53bf","feedback","","","<div class=""verylowPoints""> -8 </div>","null","","na","test","","","NaN","","","","","","","","2","","74","","","","","","2",""
"null","125941","SARL_v6","SARL_v64dpcwxlq","6294bdac3f1ed08e968e53bf","freq","","","img/blue_2bandit_b2.png","null","","70","test","0","","50","","","","circle","square","48","1","3","0.7916666666666666","","","","","","","",""
"null","126097","SARL_v6","SARL_v64dpcwxlq","6294bdac3f1ed08e968e53bf","fixation","","","img/fixation.png","null","","","test","","","","","","","","","","","","","","","","","","","",""
"598","126698","SARL_v6","SARL_v64dpcwxlq","6294bdac3f1ed08e968e53bf","freq","","","img/blue_2bandit_b2.png","70","","70","test","1","","51","","","","circle","square","49","2","3","0.7959183673469388","","","","","","","",""
"null","126910","SARL_v6","SARL_v64dpcwxlq","6294bdac3f1ed08e968e53bf","freq_resp","","","img/blue_2bandit_b.png","70","img/blue_2bandit_b.png","70","test","","","","","","","","","","","3","","","","","","","","",""
"null","127064","SARL_v6","SARL_v64dpcwxlq","6294bdac3f1ed08e968e53bf","fixation","","","img/fixation.png","null","","","test","","","","","","","","","","","","","","","","","","","",""
"615","127681","SARL_v6","SARL_v64dpcwxlq","6294bdac3f1ed08e968e53bf","freq","","","img/blue_2bandit_b2.png","70","","70","test","1","","52","","","","circle","square","50","3","3","0.8","","","","","","","",""
"null","127875","SARL_v6","SARL_v64dpcwxlq","6294bdac3f1ed08e968e53bf","freq_resp","","","img/blue_2bandit_b.png","70","img/blue_2bandit_b.png","70","test","","","","","","","","","","","3","","","","","","","","",""
"null","128033","SARL_v6","SARL_v64dpcwxlq","6294bdac3f1ed08e968e53bf","fixation","","","img/fixation.png","null","","","test","","","","","","","","","","","","","","","","","","","",""
"372","128408","SARL_v6","SARL_v64dpcwxlq","6294bdac3f1ed08e968e53bf","freq","","","img/blue_2bandit_b2.png","70","","70","test","1","","53","","","","circle","square","51","4","3","0.803921568627451","","","","","","","",""
"null","128845","SARL_v6","SARL_v64dpcwxlq","6294bdac3f1ed08e968e53bf","freq_resp","","","img/blue_2bandit_b.png","70","img/blue_2bandit_b.png","70","test","","","","","","","","","","","3","","","","","","","","",""
"null","129014","SARL_v6","SARL_v64dpcwxlq","6294bdac3f1ed08e968e53bf","fixation","","","img/fixation.png","null","","","test","","","","","","","","","","","","","","","","","","","",""
"379","129397","SARL_v6","SARL_v64dpcwxlq","6294bdac3f1ed08e968e53bf","freq","","","img/blue_2bandit_b2.png","70","","70","test","1","","54","","","","circle","square","52","5","3","0.8076923076923077","","","","","","","",""
"null","129834","SARL_v6","SARL_v64dpcwxlq","6294bdac3f1ed08e968e53bf","freq_resp","","","img/blue_2bandit_b.png","70","img/blue_2bandit_b.png","70","test","","","","","","","","","","","3","","","","","","","","",""
"null","130004","SARL_v6","SARL_v64dpcwxlq","6294bdac3f1ed08e968e53bf","fixation","","","img/fixation.png","null","","","test","","","","","","","","","","","","","","","","","","","",""
"349","130357","SARL_v6","SARL_v64dpcwxlq","6294bdac3f1ed08e968e53bf","freq","","","img/blue_2bandit_b2.png","70","","70","test","1","","55","","","","circle","square","53","6","3","0.8113207547169812","","","","","","","",""
"null","130816","SARL_v6","SARL_v64dpcwxlq","6294bdac3f1ed08e968e53bf","freq_resp","","","img/blue_2bandit_b.png","70","img/blue_2bandit_b.png","70","test","","","","","","","","","","","3","","","","","","","","",""
"null","130975","SARL_v6","SARL_v64dpcwxlq","6294bdac3f1ed08e968e53bf","fixation","","","img/fixation.png","null","","","test","","","","","","","","","","","","","","","","","","","",""
"239","131216","SARL_v6","SARL_v64dpcwxlq","6294bdac3f1ed08e968e53bf","freq","","","img/blue_2bandit_b2.png","70","","70","test","1","","56","","","","circle","square","54","7","3","0.8148148148148148","","","","","","","",""
"null","131794","SARL_v6","SARL_v64dpcwxlq","6294bdac3f1ed08e968e53bf","freq_resp","","","img/blue_2bandit_b.png","70","img/blue_2bandit_b.png","70","test","","","","","","","","","","","3","","","","","","","","",""
"null","131949","SARL_v6","SARL_v64dpcwxlq","6294bdac3f1ed08e968e53bf","fixation","","","img/fixation.png","null","","","test","","","","","","","","","","","","","","","","","","","",""
"226","132178","SARL_v6","SARL_v64dpcwxlq","6294bdac3f1ed08e968e53bf","freq","","","img/blue_2bandit_b2.png","70","","70","test","1","","57","","","","circle","square","55","8","3","0.8181818181818182","","","","","","","",""
"null","132761","SARL_v6","SARL_v64dpcwxlq","6294bdac3f1ed08e968e53bf","freq_resp","","","img/blue_2bandit_b.png","70","img/blue_2bandit_b.png","70","test","","","","","","","","","","","3","","","","","","","","",""
"null","132915","SARL_v6","SARL_v64dpcwxlq","6294bdac3f1ed08e968e53bf","fixation","","","img/fixation.png","null","","","test","","","","","","","","","","","","","","","","","","","",""
"422","133343","SARL_v6","SARL_v64dpcwxlq","6294bdac3f1ed08e968e53bf","freq","","","img/blue_2bandit_b2.png","70","","70","test","1","","58","","","","circle","square","56","9","3","0.8214285714285714","","","","","","","",""
"null","133729","SARL_v6","SARL_v64dpcwxlq","6294bdac3f1ed08e968e53bf","freq_resp","","","img/blue_2bandit_b.png","70","img/blue_2bandit_b.png","70","test","","","","","","","","","","","3","","","","","","","","",""
"null","133883","SARL_v6","SARL_v64dpcwxlq","6294bdac3f1ed08e968e53bf","fixation","","","img/fixation.png","null","","","test","","","","","","","","","","","","","","","","","","","",""
"285","134173","SARL_v6","SARL_v64dpcwxlq","6294bdac3f1ed08e968e53bf","freq","","","img/blue_2bandit_b2.png","70","","70","test","1","","59","","","","circle","square","57","10","3","0.8245614035087719","","","","","","","",""
"null","134693","SARL_v6","SARL_v64dpcwxlq","6294bdac3f1ed08e968e53bf","freq_resp","","","img/blue_2bandit_b.png","70","img/blue_2bandit_b.png","70","test","","","","","","","","","","","3","","","","","","","","",""
"null","134849","SARL_v6","SARL_v64dpcwxlq","6294bdac3f1ed08e968e53bf","fixation","","","img/fixation.png","null","","","test","","","","","","","","","","","","","","","","","","","",""
"497","135349","SARL_v6","SARL_v64dpcwxlq","6294bdac3f1ed08e968e53bf","freq","","","img/blue_2bandit_b2.png","70","","70","test","1","","60","","","","circle","square","58","11","3","0.8275862068965517","","","","","","","",""
"null","135658","SARL_v6","SARL_v64dpcwxlq","6294bdac3f1ed08e968e53bf","freq_resp","","","img/blue_2bandit_b.png","70","img/blue_2bandit_b.png","70","test","","","","","","","","","","","3","","","","","","","","",""
"null","135813","SARL_v6","SARL_v64dpcwxlq","6294bdac3f1ed08e968e53bf","fixation","","","img/fixation.png","null","","","test","","","","","","","","","","","","","","","","","","","",""
"649","136465","SARL_v6","SARL_v64dpcwxlq","6294bdac3f1ed08e968e53bf","freq","","","img/blue_2bandit_b2.png","70","","70","test","1","","61","","","","circle","square","59","12","3","0.8305084745762712","","","","","","","",""
"null","136626","SARL_v6","SARL_v64dpcwxlq","6294bdac3f1ed08e968e53bf","freq_resp","","","img/blue_2bandit_b.png","70","img/blue_2bandit_b.png","70","test","","","","","","","","","","","3","","","","","","","","",""
"null","136782","SARL_v6","SARL_v64dpcwxlq","6294bdac3f1ed08e968e53bf","fixation","","","img/fixation.png","null","","","test","","","","","","","","","","","","","","","","","","","",""
"500","137286","SARL_v6","SARL_v64dpcwxlq","6294bdac3f1ed08e968e53bf","freq","","","img/blue_2bandit_b2.png","70","","70","test","1","","62","","","","circle","square","60","13","3","0.8333333333333334","","","","","","","",""
"null","137606","SARL_v6","SARL_v64dpcwxlq","6294bdac3f1ed08e968e53bf","freq_resp","","","img/blue_2bandit_b.png","70","img/blue_2bandit_b.png","70","test","","","","","","","","","","","3","","","","","","","","",""
"null","137760","SARL_v6","SARL_v64dpcwxlq","6294bdac3f1ed08e968e53bf","fixation","","","img/fixation.png","null","","","test","","","","","","","","","","","","","","","","","","","",""
"296","138059","SARL_v6","SARL_v64dpcwxlq","6294bdac3f1ed08e968e53bf","freq","","","img/blue_2bandit_b2.png","70","","70","test","1","","63","","","","circle","square","61","14","3","0.8360655737704918","","","","","","","",""
"null","138569","SARL_v6","SARL_v64dpcwxlq","6294bdac3f1ed08e968e53bf","freq_resp","","","img/blue_2bandit_b.png","70","img/blue_2bandit_b.png","70","test","","","","","","","","","","","3","","","","","","","","",""
"null","138725","SARL_v6","SARL_v64dpcwxlq","6294bdac3f1ed08e968e53bf","fixation","","","img/fixation.png","null","","","test","","","","","","","","","","","","","","","","","","","",""
"363","139092","SARL_v6","SARL_v64dpcwxlq","6294bdac3f1ed08e968e53bf","freq","","","img/blue_2bandit_b2.png","70","","70","test","1","","64","","","","circle","square","62","15","3","0.8387096774193549","","","","","","","",""
"null","139534","SARL_v6","SARL_v64dpcwxlq","6294bdac3f1ed08e968e53bf","freq_resp","","","img/blue_2bandit_b.png","70","img/blue_2bandit_b.png","70","test","","","","","","","","","","","3","","","","","","","","",""
"null","139693","SARL_v6","SARL_v64dpcwxlq","6294bdac3f1ed08e968e53bf","fixation","","","img/fixation.png","null","","","test","","","","","","","","","","","","","","","","","","","",""
"470","140168","SARL_v6","SARL_v64dpcwxlq","6294bdac3f1ed08e968e53bf","infreq","","","img/orange_2bandit_b2.png","68","","68","test","1","","65","","","","circle","square","63","16","3","0.8412698412698413","","","","","","","",""
"null","140503","SARL_v6","SARL_v64dpcwxlq","6294bdac3f1ed08e968e53bf","infreq_resp","","","img/orange_2bandit_b.png","68","img/orange_2bandit_b.png","68","test","","","","","","","","","","","3","","","","","","","","",""
"null","140660","SARL_v6","SARL_v64dpcwxlq","6294bdac3f1ed08e968e53bf","fixation","","","img/fixation.png","null","","","test","","","","","","","","","","","","","","","","","","","",""
"468","141132","SARL_v6","SARL_v64dpcwxlq","6294bdac3f1ed08e968e53bf","freq","","","img/blue_2bandit_b2.png","70","","70","test","1","","66","","","","circle","square","64","17","3","0.84375","","","","","","","",""
"null","141470","SARL_v6","SARL_v64dpcwxlq","6294bdac3f1ed08e968e53bf","freq_resp","","","img/blue_2bandit_b.png","70","img/blue_2bandit_b.png","70","test","","","","","","","","","","","3","","","","","","","","",""
"null","141627","SARL_v6","SARL_v64dpcwxlq","6294bdac3f1ed08e968e53bf","fixation","","","img/fixation.png","null","","","test","","","","","","","","","","","","","","","","","","","",""
"444","142072","SARL_v6","SARL_v64dpcwxlq","6294bdac3f1ed08e968e53bf","infreq","","","img/orange_2bandit_b2.png","68","","68","test","1","","67","","","","circle","square","65","18","3","0.8461538461538461","","","","","","","",""
"null","142440","SARL_v6","SARL_v64dpcwxlq","6294bdac3f1ed08e968e53bf","infreq_resp","","","img/orange_2bandit_b.png","68","img/orange_2bandit_b.png","68","test","","","","","","","","","","","3","","","","","","","","",""
"null","142593","SARL_v6","SARL_v64dpcwxlq","6294bdac3f1ed08e968e53bf","fixation","","","img/fixation.png","null","","","test","","","","","","","","","","","","","","","","","","","",""
"437","143035","SARL_v6","SARL_v64dpcwxlq","6294bdac3f1ed08e968e53bf","freq","","","img/blue_2bandit_b2.png","70","","70","test","1","","68","","","","circle","square","66","19","3","0.8484848484848485","","","","","","","",""
"null","143405","SARL_v6","SARL_v64dpcwxlq","6294bdac3f1ed08e968e53bf","freq_resp","","","img/blue_2bandit_b.png","70","img/blue_2bandit_b.png","70","test","","","","","","","","","","","3","","","","","","","","",""
"null","143575","SARL_v6","SARL_v64dpcwxlq","6294bdac3f1ed08e968e53bf","fixation","","","img/fixation.png","null","","","test","","","","","","","","","","","","","","","","","","","",""
"323","143901","SARL_v6","SARL_v64dpcwxlq","6294bdac3f1ed08e968e53bf","freq","","","img/blue_2bandit_b2.png","70","","70","test","1","","69","","","","circle","square","67","20","3","0.8507462686567164","","","","","","","",""
"null","144383","SARL_v6","SARL_v64dpcwxlq","6294bdac3f1ed08e968e53bf","freq_resp","","","img/blue_2bandit_b.png","70","img/blue_2bandit_b.png","70","test","","","","","","","","","","","3","","","","","","","","",""
"null","144539","SARL_v6","SARL_v64dpcwxlq","6294bdac3f1ed08e968e53bf","fixation","","","img/fixation.png","null","","","test","","","","","","","","","","","","","","","","","","","",""
"148","144691","SARL_v6","SARL_v64dpcwxlq","6294bdac3f1ed08e968e53bf","freq","","","img/blue_2bandit_b2.png","70","","70","test","1","","70","","","","circle","square","68","21","3","0.8529411764705882","","","","","","","",""
"null","145350","SARL_v6","SARL_v64dpcwxlq","6294bdac3f1ed08e968e53bf","freq_resp","","","img/blue_2bandit_b.png","70","img/blue_2bandit_b.png","70","test","","","","","","","","","","","3","","","","","","","","",""
"null","145506","SARL_v6","SARL_v64dpcwxlq","6294bdac3f1ed08e968e53bf","fixation","","","img/fixation.png","null","","","test","","","","","","","","","","","","","","","","","","","",""
"553","146063","SARL_v6","SARL_v64dpcwxlq","6294bdac3f1ed08e968e53bf","rl","","","img/black_2bandit_b2.png","75","","0","test","","","71","","","-4","circle","square","","0","3","","75","-8","-4","-8","-4","square","3","0"
"null","146831","SARL_v6","SARL_v64dpcwxlq","6294bdac3f1ed08e968e53bf","feedback","","","<div class=""verylowPoints_sq""> -4 </div>","null","","na","test","","","NaN","","","","","","","","3","","75","","","","","","3",""
"null","147640","SARL_v6","SARL_v64dpcwxlq","6294bdac3f1ed08e968e53bf","freq","","","img/blue_2bandit_b2.png","null","","70","test","0","","72","","","","circle","square","69","1","4","0.8405797101449275","","","","","","","",""
"null","147809","SARL_v6","SARL_v64dpcwxlq","6294bdac3f1ed08e968e53bf","fixation","","","img/fixation.png","null","","","test","","","","","","","","","","","","","","","","","","","",""
"403","148216","SARL_v6","SARL_v64dpcwxlq","6294bdac3f1ed08e968e53bf","freq","","","img/blue_2bandit_b2.png","70","","70","test","1","","73","","","","circle","square","70","2","4","0.8428571428571429","","","","","","","",""
"null","148621","SARL_v6","SARL_v64dpcwxlq","6294bdac3f1ed08e968e53bf","freq_resp","","","img/blue_2bandit_b.png","70","img/blue_2bandit_b.png","70","test","","","","","","","","","","","4","","","","","","","","",""
"null","148778","SARL_v6","SARL_v64dpcwxlq","6294bdac3f1ed08e968e53bf","fixation","","","img/fixation.png","null","","","test","","","","","","","","","","","","","","","","","","","",""
"274","149056","SARL_v6","SARL_v64dpcwxlq","6294bdac3f1ed08e968e53bf","freq","","","img/blue_2bandit_b2.png","70","","70","test","1","","74","","","","circle","square","71","3","4","0.8450704225352113","","","","","","","",""
"null","149595","SARL_v6","SARL_v64dpcwxlq","6294bdac3f1ed08e968e53bf","freq_resp","","","img/blue_2bandit_b.png","70","img/blue_2bandit_b.png","70","test","","","","","","","","","","","4","","","","","","","","",""
"null","149749","SARL_v6","SARL_v64dpcwxlq","6294bdac3f1ed08e968e53bf","fixation","","","img/fixation.png","null","","","test","","","","","","","","","","","","","","","","","","","",""
"676","150429","SARL_v6","SARL_v64dpcwxlq","6294bdac3f1ed08e968e53bf","infreq","","","img/orange_2bandit_b2.png","70","","68","test","0","","75","","","","circle","square","72","4","4","0.8333333333333334","","","","","","","",""
"null","150573","SARL_v6","SARL_v64dpcwxlq","6294bdac3f1ed08e968e53bf","infreq_resp","","","img/orange_2bandit_b.png","70","img/orange_2bandit_b.png","68","test","","","","","","","","","","","4","","","","","","","","",""
"null","150742","SARL_v6","SARL_v64dpcwxlq","6294bdac3f1ed08e968e53bf","fixation","","","img/fixation.png","null","","","test","","","","","","","","","","","","","","","","","","","",""
"411","151159","SARL_v6","SARL_v64dpcwxlq","6294bdac3f1ed08e968e53bf","freq","","","img/blue_2bandit_b2.png","70","","70","test","1","","76","","","","circle","square","73","5","4","0.8356164383561644","","","","","","","",""
"null","151554","SARL_v6","SARL_v64dpcwxlq","6294bdac3f1ed08e968e53bf","freq_resp","","","img/blue_2bandit_b.png","70","img/blue_2bandit_b.png","70","test","","","","","","","","","","","4","","","","","","","","",""
"null","151722","SARL_v6","SARL_v64dpcwxlq","6294bdac3f1ed08e968e53bf","fixation","","","img/fixation.png","null","","","test","","","","","","","","","","","","","","","","","","","",""
"1","151727","SARL_v6","SARL_v64dpcwxlq","6294bdac3f1ed08e968e53bf","freq","","","img/blue_2bandit_b2.png","68","","70","test","0","","77","","","","circle","square","74","6","4","0.8243243243243243","","","","","","","",""
"null","152542","SARL_v6","SARL_v64dpcwxlq","6294bdac3f1ed08e968e53bf","freq_resp","","","img/blue_2bandit_b.png","68","img/blue_2bandit_b.png","70","test","","","","","","","","","","","4","","","","","","","","",""
"null","152698","SARL_v6","SARL_v64dpcwxlq","6294bdac3f1ed08e968e53bf","fixation","","","img/fixation.png","null","","","test","","","","","","","","","","","","","","","","","","","",""
"437","153140","SARL_v6","SARL_v64dpcwxlq","6294bdac3f1ed08e968e53bf","freq","","","img/blue_2bandit_b2.png","70","","70","test","1","","78","","","","circle","square","75","7","4","0.8266666666666667","","","","","","","",""
"null","153508","SARL_v6","SARL_v64dpcwxlq","6294bdac3f1ed08e968e53bf","freq_resp","","","img/blue_2bandit_b.png","70","img/blue_2bandit_b.png","70","test","","","","","","","","","","","4","","","","","","","","",""
"null","153664","SARL_v6","SARL_v64dpcwxlq","6294bdac3f1ed08e968e53bf","fixation","","","img/fixation.png","null","","","test","","","","","","","","","","","","","","","","","","","",""
"331","153998","SARL_v6","SARL_v64dpcwxlq","6294bdac3f1ed08e968e53bf","freq","","","img/blue_2bandit_b2.png","70","","70","test","1","","79","","","","circle","square","76","8","4","0.8289473684210527","","","","","","","",""
"null","154482","SARL_v6","SARL_v64dpcwxlq","6294bdac3f1ed08e968e53bf","freq_resp","","","img/blue_2bandit_b.png","70","img/blue_2bandit_b.png","70","test","","","","","","","","","","","4","","","","","","","","",""
"null","154641","SARL_v6","SARL_v64dpcwxlq","6294bdac3f1ed08e968e53bf","fixation","","","img/fixation.png","null","","","test","","","","","","","","","","","","","","","","","","","",""
"148","154794","SARL_v6","SARL_v64dpcwxlq","6294bdac3f1ed08e968e53bf","freq","","","img/blue_2bandit_b2.png","70","","70","test","1","","80","","","","circle","square","77","9","4","0.8311688311688312","","","","","","","",""
"null","155450","SARL_v6","SARL_v64dpcwxlq","6294bdac3f1ed08e968e53bf","freq_resp","","","img/blue_2bandit_b.png","70","img/blue_2bandit_b.png","70","test","","","","","","","","","","","4","","","","","","","","",""
"null","155607","SARL_v6","SARL_v64dpcwxlq","6294bdac3f1ed08e968e53bf","fixation","","","img/fixation.png","null","","","test","","","","","","","","","","","","","","","","","","","",""
"null","156412","SARL_v6","SARL_v64dpcwxlq","6294bdac3f1ed08e968e53bf","freq","","","img/blue_2bandit_b2.png","null","","70","test","0","","81","","","","circle","square","78","10","4","0.8205128205128205","","","","","","","",""
"null","156573","SARL_v6","SARL_v64dpcwxlq","6294bdac3f1ed08e968e53bf","fixation","","","img/fixation.png","null","","","test","","","","","","","","","","","","","","","","","","","",""
"null","157377","SARL_v6","SARL_v64dpcwxlq","6294bdac3f1ed08e968e53bf","freq","","","img/blue_2bandit_b2.png","null","","70","test","0","","82","","","","circle","square","79","11","4","0.810126582278481","","","","","","","",""
"null","157533","SARL_v6","SARL_v64dpcwxlq","6294bdac3f1ed08e968e53bf","fixation","","","img/fixation.png","null","","","test","","","","","","","","","","","","","","","","","","","",""
"721","158258","SARL_v6","SARL_v64dpcwxlq","6294bdac3f1ed08e968e53bf","infreq","","","img/orange_2bandit_b2.png","68","","68","test","1","","83","","","","circle","square","80","12","4","0.8125","","","","","","","",""
"null","158355","SARL_v6","SARL_v64dpcwxlq","6294bdac3f1ed08e968e53bf","infreq_resp","","","img/orange_2bandit_b.png","68","img/orange_2bandit_b.png","68","test","","","","","","","","","","","4","","","","","","","","",""
"null","158524","SARL_v6","SARL_v64dpcwxlq","6294bdac3f1ed08e968e53bf","fixation","","","img/fixation.png","null","","","test","","","","","","","","","","","","","","","","","","","",""
"462","158987","SARL_v6","SARL_v64dpcwxlq","6294bdac3f1ed08e968e53bf","freq","","","img/blue_2bandit_b2.png","70","","70","test","1","","84","","","","circle","square","81","13","4","0.8148148148148148","","","","","","","",""
"null","159331","SARL_v6","SARL_v64dpcwxlq","6294bdac3f1ed08e968e53bf","freq_resp","","","img/blue_2bandit_b.png","70","img/blue_2bandit_b.png","70","test","","","","","","","","","","","4","","","","","","","","",""
"null","159484","SARL_v6","SARL_v64dpcwxlq","6294bdac3f1ed08e968e53bf","fixation","","","img/fixation.png","null","","","test","","","","","","","","","","","","","","","","","","","",""
"386","159875","SARL_v6","SARL_v64dpcwxlq","6294bdac3f1ed08e968e53bf","freq","","","img/blue_2bandit_b2.png","70","","70","test","1","","85","","","","circle","square","82","14","4","0.8170731707317073","","","","","","","",""
"null","160307","SARL_v6","SARL_v64dpcwxlq","6294bdac3f1ed08e968e53bf","freq_resp","","","img/blue_2bandit_b.png","70","img/blue_2bandit_b.png","70","test","","","","","","","","","","","4","","","","","","","","",""
"null","160464","SARL_v6","SARL_v64dpcwxlq","6294bdac3f1ed08e968e53bf","fixation","","","img/fixation.png","null","","","test","","","","","","","","","","","","","","","","","","","",""
"447","160915","SARL_v6","SARL_v64dpcwxlq","6294bdac3f1ed08e968e53bf","freq","","","img/blue_2bandit_b2.png","70","","70","test","1","","86","","","","circle","square","83","15","4","0.8192771084337349","","","","","","","",""
"null","161287","SARL_v6","SARL_v64dpcwxlq","6294bdac3f1ed08e968e53bf","freq_resp","","","img/blue_2bandit_b.png","70","img/blue_2bandit_b.png","70","test","","","","","","","","","","","4","","","","","","","","",""
"null","161441","SARL_v6","SARL_v64dpcwxlq","6294bdac3f1ed08e968e53bf","fixation","","","img/fixation.png","null","","","test","","","","","","","","","","","","","","","","","","","",""
"379","161823","SARL_v6","SARL_v64dpcwxlq","6294bdac3f1ed08e968e53bf","freq","","","img/blue_2bandit_b2.png","70","","70","test","1","","87","","","","circle","square","84","16","4","0.8214285714285714","","","","","","","",""
"null","162253","SARL_v6","SARL_v64dpcwxlq","6294bdac3f1ed08e968e53bf","freq_resp","","","img/blue_2bandit_b.png","70","img/blue_2bandit_b.png","70","test","","","","","","","","","","","4","","","","","","","","",""
"null","162409","SARL_v6","SARL_v64dpcwxlq","6294bdac3f1ed08e968e53bf","fixation","","","img/fixation.png","null","","","test","","","","","","","","","","","","","","","","","","","",""
"403","162816","SARL_v6","SARL_v64dpcwxlq","6294bdac3f1ed08e968e53bf","freq","","","img/blue_2bandit_b2.png","70","","70","test","1","","88","","","","circle","square","85","17","4","0.8235294117647058","","","","","","","",""
"null","163221","SARL_v6","SARL_v64dpcwxlq","6294bdac3f1ed08e968e53bf","freq_resp","","","img/blue_2bandit_b.png","70","img/blue_2bandit_b.png","70","test","","","","","","","","","","","4","","","","","","","","",""
"null","163372","SARL_v6","SARL_v64dpcwxlq","6294bdac3f1ed08e968e53bf","fixation","","","img/fixation.png","null","","","test","","","","","","","","","","","","","","","","","","","",""
"380","163754","SARL_v6","SARL_v64dpcwxlq","6294bdac3f1ed08e968e53bf","freq","","","img/blue_2bandit_b2.png","70","","70","test","1","","89","","","","circle","square","86","18","4","0.8255813953488372","","","","","","","",""
"null","164181","SARL_v6","SARL_v64dpcwxlq","6294bdac3f1ed08e968e53bf","freq_resp","","","img/blue_2bandit_b.png","70","img/blue_2bandit_b.png","70","test","","","","","","","","","","","4","","","","","","","","",""
"null","164334","SARL_v6","SARL_v64dpcwxlq","6294bdac3f1ed08e968e53bf","fixation","","","img/fixation.png","null","","","test","","","","","","","","","","","","","","","","","","","",""
"240","164577","SARL_v6","SARL_v64dpcwxlq","6294bdac3f1ed08e968e53bf","freq","","","img/blue_2bandit_b2.png","70","","70","test","1","","90","","","","circle","square","87","19","4","0.8275862068965517","","","","","","","",""
"null","165146","SARL_v6","SARL_v64dpcwxlq","6294bdac3f1ed08e968e53bf","freq_resp","","","img/blue_2bandit_b.png","70","img/blue_2bandit_b.png","70","test","","","","","","","","","","","4","","","","","","","","",""
"null","165304","SARL_v6","SARL_v64dpcwxlq","6294bdac3f1ed08e968e53bf","fixation","","","img/fixation.png","null","","","test","","","","","","","","","","","","","","","","","","","",""
"181","165490","SARL_v6","SARL_v64dpcwxlq","6294bdac3f1ed08e968e53bf","freq","","","img/blue_2bandit_b2.png","70","","70","test","1","","91","","","","circle","square","88","20","4","0.8295454545454546","","","","","","","",""
"null","166127","SARL_v6","SARL_v64dpcwxlq","6294bdac3f1ed08e968e53bf","freq_resp","","","img/blue_2bandit_b.png","70","img/blue_2bandit_b.png","70","test","","","","","","","","","","","4","","","","","","","","",""
"null","166281","SARL_v6","SARL_v64dpcwxlq","6294bdac3f1ed08e968e53bf","fixation","","","img/fixation.png","null","","","test","","","","","","","","","","","","","","","","","","","",""
"143","166428","SARL_v6","SARL_v64dpcwxlq","6294bdac3f1ed08e968e53bf","freq","","","img/blue_2bandit_b2.png","70","","70","test","1","","92","","","","circle","square","89","21","4","0.8314606741573034","","","","","","","",""
"null","167093","SARL_v6","SARL_v64dpcwxlq","6294bdac3f1ed08e968e53bf","freq_resp","","","img/blue_2bandit_b.png","70","img/blue_2bandit_b.png","70","test","","","","","","","","","","","4","","","","","","","","",""
"null","167246","SARL_v6","SARL_v64dpcwxlq","6294bdac3f1ed08e968e53bf","fixation","","","img/fixation.png","null","","","test","","","","","","","","","","","","","","","","","","","",""
"170","167423","SARL_v6","SARL_v64dpcwxlq","6294bdac3f1ed08e968e53bf","freq","","","img/blue_2bandit_b2.png","70","","70","test","1","","93","","","","circle","square","90","22","4","0.8333333333333334","","","","","","","",""
"null","168073","SARL_v6","SARL_v64dpcwxlq","6294bdac3f1ed08e968e53bf","freq_resp","","","img/blue_2bandit_b.png","70","img/blue_2bandit_b.png","70","test","","","","","","","","","","","4","","","","","","","","",""
"null","168242","SARL_v6","SARL_v64dpcwxlq","6294bdac3f1ed08e968e53bf","fixation","","","img/fixation.png","null","","","test","","","","","","","","","","","","","","","","","","","",""
"156","168403","SARL_v6","SARL_v64dpcwxlq","6294bdac3f1ed08e968e53bf","freq","","","img/blue_2bandit_b2.png","70","","70","test","1","","94","","","","circle","square","91","23","4","0.8351648351648352","","","","","","","",""
"null","169065","SARL_v6","SARL_v64dpcwxlq","6294bdac3f1ed08e968e53bf","freq_resp","","","img/blue_2bandit_b.png","70","img/blue_2bandit_b.png","70","test","","","","","","","","","","","4","","","","","","","","",""
"null","169221","SARL_v6","SARL_v64dpcwxlq","6294bdac3f1ed08e968e53bf","fixation","","","img/fixation.png","null","","","test","","","","","","","","","","","","","","","","","","","",""
"120","169346","SARL_v6","SARL_v64dpcwxlq","6294bdac3f1ed08e968e53bf","freq","","","img/blue_2bandit_b2.png","70","","70","test","1","","95","","","","circle","square","92","24","4","0.8369565217391305","","","","","","","",""
"null","170039","SARL_v6","SARL_v64dpcwxlq","6294bdac3f1ed08e968e53bf","freq_resp","","","img/blue_2bandit_b.png","70","img/blue_2bandit_b.png","70","test","","","","","","","","","","","4","","","","","","","","",""
"null","170195","SARL_v6","SARL_v64dpcwxlq","6294bdac3f1ed08e968e53bf","fixation","","","img/fixation.png","null","","","test","","","","","","","","","","","","","","","","","","","",""
"141","170342","SARL_v6","SARL_v64dpcwxlq","6294bdac3f1ed08e968e53bf","freq","","","img/blue_2bandit_b2.png","70","","70","test","1","","96","","","","circle","square","93","25","4","0.8387096774193549","","","","","","","",""
"null","171009","SARL_v6","SARL_v64dpcwxlq","6294bdac3f1ed08e968e53bf","freq_resp","","","img/blue_2bandit_b.png","70","img/blue_2bandit_b.png","70","test","","","","","","","","","","","4","","","","","","","","",""
"null","171166","SARL_v6","SARL_v64dpcwxlq","6294bdac3f1ed08e968e53bf","fixation","","","img/fixation.png","null","","","test","","","","","","","","","","","","","","","","","","","",""
"560","171731","SARL_v6","SARL_v64dpcwxlq","6294bdac3f1ed08e968e53bf","rl","","","img/black_2bandit_b2.png","75","","0","test","","","97","","","0","circle","square","","0","4","","75","-12","0","-12","0","square","4","0"
"null","172487","SARL_v6","SARL_v64dpcwxlq","6294bdac3f1ed08e968e53bf","feedback","","","<div class=""verylowPoints_sq""> 0 </div>","null","","na","test","","","NaN","","","","","","","","4","","75","","","","","","4",""
"null","173294","SARL_v6","SARL_v64dpcwxlq","6294bdac3f1ed08e968e53bf","freq","","","img/blue_2bandit_b2.png","null","","70","test","0","","98","","","","circle","square","94","1","5","0.8297872340425532","","","","","","","",""
"null","173447","SARL_v6","SARL_v64dpcwxlq","6294bdac3f1ed08e968e53bf","fixation","","","img/fixation.png","null","","","test","","","","","","","","","","","","","","","","","","","",""
"547","173997","SARL_v6","SARL_v64dpcwxlq","6294bdac3f1ed08e968e53bf","infreq","","","img/orange_2bandit_b2.png","70","","68","test","0","","99","","","","circle","square","95","2","5","0.8210526315789474","","","","","","","",""
"null","174257","SARL_v6","SARL_v64dpcwxlq","6294bdac3f1ed08e968e53bf","infreq_resp","","","img/orange_2bandit_b.png","70","img/orange_2bandit_b.png","68","test","","","","","","","","","","","5","","","","","","","","",""
"null","174412","SARL_v6","SARL_v64dpcwxlq","6294bdac3f1ed08e968e53bf","fixation","","","img/fixation.png","null","","","test","","","","","","","","","","","","","","","","","","","",""
"588","175005","SARL_v6","SARL_v64dpcwxlq","6294bdac3f1ed08e968e53bf","freq","","","img/blue_2bandit_b2.png","70","","70","test","1","","100","","","","circle","square","96","3","5","0.8229166666666666","","","","","","","",""
"null","175236","SARL_v6","SARL_v64dpcwxlq","6294bdac3f1ed08e968e53bf","freq_resp","","","img/blue_2bandit_b.png","70","img/blue_2bandit_b.png","70","test","","","","","","","","","","","5","","","","","","","","",""
"null","175392","SARL_v6","SARL_v64dpcwxlq","6294bdac3f1ed08e968e53bf","fixation","","","img/fixation.png","null","","","test","","","","","","","","","","","","","","","","","","","",""
"346","175743","SARL_v6","SARL_v64dpcwxlq","6294bdac3f1ed08e968e53bf","freq","","","img/blue_2bandit_b2.png","70","","70","test","1","","101","","","","circle","square","97","4","5","0.8247422680412371","","","","","","","",""
"null","176211","SARL_v6","SARL_v64dpcwxlq","6294bdac3f1ed08e968e53bf","freq_resp","","","img/blue_2bandit_b.png","70","img/blue_2bandit_b.png","70","test","","","","","","","","","","","5","","","","","","","","",""
"null","176370","SARL_v6","SARL_v64dpcwxlq","6294bdac3f1ed08e968e53bf","fixation","","","img/fixation.png","null","","","test","","","","","","","","","","","","","","","","","","","",""
"156","176528","SARL_v6","SARL_v64dpcwxlq","6294bdac3f1ed08e968e53bf","freq","","","img/blue_2bandit_b2.png","70","","70","test","1","","102","","","","circle","square","98","5","5","0.826530612244898","","","","","","","",""
"null","177180","SARL_v6","SARL_v64dpcwxlq","6294bdac3f1ed08e968e53bf","freq_resp","","","img/blue_2bandit_b.png","70","img/blue_2bandit_b.png","70","test","","","","","","","","","","","5","","","","","","","","",""
"null","177341","SARL_v6","SARL_v64dpcwxlq","6294bdac3f1ed08e968e53bf","fixation","","","img/fixation.png","null","","","test","","","","","","","","","","","","","","","","","","","",""
"116","177460","SARL_v6","SARL_v64dpcwxlq","6294bdac3f1ed08e968e53bf","freq","","","img/blue_2bandit_b2.png","70","","70","test","1","","103","","","","circle","square","99","6","5","0.8282828282828283","","","","","","","",""
"null","178161","SARL_v6","SARL_v64dpcwxlq","6294bdac3f1ed08e968e53bf","freq_resp","","","img/blue_2bandit_b.png","70","img/blue_2bandit_b.png","70","test","","","","","","","","","","","5","","","","","","","","",""
"null","178315","SARL_v6","SARL_v64dpcwxlq","6294bdac3f1ed08e968e53bf","fixation","","","img/fixation.png","null","","","test","","","","","","","","","","","","","","","","","","","",""
"131","178451","SARL_v6","SARL_v64dpcwxlq","6294bdac3f1ed08e968e53bf","freq","","","img/blue_2bandit_b2.png","70","","70","test","1","","104","","","","circle","square","100","7","5","0.83","","","","","","","",""
"null","179127","SARL_v6","SARL_v64dpcwxlq","6294bdac3f1ed08e968e53bf","freq_resp","","","img/blue_2bandit_b.png","70","img/blue_2bandit_b.png","70","test","","","","","","","","","","","5","","","","","","","","",""
"null","179283","SARL_v6","SARL_v64dpcwxlq","6294bdac3f1ed08e968e53bf","fixation","","","img/fixation.png","null","","","test","","","","","","","","","","","","","","","","","","","",""
"373","179658","SARL_v6","SARL_v64dpcwxlq","6294bdac3f1ed08e968e53bf","freq","","","img/blue_2bandit_b2.png","70","","70","test","1","","105","","","","circle","square","101","8","5","0.8316831683168316","","","","","","","",""
"null","180091","SARL_v6","SARL_v64dpcwxlq","6294bdac3f1ed08e968e53bf","freq_resp","","","img/blue_2bandit_b.png","70","img/blue_2bandit_b.png","70","test","","","","","","","","","","","5","","","","","","","","",""
"null","180245","SARL_v6","SARL_v64dpcwxlq","6294bdac3f1ed08e968e53bf","fixation","","","img/fixation.png","null","","","test","","","","","","","","","","","","","","","","","","","",""
"474","180723","SARL_v6","SARL_v64dpcwxlq","6294bdac3f1ed08e968e53bf","freq","","","img/blue_2bandit_b2.png","70","","70","test","1","","106","","","","circle","square","102","9","5","0.8333333333333334","","","","","","","",""
"null","181055","SARL_v6","SARL_v64dpcwxlq","6294bdac3f1ed08e968e53bf","freq_resp","","","img/blue_2bandit_b.png","70","img/blue_2bandit_b.png","70","test","","","","","","","","","","","5","","","","","","","","",""
"null","181224","SARL_v6","SARL_v64dpcwxlq","6294bdac3f1ed08e968e53bf","fixation","","","img/fixation.png","null","","","test","","","","","","","","","","","","","","","","","","","",""
"170","181398","SARL_v6","SARL_v64dpcwxlq","6294bdac3f1ed08e968e53bf","freq","","","img/blue_2bandit_b2.png","70","","70","test","1","","107","","","","circle","square","103","10","5","0.8349514563106796","","","","","","","",""
"null","182034","SARL_v6","SARL_v64dpcwxlq","6294bdac3f1ed08e968e53bf","freq_resp","","","img/blue_2bandit_b.png","70","img/blue_2bandit_b.png","70","test","","","","","","","","","","","5","","","","","","","","",""
"null","182190","SARL_v6","SARL_v64dpcwxlq","6294bdac3f1ed08e968e53bf","fixation","","","img/fixation.png","null","","","test","","","","","","","","","","","","","","","","","","","",""
"302","182495","SARL_v6","SARL_v64dpcwxlq","6294bdac3f1ed08e968e53bf","freq","","","img/blue_2bandit_b2.png","70","","70","test","1","","108","","","","circle","square","104","11","5","0.8365384615384616","","","","","","","",""
"null","183012","SARL_v6","SARL_v64dpcwxlq","6294bdac3f1ed08e968e53bf","freq_resp","","","img/blue_2bandit_b.png","70","img/blue_2bandit_b.png","70","test","","","","","","","","","","","5","","","","","","","","",""
"null","183167","SARL_v6","SARL_v64dpcwxlq","6294bdac3f1ed08e968e53bf","fixation","","","img/fixation.png","null","","","test","","","","","","","","","","","","","","","","","","","",""
"576","183747","SARL_v6","SARL_v64dpcwxlq","6294bdac3f1ed08e968e53bf","infreq","","","img/orange_2bandit_b2.png","68","","68","test","1","","109","","","","circle","square","105","12","5","0.8380952380952381","","","","","","","",""
"null","183991","SARL_v6","SARL_v64dpcwxlq","6294bdac3f1ed08e968e53bf","infreq_resp","","","img/orange_2bandit_b.png","68","img/orange_2bandit_b.png","68","test","","","","","","","","","","","5","","","","","","","","",""
"null","184145","SARL_v6","SARL_v64dpcwxlq","6294bdac3f1ed08e968e53bf","fixation","","","img/fixation.png","null","","","test","","","","","","","","","","","","","","","","","","","",""
"380","184527","SARL_v6","SARL_v64dpcwxlq","6294bdac3f1ed08e968e53bf","freq","","","img/blue_2bandit_b2.png","70","","70","test","1","","110","","","","circle","square","106","13","5","0.839622641509434","","","","","","","",""
"null","184956","SARL_v6","SARL_v64dpcwxlq","6294bdac3f1ed08e968e53bf","freq_resp","","","img/blue_2bandit_b.png","70","img/blue_2bandit_b.png","70","test","","","","","","","","","","","5","","","","","","","","",""
"null","185111","SARL_v6","SARL_v64dpcwxlq","6294bdac3f1ed08e968e53bf","fixation","","","img/fixation.png","null","","","test","","","","","","","","","","","","","","","","","","","",""
"336","185448","SARL_v6","SARL_v64dpcwxlq","6294bdac3f1ed08e968e53bf","freq","","","img/blue_2bandit_b2.png","70","","70","test","1","","111","","","","circle","square","107","14","5","0.8411214953271028","","","","","","","",""
"null","185923","SARL_v6","SARL_v64dpcwxlq","6294bdac3f1ed08e968e53bf","freq_resp","","","img/blue_2bandit_b.png","70","img/blue_2bandit_b.png","70","test","","","","","","","","","","","5","","","","","","","","",""
"null","186090","SARL_v6","SARL_v64dpcwxlq","6294bdac3f1ed08e968e53bf","fixation","","","img/fixation.png","null","","","test","","","","","","","","","","","","","","","","","","","",""
"244","186340","SARL_v6","SARL_v64dpcwxlq","6294bdac3f1ed08e968e53bf","freq","","","img/blue_2bandit_b2.png","70","","70","test","1","","112","","","","circle","square","108","15","5","0.8425925925925926","","","","","","","",""
"null","186915","SARL_v6","SARL_v64dpcwxlq","6294bdac3f1ed08e968e53bf","freq_resp","","","img/blue_2bandit_b.png","70","img/blue_2bandit_b.png","70","test","","","","","","","","","","","5","","","","","","","","",""
"null","187071","SARL_v6","SARL_v64dpcwxlq","6294bdac3f1ed08e968e53bf","fixation","","","img/fixation.png","null","","","test","","","","","","","","","","","","","","","","","","","",""
"51","187124","SARL_v6","SARL_v64dpcwxlq","6294bdac3f1ed08e968e53bf","freq","","","img/blue_2bandit_b2.png","70","","70","test","1","","113","","","","circle","square","109","16","5","0.8440366972477065","","","","","","","",""
"null","187890","SARL_v6","SARL_v64dpcwxlq","6294bdac3f1ed08e968e53bf","freq_resp","","","img/blue_2bandit_b.png","70","img/blue_2bandit_b.png","70","test","","","","","","","","","","","5","","","","","","","","",""
"null","188047","SARL_v6","SARL_v64dpcwxlq","6294bdac3f1ed08e968e53bf","fixation","","","img/fixation.png","null","","","test","","","","","","","","","","","","","","","","","","","",""
"370","188420","SARL_v6","SARL_v64dpcwxlq","6294bdac3f1ed08e968e53bf","freq","","","img/blue_2bandit_b2.png","70","","70","test","1","","114","","","","circle","square","110","17","5","0.8454545454545455","","","","","","","",""
"null","188859","SARL_v6","SARL_v64dpcwxlq","6294bdac3f1ed08e968e53bf","freq_resp","","","img/blue_2bandit_b.png","70","img/blue_2bandit_b.png","70","test","","","","","","","","","","","5","","","","","","","","",""
"null","189014","SARL_v6","SARL_v64dpcwxlq","6294bdac3f1ed08e968e53bf","fixation","","","img/fixation.png","null","","","test","","","","","","","","","","","","","","","","","","","",""
"336","189353","SARL_v6","SARL_v64dpcwxlq","6294bdac3f1ed08e968e53bf","freq","","","img/blue_2bandit_b2.png","70","","70","test","1","","115","","","","circle","square","111","18","5","0.8468468468468469","","","","","","","",""
"null","189827","SARL_v6","SARL_v64dpcwxlq","6294bdac3f1ed08e968e53bf","freq_resp","","","img/blue_2bandit_b.png","70","img/blue_2bandit_b.png","70","test","","","","","","","","","","","5","","","","","","","","",""
"null","189984","SARL_v6","SARL_v64dpcwxlq","6294bdac3f1ed08e968e53bf","fixation","","","img/fixation.png","null","","","test","","","","","","","","","","","","","","","","","","","",""
"309","190297","SARL_v6","SARL_v64dpcwxlq","6294bdac3f1ed08e968e53bf","freq","","","img/blue_2bandit_b2.png","70","","70","test","1","","116","","","","circle","square","112","19","5","0.8482142857142857","","","","","","","",""
"null","190794","SARL_v6","SARL_v64dpcwxlq","6294bdac3f1ed08e968e53bf","freq_resp","","","img/blue_2bandit_b.png","70","img/blue_2bandit_b.png","70","test","","","","","","","","","","","5","","","","","","","","",""
"null","190952","SARL_v6","SARL_v64dpcwxlq","6294bdac3f1ed08e968e53bf","fixation","","","img/fixation.png","null","","","test","","","","","","","","","","","","","","","","","","","",""
"326","191282","SARL_v6","SARL_v64dpcwxlq","6294bdac3f1ed08e968e53bf","freq","","","img/blue_2bandit_b2.png","70","","70","test","1","","117","","","","circle","square","113","20","5","0.8495575221238938","","","","","","","",""
"null","191773","SARL_v6","SARL_v64dpcwxlq","6294bdac3f1ed08e968e53bf","freq_resp","","","img/blue_2bandit_b.png","70","img/blue_2bandit_b.png","70","test","","","","","","","","","","","5","","","","","","","","",""
"null","191933","SARL_v6","SARL_v64dpcwxlq","6294bdac3f1ed08e968e53bf","fixation","","","img/fixation.png","null","","","test","","","","","","","","","","","","","","","","","","","",""
"277","192213","SARL_v6","SARL_v64dpcwxlq","6294bdac3f1ed08e968e53bf","freq","","","img/blue_2bandit_b2.png","70","","70","test","1","","118","","","","circle","square","114","21","5","0.8508771929824561","","","","","","","",""
"null","192743","SARL_v6","SARL_v64dpcwxlq","6294bdac3f1ed08e968e53bf","freq_resp","","","img/blue_2bandit_b.png","70","img/blue_2bandit_b.png","70","test","","","","","","","","","","","5","","","","","","","","",""
"null","192899","SARL_v6","SARL_v64dpcwxlq","6294bdac3f1ed08e968e53bf","fixation","","","img/fixation.png","null","","","test","","","","","","","","","","","","","","","","","","","",""
"1221","194124","SARL_v6","SARL_v64dpcwxlq","6294bdac3f1ed08e968e53bf","rl","","","img/black_2bandit_b2.png","75","","0","test","","","119","","","4","circle","square","","0","5","","75","-7","4","-7","4","square","5","0"
"null","194892","SARL_v6","SARL_v64dpcwxlq","6294bdac3f1ed08e968e53bf","feedback","","","<div class=""veryhighPoints_sq""> 4 </div>","null","","na","test","","","NaN","","","","","","","","5","","75","","","","","","5",""
"null","195704","SARL_v6","SARL_v64dpcwxlq","6294bdac3f1ed08e968e53bf","freq","","","img/blue_2bandit_b2.png","null","","70","test","0","","120","","","","circle","square","115","1","6","0.8434782608695652","","","","","","","",""
"null","195857","SARL_v6","SARL_v64dpcwxlq","6294bdac3f1ed08e968e53bf","fixation","","","img/fixation.png","null","","","test","","","","","","","","","","","","","","","","","","","",""
"null","196667","SARL_v6","SARL_v64dpcwxlq","6294bdac3f1ed08e968e53bf","freq","","","img/blue_2bandit_b2.png","null","","70","test","0","","121","","","","circle","square","116","2","6","0.8362068965517241","","","","","","","",""
"null","196837","SARL_v6","SARL_v64dpcwxlq","6294bdac3f1ed08e968e53bf","fixation","","","img/fixation.png","null","","","test","","","","","","","","","","","","","","","","","","","",""
"471","197314","SARL_v6","SARL_v64dpcwxlq","6294bdac3f1ed08e968e53bf","freq","","","img/blue_2bandit_b2.png","70","","70","test","1","","122","","","","circle","square","117","3","6","0.8376068376068376","","","","","","","",""
"null","197648","SARL_v6","SARL_v64dpcwxlq","6294bdac3f1ed08e968e53bf","freq_resp","","","img/blue_2bandit_b.png","70","img/blue_2bandit_b.png","70","test","","","","","","","","","","","6","","","","","","","","",""
"null","197803","SARL_v6","SARL_v64dpcwxlq","6294bdac3f1ed08e968e53bf","fixation","","","img/fixation.png","null","","","test","","","","","","","","","","","","","","","","","","","",""
"158","197964","SARL_v6","SARL_v64dpcwxlq","6294bdac3f1ed08e968e53bf","freq","","","img/blue_2bandit_b2.png","70","","70","test","1","","123","","","","circle","square","118","4","6","0.8389830508474576","","","","","","","",""
"null","198615","SARL_v6","SARL_v64dpcwxlq","6294bdac3f1ed08e968e53bf","freq_resp","","","img/blue_2bandit_b.png","70","img/blue_2bandit_b.png","70","test","","","","","","","","","","","6","","","","","","","","",""
"null","198773","SARL_v6","SARL_v64dpcwxlq","6294bdac3f1ed08e968e53bf","fixation","","","img/fixation.png","null","","","test","","","","","","","","","","","","","","","","","","","",""
"null","199579","SARL_v6","SARL_v64dpcwxlq","6294bdac3f1ed08e968e53bf","freq","","","img/blue_2bandit_b2.png","null","","70","test","0","","124","","","","circle","square","119","5","6","0.8319327731092437","","","","","","","",""
"null","199734","SARL_v6","SARL_v64dpcwxlq","6294bdac3f1ed08e968e53bf","fixation","","","img/fixation.png","null","","","test","","","","","","","","","","","","","","","","","","","",""
"743","200482","SARL_v6","SARL_v64dpcwxlq","6294bdac3f1ed08e968e53bf","freq","","","img/blue_2bandit_b2.png","70","","70","test","1","","125","","","","circle","square","120","6","6","0.8333333333333334","","","","","","","",""
"null","200543","SARL_v6","SARL_v64dpcwxlq","6294bdac3f1ed08e968e53bf","freq_resp","","","img/blue_2bandit_b.png","70","img/blue_2bandit_b.png","70","test","","","","","","","","","","","6","","","","","","","","",""
"null","200702","SARL_v6","SARL_v64dpcwxlq","6294bdac3f1ed08e968e53bf","fixation","","","img/fixation.png","null","","","test","","","","","","","","","","","","","","","","","","","",""
"438","201144","SARL_v6","SARL_v64dpcwxlq","6294bdac3f1ed08e968e53bf","freq","","","img/blue_2bandit_b2.png","70","","70","test","1","","126","","","","circle","square","121","7","6","0.8347107438016529","","","","","","","",""
"null","201524","SARL_v6","SARL_v64dpcwxlq","6294bdac3f1ed08e968e53bf","freq_resp","","","img/blue_2bandit_b.png","70","img/blue_2bandit_b.png","70","test","","","","","","","","","","","6","","","","","","","","",""
"null","201691","SARL_v6","SARL_v64dpcwxlq","6294bdac3f1ed08e968e53bf","fixation","","","img/fixation.png","null","","","test","","","","","","","","","","","","","","","","","","","",""
"225","201919","SARL_v6","SARL_v64dpcwxlq","6294bdac3f1ed08e968e53bf","freq","","","img/blue_2bandit_b2.png","70","","70","test","1","","127","","","","circle","square","122","8","6","0.8360655737704918","","","","","","","",""
"null","202503","SARL_v6","SARL_v64dpcwxlq","6294bdac3f1ed08e968e53bf","freq_resp","","","img/blue_2bandit_b.png","70","img/blue_2bandit_b.png","70","test","","","","","","","","","","","6","","","","","","","","",""
"null","202656","SARL_v6","SARL_v64dpcwxlq","6294bdac3f1ed08e968e53bf","fixation","","","img/fixation.png","null","","","test","","","","","","","","","","","","","","","","","","","",""
"null","204179","SARL_v6","SARL_v64dpcwxlq","6294bdac3f1ed08e968e53bf","freq","","","img/blue_2bandit_b2.png","null","","70","test","0","","128","","","","circle","square","123","9","6","0.8292682926829268","","","","","","","",""
"null","204333","SARL_v6","SARL_v64dpcwxlq","6294bdac3f1ed08e968e53bf","fixation","","","img/fixation.png","null","","","test","","","","","","","","","","","","","","","","","","","",""
"295","204632","SARL_v6","SARL_v64dpcwxlq","6294bdac3f1ed08e968e53bf","freq","","","img/blue_2bandit_b2.png","70","","70","test","1","","129","","","","circle","square","124","10","6","0.8306451612903226","","","","","","","",""
"null","205144","SARL_v6","SARL_v64dpcwxlq","6294bdac3f1ed08e968e53bf","freq_resp","","","img/blue_2bandit_b.png","70","img/blue_2bandit_b.png","70","test","","","","","","","","","","","6","","","","","","","","",""
"null","205300","SARL_v6","SARL_v64dpcwxlq","6294bdac3f1ed08e968e53bf","fixation","","","img/fixation.png","null","","","test","","","","","","","","","","","","","","","","","","","",""
"198","205501","SARL_v6","SARL_v64dpcwxlq","6294bdac3f1ed08e968e53bf","freq","","","img/blue_2bandit_b2.png","70","","70","test","1","","130","","","","circle","square","125","11","6","0.832","","","","","","","",""
"null","206108","SARL_v6","SARL_v64dpcwxlq","6294bdac3f1ed08e968e53bf","freq_resp","","","img/blue_2bandit_b.png","70","img/blue_2bandit_b.png","70","test","","","","","","","","","","","6","","","","","","","","",""
"null","206262","SARL_v6","SARL_v64dpcwxlq","6294bdac3f1ed08e968e53bf","fixation","","","img/fixation.png","null","","","test","","","","","","","","","","","","","","","","","","","",""
"172","206439","SARL_v6","SARL_v64dpcwxlq","6294bdac3f1ed08e968e53bf","freq","","","img/blue_2bandit_b2.png","70","","70","test","1","","131","","","","circle","square","126","12","6","0.8333333333333334","","","","","","","",""
"null","207083","SARL_v6","SARL_v64dpcwxlq","6294bdac3f1ed08e968e53bf","freq_resp","","","img/blue_2bandit_b.png","70","img/blue_2bandit_b.png","70","test","","","","","","","","","","","6","","","","","","","","",""
"null","207236","SARL_v6","SARL_v64dpcwxlq","6294bdac3f1ed08e968e53bf","fixation","","","img/fixation.png","null","","","test","","","","","","","","","","","","","","","","","","","",""
"102","207339","SARL_v6","SARL_v64dpcwxlq","6294bdac3f1ed08e968e53bf","infreq","","","img/orange_2bandit_b2.png","70","","68","test","0","","132","","","","circle","square","127","13","6","0.8267716535433071","","","","","","","",""
"null","208048","SARL_v6","SARL_v64dpcwxlq","6294bdac3f1ed08e968e53bf","infreq_resp","","","img/orange_2bandit_b.png","70","img/orange_2bandit_b.png","68","test","","","","","","","","","","","6","","","","","","","","",""
"null","208206","SARL_v6","SARL_v64dpcwxlq","6294bdac3f1ed08e968e53bf","fixation","","","img/fixation.png","null","","","test","","","","","","","","","","","","","","","","","","","",""
"100","208310","SARL_v6","SARL_v64dpcwxlq","6294bdac3f1ed08e968e53bf","freq","","","img/blue_2bandit_b2.png","70","","70","test","1","","133","","","","circle","square","128","14","6","0.828125","","","","","","","",""
"null","209016","SARL_v6","SARL_v64dpcwxlq","6294bdac3f1ed08e968e53bf","freq_resp","","","img/blue_2bandit_b.png","70","img/blue_2bandit_b.png","70","test","","","","","","","","","","","6","","","","","","","","",""
"null","209173","SARL_v6","SARL_v64dpcwxlq","6294bdac3f1ed08e968e53bf","fixation","","","img/fixation.png","null","","","test","","","","","","","","","","","","","","","","","","","",""
"378","209556","SARL_v6","SARL_v64dpcwxlq","6294bdac3f1ed08e968e53bf","freq","","","img/blue_2bandit_b2.png","70","","70","test","1","","134","","","","circle","square","129","15","6","0.8294573643410853","","","","","","","",""
"null","209998","SARL_v6","SARL_v64dpcwxlq","6294bdac3f1ed08e968e53bf","freq_resp","","","img/blue_2bandit_b.png","70","img/blue_2bandit_b.png","70","test","","","","","","","","","","","6","","","","","","","","",""
"null","210155","SARL_v6","SARL_v64dpcwxlq","6294bdac3f1ed08e968e53bf","fixation","","","img/fixation.png","null","","","test","","","","","","","","","","","","","","","","","","","",""
"358","210518","SARL_v6","SARL_v64dpcwxlq","6294bdac3f1ed08e968e53bf","infreq","","","img/orange_2bandit_b2.png","70","","68","test","0","","135","","","","circle","square","130","16","6","0.823076923076923","","","","","","","",""
"null","210980","SARL_v6","SARL_v64dpcwxlq","6294bdac3f1ed08e968e53bf","infreq_resp","","","img/orange_2bandit_b.png","70","img/orange_2bandit_b.png","68","test","","","","","","","","","","","6","","","","","","","","",""
"null","211134","SARL_v6","SARL_v64dpcwxlq","6294bdac3f1ed08e968e53bf","fixation","","","img/fixation.png","null","","","test","","","","","","","","","","","","","","","","","","","",""
"394","211532","SARL_v6","SARL_v64dpcwxlq","6294bdac3f1ed08e968e53bf","freq","","","img/blue_2bandit_b2.png","70","","70","test","1","","136","","","","circle","square","131","17","6","0.8244274809160306","","","","","","","",""
"null","211943","SARL_v6","SARL_v64dpcwxlq","6294bdac3f1ed08e968e53bf","freq_resp","","","img/blue_2bandit_b.png","70","img/blue_2bandit_b.png","70","test","","","","","","","","","","","6","","","","","","","","",""
"null","212100","SARL_v6","SARL_v64dpcwxlq","6294bdac3f1ed08e968e53bf","fixation","","","img/fixation.png","null","","","test","","","","","","","","","","","","","","","","","","","",""
"415","212517","SARL_v6","SARL_v64dpcwxlq","6294bdac3f1ed08e968e53bf","freq","","","img/blue_2bandit_b2.png","70","","70","test","1","","137","","","","circle","square","132","18","6","0.8257575757575758","","","","","","","",""
"null","212909","SARL_v6","SARL_v64dpcwxlq","6294bdac3f1ed08e968e53bf","freq_resp","","","img/blue_2bandit_b.png","70","img/blue_2bandit_b.png","70","test","","","","","","","","","","","6","","","","","","","","",""
"null","213065","SARL_v6","SARL_v64dpcwxlq","6294bdac3f1ed08e968e53bf","fixation","","","img/fixation.png","null","","","test","","","","","","","","","","","","","","","","","","","",""
