"rt","time_elapsed","expId","subject","prolificID","trialType","rlType","attType","stimulus","key_press","stim","corrresp","phase","corr","pracCounter","trialNum","rewardOne","rewardTwo","reward","bandOne","bandTwo","attentionNum","attentionRunNum","blockNum","performance","bandChosen","circleVal","squareVal","bandOneVal","bandTwoVal","shapeChosen","rlNum","badFlag"
"17708","17730","SARL_v6","SARL_v6xabxw577","62bd2a704c56e669cce7ce56","","","","","","","","","","","","","","","","","","","","","","","","","","","",""
"","19743","SARL_v6","SARL_v6xabxw577","62bd2a704c56e669cce7ce56","fullscreen","fullscreen","fullscreen","","","","","","","","","","","","","","","","","","","","","","","","",""
"117751","137503","SARL_v6","SARL_v6xabxw577","62bd2a704c56e669cce7ce56","","","","","","","","","","","","","","","","","","","","","","","","","","","",""
"null","138312","SARL_v6","SARL_v6xabxw577","62bd2a704c56e669cce7ce56","freqPrac","","","img/orange_2bandit_b2.png","null","img/orange_2bandit_b2.png","70","prac","0","1","","","","","","","","","","","","","","","","","",""
"null","139322","SARL_v6","SARL_v6xabxw577","62bd2a704c56e669cce7ce56","feedback","","","img/tooSlow.png","null","","na","prac","","","","","","","","","","","","","","","","","","","",""
"null","139478","SARL_v6","SARL_v6xabxw577","62bd2a704c56e669cce7ce56","fixation","","","img/fixation.png","null","","","prac","","","","","","","","","","","","","","","","","","","",""
"null","140281","SARL_v6","SARL_v6xabxw577","62bd2a704c56e669cce7ce56","infreqPrac","","","img/blue_2bandit_b2.png","null","img/blue_2bandit_b2.png","68","prac","0","2","","","","","","","","","","","","","","","","","",""
"null","141287","SARL_v6","SARL_v6xabxw577","62bd2a704c56e669cce7ce56","feedback","","","img/tooSlow.png","null","","na","prac","","","","","","","","","","","","","","","","","","","",""
"null","141443","SARL_v6","SARL_v6xabxw577","62bd2a704c56e669cce7ce56","fixation","","","img/fixation.png","null","","","prac","","","","","","","","","","","","","","","","","","","",""
"409","141858","SARL_v6","SARL_v6xabxw577","62bd2a704c56e669cce7ce56","freqPrac","","","img/orange_2bandit_b2.png","70","img/orange_2bandit_b2.png","70","prac","1","2","","","","","","","","","","","","","","","","","",""
"409","142256","SARL_v6","SARL_v6xabxw577","62bd2a704c56e669cce7ce56","freqPrac_resp","","","img/orange_2bandit_b.png","70","img/orange_2bandit_b.png","70","prac","","","","","","","","","","","","","","","","","","","",""
"130","142412","SARL_v6","SARL_v6xabxw577","62bd2a704c56e669cce7ce56","fixation","","","img/fixation.png","70","","","prac","","","","","","","","","","","","","","","","","","","",""
"359","142779","SARL_v6","SARL_v6xabxw577","62bd2a704c56e669cce7ce56","infreqPrac","","","img/blue_2bandit_b2.png","68","img/blue_2bandit_b2.png","68","prac","1","2","","","","","","","","","","","","","","","","","",""
"359","143226","SARL_v6","SARL_v6xabxw577","62bd2a704c56e669cce7ce56","infreqPrac_resp","","","img/blue_2bandit_b.png","68","img/blue_2bandit_b.png","68","prac","","","","","","","","","","","","","","","","","","","",""
"58","143382","SARL_v6","SARL_v6xabxw577","62bd2a704c56e669cce7ce56","fixation","","","img/fixation.png","68","","","prac","","","","","","","","","","","","","","","","","","","",""
"323","143712","SARL_v6","SARL_v6xabxw577","62bd2a704c56e669cce7ce56","infreqPrac","","","img/blue_2bandit_b2.png","68","img/blue_2bandit_b2.png","68","prac","1","2","","","","","","","","","","","","","","","","","",""
"323","144192","SARL_v6","SARL_v6xabxw577","62bd2a704c56e669cce7ce56","infreqPrac_resp","","","img/blue_2bandit_b.png","68","img/blue_2bandit_b.png","68","prac","","","","","","","","","","","","","","","","","","","",""
"null","144347","SARL_v6","SARL_v6xabxw577","62bd2a704c56e669cce7ce56","fixation","","","img/fixation.png","null","","","prac","","","","","","","","","","","","","","","","","","","",""
"314","144667","SARL_v6","SARL_v6xabxw577","62bd2a704c56e669cce7ce56","infreqPrac","","","img/blue_2bandit_b2.png","68","img/blue_2bandit_b2.png","68","prac","1","2","","","","","","","","","","","","","","","","","",""
"314","145158","SARL_v6","SARL_v6xabxw577","62bd2a704c56e669cce7ce56","infreqPrac_resp","","","img/blue_2bandit_b.png","68","img/blue_2bandit_b.png","68","prac","","","","","","","","","","","","","","","","","","","",""
"null","145315","SARL_v6","SARL_v6xabxw577","62bd2a704c56e669cce7ce56","fixation","","","img/fixation.png","null","","","prac","","","","","","","","","","","","","","","","","","","",""
"428","145749","SARL_v6","SARL_v6xabxw577","62bd2a704c56e669cce7ce56","freqPrac","","","img/orange_2bandit_b2.png","70","img/orange_2bandit_b2.png","70","prac","1","2","","","","","","","","","","","","","","","","","",""
"428","146126","SARL_v6","SARL_v6xabxw577","62bd2a704c56e669cce7ce56","freqPrac_resp","","","img/orange_2bandit_b.png","70","img/orange_2bandit_b.png","70","prac","","","","","","","","","","","","","","","","","","","",""
"null","146281","SARL_v6","SARL_v6xabxw577","62bd2a704c56e669cce7ce56","fixation","","","img/fixation.png","null","","","prac","","","","","","","","","","","","","","","","","","","",""
"413","146699","SARL_v6","SARL_v6xabxw577","62bd2a704c56e669cce7ce56","infreqPrac","","","img/blue_2bandit_b2.png","68","img/blue_2bandit_b2.png","68","prac","1","2","","","","","","","","","","","","","","","","","",""
"413","147092","SARL_v6","SARL_v6xabxw577","62bd2a704c56e669cce7ce56","infreqPrac_resp","","","img/blue_2bandit_b.png","68","img/blue_2bandit_b.png","68","prac","","","","","","","","","","","","","","","","","","","",""
"null","147249","SARL_v6","SARL_v6xabxw577","62bd2a704c56e669cce7ce56","fixation","","","img/fixation.png","null","","","prac","","","","","","","","","","","","","","","","","","","",""
"398","147653","SARL_v6","SARL_v6xabxw577","62bd2a704c56e669cce7ce56","freqPrac","","","img/orange_2bandit_b2.png","70","img/orange_2bandit_b2.png","70","prac","1","2","","","","","","","","","","","","","","","","","",""
"398","148060","SARL_v6","SARL_v6xabxw577","62bd2a704c56e669cce7ce56","freqPrac_resp","","","img/orange_2bandit_b.png","70","img/orange_2bandit_b.png","70","prac","","","","","","","","","","","","","","","","","","","",""
"null","148214","SARL_v6","SARL_v6xabxw577","62bd2a704c56e669cce7ce56","fixation","","","img/fixation.png","null","","","prac","","","","","","","","","","","","","","","","","","","",""
"400","148619","SARL_v6","SARL_v6xabxw577","62bd2a704c56e669cce7ce56","freqPrac","","","img/orange_2bandit_b2.png","70","img/orange_2bandit_b2.png","70","prac","1","2","","","","","","","","","","","","","","","","","",""
"400","149024","SARL_v6","SARL_v6xabxw577","62bd2a704c56e669cce7ce56","freqPrac_resp","","","img/orange_2bandit_b.png","70","img/orange_2bandit_b.png","70","prac","","","","","","","","","","","","","","","","","","","",""
"null","149180","SARL_v6","SARL_v6xabxw577","62bd2a704c56e669cce7ce56","fixation","","","img/fixation.png","null","","","prac","","","","","","","","","","","","","","","","","","","",""
"38195","187380","SARL_v6","SARL_v6xabxw577","62bd2a704c56e669cce7ce56","","","","","","","","prac","","","","","","","","","","","","","","","","","","","",""
"872","188259","SARL_v6","SARL_v6xabxw577","62bd2a704c56e669cce7ce56","rlPractice","","","img/black_2bandit_b2.png","75","img/black_2bandit_b2.png","","prac","","","0","","","","","","","","","","","","","","","","",""
"null","189016","SARL_v6","SARL_v6xabxw577","62bd2a704c56e669cce7ce56","feedback","","","<div class=""verylowPoints_sq""> -14 </div>","null","","na","prac","","","1","10","-14","10","","","","","","","","","","","","","",""
"null","189172","SARL_v6","SARL_v6xabxw577","62bd2a704c56e669cce7ce56","fixation","","","img/fixation.png","null","","","prac","","","","","","","","","","","","","","","","","","","",""
"269","189446","SARL_v6","SARL_v6xabxw577","62bd2a704c56e669cce7ce56","rlPractice","","","img/black_2bandit_b2.png","74","img/black_2bandit_b2.png","","prac","","","1","","","","","","","","","","","","","","","","",""
"null","190201","SARL_v6","SARL_v6xabxw577","62bd2a704c56e669cce7ce56","feedback","","","<div class=""veryhighPoints""> 5 </div>","null","","na","prac","","","2","5","-5","5","","","","","","","","","","","","","",""
"null","190356","SARL_v6","SARL_v6xabxw577","62bd2a704c56e669cce7ce56","fixation","","","img/fixation.png","null","","","prac","","","","","","","","","","","","","","","","","","","",""
"755","191117","SARL_v6","SARL_v6xabxw577","62bd2a704c56e669cce7ce56","rlPractice","","","img/black_2bandit_b2.png","74","img/black_2bandit_b2.png","","prac","","","2","","","","","","","","","","","","","","","","",""
"null","191871","SARL_v6","SARL_v6xabxw577","62bd2a704c56e669cce7ce56","feedback","","","<div class=""veryhighPoints""> 30 </div>","null","","na","prac","","","3","30","2","30","","","","","","","","","","","","","",""
"null","192026","SARL_v6","SARL_v6xabxw577","62bd2a704c56e669cce7ce56","fixation","","","img/fixation.png","null","","","prac","","","","","","","","","","","","","","","","","","","",""
"481","192514","SARL_v6","SARL_v6xabxw577","62bd2a704c56e669cce7ce56","rlPractice","","","img/black_2bandit_b2.png","75","img/black_2bandit_b2.png","","prac","","","3","","","","","","","","","","","","","","","","",""
"null","193269","SARL_v6","SARL_v6xabxw577","62bd2a704c56e669cce7ce56","feedback","","","<div class=""veryhighPoints_sq""> 20 </div>","null","","na","prac","","","4","-2","20","-2","","","","","","","","","","","","","",""
"null","193424","SARL_v6","SARL_v6xabxw577","62bd2a704c56e669cce7ce56","fixation","","","img/fixation.png","null","","","prac","","","","","","","","","","","","","","","","","","","",""
"18827","212256","SARL_v6","SARL_v6xabxw577","62bd2a704c56e669cce7ce56","","","","","","","","prac","","","","","","","","","","","","","","","","","","","",""
"436","212699","SARL_v6","SARL_v6xabxw577","62bd2a704c56e669cce7ce56","mixAttFreqPrac","","","img/orange_2bandit_b2.png","70","img/orange_2bandit_b2.png","70","prac","","","1","","","","","","","","","","","","","","","","",""
"436","213069","SARL_v6","SARL_v6xabxw577","62bd2a704c56e669cce7ce56","freqPrac_resp","","","img/orange_2bandit_b.png","70","img/orange_2bandit_b.png","70","prac","","","1","","","","","","","","","","","","","","","","",""
"null","213225","SARL_v6","SARL_v6xabxw577","62bd2a704c56e669cce7ce56","fixation","","","img/fixation.png","null","","","prac","","","","","","","","","","","","","","","","","","","",""
"427","213658","SARL_v6","SARL_v6xabxw577","62bd2a704c56e669cce7ce56","mixAttInfreqPrac","","","img/blue_2bandit_b2.png","68","img/blue_2bandit_b2.png","68","prac","","","2","","","","","","","","","","","","","","","","",""
"427","214036","SARL_v6","SARL_v6xabxw577","62bd2a704c56e669cce7ce56","infreqPrac_resp","","","img/blue_2bandit_b.png","68","img/orange_2bandit_b.png","68","prac","","","2","","","","","","","","","","","","","","","","",""
"null","214191","SARL_v6","SARL_v6xabxw577","62bd2a704c56e669cce7ce56","fixation","","","img/fixation.png","null","","","prac","","","","","","","","","","","","","","","","","","","",""
"339","214535","SARL_v6","SARL_v6xabxw577","62bd2a704c56e669cce7ce56","mixAttInfreqPrac","","","img/blue_2bandit_b2.png","68","img/blue_2bandit_b2.png","68","prac","","","3","","","","","","","","","","","","","","","","",""
"339","215002","SARL_v6","SARL_v6xabxw577","62bd2a704c56e669cce7ce56","infreqPrac_resp","","","img/blue_2bandit_b.png","68","img/orange_2bandit_b.png","68","prac","","","3","","","","","","","","","","","","","","","","",""
"null","215156","SARL_v6","SARL_v6xabxw577","62bd2a704c56e669cce7ce56","fixation","","","img/fixation.png","null","","","prac","","","","","","","","","","","","","","","","","","","",""
"303","215465","SARL_v6","SARL_v6xabxw577","62bd2a704c56e669cce7ce56","mixAttInfreqPrac","","","img/blue_2bandit_b2.png","68","img/blue_2bandit_b2.png","68","prac","","","4","","","","","","","","","","","","","","","","",""
"303","215967","SARL_v6","SARL_v6xabxw577","62bd2a704c56e669cce7ce56","infreqPrac_resp","","","img/blue_2bandit_b.png","68","img/orange_2bandit_b.png","68","prac","","","4","","","","","","","","","","","","","","","","",""
"null","216123","SARL_v6","SARL_v6xabxw577","62bd2a704c56e669cce7ce56","fixation","","","img/fixation.png","null","","","prac","","","","","","","","","","","","","","","","","","","",""
"396","216524","SARL_v6","SARL_v6xabxw577","62bd2a704c56e669cce7ce56","mixAttFreqPrac","","","img/orange_2bandit_b2.png","70","img/orange_2bandit_b2.png","70","prac","","","5","","","","","","","","","","","","","","","","",""
"396","216934","SARL_v6","SARL_v6xabxw577","62bd2a704c56e669cce7ce56","freqPrac_resp","","","img/orange_2bandit_b.png","70","img/orange_2bandit_b.png","70","prac","","","5","","","","","","","","","","","","","","","","",""
"null","217090","SARL_v6","SARL_v6xabxw577","62bd2a704c56e669cce7ce56","fixation","","","img/fixation.png","null","","","prac","","","","","","","","","","","","","","","","","","","",""
"383","217476","SARL_v6","SARL_v6xabxw577","62bd2a704c56e669cce7ce56","mixRLPractice","","","img/black_2bandit_b2.png","74","img/black_2bandit_b2.png","","prac","","","5","","","","","","","","","","","","","","","","",""
"null","218232","SARL_v6","SARL_v6xabxw577","62bd2a704c56e669cce7ce56","feedback","","","<div class=""verylowPoints""> -14 </div>","null","","na","prac","","","6","-14","10","-14","","","","","","","","","","","","","",""
"null","218387","SARL_v6","SARL_v6xabxw577","62bd2a704c56e669cce7ce56","fixation","","","img/fixation.png","null","","","prac","","","","","","","","","","","","","","","","","","","",""
"542","218935","SARL_v6","SARL_v6xabxw577","62bd2a704c56e669cce7ce56","mixAttFreqPrac","","","img/orange_2bandit_b2.png","68","img/orange_2bandit_b2.png","70","prac","","","7","","","","","","","","","","","","","","","","",""
"542","219199","SARL_v6","SARL_v6xabxw577","62bd2a704c56e669cce7ce56","freqPrac_resp","","","img/orange_2bandit_b.png","68","img/orange_2bandit_b.png","70","prac","","","7","","","","","","","","","","","","","","","","",""
"null","219354","SARL_v6","SARL_v6xabxw577","62bd2a704c56e669cce7ce56","fixation","","","img/fixation.png","null","","","prac","","","","","","","","","","","","","","","","","","","",""
"516","219873","SARL_v6","SARL_v6xabxw577","62bd2a704c56e669cce7ce56","mixAttInfreqPrac","","","img/blue_2bandit_b2.png","68","img/blue_2bandit_b2.png","68","prac","","","8","","","","","","","","","","","","","","","","",""
"516","220163","SARL_v6","SARL_v6xabxw577","62bd2a704c56e669cce7ce56","infreqPrac_resp","","","img/blue_2bandit_b.png","68","img/orange_2bandit_b.png","68","prac","","","8","","","","","","","","","","","","","","","","",""
"null","220319","SARL_v6","SARL_v6xabxw577","62bd2a704c56e669cce7ce56","fixation","","","img/fixation.png","null","","","prac","","","","","","","","","","","","","","","","","","","",""
"613","220937","SARL_v6","SARL_v6xabxw577","62bd2a704c56e669cce7ce56","mixAttFreqPrac","","","img/orange_2bandit_b2.png","68","img/orange_2bandit_b2.png","70","prac","","","9","","","","","","","","","","","","","","","","",""
"613","221129","SARL_v6","SARL_v6xabxw577","62bd2a704c56e669cce7ce56","freqPrac_resp","","","img/orange_2bandit_b.png","68","img/orange_2bandit_b.png","70","prac","","","9","","","","","","","","","","","","","","","","",""
"null","221287","SARL_v6","SARL_v6xabxw577","62bd2a704c56e669cce7ce56","fixation","","","img/fixation.png","null","","","prac","","","","","","","","","","","","","","","","","","","",""
"285","221578","SARL_v6","SARL_v6xabxw577","62bd2a704c56e669cce7ce56","mixAttFreqPrac","","","img/orange_2bandit_b2.png","70","img/orange_2bandit_b2.png","70","prac","","","10","","","","","","","","","","","","","","","","",""
"285","222099","SARL_v6","SARL_v6xabxw577","62bd2a704c56e669cce7ce56","freqPrac_resp","","","img/orange_2bandit_b.png","70","img/orange_2bandit_b.png","70","prac","","","10","","","","","","","","","","","","","","","","",""
"null","222253","SARL_v6","SARL_v6xabxw577","62bd2a704c56e669cce7ce56","fixation","","","img/fixation.png","null","","","prac","","","","","","","","","","","","","","","","","","","",""
"350","222609","SARL_v6","SARL_v6xabxw577","62bd2a704c56e669cce7ce56","mixAttInfreqPrac","","","img/blue_2bandit_b2.png","70","img/blue_2bandit_b2.png","68","prac","","","11","","","","","","","","","","","","","","","","",""
"350","223063","SARL_v6","SARL_v6xabxw577","62bd2a704c56e669cce7ce56","infreqPrac_resp","","","img/blue_2bandit_b.png","70","img/orange_2bandit_b.png","68","prac","","","11","","","","","","","","","","","","","","","","",""
"null","223219","SARL_v6","SARL_v6xabxw577","62bd2a704c56e669cce7ce56","fixation","","","img/fixation.png","null","","","prac","","","","","","","","","","","","","","","","","","","",""
"573","223796","SARL_v6","SARL_v6xabxw577","62bd2a704c56e669cce7ce56","mixRLPractice","","","img/black_2bandit_b2.png","74","img/black_2bandit_b2.png","","prac","","","11","","","","","","","","","","","","","","","","",""
"null","224552","SARL_v6","SARL_v6xabxw577","62bd2a704c56e669cce7ce56","feedback","","","<div class=""veryhighPoints""> 5 </div>","null","","na","prac","","","12","5","-5","5","","","","","","","","","","","","","",""
"null","224707","SARL_v6","SARL_v6xabxw577","62bd2a704c56e669cce7ce56","fixation","","","img/fixation.png","null","","","prac","","","","","","","","","","","","","","","","","","","",""
"8798","233508","SARL_v6","SARL_v6xabxw577","62bd2a704c56e669cce7ce56","","","","","","","","prac","","","","","","","","","","","","","","","","","","","",""
"356","233868","SARL_v6","SARL_v6xabxw577","62bd2a704c56e669cce7ce56","freq","","","img/orange_2bandit_b2.png","70","","70","test","1","","1","","","","circle","square","1","1","1","1","","","","","","","",""
"null","234318","SARL_v6","SARL_v6xabxw577","62bd2a704c56e669cce7ce56","freq_resp","","","img/orange_2bandit_b.png","70","img/orange_2bandit_b.png","70","test","","","","","","","","","","","1","","","","","","","","",""
"null","234474","SARL_v6","SARL_v6xabxw577","62bd2a704c56e669cce7ce56","fixation","","","img/fixation.png","null","","","test","","","","","","","","","","","","","","","","","","","",""
"346","234826","SARL_v6","SARL_v6xabxw577","62bd2a704c56e669cce7ce56","freq","","","img/orange_2bandit_b2.png","70","","70","test","1","","2","","","","circle","square","2","2","1","1","","","","","","","",""
"null","235286","SARL_v6","SARL_v6xabxw577","62bd2a704c56e669cce7ce56","freq_resp","","","img/orange_2bandit_b.png","70","img/orange_2bandit_b.png","70","test","","","","","","","","","","","1","","","","","","","","",""
"null","235442","SARL_v6","SARL_v6xabxw577","62bd2a704c56e669cce7ce56","fixation","","","img/fixation.png","null","","","test","","","","","","","","","","","","","","","","","","","",""
"295","235742","SARL_v6","SARL_v6xabxw577","62bd2a704c56e669cce7ce56","freq","","","img/orange_2bandit_b2.png","70","","70","test","1","","3","","","","circle","square","3","3","1","1","","","","","","","",""
"null","236253","SARL_v6","SARL_v6xabxw577","62bd2a704c56e669cce7ce56","freq_resp","","","img/orange_2bandit_b.png","70","img/orange_2bandit_b.png","70","test","","","","","","","","","","","1","","","","","","","","",""
"null","236409","SARL_v6","SARL_v6xabxw577","62bd2a704c56e669cce7ce56","fixation","","","img/fixation.png","null","","","test","","","","","","","","","","","","","","","","","","","",""
"271","236686","SARL_v6","SARL_v6xabxw577","62bd2a704c56e669cce7ce56","freq","","","img/orange_2bandit_b2.png","70","","70","test","1","","4","","","","circle","square","4","4","1","1","","","","","","","",""
"null","237221","SARL_v6","SARL_v6xabxw577","62bd2a704c56e669cce7ce56","freq_resp","","","img/orange_2bandit_b.png","70","img/orange_2bandit_b.png","70","test","","","","","","","","","","","1","","","","","","","","",""
"null","237376","SARL_v6","SARL_v6xabxw577","62bd2a704c56e669cce7ce56","fixation","","","img/fixation.png","null","","","test","","","","","","","","","","","","","","","","","","","",""
"242","237624","SARL_v6","SARL_v6xabxw577","62bd2a704c56e669cce7ce56","freq","","","img/orange_2bandit_b2.png","70","","70","test","1","","5","","","","circle","square","5","5","1","1","","","","","","","",""
"null","238188","SARL_v6","SARL_v6xabxw577","62bd2a704c56e669cce7ce56","freq_resp","","","img/orange_2bandit_b.png","70","img/orange_2bandit_b.png","70","test","","","","","","","","","","","1","","","","","","","","",""
"null","238342","SARL_v6","SARL_v6xabxw577","62bd2a704c56e669cce7ce56","fixation","","","img/fixation.png","null","","","test","","","","","","","","","","","","","","","","","","","",""
"292","238642","SARL_v6","SARL_v6xabxw577","62bd2a704c56e669cce7ce56","freq","","","img/orange_2bandit_b2.png","70","","70","test","1","","6","","","","circle","square","6","6","1","1","","","","","","","",""
"null","239156","SARL_v6","SARL_v6xabxw577","62bd2a704c56e669cce7ce56","freq_resp","","","img/orange_2bandit_b.png","70","img/orange_2bandit_b.png","70","test","","","","","","","","","","","1","","","","","","","","",""
"null","239311","SARL_v6","SARL_v6xabxw577","62bd2a704c56e669cce7ce56","fixation","","","img/fixation.png","null","","","test","","","","","","","","","","","","","","","","","","","",""
"475","239788","SARL_v6","SARL_v6xabxw577","62bd2a704c56e669cce7ce56","freq","","","img/orange_2bandit_b2.png","70","","70","test","1","","7","","","","circle","square","7","7","1","1","","","","","","","",""
"null","240120","SARL_v6","SARL_v6xabxw577","62bd2a704c56e669cce7ce56","freq_resp","","","img/orange_2bandit_b.png","70","img/orange_2bandit_b.png","70","test","","","","","","","","","","","1","","","","","","","","",""
"null","240275","SARL_v6","SARL_v6xabxw577","62bd2a704c56e669cce7ce56","fixation","","","img/fixation.png","null","","","test","","","","","","","","","","","","","","","","","","","",""
"239","240520","SARL_v6","SARL_v6xabxw577","62bd2a704c56e669cce7ce56","freq","","","img/orange_2bandit_b2.png","70","","70","test","1","","8","","","","circle","square","8","8","1","1","","","","","","","",""
"null","241086","SARL_v6","SARL_v6xabxw577","62bd2a704c56e669cce7ce56","freq_resp","","","img/orange_2bandit_b.png","70","img/orange_2bandit_b.png","70","test","","","","","","","","","","","1","","","","","","","","",""
"null","241242","SARL_v6","SARL_v6xabxw577","62bd2a704c56e669cce7ce56","fixation","","","img/fixation.png","null","","","test","","","","","","","","","","","","","","","","","","","",""
"315","241563","SARL_v6","SARL_v6xabxw577","62bd2a704c56e669cce7ce56","freq","","","img/orange_2bandit_b2.png","70","","70","test","1","","9","","","","circle","square","9","9","1","1","","","","","","","",""
"null","242054","SARL_v6","SARL_v6xabxw577","62bd2a704c56e669cce7ce56","freq_resp","","","img/orange_2bandit_b.png","70","img/orange_2bandit_b.png","70","test","","","","","","","","","","","1","","","","","","","","",""
"null","242210","SARL_v6","SARL_v6xabxw577","62bd2a704c56e669cce7ce56","fixation","","","img/fixation.png","null","","","test","","","","","","","","","","","","","","","","","","","",""
"261","242477","SARL_v6","SARL_v6xabxw577","62bd2a704c56e669cce7ce56","freq","","","img/orange_2bandit_b2.png","70","","70","test","1","","10","","","","circle","square","10","10","1","1","","","","","","","",""
"null","243021","SARL_v6","SARL_v6xabxw577","62bd2a704c56e669cce7ce56","freq_resp","","","img/orange_2bandit_b.png","70","img/orange_2bandit_b.png","70","test","","","","","","","","","","","1","","","","","","","","",""
"null","243176","SARL_v6","SARL_v6xabxw577","62bd2a704c56e669cce7ce56","fixation","","","img/fixation.png","null","","","test","","","","","","","","","","","","","","","","","","","",""
"251","243434","SARL_v6","SARL_v6xabxw577","62bd2a704c56e669cce7ce56","freq","","","img/orange_2bandit_b2.png","70","","70","test","1","","11","","","","circle","square","11","11","1","1","","","","","","","",""
"null","243988","SARL_v6","SARL_v6xabxw577","62bd2a704c56e669cce7ce56","freq_resp","","","img/orange_2bandit_b.png","70","img/orange_2bandit_b.png","70","test","","","","","","","","","","","1","","","","","","","","",""
"null","244145","SARL_v6","SARL_v6xabxw577","62bd2a704c56e669cce7ce56","fixation","","","img/fixation.png","null","","","test","","","","","","","","","","","","","","","","","","","",""
"327","244478","SARL_v6","SARL_v6xabxw577","62bd2a704c56e669cce7ce56","infreq","","","img/blue_2bandit_b2.png","68","","68","test","1","","12","","","","circle","square","12","12","1","1","","","","","","","",""
"null","244957","SARL_v6","SARL_v6xabxw577","62bd2a704c56e669cce7ce56","infreq_resp","","","img/blue_2bandit_b.png","68","img/blue_2bandit_b.png","68","test","","","","","","","","","","","1","","","","","","","","",""
"null","245112","SARL_v6","SARL_v6xabxw577","62bd2a704c56e669cce7ce56","fixation","","","img/fixation.png","null","","","test","","","","","","","","","","","","","","","","","","","",""
"355","245474","SARL_v6","SARL_v6xabxw577","62bd2a704c56e669cce7ce56","freq","","","img/orange_2bandit_b2.png","70","","70","test","1","","13","","","","circle","square","13","13","1","1","","","","","","","",""
"null","245925","SARL_v6","SARL_v6xabxw577","62bd2a704c56e669cce7ce56","freq_resp","","","img/orange_2bandit_b.png","70","img/orange_2bandit_b.png","70","test","","","","","","","","","","","1","","","","","","","","",""
"null","246081","SARL_v6","SARL_v6xabxw577","62bd2a704c56e669cce7ce56","fixation","","","img/fixation.png","null","","","test","","","","","","","","","","","","","","","","","","","",""
"333","246419","SARL_v6","SARL_v6xabxw577","62bd2a704c56e669cce7ce56","freq","","","img/orange_2bandit_b2.png","70","","70","test","1","","14","","","","circle","square","14","14","1","1","","","","","","","",""
"null","246893","SARL_v6","SARL_v6xabxw577","62bd2a704c56e669cce7ce56","freq_resp","","","img/orange_2bandit_b.png","70","img/orange_2bandit_b.png","70","test","","","","","","","","","","","1","","","","","","","","",""
"null","247048","SARL_v6","SARL_v6xabxw577","62bd2a704c56e669cce7ce56","fixation","","","img/fixation.png","null","","","test","","","","","","","","","","","","","","","","","","","",""
"275","247330","SARL_v6","SARL_v6xabxw577","62bd2a704c56e669cce7ce56","freq","","","img/orange_2bandit_b2.png","70","","70","test","1","","15","","","","circle","square","15","15","1","1","","","","","","","",""
"null","247860","SARL_v6","SARL_v6xabxw577","62bd2a704c56e669cce7ce56","freq_resp","","","img/orange_2bandit_b.png","70","img/orange_2bandit_b.png","70","test","","","","","","","","","","","1","","","","","","","","",""
"null","248015","SARL_v6","SARL_v6xabxw577","62bd2a704c56e669cce7ce56","fixation","","","img/fixation.png","null","","","test","","","","","","","","","","","","","","","","","","","",""
"329","248351","SARL_v6","SARL_v6xabxw577","62bd2a704c56e669cce7ce56","freq","","","img/orange_2bandit_b2.png","70","","70","test","1","","16","","","","circle","square","16","16","1","1","","","","","","","",""
"null","248826","SARL_v6","SARL_v6xabxw577","62bd2a704c56e669cce7ce56","freq_resp","","","img/orange_2bandit_b.png","70","img/orange_2bandit_b.png","70","test","","","","","","","","","","","1","","","","","","","","",""
"null","248982","SARL_v6","SARL_v6xabxw577","62bd2a704c56e669cce7ce56","fixation","","","img/fixation.png","null","","","test","","","","","","","","","","","","","","","","","","","",""
"267","249254","SARL_v6","SARL_v6xabxw577","62bd2a704c56e669cce7ce56","freq","","","img/orange_2bandit_b2.png","70","","70","test","1","","17","","","","circle","square","17","17","1","1","","","","","","","",""
"null","249791","SARL_v6","SARL_v6xabxw577","62bd2a704c56e669cce7ce56","freq_resp","","","img/orange_2bandit_b.png","70","img/orange_2bandit_b.png","70","test","","","","","","","","","","","1","","","","","","","","",""
"null","249946","SARL_v6","SARL_v6xabxw577","62bd2a704c56e669cce7ce56","fixation","","","img/fixation.png","null","","","test","","","","","","","","","","","","","","","","","","","",""
"268","250220","SARL_v6","SARL_v6xabxw577","62bd2a704c56e669cce7ce56","freq","","","img/orange_2bandit_b2.png","70","","70","test","1","","18","","","","circle","square","18","18","1","1","","","","","","","",""
"null","250757","SARL_v6","SARL_v6xabxw577","62bd2a704c56e669cce7ce56","freq_resp","","","img/orange_2bandit_b.png","70","img/orange_2bandit_b.png","70","test","","","","","","","","","","","1","","","","","","","","",""
"null","250912","SARL_v6","SARL_v6xabxw577","62bd2a704c56e669cce7ce56","fixation","","","img/fixation.png","null","","","test","","","","","","","","","","","","","","","","","","","",""
"257","251175","SARL_v6","SARL_v6xabxw577","62bd2a704c56e669cce7ce56","freq","","","img/orange_2bandit_b2.png","70","","70","test","1","","19","","","","circle","square","19","19","1","1","","","","","","","",""
"null","251723","SARL_v6","SARL_v6xabxw577","62bd2a704c56e669cce7ce56","freq_resp","","","img/orange_2bandit_b.png","70","img/orange_2bandit_b.png","70","test","","","","","","","","","","","1","","","","","","","","",""
"null","251878","SARL_v6","SARL_v6xabxw577","62bd2a704c56e669cce7ce56","fixation","","","img/fixation.png","null","","","test","","","","","","","","","","","","","","","","","","","",""
"254","252138","SARL_v6","SARL_v6xabxw577","62bd2a704c56e669cce7ce56","freq","","","img/orange_2bandit_b2.png","70","","70","test","1","","20","","","","circle","square","20","20","1","1","","","","","","","",""
"null","252689","SARL_v6","SARL_v6xabxw577","62bd2a704c56e669cce7ce56","freq_resp","","","img/orange_2bandit_b.png","70","img/orange_2bandit_b.png","70","test","","","","","","","","","","","1","","","","","","","","",""
"null","252845","SARL_v6","SARL_v6xabxw577","62bd2a704c56e669cce7ce56","fixation","","","img/fixation.png","null","","","test","","","","","","","","","","","","","","","","","","","",""
"237","253088","SARL_v6","SARL_v6xabxw577","62bd2a704c56e669cce7ce56","freq","","","img/orange_2bandit_b2.png","70","","70","test","1","","21","","","","circle","square","21","21","1","1","","","","","","","",""
"null","253654","SARL_v6","SARL_v6xabxw577","62bd2a704c56e669cce7ce56","freq_resp","","","img/orange_2bandit_b.png","70","img/orange_2bandit_b.png","70","test","","","","","","","","","","","1","","","","","","","","",""
"null","253809","SARL_v6","SARL_v6xabxw577","62bd2a704c56e669cce7ce56","fixation","","","img/fixation.png","null","","","test","","","","","","","","","","","","","","","","","","","",""
"232","254046","SARL_v6","SARL_v6xabxw577","62bd2a704c56e669cce7ce56","infreq","","","img/blue_2bandit_b2.png","70","","68","test","0","","22","","","","circle","square","22","22","1","0.9545454545454546","","","","","","","",""
"null","254620","SARL_v6","SARL_v6xabxw577","62bd2a704c56e669cce7ce56","infreq_resp","","","img/blue_2bandit_b.png","70","img/blue_2bandit_b.png","68","test","","","","","","","","","","","1","","","","","","","","",""
"null","254774","SARL_v6","SARL_v6xabxw577","62bd2a704c56e669cce7ce56","fixation","","","img/fixation.png","null","","","test","","","","","","","","","","","","","","","","","","","",""
"284","255065","SARL_v6","SARL_v6xabxw577","62bd2a704c56e669cce7ce56","freq","","","img/orange_2bandit_b2.png","70","","70","test","1","","23","","","","circle","square","23","23","1","0.9565217391304348","","","","","","","",""
"null","255585","SARL_v6","SARL_v6xabxw577","62bd2a704c56e669cce7ce56","freq_resp","","","img/orange_2bandit_b.png","70","img/orange_2bandit_b.png","70","test","","","","","","","","","","","1","","","","","","","","",""
"null","255741","SARL_v6","SARL_v6xabxw577","62bd2a704c56e669cce7ce56","fixation","","","img/fixation.png","null","","","test","","","","","","","","","","","","","","","","","","","",""
"259","256007","SARL_v6","SARL_v6xabxw577","62bd2a704c56e669cce7ce56","freq","","","img/orange_2bandit_b2.png","70","","70","test","1","","24","","","","circle","square","24","24","1","0.9583333333333334","","","","","","","",""
"null","256553","SARL_v6","SARL_v6xabxw577","62bd2a704c56e669cce7ce56","freq_resp","","","img/orange_2bandit_b.png","70","img/orange_2bandit_b.png","70","test","","","","","","","","","","","1","","","","","","","","",""
"null","256708","SARL_v6","SARL_v6xabxw577","62bd2a704c56e669cce7ce56","fixation","","","img/fixation.png","null","","","test","","","","","","","","","","","","","","","","","","","",""
"294","257008","SARL_v6","SARL_v6xabxw577","62bd2a704c56e669cce7ce56","freq","","","img/orange_2bandit_b2.png","70","","70","test","1","","25","","","","circle","square","25","25","1","0.96","","","","","","","",""
"null","257519","SARL_v6","SARL_v6xabxw577","62bd2a704c56e669cce7ce56","freq_resp","","","img/orange_2bandit_b.png","70","img/orange_2bandit_b.png","70","test","","","","","","","","","","","1","","","","","","","","",""
"null","257674","SARL_v6","SARL_v6xabxw577","62bd2a704c56e669cce7ce56","fixation","","","img/fixation.png","null","","","test","","","","","","","","","","","","","","","","","","","",""
"302","257982","SARL_v6","SARL_v6xabxw577","62bd2a704c56e669cce7ce56","freq","","","img/orange_2bandit_b2.png","70","","70","test","1","","26","","","","circle","square","26","26","1","0.9615384615384616","","","","","","","",""
"null","258487","SARL_v6","SARL_v6xabxw577","62bd2a704c56e669cce7ce56","freq_resp","","","img/orange_2bandit_b.png","70","img/orange_2bandit_b.png","70","test","","","","","","","","","","","1","","","","","","","","",""
"null","258643","SARL_v6","SARL_v6xabxw577","62bd2a704c56e669cce7ce56","fixation","","","img/fixation.png","null","","","test","","","","","","","","","","","","","","","","","","","",""
"591","259240","SARL_v6","SARL_v6xabxw577","62bd2a704c56e669cce7ce56","rl","","","img/black_2bandit_b2.png","75","","0","test","","","27","","","-3","circle","square","","0","1","","75","-3","-3","-3","-3","square","1","0"
"null","259998","SARL_v6","SARL_v6xabxw577","62bd2a704c56e669cce7ce56","feedback","","","<div class=""verylowPoints_sq""> -3 </div>","null","","na","test","","","NaN","","","","","","","","1","","75","","","","","","1",""
"778","260781","SARL_v6","SARL_v6xabxw577","62bd2a704c56e669cce7ce56","freq","","","img/orange_2bandit_b2.png","70","","70","test","1","","28","","","","circle","square","27","1","2","0.9629629629629629","","","","","","","",""
"null","260808","SARL_v6","SARL_v6xabxw577","62bd2a704c56e669cce7ce56","freq_resp","","","img/orange_2bandit_b.png","70","img/orange_2bandit_b.png","70","test","","","","","","","","","","","2","","","","","","","","",""
"null","260963","SARL_v6","SARL_v6xabxw577","62bd2a704c56e669cce7ce56","fixation","","","img/fixation.png","null","","","test","","","","","","","","","","","","","","","","","","","",""
"507","261473","SARL_v6","SARL_v6xabxw577","62bd2a704c56e669cce7ce56","freq","","","img/orange_2bandit_b2.png","70","","70","test","1","","29","","","","circle","square","28","2","2","0.9642857142857143","","","","","","","",""
"null","261772","SARL_v6","SARL_v6xabxw577","62bd2a704c56e669cce7ce56","freq_resp","","","img/orange_2bandit_b.png","70","img/orange_2bandit_b.png","70","test","","","","","","","","","","","2","","","","","","","","",""
"null","261926","SARL_v6","SARL_v6xabxw577","62bd2a704c56e669cce7ce56","fixation","","","img/fixation.png","null","","","test","","","","","","","","","","","","","","","","","","","",""
"319","262252","SARL_v6","SARL_v6xabxw577","62bd2a704c56e669cce7ce56","freq","","","img/orange_2bandit_b2.png","70","","70","test","1","","30","","","","circle","square","29","3","2","0.9655172413793104","","","","","","","",""
"null","262736","SARL_v6","SARL_v6xabxw577","62bd2a704c56e669cce7ce56","freq_resp","","","img/orange_2bandit_b.png","70","img/orange_2bandit_b.png","70","test","","","","","","","","","","","2","","","","","","","","",""
"null","262892","SARL_v6","SARL_v6xabxw577","62bd2a704c56e669cce7ce56","fixation","","","img/fixation.png","null","","","test","","","","","","","","","","","","","","","","","","","",""
"360","263257","SARL_v6","SARL_v6xabxw577","62bd2a704c56e669cce7ce56","freq","","","img/orange_2bandit_b2.png","70","","70","test","1","","31","","","","circle","square","30","4","2","0.9666666666666667","","","","","","","",""
"null","263702","SARL_v6","SARL_v6xabxw577","62bd2a704c56e669cce7ce56","freq_resp","","","img/orange_2bandit_b.png","70","img/orange_2bandit_b.png","70","test","","","","","","","","","","","2","","","","","","","","",""
"null","263858","SARL_v6","SARL_v6xabxw577","62bd2a704c56e669cce7ce56","fixation","","","img/fixation.png","null","","","test","","","","","","","","","","","","","","","","","","","",""
"339","264200","SARL_v6","SARL_v6xabxw577","62bd2a704c56e669cce7ce56","freq","","","img/orange_2bandit_b2.png","70","","70","test","1","","32","","","","circle","square","31","5","2","0.967741935483871","","","","","","","",""
"null","264666","SARL_v6","SARL_v6xabxw577","62bd2a704c56e669cce7ce56","freq_resp","","","img/orange_2bandit_b.png","70","img/orange_2bandit_b.png","70","test","","","","","","","","","","","2","","","","","","","","",""
"null","264822","SARL_v6","SARL_v6xabxw577","62bd2a704c56e669cce7ce56","fixation","","","img/fixation.png","null","","","test","","","","","","","","","","","","","","","","","","","",""
"310","265136","SARL_v6","SARL_v6xabxw577","62bd2a704c56e669cce7ce56","freq","","","img/orange_2bandit_b2.png","70","","70","test","1","","33","","","","circle","square","32","6","2","0.96875","","","","","","","",""
"null","265632","SARL_v6","SARL_v6xabxw577","62bd2a704c56e669cce7ce56","freq_resp","","","img/orange_2bandit_b.png","70","img/orange_2bandit_b.png","70","test","","","","","","","","","","","2","","","","","","","","",""
"null","265786","SARL_v6","SARL_v6xabxw577","62bd2a704c56e669cce7ce56","fixation","","","img/fixation.png","null","","","test","","","","","","","","","","","","","","","","","","","",""
"428","266218","SARL_v6","SARL_v6xabxw577","62bd2a704c56e669cce7ce56","freq","","","img/orange_2bandit_b2.png","70","","70","test","1","","34","","","","circle","square","33","7","2","0.9696969696969697","","","","","","","",""
"null","266596","SARL_v6","SARL_v6xabxw577","62bd2a704c56e669cce7ce56","freq_resp","","","img/orange_2bandit_b.png","70","img/orange_2bandit_b.png","70","test","","","","","","","","","","","2","","","","","","","","",""
"null","266751","SARL_v6","SARL_v6xabxw577","62bd2a704c56e669cce7ce56","fixation","","","img/fixation.png","null","","","test","","","","","","","","","","","","","","","","","","","",""
"342","267100","SARL_v6","SARL_v6xabxw577","62bd2a704c56e669cce7ce56","infreq","","","img/blue_2bandit_b2.png","68","","68","test","1","","35","","","","circle","square","34","8","2","0.9705882352941176","","","","","","","",""
"null","267565","SARL_v6","SARL_v6xabxw577","62bd2a704c56e669cce7ce56","infreq_resp","","","img/blue_2bandit_b.png","68","img/blue_2bandit_b.png","68","test","","","","","","","","","","","2","","","","","","","","",""
"null","267720","SARL_v6","SARL_v6xabxw577","62bd2a704c56e669cce7ce56","fixation","","","img/fixation.png","null","","","test","","","","","","","","","","","","","","","","","","","",""
"354","268082","SARL_v6","SARL_v6xabxw577","62bd2a704c56e669cce7ce56","freq","","","img/orange_2bandit_b2.png","70","","70","test","1","","36","","","","circle","square","35","9","2","0.9714285714285714","","","","","","","",""
"null","268533","SARL_v6","SARL_v6xabxw577","62bd2a704c56e669cce7ce56","freq_resp","","","img/orange_2bandit_b.png","70","img/orange_2bandit_b.png","70","test","","","","","","","","","","","2","","","","","","","","",""
"null","268688","SARL_v6","SARL_v6xabxw577","62bd2a704c56e669cce7ce56","fixation","","","img/fixation.png","null","","","test","","","","","","","","","","","","","","","","","","","",""
"282","268976","SARL_v6","SARL_v6xabxw577","62bd2a704c56e669cce7ce56","freq","","","img/orange_2bandit_b2.png","70","","70","test","1","","37","","","","circle","square","36","10","2","0.9722222222222222","","","","","","","",""
"null","269501","SARL_v6","SARL_v6xabxw577","62bd2a704c56e669cce7ce56","freq_resp","","","img/orange_2bandit_b.png","70","img/orange_2bandit_b.png","70","test","","","","","","","","","","","2","","","","","","","","",""
"null","269654","SARL_v6","SARL_v6xabxw577","62bd2a704c56e669cce7ce56","fixation","","","img/fixation.png","null","","","test","","","","","","","","","","","","","","","","","","","",""
"268","269927","SARL_v6","SARL_v6xabxw577","62bd2a704c56e669cce7ce56","freq","","","img/orange_2bandit_b2.png","70","","70","test","1","","38","","","","circle","square","37","11","2","0.972972972972973","","","","","","","",""
"null","270464","SARL_v6","SARL_v6xabxw577","62bd2a704c56e669cce7ce56","freq_resp","","","img/orange_2bandit_b.png","70","img/orange_2bandit_b.png","70","test","","","","","","","","","","","2","","","","","","","","",""
"null","270619","SARL_v6","SARL_v6xabxw577","62bd2a704c56e669cce7ce56","fixation","","","img/fixation.png","null","","","test","","","","","","","","","","","","","","","","","","","",""
"301","270926","SARL_v6","SARL_v6xabxw577","62bd2a704c56e669cce7ce56","freq","","","img/orange_2bandit_b2.png","70","","70","test","1","","39","","","","circle","square","38","12","2","0.9736842105263158","","","","","","","",""
"null","271430","SARL_v6","SARL_v6xabxw577","62bd2a704c56e669cce7ce56","freq_resp","","","img/orange_2bandit_b.png","70","img/orange_2bandit_b.png","70","test","","","","","","","","","","","2","","","","","","","","",""
"null","271586","SARL_v6","SARL_v6xabxw577","62bd2a704c56e669cce7ce56","fixation","","","img/fixation.png","null","","","test","","","","","","","","","","","","","","","","","","","",""
"350","271939","SARL_v6","SARL_v6xabxw577","62bd2a704c56e669cce7ce56","freq","","","img/orange_2bandit_b2.png","70","","70","test","1","","40","","","","circle","square","39","13","2","0.9743589743589743","","","","","","","",""
"null","272395","SARL_v6","SARL_v6xabxw577","62bd2a704c56e669cce7ce56","freq_resp","","","img/orange_2bandit_b.png","70","img/orange_2bandit_b.png","70","test","","","","","","","","","","","2","","","","","","","","",""
"null","272549","SARL_v6","SARL_v6xabxw577","62bd2a704c56e669cce7ce56","fixation","","","img/fixation.png","null","","","test","","","","","","","","","","","","","","","","","","","",""
"338","272893","SARL_v6","SARL_v6xabxw577","62bd2a704c56e669cce7ce56","freq","","","img/orange_2bandit_b2.png","70","","70","test","1","","41","","","","circle","square","40","14","2","0.975","","","","","","","",""
"null","273360","SARL_v6","SARL_v6xabxw577","62bd2a704c56e669cce7ce56","freq_resp","","","img/orange_2bandit_b.png","70","img/orange_2bandit_b.png","70","test","","","","","","","","","","","2","","","","","","","","",""
"null","273516","SARL_v6","SARL_v6xabxw577","62bd2a704c56e669cce7ce56","fixation","","","img/fixation.png","null","","","test","","","","","","","","","","","","","","","","","","","",""
"525","274045","SARL_v6","SARL_v6xabxw577","62bd2a704c56e669cce7ce56","infreq","","","img/blue_2bandit_b2.png","68","","68","test","1","","42","","","","circle","square","41","15","2","0.975609756097561","","","","","","","",""
"null","274325","SARL_v6","SARL_v6xabxw577","62bd2a704c56e669cce7ce56","infreq_resp","","","img/blue_2bandit_b.png","68","img/blue_2bandit_b.png","68","test","","","","","","","","","","","2","","","","","","","","",""
"null","274481","SARL_v6","SARL_v6xabxw577","62bd2a704c56e669cce7ce56","fixation","","","img/fixation.png","null","","","test","","","","","","","","","","","","","","","","","","","",""
"323","274810","SARL_v6","SARL_v6xabxw577","62bd2a704c56e669cce7ce56","freq","","","img/orange_2bandit_b2.png","70","","70","test","1","","43","","","","circle","square","42","16","2","0.9761904761904762","","","","","","","",""
"null","275292","SARL_v6","SARL_v6xabxw577","62bd2a704c56e669cce7ce56","freq_resp","","","img/orange_2bandit_b.png","70","img/orange_2bandit_b.png","70","test","","","","","","","","","","","2","","","","","","","","",""
"null","275448","SARL_v6","SARL_v6xabxw577","62bd2a704c56e669cce7ce56","fixation","","","img/fixation.png","null","","","test","","","","","","","","","","","","","","","","","","","",""
"311","275764","SARL_v6","SARL_v6xabxw577","62bd2a704c56e669cce7ce56","freq","","","img/orange_2bandit_b2.png","70","","70","test","1","","44","","","","circle","square","43","17","2","0.9767441860465116","","","","","","","",""
"null","276258","SARL_v6","SARL_v6xabxw577","62bd2a704c56e669cce7ce56","freq_resp","","","img/orange_2bandit_b.png","70","img/orange_2bandit_b.png","70","test","","","","","","","","","","","2","","","","","","","","",""
"null","276413","SARL_v6","SARL_v6xabxw577","62bd2a704c56e669cce7ce56","fixation","","","img/fixation.png","null","","","test","","","","","","","","","","","","","","","","","","","",""
"292","276710","SARL_v6","SARL_v6xabxw577","62bd2a704c56e669cce7ce56","freq","","","img/orange_2bandit_b2.png","70","","70","test","1","","45","","","","circle","square","44","18","2","0.9772727272727273","","","","","","","",""
"null","277223","SARL_v6","SARL_v6xabxw577","62bd2a704c56e669cce7ce56","freq_resp","","","img/orange_2bandit_b.png","70","img/orange_2bandit_b.png","70","test","","","","","","","","","","","2","","","","","","","","",""
"null","277379","SARL_v6","SARL_v6xabxw577","62bd2a704c56e669cce7ce56","fixation","","","img/fixation.png","null","","","test","","","","","","","","","","","","","","","","","","","",""
"277","277662","SARL_v6","SARL_v6xabxw577","62bd2a704c56e669cce7ce56","freq","","","img/orange_2bandit_b2.png","70","","70","test","1","","46","","","","circle","square","45","19","2","0.9777777777777777","","","","","","","",""
"null","278190","SARL_v6","SARL_v6xabxw577","62bd2a704c56e669cce7ce56","freq_resp","","","img/orange_2bandit_b.png","70","img/orange_2bandit_b.png","70","test","","","","","","","","","","","2","","","","","","","","",""
"null","278347","SARL_v6","SARL_v6xabxw577","62bd2a704c56e669cce7ce56","fixation","","","img/fixation.png","null","","","test","","","","","","","","","","","","","","","","","","","",""
"290","278641","SARL_v6","SARL_v6xabxw577","62bd2a704c56e669cce7ce56","freq","","","img/orange_2bandit_b2.png","70","","70","test","1","","47","","","","circle","square","46","20","2","0.9782608695652174","","","","","","","",""
"null","279157","SARL_v6","SARL_v6xabxw577","62bd2a704c56e669cce7ce56","freq_resp","","","img/orange_2bandit_b.png","70","img/orange_2bandit_b.png","70","test","","","","","","","","","","","2","","","","","","","","",""
"null","279313","SARL_v6","SARL_v6xabxw577","62bd2a704c56e669cce7ce56","fixation","","","img/fixation.png","null","","","test","","","","","","","","","","","","","","","","","","","",""
"233","279551","SARL_v6","SARL_v6xabxw577","62bd2a704c56e669cce7ce56","freq","","","img/orange_2bandit_b2.png","70","","70","test","1","","48","","","","circle","square","47","21","2","0.9787234042553191","","","","","","","",""
"null","280123","SARL_v6","SARL_v6xabxw577","62bd2a704c56e669cce7ce56","freq_resp","","","img/orange_2bandit_b.png","70","img/orange_2bandit_b.png","70","test","","","","","","","","","","","2","","","","","","","","",""
"null","280280","SARL_v6","SARL_v6xabxw577","62bd2a704c56e669cce7ce56","fixation","","","img/fixation.png","null","","","test","","","","","","","","","","","","","","","","","","","",""
"212","280498","SARL_v6","SARL_v6xabxw577","62bd2a704c56e669cce7ce56","freq","","","img/orange_2bandit_b2.png","70","","70","test","1","","49","","","","circle","square","48","22","2","0.9791666666666666","","","","","","","",""
"null","281092","SARL_v6","SARL_v6xabxw577","62bd2a704c56e669cce7ce56","freq_resp","","","img/orange_2bandit_b.png","70","img/orange_2bandit_b.png","70","test","","","","","","","","","","","2","","","","","","","","",""
"null","281247","SARL_v6","SARL_v6xabxw577","62bd2a704c56e669cce7ce56","fixation","","","img/fixation.png","null","","","test","","","","","","","","","","","","","","","","","","","",""
"241","281493","SARL_v6","SARL_v6xabxw577","62bd2a704c56e669cce7ce56","freq","","","img/orange_2bandit_b2.png","70","","70","test","1","","50","","","","circle","square","49","23","2","0.9795918367346939","","","","","","","",""
"null","282058","SARL_v6","SARL_v6xabxw577","62bd2a704c56e669cce7ce56","freq_resp","","","img/orange_2bandit_b.png","70","img/orange_2bandit_b.png","70","test","","","","","","","","","","","2","","","","","","","","",""
"null","282216","SARL_v6","SARL_v6xabxw577","62bd2a704c56e669cce7ce56","fixation","","","img/fixation.png","null","","","test","","","","","","","","","","","","","","","","","","","",""
"243","282466","SARL_v6","SARL_v6xabxw577","62bd2a704c56e669cce7ce56","freq","","","img/orange_2bandit_b2.png","70","","70","test","1","","51","","","","circle","square","50","24","2","0.98","","","","","","","",""
"null","283030","SARL_v6","SARL_v6xabxw577","62bd2a704c56e669cce7ce56","freq_resp","","","img/orange_2bandit_b.png","70","img/orange_2bandit_b.png","70","test","","","","","","","","","","","2","","","","","","","","",""
"null","283186","SARL_v6","SARL_v6xabxw577","62bd2a704c56e669cce7ce56","fixation","","","img/fixation.png","null","","","test","","","","","","","","","","","","","","","","","","","",""
"374","283565","SARL_v6","SARL_v6xabxw577","62bd2a704c56e669cce7ce56","rl","","","img/black_2bandit_b2.png","75","","0","test","","","52","","","-5","circle","square","","0","2","","75","-8","-5","-8","-5","square","2","0"
"null","284320","SARL_v6","SARL_v6xabxw577","62bd2a704c56e669cce7ce56","feedback","","","<div class=""verylowPoints_sq""> -5 </div>","null","","na","test","","","NaN","","","","","","","","2","","75","","","","","","2",""
"740","285065","SARL_v6","SARL_v6xabxw577","62bd2a704c56e669cce7ce56","freq","","","img/orange_2bandit_b2.png","70","","70","test","1","","53","","","","circle","square","51","1","3","0.9803921568627451","","","","","","","",""
"null","285131","SARL_v6","SARL_v6xabxw577","62bd2a704c56e669cce7ce56","freq_resp","","","img/orange_2bandit_b.png","70","img/orange_2bandit_b.png","70","test","","","","","","","","","","","3","","","","","","","","",""
"null","285286","SARL_v6","SARL_v6xabxw577","62bd2a704c56e669cce7ce56","fixation","","","img/fixation.png","null","","","test","","","","","","","","","","","","","","","","","","","",""
"456","285746","SARL_v6","SARL_v6xabxw577","62bd2a704c56e669cce7ce56","freq","","","img/orange_2bandit_b2.png","70","","70","test","1","","54","","","","circle","square","52","2","3","0.9807692307692307","","","","","","","",""
"null","286095","SARL_v6","SARL_v6xabxw577","62bd2a704c56e669cce7ce56","freq_resp","","","img/orange_2bandit_b.png","70","img/orange_2bandit_b.png","70","test","","","","","","","","","","","3","","","","","","","","",""
"null","286250","SARL_v6","SARL_v6xabxw577","62bd2a704c56e669cce7ce56","fixation","","","img/fixation.png","null","","","test","","","","","","","","","","","","","","","","","","","",""
"345","286600","SARL_v6","SARL_v6xabxw577","62bd2a704c56e669cce7ce56","freq","","","img/orange_2bandit_b2.png","70","","70","test","1","","55","","","","circle","square","53","3","3","0.9811320754716981","","","","","","","",""
"null","287062","SARL_v6","SARL_v6xabxw577","62bd2a704c56e669cce7ce56","freq_resp","","","img/orange_2bandit_b.png","70","img/orange_2bandit_b.png","70","test","","","","","","","","","","","3","","","","","","","","",""
"null","287216","SARL_v6","SARL_v6xabxw577","62bd2a704c56e669cce7ce56","fixation","","","img/fixation.png","null","","","test","","","","","","","","","","","","","","","","","","","",""
"374","287598","SARL_v6","SARL_v6xabxw577","62bd2a704c56e669cce7ce56","freq","","","img/orange_2bandit_b2.png","70","","70","test","1","","56","","","","circle","square","54","4","3","0.9814814814814815","","","","","","","",""
"null","288031","SARL_v6","SARL_v6xabxw577","62bd2a704c56e669cce7ce56","freq_resp","","","img/orange_2bandit_b.png","70","img/orange_2bandit_b.png","70","test","","","","","","","","","","","3","","","","","","","","",""
"null","288185","SARL_v6","SARL_v6xabxw577","62bd2a704c56e669cce7ce56","fixation","","","img/fixation.png","null","","","test","","","","","","","","","","","","","","","","","","","",""
"547","288737","SARL_v6","SARL_v6xabxw577","62bd2a704c56e669cce7ce56","freq","","","img/orange_2bandit_b2.png","70","","70","test","1","","57","","","","circle","square","55","5","3","0.9818181818181818","","","","","","","",""
"null","288993","SARL_v6","SARL_v6xabxw577","62bd2a704c56e669cce7ce56","freq_resp","","","img/orange_2bandit_b.png","70","img/orange_2bandit_b.png","70","test","","","","","","","","","","","3","","","","","","","","",""
"null","289148","SARL_v6","SARL_v6xabxw577","62bd2a704c56e669cce7ce56","fixation","","","img/fixation.png","null","","","test","","","","","","","","","","","","","","","","","","","",""
"349","289503","SARL_v6","SARL_v6xabxw577","62bd2a704c56e669cce7ce56","freq","","","img/orange_2bandit_b2.png","70","","70","test","1","","58","","","","circle","square","56","6","3","0.9821428571428571","","","","","","","",""
"null","289958","SARL_v6","SARL_v6xabxw577","62bd2a704c56e669cce7ce56","freq_resp","","","img/orange_2bandit_b.png","70","img/orange_2bandit_b.png","70","test","","","","","","","","","","","3","","","","","","","","",""
"null","290115","SARL_v6","SARL_v6xabxw577","62bd2a704c56e669cce7ce56","fixation","","","img/fixation.png","null","","","test","","","","","","","","","","","","","","","","","","","",""
"248","290369","SARL_v6","SARL_v6xabxw577","62bd2a704c56e669cce7ce56","freq","","","img/orange_2bandit_b2.png","70","","70","test","1","","59","","","","circle","square","57","7","3","0.9824561403508771","","","","","","","",""
"null","290926","SARL_v6","SARL_v6xabxw577","62bd2a704c56e669cce7ce56","freq_resp","","","img/orange_2bandit_b.png","70","img/orange_2bandit_b.png","70","test","","","","","","","","","","","3","","","","","","","","",""
"null","291083","SARL_v6","SARL_v6xabxw577","62bd2a704c56e669cce7ce56","fixation","","","img/fixation.png","null","","","test","","","","","","","","","","","","","","","","","","","",""
"440","291528","SARL_v6","SARL_v6xabxw577","62bd2a704c56e669cce7ce56","infreq","","","img/blue_2bandit_b2.png","68","","68","test","1","","60","","","","circle","square","58","8","3","0.9827586206896551","","","","","","","",""
"null","291894","SARL_v6","SARL_v6xabxw577","62bd2a704c56e669cce7ce56","infreq_resp","","","img/blue_2bandit_b.png","68","img/blue_2bandit_b.png","68","test","","","","","","","","","","","3","","","","","","","","",""
"null","292050","SARL_v6","SARL_v6xabxw577","62bd2a704c56e669cce7ce56","fixation","","","img/fixation.png","null","","","test","","","","","","","","","","","","","","","","","","","",""
"367","292422","SARL_v6","SARL_v6xabxw577","62bd2a704c56e669cce7ce56","infreq","","","img/blue_2bandit_b2.png","68","","68","test","1","","61","","","","circle","square","59","9","3","0.9830508474576272","","","","","","","",""
"null","292858","SARL_v6","SARL_v6xabxw577","62bd2a704c56e669cce7ce56","infreq_resp","","","img/blue_2bandit_b.png","68","img/blue_2bandit_b.png","68","test","","","","","","","","","","","3","","","","","","","","",""
"null","293013","SARL_v6","SARL_v6xabxw577","62bd2a704c56e669cce7ce56","fixation","","","img/fixation.png","null","","","test","","","","","","","","","","","","","","","","","","","",""
"443","293462","SARL_v6","SARL_v6xabxw577","62bd2a704c56e669cce7ce56","freq","","","img/orange_2bandit_b2.png","70","","70","test","1","","62","","","","circle","square","60","10","3","0.9833333333333333","","","","","","","",""
"null","293824","SARL_v6","SARL_v6xabxw577","62bd2a704c56e669cce7ce56","freq_resp","","","img/orange_2bandit_b.png","70","img/orange_2bandit_b.png","70","test","","","","","","","","","","","3","","","","","","","","",""
"null","293980","SARL_v6","SARL_v6xabxw577","62bd2a704c56e669cce7ce56","fixation","","","img/fixation.png","null","","","test","","","","","","","","","","","","","","","","","","","",""
"304","294289","SARL_v6","SARL_v6xabxw577","62bd2a704c56e669cce7ce56","freq","","","img/orange_2bandit_b2.png","70","","70","test","1","","63","","","","circle","square","61","11","3","0.9836065573770492","","","","","","","",""
"null","294791","SARL_v6","SARL_v6xabxw577","62bd2a704c56e669cce7ce56","freq_resp","","","img/orange_2bandit_b.png","70","img/orange_2bandit_b.png","70","test","","","","","","","","","","","3","","","","","","","","",""
"null","294947","SARL_v6","SARL_v6xabxw577","62bd2a704c56e669cce7ce56","fixation","","","img/fixation.png","null","","","test","","","","","","","","","","","","","","","","","","","",""
"276","295231","SARL_v6","SARL_v6xabxw577","62bd2a704c56e669cce7ce56","freq","","","img/orange_2bandit_b2.png","70","","70","test","1","","64","","","","circle","square","62","12","3","0.9838709677419355","","","","","","","",""
"null","295762","SARL_v6","SARL_v6xabxw577","62bd2a704c56e669cce7ce56","freq_resp","","","img/orange_2bandit_b.png","70","img/orange_2bandit_b.png","70","test","","","","","","","","","","","3","","","","","","","","",""
"null","295916","SARL_v6","SARL_v6xabxw577","62bd2a704c56e669cce7ce56","fixation","","","img/fixation.png","null","","","test","","","","","","","","","","","","","","","","","","","",""
"285","296203","SARL_v6","SARL_v6xabxw577","62bd2a704c56e669cce7ce56","freq","","","img/orange_2bandit_b2.png","70","","70","test","1","","65","","","","circle","square","63","13","3","0.9841269841269841","","","","","","","",""
"null","296723","SARL_v6","SARL_v6xabxw577","62bd2a704c56e669cce7ce56","freq_resp","","","img/orange_2bandit_b.png","70","img/orange_2bandit_b.png","70","test","","","","","","","","","","","3","","","","","","","","",""
"null","296878","SARL_v6","SARL_v6xabxw577","62bd2a704c56e669cce7ce56","fixation","","","img/fixation.png","null","","","test","","","","","","","","","","","","","","","","","","","",""
"269","297152","SARL_v6","SARL_v6xabxw577","62bd2a704c56e669cce7ce56","freq","","","img/orange_2bandit_b2.png","70","","70","test","1","","66","","","","circle","square","64","14","3","0.984375","","","","","","","",""
"null","297689","SARL_v6","SARL_v6xabxw577","62bd2a704c56e669cce7ce56","freq_resp","","","img/orange_2bandit_b.png","70","img/orange_2bandit_b.png","70","test","","","","","","","","","","","3","","","","","","","","",""
"null","297844","SARL_v6","SARL_v6xabxw577","62bd2a704c56e669cce7ce56","fixation","","","img/fixation.png","null","","","test","","","","","","","","","","","","","","","","","","","",""
"283","298129","SARL_v6","SARL_v6xabxw577","62bd2a704c56e669cce7ce56","freq","","","img/orange_2bandit_b2.png","70","","70","test","1","","67","","","","circle","square","65","15","3","0.9846153846153847","","","","","","","",""
"null","298651","SARL_v6","SARL_v6xabxw577","62bd2a704c56e669cce7ce56","freq_resp","","","img/orange_2bandit_b.png","70","img/orange_2bandit_b.png","70","test","","","","","","","","","","","3","","","","","","","","",""
"null","298806","SARL_v6","SARL_v6xabxw577","62bd2a704c56e669cce7ce56","fixation","","","img/fixation.png","null","","","test","","","","","","","","","","","","","","","","","","","",""
"272","299083","SARL_v6","SARL_v6xabxw577","62bd2a704c56e669cce7ce56","freq","","","img/orange_2bandit_b2.png","70","","70","test","1","","68","","","","circle","square","66","16","3","0.9848484848484849","","","","","","","",""
"null","299614","SARL_v6","SARL_v6xabxw577","62bd2a704c56e669cce7ce56","freq_resp","","","img/orange_2bandit_b.png","70","img/orange_2bandit_b.png","70","test","","","","","","","","","","","3","","","","","","","","",""
"null","299769","SARL_v6","SARL_v6xabxw577","62bd2a704c56e669cce7ce56","fixation","","","img/fixation.png","null","","","test","","","","","","","","","","","","","","","","","","","",""
"22","299797","SARL_v6","SARL_v6xabxw577","62bd2a704c56e669cce7ce56","freq","","","img/orange_2bandit_b2.png","70","","70","test","1","","69","","","","circle","square","67","17","3","0.9850746268656716","","","","","","","",""
"null","300582","SARL_v6","SARL_v6xabxw577","62bd2a704c56e669cce7ce56","freq_resp","","","img/orange_2bandit_b.png","70","img/orange_2bandit_b.png","70","test","","","","","","","","","","","3","","","","","","","","",""
"null","300737","SARL_v6","SARL_v6xabxw577","62bd2a704c56e669cce7ce56","fixation","","","img/fixation.png","null","","","test","","","","","","","","","","","","","","","","","","","",""
"313","301055","SARL_v6","SARL_v6xabxw577","62bd2a704c56e669cce7ce56","freq","","","img/orange_2bandit_b2.png","70","","70","test","1","","70","","","","circle","square","68","18","3","0.9852941176470589","","","","","","","",""
"null","301549","SARL_v6","SARL_v6xabxw577","62bd2a704c56e669cce7ce56","freq_resp","","","img/orange_2bandit_b.png","70","img/orange_2bandit_b.png","70","test","","","","","","","","","","","3","","","","","","","","",""
"null","301704","SARL_v6","SARL_v6xabxw577","62bd2a704c56e669cce7ce56","fixation","","","img/fixation.png","null","","","test","","","","","","","","","","","","","","","","","","","",""
"302","302010","SARL_v6","SARL_v6xabxw577","62bd2a704c56e669cce7ce56","freq","","","img/orange_2bandit_b2.png","70","","70","test","1","","71","","","","circle","square","69","19","3","0.9855072463768116","","","","","","","",""
"null","302512","SARL_v6","SARL_v6xabxw577","62bd2a704c56e669cce7ce56","freq_resp","","","img/orange_2bandit_b.png","70","img/orange_2bandit_b.png","70","test","","","","","","","","","","","3","","","","","","","","",""
"null","302666","SARL_v6","SARL_v6xabxw577","62bd2a704c56e669cce7ce56","fixation","","","img/fixation.png","null","","","test","","","","","","","","","","","","","","","","","","","",""
"273","302947","SARL_v6","SARL_v6xabxw577","62bd2a704c56e669cce7ce56","freq","","","img/orange_2bandit_b2.png","70","","70","test","1","","72","","","","circle","square","70","20","3","0.9857142857142858","","","","","","","",""
"null","303481","SARL_v6","SARL_v6xabxw577","62bd2a704c56e669cce7ce56","freq_resp","","","img/orange_2bandit_b.png","70","img/orange_2bandit_b.png","70","test","","","","","","","","","","","3","","","","","","","","",""
"null","303635","SARL_v6","SARL_v6xabxw577","62bd2a704c56e669cce7ce56","fixation","","","img/fixation.png","null","","","test","","","","","","","","","","","","","","","","","","","",""
"264","303906","SARL_v6","SARL_v6xabxw577","62bd2a704c56e669cce7ce56","freq","","","img/orange_2bandit_b2.png","70","","70","test","1","","73","","","","circle","square","71","21","3","0.9859154929577465","","","","","","","",""
"null","304447","SARL_v6","SARL_v6xabxw577","62bd2a704c56e669cce7ce56","freq_resp","","","img/orange_2bandit_b.png","70","img/orange_2bandit_b.png","70","test","","","","","","","","","","","3","","","","","","","","",""
"null","304602","SARL_v6","SARL_v6xabxw577","62bd2a704c56e669cce7ce56","fixation","","","img/fixation.png","null","","","test","","","","","","","","","","","","","","","","","","","",""
"267","304875","SARL_v6","SARL_v6xabxw577","62bd2a704c56e669cce7ce56","freq","","","img/orange_2bandit_b2.png","70","","70","test","1","","74","","","","circle","square","72","22","3","0.9861111111111112","","","","","","","",""
"null","305414","SARL_v6","SARL_v6xabxw577","62bd2a704c56e669cce7ce56","freq_resp","","","img/orange_2bandit_b.png","70","img/orange_2bandit_b.png","70","test","","","","","","","","","","","3","","","","","","","","",""
"null","305569","SARL_v6","SARL_v6xabxw577","62bd2a704c56e669cce7ce56","fixation","","","img/fixation.png","null","","","test","","","","","","","","","","","","","","","","","","","",""
"514","306087","SARL_v6","SARL_v6xabxw577","62bd2a704c56e669cce7ce56","rl","","","img/black_2bandit_b2.png","74","","0","test","","","75","","","-8","circle","square","","0","3","","74","-8","-4","-8","-4","circle","3","0"
"null","306844","SARL_v6","SARL_v6xabxw577","62bd2a704c56e669cce7ce56","feedback","","","<div class=""verylowPoints""> -8 </div>","null","","na","test","","","NaN","","","","","","","","3","","74","","","","","","3",""
"679","307528","SARL_v6","SARL_v6xabxw577","62bd2a704c56e669cce7ce56","freq","","","img/orange_2bandit_b2.png","70","","70","test","1","","76","","","","circle","square","73","1","4","0.9863013698630136","","","","","","","",""
"null","307654","SARL_v6","SARL_v6xabxw577","62bd2a704c56e669cce7ce56","freq_resp","","","img/orange_2bandit_b.png","70","img/orange_2bandit_b.png","70","test","","","","","","","","","","","4","","","","","","","","",""
"null","307811","SARL_v6","SARL_v6xabxw577","62bd2a704c56e669cce7ce56","fixation","","","img/fixation.png","null","","","test","","","","","","","","","","","","","","","","","","","",""
"null","308615","SARL_v6","SARL_v6xabxw577","62bd2a704c56e669cce7ce56","freq","","","img/orange_2bandit_b2.png","null","","70","test","0","","77","","","","circle","square","74","2","4","0.972972972972973","","","","","","","",""
"null","308771","SARL_v6","SARL_v6xabxw577","62bd2a704c56e669cce7ce56","fixation","","","img/fixation.png","null","","","test","","","","","","","","","","","","","","","","","","","",""
"168","308944","SARL_v6","SARL_v6xabxw577","62bd2a704c56e669cce7ce56","freq","","","img/orange_2bandit_b2.png","70","","70","test","1","","78","","","","circle","square","75","3","4","0.9733333333333334","","","","","","","",""
"null","309582","SARL_v6","SARL_v6xabxw577","62bd2a704c56e669cce7ce56","freq_resp","","","img/orange_2bandit_b.png","70","img/orange_2bandit_b.png","70","test","","","","","","","","","","","4","","","","","","","","",""
"null","309735","SARL_v6","SARL_v6xabxw577","62bd2a704c56e669cce7ce56","fixation","","","img/fixation.png","null","","","test","","","","","","","","","","","","","","","","","","","",""
"421","310161","SARL_v6","SARL_v6xabxw577","62bd2a704c56e669cce7ce56","freq","","","img/orange_2bandit_b2.png","70","","70","test","1","","79","","","","circle","square","76","4","4","0.9736842105263158","","","","","","","",""
"null","310546","SARL_v6","SARL_v6xabxw577","62bd2a704c56e669cce7ce56","freq_resp","","","img/orange_2bandit_b.png","70","img/orange_2bandit_b.png","70","test","","","","","","","","","","","4","","","","","","","","",""
"null","310702","SARL_v6","SARL_v6xabxw577","62bd2a704c56e669cce7ce56","fixation","","","img/fixation.png","null","","","test","","","","","","","","","","","","","","","","","","","",""
"439","311146","SARL_v6","SARL_v6xabxw577","62bd2a704c56e669cce7ce56","freq","","","img/orange_2bandit_b2.png","70","","70","test","1","","80","","","","circle","square","77","5","4","0.974025974025974","","","","","","","",""
"null","311513","SARL_v6","SARL_v6xabxw577","62bd2a704c56e669cce7ce56","freq_resp","","","img/orange_2bandit_b.png","70","img/orange_2bandit_b.png","70","test","","","","","","","","","","","4","","","","","","","","",""
"null","311668","SARL_v6","SARL_v6xabxw577","62bd2a704c56e669cce7ce56","fixation","","","img/fixation.png","null","","","test","","","","","","","","","","","","","","","","","","","",""
"354","312026","SARL_v6","SARL_v6xabxw577","62bd2a704c56e669cce7ce56","infreq","","","img/blue_2bandit_b2.png","68","","68","test","1","","81","","","","circle","square","78","6","4","0.9743589743589743","","","","","","","",""
"null","312478","SARL_v6","SARL_v6xabxw577","62bd2a704c56e669cce7ce56","infreq_resp","","","img/blue_2bandit_b.png","68","img/blue_2bandit_b.png","68","test","","","","","","","","","","","4","","","","","","","","",""
"null","312633","SARL_v6","SARL_v6xabxw577","62bd2a704c56e669cce7ce56","fixation","","","img/fixation.png","null","","","test","","","","","","","","","","","","","","","","","","","",""
"456","313093","SARL_v6","SARL_v6xabxw577","62bd2a704c56e669cce7ce56","freq","","","img/orange_2bandit_b2.png","70","","70","test","1","","82","","","","circle","square","79","7","4","0.9746835443037974","","","","","","","",""
"null","313442","SARL_v6","SARL_v6xabxw577","62bd2a704c56e669cce7ce56","freq_resp","","","img/orange_2bandit_b.png","70","img/orange_2bandit_b.png","70","test","","","","","","","","","","","4","","","","","","","","",""
"null","313597","SARL_v6","SARL_v6xabxw577","62bd2a704c56e669cce7ce56","fixation","","","img/fixation.png","null","","","test","","","","","","","","","","","","","","","","","","","",""
"353","313958","SARL_v6","SARL_v6xabxw577","62bd2a704c56e669cce7ce56","freq","","","img/orange_2bandit_b2.png","70","","70","test","1","","83","","","","circle","square","80","8","4","0.975","","","","","","","",""
"null","314410","SARL_v6","SARL_v6xabxw577","62bd2a704c56e669cce7ce56","freq_resp","","","img/orange_2bandit_b.png","70","img/orange_2bandit_b.png","70","test","","","","","","","","","","","4","","","","","","","","",""
"null","314566","SARL_v6","SARL_v6xabxw577","62bd2a704c56e669cce7ce56","fixation","","","img/fixation.png","null","","","test","","","","","","","","","","","","","","","","","","","",""
"713","315282","SARL_v6","SARL_v6xabxw577","62bd2a704c56e669cce7ce56","freq","","","img/orange_2bandit_b2.png","70","","70","test","1","","84","","","","circle","square","81","9","4","0.9753086419753086","","","","","","","",""
"null","315375","SARL_v6","SARL_v6xabxw577","62bd2a704c56e669cce7ce56","freq_resp","","","img/orange_2bandit_b.png","70","img/orange_2bandit_b.png","70","test","","","","","","","","","","","4","","","","","","","","",""
"null","315530","SARL_v6","SARL_v6xabxw577","62bd2a704c56e669cce7ce56","fixation","","","img/fixation.png","null","","","test","","","","","","","","","","","","","","","","","","","",""
"355","315890","SARL_v6","SARL_v6xabxw577","62bd2a704c56e669cce7ce56","freq","","","img/orange_2bandit_b2.png","70","","70","test","1","","85","","","","circle","square","82","10","4","0.975609756097561","","","","","","","",""
"null","316341","SARL_v6","SARL_v6xabxw577","62bd2a704c56e669cce7ce56","freq_resp","","","img/orange_2bandit_b.png","70","img/orange_2bandit_b.png","70","test","","","","","","","","","","","4","","","","","","","","",""
"null","316496","SARL_v6","SARL_v6xabxw577","62bd2a704c56e669cce7ce56","fixation","","","img/fixation.png","null","","","test","","","","","","","","","","","","","","","","","","","",""
"250","316751","SARL_v6","SARL_v6xabxw577","62bd2a704c56e669cce7ce56","freq","","","img/orange_2bandit_b2.png","70","","70","test","1","","86","","","","circle","square","83","11","4","0.9759036144578314","","","","","","","",""
"null","317308","SARL_v6","SARL_v6xabxw577","62bd2a704c56e669cce7ce56","freq_resp","","","img/orange_2bandit_b.png","70","img/orange_2bandit_b.png","70","test","","","","","","","","","","","4","","","","","","","","",""
"null","317464","SARL_v6","SARL_v6xabxw577","62bd2a704c56e669cce7ce56","fixation","","","img/fixation.png","null","","","test","","","","","","","","","","","","","","","","","","","",""
"270","317738","SARL_v6","SARL_v6xabxw577","62bd2a704c56e669cce7ce56","freq","","","img/orange_2bandit_b2.png","70","","70","test","1","","87","","","","circle","square","84","12","4","0.9761904761904762","","","","","","","",""
"null","318274","SARL_v6","SARL_v6xabxw577","62bd2a704c56e669cce7ce56","freq_resp","","","img/orange_2bandit_b.png","70","img/orange_2bandit_b.png","70","test","","","","","","","","","","","4","","","","","","","","",""
"null","318430","SARL_v6","SARL_v6xabxw577","62bd2a704c56e669cce7ce56","fixation","","","img/fixation.png","null","","","test","","","","","","","","","","","","","","","","","","","",""
"365","318800","SARL_v6","SARL_v6xabxw577","62bd2a704c56e669cce7ce56","infreq","","","img/blue_2bandit_b2.png","68","","68","test","1","","88","","","","circle","square","85","13","4","0.9764705882352941","","","","","","","",""
"null","319241","SARL_v6","SARL_v6xabxw577","62bd2a704c56e669cce7ce56","infreq_resp","","","img/blue_2bandit_b.png","68","img/blue_2bandit_b.png","68","test","","","","","","","","","","","4","","","","","","","","",""
"null","319394","SARL_v6","SARL_v6xabxw577","62bd2a704c56e669cce7ce56","fixation","","","img/fixation.png","null","","","test","","","","","","","","","","","","","","","","","","","",""
"357","319756","SARL_v6","SARL_v6xabxw577","62bd2a704c56e669cce7ce56","freq","","","img/orange_2bandit_b2.png","70","","70","test","1","","89","","","","circle","square","86","14","4","0.9767441860465116","","","","","","","",""
"null","320202","SARL_v6","SARL_v6xabxw577","62bd2a704c56e669cce7ce56","freq_resp","","","img/orange_2bandit_b.png","70","img/orange_2bandit_b.png","70","test","","","","","","","","","","","4","","","","","","","","",""
"null","320357","SARL_v6","SARL_v6xabxw577","62bd2a704c56e669cce7ce56","fixation","","","img/fixation.png","null","","","test","","","","","","","","","","","","","","","","","","","",""
"241","320603","SARL_v6","SARL_v6xabxw577","62bd2a704c56e669cce7ce56","freq","","","img/orange_2bandit_b2.png","70","","70","test","1","","90","","","","circle","square","87","15","4","0.9770114942528736","","","","","","","",""
"null","321167","SARL_v6","SARL_v6xabxw577","62bd2a704c56e669cce7ce56","freq_resp","","","img/orange_2bandit_b.png","70","img/orange_2bandit_b.png","70","test","","","","","","","","","","","4","","","","","","","","",""
"null","321322","SARL_v6","SARL_v6xabxw577","62bd2a704c56e669cce7ce56","fixation","","","img/fixation.png","null","","","test","","","","","","","","","","","","","","","","","","","",""
"300","321629","SARL_v6","SARL_v6xabxw577","62bd2a704c56e669cce7ce56","freq","","","img/orange_2bandit_b2.png","70","","70","test","1","","91","","","","circle","square","88","16","4","0.9772727272727273","","","","","","","",""
"null","322134","SARL_v6","SARL_v6xabxw577","62bd2a704c56e669cce7ce56","freq_resp","","","img/orange_2bandit_b.png","70","img/orange_2bandit_b.png","70","test","","","","","","","","","","","4","","","","","","","","",""
"null","322290","SARL_v6","SARL_v6xabxw577","62bd2a704c56e669cce7ce56","fixation","","","img/fixation.png","null","","","test","","","","","","","","","","","","","","","","","","","",""
"295","322591","SARL_v6","SARL_v6xabxw577","62bd2a704c56e669cce7ce56","freq","","","img/orange_2bandit_b2.png","70","","70","test","1","","92","","","","circle","square","89","17","4","0.9775280898876404","","","","","","","",""
"null","323099","SARL_v6","SARL_v6xabxw577","62bd2a704c56e669cce7ce56","freq_resp","","","img/orange_2bandit_b.png","70","img/orange_2bandit_b.png","70","test","","","","","","","","","","","4","","","","","","","","",""
"null","323255","SARL_v6","SARL_v6xabxw577","62bd2a704c56e669cce7ce56","fixation","","","img/fixation.png","null","","","test","","","","","","","","","","","","","","","","","","","",""
"275","323535","SARL_v6","SARL_v6xabxw577","62bd2a704c56e669cce7ce56","freq","","","img/orange_2bandit_b2.png","70","","70","test","1","","93","","","","circle","square","90","18","4","0.9777777777777777","","","","","","","",""
"null","324066","SARL_v6","SARL_v6xabxw577","62bd2a704c56e669cce7ce56","freq_resp","","","img/orange_2bandit_b.png","70","img/orange_2bandit_b.png","70","test","","","","","","","","","","","4","","","","","","","","",""
"null","324219","SARL_v6","SARL_v6xabxw577","62bd2a704c56e669cce7ce56","fixation","","","img/fixation.png","null","","","test","","","","","","","","","","","","","","","","","","","",""
"273","324497","SARL_v6","SARL_v6xabxw577","62bd2a704c56e669cce7ce56","freq","","","img/orange_2bandit_b2.png","70","","70","test","1","","94","","","","circle","square","91","19","4","0.978021978021978","","","","","","","",""
"null","325032","SARL_v6","SARL_v6xabxw577","62bd2a704c56e669cce7ce56","freq_resp","","","img/orange_2bandit_b.png","70","img/orange_2bandit_b.png","70","test","","","","","","","","","","","4","","","","","","","","",""
"null","325186","SARL_v6","SARL_v6xabxw577","62bd2a704c56e669cce7ce56","fixation","","","img/fixation.png","null","","","test","","","","","","","","","","","","","","","","","","","",""
"312","325505","SARL_v6","SARL_v6xabxw577","62bd2a704c56e669cce7ce56","rl","","","img/black_2bandit_b2.png","75","","0","test","","","95","","","0","circle","square","","0","4","","75","-12","0","-12","0","square","4","0"
"null","326260","SARL_v6","SARL_v6xabxw577","62bd2a704c56e669cce7ce56","feedback","","","<div class=""verylowPoints_sq""> 0 </div>","null","","na","test","","","NaN","","","","","","","","4","","75","","","","","","4",""
"346","326612","SARL_v6","SARL_v6xabxw577","62bd2a704c56e669cce7ce56","freq","","","img/orange_2bandit_b2.png","70","","70","test","1","","96","","","","circle","square","92","1","5","0.9782608695652174","","","","","","","",""
"null","327072","SARL_v6","SARL_v6xabxw577","62bd2a704c56e669cce7ce56","freq_resp","","","img/orange_2bandit_b.png","70","img/orange_2bandit_b.png","70","test","","","","","","","","","","","5","","","","","","","","",""
"null","327227","SARL_v6","SARL_v6xabxw577","62bd2a704c56e669cce7ce56","fixation","","","img/fixation.png","null","","","test","","","","","","","","","","","","","","","","","","","",""
"239","327472","SARL_v6","SARL_v6xabxw577","62bd2a704c56e669cce7ce56","freq","","","img/orange_2bandit_b2.png","70","","70","test","1","","97","","","","circle","square","93","2","5","0.978494623655914","","","","","","","",""
"null","328039","SARL_v6","SARL_v6xabxw577","62bd2a704c56e669cce7ce56","freq_resp","","","img/orange_2bandit_b.png","70","img/orange_2bandit_b.png","70","test","","","","","","","","","","","5","","","","","","","","",""
"null","328192","SARL_v6","SARL_v6xabxw577","62bd2a704c56e669cce7ce56","fixation","","","img/fixation.png","null","","","test","","","","","","","","","","","","","","","","","","","",""
"245","328442","SARL_v6","SARL_v6xabxw577","62bd2a704c56e669cce7ce56","freq","","","img/orange_2bandit_b2.png","70","","70","test","1","","98","","","","circle","square","94","3","5","0.9787234042553191","","","","","","","",""
"null","329002","SARL_v6","SARL_v6xabxw577","62bd2a704c56e669cce7ce56","freq_resp","","","img/orange_2bandit_b.png","70","img/orange_2bandit_b.png","70","test","","","","","","","","","","","5","","","","","","","","",""
"null","329158","SARL_v6","SARL_v6xabxw577","62bd2a704c56e669cce7ce56","fixation","","","img/fixation.png","null","","","test","","","","","","","","","","","","","","","","","","","",""
"272","329435","SARL_v6","SARL_v6xabxw577","62bd2a704c56e669cce7ce56","freq","","","img/orange_2bandit_b2.png","70","","70","test","1","","99","","","","circle","square","95","4","5","0.9789473684210527","","","","","","","",""
"null","329969","SARL_v6","SARL_v6xabxw577","62bd2a704c56e669cce7ce56","freq_resp","","","img/orange_2bandit_b.png","70","img/orange_2bandit_b.png","70","test","","","","","","","","","","","5","","","","","","","","",""
"null","330124","SARL_v6","SARL_v6xabxw577","62bd2a704c56e669cce7ce56","fixation","","","img/fixation.png","null","","","test","","","","","","","","","","","","","","","","","","","",""
"269","330398","SARL_v6","SARL_v6xabxw577","62bd2a704c56e669cce7ce56","freq","","","img/orange_2bandit_b2.png","70","","70","test","1","","100","","","","circle","square","96","5","5","0.9791666666666666","","","","","","","",""
"null","330936","SARL_v6","SARL_v6xabxw577","62bd2a704c56e669cce7ce56","freq_resp","","","img/orange_2bandit_b.png","70","img/orange_2bandit_b.png","70","test","","","","","","","","","","","5","","","","","","","","",""
"null","331090","SARL_v6","SARL_v6xabxw577","62bd2a704c56e669cce7ce56","fixation","","","img/fixation.png","null","","","test","","","","","","","","","","","","","","","","","","","",""
"236","331333","SARL_v6","SARL_v6xabxw577","62bd2a704c56e669cce7ce56","freq","","","img/orange_2bandit_b2.png","70","","70","test","1","","101","","","","circle","square","97","6","5","0.979381443298969","","","","","","","",""
"null","331903","SARL_v6","SARL_v6xabxw577","62bd2a704c56e669cce7ce56","freq_resp","","","img/orange_2bandit_b.png","70","img/orange_2bandit_b.png","70","test","","","","","","","","","","","5","","","","","","","","",""
"null","332062","SARL_v6","SARL_v6xabxw577","62bd2a704c56e669cce7ce56","fixation","","","img/fixation.png","null","","","test","","","","","","","","","","","","","","","","","","","",""
"318","332384","SARL_v6","SARL_v6xabxw577","62bd2a704c56e669cce7ce56","freq","","","img/orange_2bandit_b2.png","70","","70","test","1","","102","","","","circle","square","98","7","5","0.9795918367346939","","","","","","","",""
"null","332870","SARL_v6","SARL_v6xabxw577","62bd2a704c56e669cce7ce56","freq_resp","","","img/orange_2bandit_b.png","70","img/orange_2bandit_b.png","70","test","","","","","","","","","","","5","","","","","","","","",""
"null","333026","SARL_v6","SARL_v6xabxw577","62bd2a704c56e669cce7ce56","fixation","","","img/fixation.png","null","","","test","","","","","","","","","","","","","","","","","","","",""
"268","333298","SARL_v6","SARL_v6xabxw577","62bd2a704c56e669cce7ce56","freq","","","img/orange_2bandit_b2.png","70","","70","test","1","","103","","","","circle","square","99","8","5","0.9797979797979798","","","","","","","",""
"null","333836","SARL_v6","SARL_v6xabxw577","62bd2a704c56e669cce7ce56","freq_resp","","","img/orange_2bandit_b.png","70","img/orange_2bandit_b.png","70","test","","","","","","","","","","","5","","","","","","","","",""
"null","333991","SARL_v6","SARL_v6xabxw577","62bd2a704c56e669cce7ce56","fixation","","","img/fixation.png","null","","","test","","","","","","","","","","","","","","","","","","","",""
"248","334245","SARL_v6","SARL_v6xabxw577","62bd2a704c56e669cce7ce56","freq","","","img/orange_2bandit_b2.png","70","","70","test","1","","104","","","","circle","square","100","9","5","0.98","","","","","","","",""
"null","334802","SARL_v6","SARL_v6xabxw577","62bd2a704c56e669cce7ce56","freq_resp","","","img/orange_2bandit_b.png","70","img/orange_2bandit_b.png","70","test","","","","","","","","","","","5","","","","","","","","",""
"null","334958","SARL_v6","SARL_v6xabxw577","62bd2a704c56e669cce7ce56","fixation","","","img/fixation.png","null","","","test","","","","","","","","","","","","","","","","","","","",""
"234","335197","SARL_v6","SARL_v6xabxw577","62bd2a704c56e669cce7ce56","freq","","","img/orange_2bandit_b2.png","70","","70","test","1","","105","","","","circle","square","101","10","5","0.9801980198019802","","","","","","","",""
"null","335770","SARL_v6","SARL_v6xabxw577","62bd2a704c56e669cce7ce56","freq_resp","","","img/orange_2bandit_b.png","70","img/orange_2bandit_b.png","70","test","","","","","","","","","","","5","","","","","","","","",""
"null","335925","SARL_v6","SARL_v6xabxw577","62bd2a704c56e669cce7ce56","fixation","","","img/fixation.png","null","","","test","","","","","","","","","","","","","","","","","","","",""
"207","336139","SARL_v6","SARL_v6xabxw577","62bd2a704c56e669cce7ce56","infreq","","","img/blue_2bandit_b2.png","70","","68","test","0","","106","","","","circle","square","102","11","5","0.9705882352941176","","","","","","","",""
"null","336738","SARL_v6","SARL_v6xabxw577","62bd2a704c56e669cce7ce56","infreq_resp","","","img/blue_2bandit_b.png","70","img/blue_2bandit_b.png","68","test","","","","","","","","","","","5","","","","","","","","",""
"null","336893","SARL_v6","SARL_v6xabxw577","62bd2a704c56e669cce7ce56","fixation","","","img/fixation.png","null","","","test","","","","","","","","","","","","","","","","","","","",""
"284","337183","SARL_v6","SARL_v6xabxw577","62bd2a704c56e669cce7ce56","freq","","","img/orange_2bandit_b2.png","70","","70","test","1","","107","","","","circle","square","103","12","5","0.970873786407767","","","","","","","",""
"null","337704","SARL_v6","SARL_v6xabxw577","62bd2a704c56e669cce7ce56","freq_resp","","","img/orange_2bandit_b.png","70","img/orange_2bandit_b.png","70","test","","","","","","","","","","","5","","","","","","","","",""
"null","337859","SARL_v6","SARL_v6xabxw577","62bd2a704c56e669cce7ce56","fixation","","","img/fixation.png","null","","","test","","","","","","","","","","","","","","","","","","","",""
"269","338131","SARL_v6","SARL_v6xabxw577","62bd2a704c56e669cce7ce56","freq","","","img/orange_2bandit_b2.png","70","","70","test","1","","108","","","","circle","square","104","13","5","0.9711538461538461","","","","","","","",""
"null","338667","SARL_v6","SARL_v6xabxw577","62bd2a704c56e669cce7ce56","freq_resp","","","img/orange_2bandit_b.png","70","img/orange_2bandit_b.png","70","test","","","","","","","","","","","5","","","","","","","","",""
"null","338822","SARL_v6","SARL_v6xabxw577","62bd2a704c56e669cce7ce56","fixation","","","img/fixation.png","null","","","test","","","","","","","","","","","","","","","","","","","",""
"263","339090","SARL_v6","SARL_v6xabxw577","62bd2a704c56e669cce7ce56","freq","","","img/orange_2bandit_b2.png","70","","70","test","1","","109","","","","circle","square","105","14","5","0.9714285714285714","","","","","","","",""
"null","339633","SARL_v6","SARL_v6xabxw577","62bd2a704c56e669cce7ce56","freq_resp","","","img/orange_2bandit_b.png","70","img/orange_2bandit_b.png","70","test","","","","","","","","","","","5","","","","","","","","",""
"null","339788","SARL_v6","SARL_v6xabxw577","62bd2a704c56e669cce7ce56","fixation","","","img/fixation.png","null","","","test","","","","","","","","","","","","","","","","","","","",""
"277","340070","SARL_v6","SARL_v6xabxw577","62bd2a704c56e669cce7ce56","freq","","","img/orange_2bandit_b2.png","70","","70","test","1","","110","","","","circle","square","106","15","5","0.9716981132075472","","","","","","","",""
"null","340599","SARL_v6","SARL_v6xabxw577","62bd2a704c56e669cce7ce56","freq_resp","","","img/orange_2bandit_b.png","70","img/orange_2bandit_b.png","70","test","","","","","","","","","","","5","","","","","","","","",""
"null","340755","SARL_v6","SARL_v6xabxw577","62bd2a704c56e669cce7ce56","fixation","","","img/fixation.png","null","","","test","","","","","","","","","","","","","","","","","","","",""
"367","341127","SARL_v6","SARL_v6xabxw577","62bd2a704c56e669cce7ce56","infreq","","","img/blue_2bandit_b2.png","68","","68","test","1","","111","","","","circle","square","107","16","5","0.9719626168224299","","","","","","","",""
"null","341565","SARL_v6","SARL_v6xabxw577","62bd2a704c56e669cce7ce56","infreq_resp","","","img/blue_2bandit_b.png","68","img/blue_2bandit_b.png","68","test","","","","","","","","","","","5","","","","","","","","",""
"null","341722","SARL_v6","SARL_v6xabxw577","62bd2a704c56e669cce7ce56","fixation","","","img/fixation.png","null","","","test","","","","","","","","","","","","","","","","","","","",""
"298","342025","SARL_v6","SARL_v6xabxw577","62bd2a704c56e669cce7ce56","freq","","","img/orange_2bandit_b2.png","70","","70","test","1","","112","","","","circle","square","108","17","5","0.9722222222222222","","","","","","","",""
"null","342532","SARL_v6","SARL_v6xabxw577","62bd2a704c56e669cce7ce56","freq_resp","","","img/orange_2bandit_b.png","70","img/orange_2bandit_b.png","70","test","","","","","","","","","","","5","","","","","","","","",""
"null","342686","SARL_v6","SARL_v6xabxw577","62bd2a704c56e669cce7ce56","fixation","","","img/fixation.png","null","","","test","","","","","","","","","","","","","","","","","","","",""
"285","342976","SARL_v6","SARL_v6xabxw577","62bd2a704c56e669cce7ce56","freq","","","img/orange_2bandit_b2.png","70","","70","test","1","","113","","","","circle","square","109","18","5","0.9724770642201835","","","","","","","",""
"null","343498","SARL_v6","SARL_v6xabxw577","62bd2a704c56e669cce7ce56","freq_resp","","","img/orange_2bandit_b.png","70","img/orange_2bandit_b.png","70","test","","","","","","","","","","","5","","","","","","","","",""
"null","343656","SARL_v6","SARL_v6xabxw577","62bd2a704c56e669cce7ce56","fixation","","","img/fixation.png","null","","","test","","","","","","","","","","","","","","","","","","","",""
"265","343929","SARL_v6","SARL_v6xabxw577","62bd2a704c56e669cce7ce56","freq","","","img/orange_2bandit_b2.png","70","","70","test","1","","114","","","","circle","square","110","19","5","0.9727272727272728","","","","","","","",""
"null","344469","SARL_v6","SARL_v6xabxw577","62bd2a704c56e669cce7ce56","freq_resp","","","img/orange_2bandit_b.png","70","img/orange_2bandit_b.png","70","test","","","","","","","","","","","5","","","","","","","","",""
"null","344625","SARL_v6","SARL_v6xabxw577","62bd2a704c56e669cce7ce56","fixation","","","img/fixation.png","null","","","test","","","","","","","","","","","","","","","","","","","",""
"285","344916","SARL_v6","SARL_v6xabxw577","62bd2a704c56e669cce7ce56","freq","","","img/orange_2bandit_b2.png","70","","70","test","1","","115","","","","circle","square","111","20","5","0.972972972972973","","","","","","","",""
"null","345436","SARL_v6","SARL_v6xabxw577","62bd2a704c56e669cce7ce56","freq_resp","","","img/orange_2bandit_b.png","70","img/orange_2bandit_b.png","70","test","","","","","","","","","","","5","","","","","","","","",""
"null","345592","SARL_v6","SARL_v6xabxw577","62bd2a704c56e669cce7ce56","fixation","","","img/fixation.png","null","","","test","","","","","","","","","","","","","","","","","","","",""
"287","345885","SARL_v6","SARL_v6xabxw577","62bd2a704c56e669cce7ce56","freq","","","img/orange_2bandit_b2.png","70","","70","test","1","","116","","","","circle","square","112","21","5","0.9732142857142857","","","","","","","",""
"null","346403","SARL_v6","SARL_v6xabxw577","62bd2a704c56e669cce7ce56","freq_resp","","","img/orange_2bandit_b.png","70","img/orange_2bandit_b.png","70","test","","","","","","","","","","","5","","","","","","","","",""
"null","346558","SARL_v6","SARL_v6xabxw577","62bd2a704c56e669cce7ce56","fixation","","","img/fixation.png","null","","","test","","","","","","","","","","","","","","","","","","","",""
"297","346861","SARL_v6","SARL_v6xabxw577","62bd2a704c56e669cce7ce56","freq","","","img/orange_2bandit_b2.png","70","","70","test","1","","117","","","","circle","square","113","22","5","0.9734513274336283","","","","","","","",""
"null","347370","SARL_v6","SARL_v6xabxw577","62bd2a704c56e669cce7ce56","freq_resp","","","img/orange_2bandit_b.png","70","img/orange_2bandit_b.png","70","test","","","","","","","","","","","5","","","","","","","","",""
"null","347526","SARL_v6","SARL_v6xabxw577","62bd2a704c56e669cce7ce56","fixation","","","img/fixation.png","null","","","test","","","","","","","","","","","","","","","","","","","",""
"258","347789","SARL_v6","SARL_v6xabxw577","62bd2a704c56e669cce7ce56","freq","","","img/orange_2bandit_b2.png","70","","70","test","1","","118","","","","circle","square","114","23","5","0.9736842105263158","","","","","","","",""
"null","348337","SARL_v6","SARL_v6xabxw577","62bd2a704c56e669cce7ce56","freq_resp","","","img/orange_2bandit_b.png","70","img/orange_2bandit_b.png","70","test","","","","","","","","","","","5","","","","","","","","",""
"null","348492","SARL_v6","SARL_v6xabxw577","62bd2a704c56e669cce7ce56","fixation","","","img/fixation.png","null","","","test","","","","","","","","","","","","","","","","","","","",""
"412","348911","SARL_v6","SARL_v6xabxw577","62bd2a704c56e669cce7ce56","rl","","","img/black_2bandit_b2.png","75","","0","test","","","119","","","4","circle","square","","0","5","","75","-7","4","-7","4","square","5","0"
"null","349668","SARL_v6","SARL_v6xabxw577","62bd2a704c56e669cce7ce56","feedback","","","<div class=""veryhighPoints_sq""> 4 </div>","null","","na","test","","","NaN","","","","","","","","5","","75","","","","","","5",""
"459","350133","SARL_v6","SARL_v6xabxw577","62bd2a704c56e669cce7ce56","freq","","","img/orange_2bandit_b2.png","70","","70","test","1","","120","","","","circle","square","115","1","6","0.9739130434782609","","","","","","","",""
"null","350480","SARL_v6","SARL_v6xabxw577","62bd2a704c56e669cce7ce56","freq_resp","","","img/orange_2bandit_b.png","70","img/orange_2bandit_b.png","70","test","","","","","","","","","","","6","","","","","","","","",""
"null","350635","SARL_v6","SARL_v6xabxw577","62bd2a704c56e669cce7ce56","fixation","","","img/fixation.png","null","","","test","","","","","","","","","","","","","","","","","","","",""
"349","350991","SARL_v6","SARL_v6xabxw577","62bd2a704c56e669cce7ce56","freq","","","img/orange_2bandit_b2.png","70","","70","test","1","","121","","","","circle","square","116","2","6","0.9741379310344828","","","","","","","",""
"null","351448","SARL_v6","SARL_v6xabxw577","62bd2a704c56e669cce7ce56","freq_resp","","","img/orange_2bandit_b.png","70","img/orange_2bandit_b.png","70","test","","","","","","","","","","","6","","","","","","","","",""
"null","351603","SARL_v6","SARL_v6xabxw577","62bd2a704c56e669cce7ce56","fixation","","","img/fixation.png","null","","","test","","","","","","","","","","","","","","","","","","","",""
"345","351953","SARL_v6","SARL_v6xabxw577","62bd2a704c56e669cce7ce56","freq","","","img/orange_2bandit_b2.png","70","","70","test","1","","122","","","","circle","square","117","3","6","0.9743589743589743","","","","","","","",""
"null","352411","SARL_v6","SARL_v6xabxw577","62bd2a704c56e669cce7ce56","freq_resp","","","img/orange_2bandit_b.png","70","img/orange_2bandit_b.png","70","test","","","","","","","","","","","6","","","","","","","","",""
"null","352567","SARL_v6","SARL_v6xabxw577","62bd2a704c56e669cce7ce56","fixation","","","img/fixation.png","null","","","test","","","","","","","","","","","","","","","","","","","",""
"307","352880","SARL_v6","SARL_v6xabxw577","62bd2a704c56e669cce7ce56","freq","","","img/orange_2bandit_b2.png","70","","70","test","1","","123","","","","circle","square","118","4","6","0.9745762711864406","","","","","","","",""
"null","353380","SARL_v6","SARL_v6xabxw577","62bd2a704c56e669cce7ce56","freq_resp","","","img/orange_2bandit_b.png","70","img/orange_2bandit_b.png","70","test","","","","","","","","","","","6","","","","","","","","",""
"null","353536","SARL_v6","SARL_v6xabxw577","62bd2a704c56e669cce7ce56","fixation","","","img/fixation.png","null","","","test","","","","","","","","","","","","","","","","","","","",""
"311","353851","SARL_v6","SARL_v6xabxw577","62bd2a704c56e669cce7ce56","freq","","","img/orange_2bandit_b2.png","70","","70","test","1","","124","","","","circle","square","119","5","6","0.9747899159663865","","","","","","","",""
"null","354346","SARL_v6","SARL_v6xabxw577","62bd2a704c56e669cce7ce56","freq_resp","","","img/orange_2bandit_b.png","70","img/orange_2bandit_b.png","70","test","","","","","","","","","","","6","","","","","","","","",""
"null","354502","SARL_v6","SARL_v6xabxw577","62bd2a704c56e669cce7ce56","fixation","","","img/fixation.png","null","","","test","","","","","","","","","","","","","","","","","","","",""
"306","354814","SARL_v6","SARL_v6xabxw577","62bd2a704c56e669cce7ce56","freq","","","img/orange_2bandit_b2.png","70","","70","test","1","","125","","","","circle","square","120","6","6","0.975","","","","","","","",""
"null","355316","SARL_v6","SARL_v6xabxw577","62bd2a704c56e669cce7ce56","freq_resp","","","img/orange_2bandit_b.png","70","img/orange_2bandit_b.png","70","test","","","","","","","","","","","6","","","","","","","","",""
"null","355471","SARL_v6","SARL_v6xabxw577","62bd2a704c56e669cce7ce56","fixation","","","img/fixation.png","null","","","test","","","","","","","","","","","","","","","","","","","",""
"298","355774","SARL_v6","SARL_v6xabxw577","62bd2a704c56e669cce7ce56","freq","","","img/orange_2bandit_b2.png","70","","70","test","1","","126","","","","circle","square","121","7","6","0.9752066115702479","","","","","","","",""
"null","356283","SARL_v6","SARL_v6xabxw577","62bd2a704c56e669cce7ce56","freq_resp","","","img/orange_2bandit_b.png","70","img/orange_2bandit_b.png","70","test","","","","","","","","","","","6","","","","","","","","",""
"null","356437","SARL_v6","SARL_v6xabxw577","62bd2a704c56e669cce7ce56","fixation","","","img/fixation.png","null","","","test","","","","","","","","","","","","","","","","","","","",""
"292","356733","SARL_v6","SARL_v6xabxw577","62bd2a704c56e669cce7ce56","freq","","","img/orange_2bandit_b2.png","70","","70","test","1","","127","","","","circle","square","122","8","6","0.9754098360655737","","","","","","","",""
"null","357247","SARL_v6","SARL_v6xabxw577","62bd2a704c56e669cce7ce56","freq_resp","","","img/orange_2bandit_b.png","70","img/orange_2bandit_b.png","70","test","","","","","","","","","","","6","","","","","","","","",""
"null","357403","SARL_v6","SARL_v6xabxw577","62bd2a704c56e669cce7ce56","fixation","","","img/fixation.png","null","","","test","","","","","","","","","","","","","","","","","","","",""
"347","357755","SARL_v6","SARL_v6xabxw577","62bd2a704c56e669cce7ce56","freq","","","img/orange_2bandit_b2.png","70","","70","test","1","","128","","","","circle","square","123","9","6","0.975609756097561","","","","","","","",""
"null","358213","SARL_v6","SARL_v6xabxw577","62bd2a704c56e669cce7ce56","freq_resp","","","img/orange_2bandit_b.png","70","img/orange_2bandit_b.png","70","test","","","","","","","","","","","6","","","","","","","","",""
"null","358368","SARL_v6","SARL_v6xabxw577","62bd2a704c56e669cce7ce56","fixation","","","img/fixation.png","null","","","test","","","","","","","","","","","","","","","","","","","",""
"388","358763","SARL_v6","SARL_v6xabxw577","62bd2a704c56e669cce7ce56","infreq","","","img/blue_2bandit_b2.png","68","","68","test","1","","129","","","","circle","square","124","10","6","0.9758064516129032","","","","","","","",""
"null","359182","SARL_v6","SARL_v6xabxw577","62bd2a704c56e669cce7ce56","infreq_resp","","","img/blue_2bandit_b.png","68","img/blue_2bandit_b.png","68","test","","","","","","","","","","","6","","","","","","","","",""
"null","359337","SARL_v6","SARL_v6xabxw577","62bd2a704c56e669cce7ce56","fixation","","","img/fixation.png","null","","","test","","","","","","","","","","","","","","","","","","","",""
"422","359765","SARL_v6","SARL_v6xabxw577","62bd2a704c56e669cce7ce56","freq","","","img/orange_2bandit_b2.png","70","","70","test","1","","130","","","","circle","square","125","11","6","0.976","","","","","","","",""
"null","360147","SARL_v6","SARL_v6xabxw577","62bd2a704c56e669cce7ce56","freq_resp","","","img/orange_2bandit_b.png","70","img/orange_2bandit_b.png","70","test","","","","","","","","","","","6","","","","","","","","",""
"null","360303","SARL_v6","SARL_v6xabxw577","62bd2a704c56e669cce7ce56","fixation","","","img/fixation.png","null","","","test","","","","","","","","","","","","","","","","","","","",""
"346","360654","SARL_v6","SARL_v6xabxw577","62bd2a704c56e669cce7ce56","freq","","","img/orange_2bandit_b2.png","70","","70","test","1","","131","","","","circle","square","126","12","6","0.9761904761904762","","","","","","","",""
"null","361113","SARL_v6","SARL_v6xabxw577","62bd2a704c56e669cce7ce56","freq_resp","","","img/orange_2bandit_b.png","70","img/orange_2bandit_b.png","70","test","","","","","","","","","","","6","","","","","","","","",""
"null","361269","SARL_v6","SARL_v6xabxw577","62bd2a704c56e669cce7ce56","fixation","","","img/fixation.png","null","","","test","","","","","","","","","","","","","","","","","","","",""
"306","361583","SARL_v6","SARL_v6xabxw577","62bd2a704c56e669cce7ce56","freq","","","img/orange_2bandit_b2.png","70","","70","test","1","","132","","","","circle","square","127","13","6","0.9763779527559056","","","","","","","",""
"null","362082","SARL_v6","SARL_v6xabxw577","62bd2a704c56e669cce7ce56","freq_resp","","","img/orange_2bandit_b.png","70","img/orange_2bandit_b.png","70","test","","","","","","","","","","","6","","","","","","","","",""
