"rt","time_elapsed","expId","subject","prolificID","trialType","rlType","attType","stimulus","key_press","stim","corrresp","phase","corr","pracCounter","trialNum","rewardOne","rewardTwo","reward","bandOne","bandTwo","attentionNum","attentionRunNum","blockNum","performance","bandChosen","circleVal","squareVal","bandOneVal","bandTwoVal","shapeChosen","rlNum","badFlag"
"14282.60000000149","14286","SARL_v6","SARL_v6zmfob1m7","62c5fbbb796500bb5406d772","","","","","","","","","","","","","","","","","","","","","","","","","","","",""
"","16458","SARL_v6","SARL_v6zmfob1m7","62c5fbbb796500bb5406d772","fullscreen","fullscreen","fullscreen","","","","","","","","","","","","","","","","","","","","","","","","",""
"58688.20000000298","75150","SARL_v6","SARL_v6zmfob1m7","62c5fbbb796500bb5406d772","","","","","","","","","","","","","","","","","","","","","","","","","","","",""
"null","75963","SARL_v6","SARL_v6zmfob1m7","62c5fbbb796500bb5406d772","freqPrac","","","img/blue_2bandit_a2.png","null","img/blue_2bandit_a2.png","70","prac","0","1","","","","","","","","","","","","","","","","","",""
"null","76971","SARL_v6","SARL_v6zmfob1m7","62c5fbbb796500bb5406d772","feedback","","","img/tooSlow.png","null","","na","prac","","","","","","","","","","","","","","","","","","","",""
"null","77133","SARL_v6","SARL_v6zmfob1m7","62c5fbbb796500bb5406d772","fixation","","","img/fixation.png","null","","","prac","","","","","","","","","","","","","","","","","","","",""
"568.7000000029802","77704","SARL_v6","SARL_v6zmfob1m7","62c5fbbb796500bb5406d772","infreqPrac","","","img/orange_2bandit_a2.png","68","img/orange_2bandit_a2.png","68","prac","1","1","","","","","","","","","","","","","","","","","",""
"568.7000000029802","77946","SARL_v6","SARL_v6zmfob1m7","62c5fbbb796500bb5406d772","infreqPrac_resp","","","img/orange_2bandit_a.png","68","img/orange_2bandit_a.png","68","prac","","","","","","","","","","","","","","","","","","","",""
"null","78108","SARL_v6","SARL_v6zmfob1m7","62c5fbbb796500bb5406d772","fixation","","","img/fixation.png","null","","","prac","","","","","","","","","","","","","","","","","","","",""
"474.5","78584","SARL_v6","SARL_v6zmfob1m7","62c5fbbb796500bb5406d772","freqPrac","","","img/blue_2bandit_a2.png","70","img/blue_2bandit_a2.png","70","prac","1","1","","","","","","","","","","","","","","","","","",""
"474.5","78915","SARL_v6","SARL_v6zmfob1m7","62c5fbbb796500bb5406d772","freqPrac_resp","","","img/blue_2bandit_a.png","70","img/blue_2bandit_a.png","70","prac","","","","","","","","","","","","","","","","","","","",""
"null","79075","SARL_v6","SARL_v6zmfob1m7","62c5fbbb796500bb5406d772","fixation","","","img/fixation.png","null","","","prac","","","","","","","","","","","","","","","","","","","",""
"380.20000000298023","79458","SARL_v6","SARL_v6zmfob1m7","62c5fbbb796500bb5406d772","infreqPrac","","","img/orange_2bandit_a2.png","68","img/orange_2bandit_a2.png","68","prac","1","1","","","","","","","","","","","","","","","","","",""
"380.20000000298023","79887","SARL_v6","SARL_v6zmfob1m7","62c5fbbb796500bb5406d772","infreqPrac_resp","","","img/orange_2bandit_a.png","68","img/orange_2bandit_a.png","68","prac","","","","","","","","","","","","","","","","","","","",""
"null","80047","SARL_v6","SARL_v6zmfob1m7","62c5fbbb796500bb5406d772","fixation","","","img/fixation.png","null","","","prac","","","","","","","","","","","","","","","","","","","",""
"397.19999999552965","80447","SARL_v6","SARL_v6zmfob1m7","62c5fbbb796500bb5406d772","infreqPrac","","","img/orange_2bandit_a2.png","68","img/orange_2bandit_a2.png","68","prac","1","1","","","","","","","","","","","","","","","","","",""
"397.19999999552965","80859","SARL_v6","SARL_v6zmfob1m7","62c5fbbb796500bb5406d772","infreqPrac_resp","","","img/orange_2bandit_a.png","68","img/orange_2bandit_a.png","68","prac","","","","","","","","","","","","","","","","","","","",""
"null","81019","SARL_v6","SARL_v6zmfob1m7","62c5fbbb796500bb5406d772","fixation","","","img/fixation.png","null","","","prac","","","","","","","","","","","","","","","","","","","",""
"342.8999999985099","81364","SARL_v6","SARL_v6zmfob1m7","62c5fbbb796500bb5406d772","infreqPrac","","","img/orange_2bandit_a2.png","68","img/orange_2bandit_a2.png","68","prac","1","1","","","","","","","","","","","","","","","","","",""
"342.8999999985099","81828","SARL_v6","SARL_v6zmfob1m7","62c5fbbb796500bb5406d772","infreqPrac_resp","","","img/orange_2bandit_a.png","68","img/orange_2bandit_a.png","68","prac","","","","","","","","","","","","","","","","","","","",""
"null","81986","SARL_v6","SARL_v6zmfob1m7","62c5fbbb796500bb5406d772","fixation","","","img/fixation.png","null","","","prac","","","","","","","","","","","","","","","","","","","",""
"509.1000000014901","82498","SARL_v6","SARL_v6zmfob1m7","62c5fbbb796500bb5406d772","freqPrac","","","img/blue_2bandit_a2.png","70","img/blue_2bandit_a2.png","70","prac","1","1","","","","","","","","","","","","","","","","","",""
"509.1000000014901","82799","SARL_v6","SARL_v6zmfob1m7","62c5fbbb796500bb5406d772","freqPrac_resp","","","img/blue_2bandit_a.png","70","img/blue_2bandit_a.png","70","prac","","","","","","","","","","","","","","","","","","","",""
"null","82954","SARL_v6","SARL_v6zmfob1m7","62c5fbbb796500bb5406d772","fixation","","","img/fixation.png","null","","","prac","","","","","","","","","","","","","","","","","","","",""
"387.5","83344","SARL_v6","SARL_v6zmfob1m7","62c5fbbb796500bb5406d772","infreqPrac","","","img/orange_2bandit_a2.png","68","img/orange_2bandit_a2.png","68","prac","1","1","","","","","","","","","","","","","","","","","",""
"387.5","83765","SARL_v6","SARL_v6zmfob1m7","62c5fbbb796500bb5406d772","infreqPrac_resp","","","img/orange_2bandit_a.png","68","img/orange_2bandit_a.png","68","prac","","","","","","","","","","","","","","","","","","","",""
"null","83926","SARL_v6","SARL_v6zmfob1m7","62c5fbbb796500bb5406d772","fixation","","","img/fixation.png","null","","","prac","","","","","","","","","","","","","","","","","","","",""
"469.3999999985099","84397","SARL_v6","SARL_v6zmfob1m7","62c5fbbb796500bb5406d772","freqPrac","","","img/blue_2bandit_a2.png","70","img/blue_2bandit_a2.png","70","prac","1","1","","","","","","","","","","","","","","","","","",""
"469.3999999985099","84738","SARL_v6","SARL_v6zmfob1m7","62c5fbbb796500bb5406d772","freqPrac_resp","","","img/blue_2bandit_a.png","70","img/blue_2bandit_a.png","70","prac","","","","","","","","","","","","","","","","","","","",""
"null","84898","SARL_v6","SARL_v6zmfob1m7","62c5fbbb796500bb5406d772","fixation","","","img/fixation.png","null","","","prac","","","","","","","","","","","","","","","","","","","",""
"434","85333","SARL_v6","SARL_v6zmfob1m7","62c5fbbb796500bb5406d772","freqPrac","","","img/blue_2bandit_a2.png","70","img/blue_2bandit_a2.png","70","prac","1","1","","","","","","","","","","","","","","","","","",""
"434","85708","SARL_v6","SARL_v6zmfob1m7","62c5fbbb796500bb5406d772","freqPrac_resp","","","img/blue_2bandit_a.png","70","img/blue_2bandit_a.png","70","prac","","","","","","","","","","","","","","","","","","","",""
"null","85868","SARL_v6","SARL_v6zmfob1m7","62c5fbbb796500bb5406d772","fixation","","","img/fixation.png","null","","","prac","","","","","","","","","","","","","","","","","","","",""
"23478.59999999404","109350","SARL_v6","SARL_v6zmfob1m7","62c5fbbb796500bb5406d772","","","","","","","","prac","","","","","","","","","","","","","","","","","","","",""
"546.6000000014901","109899","SARL_v6","SARL_v6zmfob1m7","62c5fbbb796500bb5406d772","rlPractice","","","img/black_2bandit_a2.png","74","img/black_2bandit_a2.png","","prac","","","0","","","","","","","","","","","","","","","","",""
"null","110663","SARL_v6","SARL_v6zmfob1m7","62c5fbbb796500bb5406d772","feedback","","","<div class=""verylowPoints_sq""> -14 </div>","null","","na","prac","","","1","10","-14","10","","","","","","","","","","","","","",""
"null","110821","SARL_v6","SARL_v6zmfob1m7","62c5fbbb796500bb5406d772","fixation","","","img/fixation.png","null","","","prac","","","","","","","","","","","","","","","","","","","",""
"381.79999999701977","111205","SARL_v6","SARL_v6zmfob1m7","62c5fbbb796500bb5406d772","rlPractice","","","img/black_2bandit_a2.png","74","img/black_2bandit_a2.png","","prac","","","1","","","","","","","","","","","","","","","","",""
"null","111963","SARL_v6","SARL_v6zmfob1m7","62c5fbbb796500bb5406d772","feedback","","","<div class=""verylowPoints_sq""> -5 </div>","null","","na","prac","","","2","5","-5","5","","","","","","","","","","","","","",""
"null","112126","SARL_v6","SARL_v6zmfob1m7","62c5fbbb796500bb5406d772","fixation","","","img/fixation.png","null","","","prac","","","","","","","","","","","","","","","","","","","",""
"82.89999999850988","112212","SARL_v6","SARL_v6zmfob1m7","62c5fbbb796500bb5406d772","rlPractice","","","img/black_2bandit_a2.png","75","img/black_2bandit_a2.png","","prac","","","2","","","","","","","","","","","","","","","","",""
"null","112975","SARL_v6","SARL_v6zmfob1m7","62c5fbbb796500bb5406d772","feedback","","","<div class=""veryhighPoints""> 30 </div>","null","","na","prac","","","3","30","2","30","","","","","","","","","","","","","",""
"null","113134","SARL_v6","SARL_v6zmfob1m7","62c5fbbb796500bb5406d772","fixation","","","img/fixation.png","null","","","prac","","","","","","","","","","","","","","","","","","","",""
"248.30000000447035","113384","SARL_v6","SARL_v6zmfob1m7","62c5fbbb796500bb5406d772","rlPractice","","","img/black_2bandit_a2.png","75","img/black_2bandit_a2.png","","prac","","","3","","","","","","","","","","","","","","","","",""
"null","114139","SARL_v6","SARL_v6zmfob1m7","62c5fbbb796500bb5406d772","feedback","","","<div class=""verylowPoints""> -2 </div>","null","","na","prac","","","4","-2","20","-2","","","","","","","","","","","","","",""
"null","114300","SARL_v6","SARL_v6zmfob1m7","62c5fbbb796500bb5406d772","fixation","","","img/fixation.png","null","","","prac","","","","","","","","","","","","","","","","","","","",""
"4059.2000000029802","118362","SARL_v6","SARL_v6zmfob1m7","62c5fbbb796500bb5406d772","","","","","","","","prac","","","","","","","","","","","","","","","","","","","",""
"null","119171","SARL_v6","SARL_v6zmfob1m7","62c5fbbb796500bb5406d772","mixAttFreqPrac","","","img/blue_2bandit_a2.png","null","img/blue_2bandit_a2.png","70","prac","","","1","","","","","","","","","","","","","","","","",""
"115.89999999850988","119333","SARL_v6","SARL_v6zmfob1m7","62c5fbbb796500bb5406d772","fixation","","","img/fixation.png","68","","","prac","","","","","","","","","","","","","","","","","","","",""
"null","120144","SARL_v6","SARL_v6zmfob1m7","62c5fbbb796500bb5406d772","mixAttInfreqPrac","","","img/orange_2bandit_a2.png","null","img/orange_2bandit_a2.png","68","prac","","","2","","","","","","","","","","","","","","","","",""
"null","120300","SARL_v6","SARL_v6zmfob1m7","62c5fbbb796500bb5406d772","fixation","","","img/fixation.png","null","","","prac","","","","","","","","","","","","","","","","","","","",""
"100","120403","SARL_v6","SARL_v6zmfob1m7","62c5fbbb796500bb5406d772","mixAttInfreqPrac","","","img/orange_2bandit_a2.png","68","img/orange_2bandit_a2.png","68","prac","","","3","","","","","","","","","","","","","","","","",""
"100","121107","SARL_v6","SARL_v6zmfob1m7","62c5fbbb796500bb5406d772","infreqPrac_resp","","","img/orange_2bandit_a.png","68","img/blue_2bandit_a.png","68","prac","","","3","","","","","","","","","","","","","","","","",""
"null","121271","SARL_v6","SARL_v6zmfob1m7","62c5fbbb796500bb5406d772","fixation","","","img/fixation.png","null","","","prac","","","","","","","","","","","","","","","","","","","",""
"388.8999999985099","121663","SARL_v6","SARL_v6zmfob1m7","62c5fbbb796500bb5406d772","mixAttInfreqPrac","","","img/orange_2bandit_a2.png","68","img/orange_2bandit_a2.png","68","prac","","","4","","","","","","","","","","","","","","","","",""
"388.8999999985099","122088","SARL_v6","SARL_v6zmfob1m7","62c5fbbb796500bb5406d772","infreqPrac_resp","","","img/orange_2bandit_a.png","68","img/blue_2bandit_a.png","68","prac","","","4","","","","","","","","","","","","","","","","",""
"null","122244","SARL_v6","SARL_v6zmfob1m7","62c5fbbb796500bb5406d772","fixation","","","img/fixation.png","null","","","prac","","","","","","","","","","","","","","","","","","","",""
"482.3999999985099","122728","SARL_v6","SARL_v6zmfob1m7","62c5fbbb796500bb5406d772","mixAttFreqPrac","","","img/blue_2bandit_a2.png","70","img/blue_2bandit_a2.png","70","prac","","","5","","","","","","","","","","","","","","","","",""
"482.3999999985099","123056","SARL_v6","SARL_v6zmfob1m7","62c5fbbb796500bb5406d772","freqPrac_resp","","","img/blue_2bandit_a.png","70","img/blue_2bandit_a.png","70","prac","","","5","","","","","","","","","","","","","","","","",""
"null","123216","SARL_v6","SARL_v6zmfob1m7","62c5fbbb796500bb5406d772","fixation","","","img/fixation.png","null","","","prac","","","","","","","","","","","","","","","","","","","",""
"697.6999999955297","123916","SARL_v6","SARL_v6zmfob1m7","62c5fbbb796500bb5406d772","mixRLPractice","","","img/black_2bandit_a2.png","75","img/black_2bandit_a2.png","","prac","","","5","","","","","","","","","","","","","","","","",""
"null","124680","SARL_v6","SARL_v6zmfob1m7","62c5fbbb796500bb5406d772","feedback","","","<div class=""verylowPoints""> -14 </div>","null","","na","prac","","","6","-14","10","-14","","","","","","","","","","","","","",""
"null","124840","SARL_v6","SARL_v6zmfob1m7","62c5fbbb796500bb5406d772","fixation","","","img/fixation.png","null","","","prac","","","","","","","","","","","","","","","","","","","",""
"711.3999999985099","125554","SARL_v6","SARL_v6zmfob1m7","62c5fbbb796500bb5406d772","mixAttFreqPrac","","","img/blue_2bandit_a2.png","68","img/blue_2bandit_a2.png","70","prac","","","7","","","","","","","","","","","","","","","","",""
"711.3999999985099","125652","SARL_v6","SARL_v6zmfob1m7","62c5fbbb796500bb5406d772","freqPrac_resp","","","img/blue_2bandit_a.png","68","img/blue_2bandit_a.png","70","prac","","","7","","","","","","","","","","","","","","","","",""
"null","125815","SARL_v6","SARL_v6zmfob1m7","62c5fbbb796500bb5406d772","fixation","","","img/fixation.png","null","","","prac","","","","","","","","","","","","","","","","","","","",""
"676.8000000044703","126494","SARL_v6","SARL_v6zmfob1m7","62c5fbbb796500bb5406d772","mixAttInfreqPrac","","","img/orange_2bandit_a2.png","68","img/orange_2bandit_a2.png","68","prac","","","8","","","","","","","","","","","","","","","","",""
"676.8000000044703","126630","SARL_v6","SARL_v6zmfob1m7","62c5fbbb796500bb5406d772","infreqPrac_resp","","","img/orange_2bandit_a.png","68","img/blue_2bandit_a.png","68","prac","","","8","","","","","","","","","","","","","","","","",""
"null","126790","SARL_v6","SARL_v6zmfob1m7","62c5fbbb796500bb5406d772","fixation","","","img/fixation.png","null","","","prac","","","","","","","","","","","","","","","","","","","",""
"633.8999999985099","127427","SARL_v6","SARL_v6zmfob1m7","62c5fbbb796500bb5406d772","mixAttFreqPrac","","","img/blue_2bandit_a2.png","70","img/blue_2bandit_a2.png","70","prac","","","9","","","","","","","","","","","","","","","","",""
"633.8999999985099","127599","SARL_v6","SARL_v6zmfob1m7","62c5fbbb796500bb5406d772","freqPrac_resp","","","img/blue_2bandit_a.png","70","img/blue_2bandit_a.png","70","prac","","","9","","","","","","","","","","","","","","","","",""
"null","127757","SARL_v6","SARL_v6zmfob1m7","62c5fbbb796500bb5406d772","fixation","","","img/fixation.png","null","","","prac","","","","","","","","","","","","","","","","","","","",""
"440.8999999985099","128200","SARL_v6","SARL_v6zmfob1m7","62c5fbbb796500bb5406d772","mixAttFreqPrac","","","img/blue_2bandit_a2.png","70","img/blue_2bandit_a2.png","70","prac","","","10","","","","","","","","","","","","","","","","",""
"440.8999999985099","128566","SARL_v6","SARL_v6zmfob1m7","62c5fbbb796500bb5406d772","freqPrac_resp","","","img/blue_2bandit_a.png","70","img/blue_2bandit_a.png","70","prac","","","10","","","","","","","","","","","","","","","","",""
"null","128727","SARL_v6","SARL_v6zmfob1m7","62c5fbbb796500bb5406d772","fixation","","","img/fixation.png","null","","","prac","","","","","","","","","","","","","","","","","","","",""
"533.8999999985099","129263","SARL_v6","SARL_v6zmfob1m7","62c5fbbb796500bb5406d772","mixAttInfreqPrac","","","img/orange_2bandit_a2.png","68","img/orange_2bandit_a2.png","68","prac","","","11","","","","","","","","","","","","","","","","",""
"533.8999999985099","129542","SARL_v6","SARL_v6zmfob1m7","62c5fbbb796500bb5406d772","infreqPrac_resp","","","img/orange_2bandit_a.png","68","img/blue_2bandit_a.png","68","prac","","","11","","","","","","","","","","","","","","","","",""
"null","129704","SARL_v6","SARL_v6zmfob1m7","62c5fbbb796500bb5406d772","fixation","","","img/fixation.png","null","","","prac","","","","","","","","","","","","","","","","","","","",""
"660.9000000059605","130367","SARL_v6","SARL_v6zmfob1m7","62c5fbbb796500bb5406d772","mixRLPractice","","","img/black_2bandit_a2.png","75","img/black_2bandit_a2.png","","prac","","","11","","","","","","","","","","","","","","","","",""
"null","131125","SARL_v6","SARL_v6zmfob1m7","62c5fbbb796500bb5406d772","feedback","","","<div class=""veryhighPoints""> 5 </div>","null","","na","prac","","","12","5","-5","5","","","","","","","","","","","","","",""
"null","131283","SARL_v6","SARL_v6zmfob1m7","62c5fbbb796500bb5406d772","fixation","","","img/fixation.png","null","","","prac","","","","","","","","","","","","","","","","","","","",""
"7198.5","138484","SARL_v6","SARL_v6zmfob1m7","62c5fbbb796500bb5406d772","","","","","","","","prac","","","","","","","","","","","","","","","","","","","",""
"440.8999999985099","138927","SARL_v6","SARL_v6zmfob1m7","62c5fbbb796500bb5406d772","freq","","","img/blue_2bandit_a2.png","70","","70","test","1","","1","","","","square","circle","1","1","1","1","","","","","","","",""
"null","139294","SARL_v6","SARL_v6zmfob1m7","62c5fbbb796500bb5406d772","freq_resp","","","img/blue_2bandit_a.png","70","img/blue_2bandit_a.png","70","test","","","","","","","","","","","1","","","","","","","","",""
"null","139451","SARL_v6","SARL_v6zmfob1m7","62c5fbbb796500bb5406d772","fixation","","","img/fixation.png","null","","","test","","","","","","","","","","","","","","","","","","","",""
"346.79999999701977","139800","SARL_v6","SARL_v6zmfob1m7","62c5fbbb796500bb5406d772","freq","","","img/blue_2bandit_a2.png","70","","70","test","1","","2","","","","square","circle","2","2","1","1","","","","","","","",""
"null","140264","SARL_v6","SARL_v6zmfob1m7","62c5fbbb796500bb5406d772","freq_resp","","","img/blue_2bandit_a.png","70","img/blue_2bandit_a.png","70","test","","","","","","","","","","","1","","","","","","","","",""
"null","140424","SARL_v6","SARL_v6zmfob1m7","62c5fbbb796500bb5406d772","fixation","","","img/fixation.png","null","","","test","","","","","","","","","","","","","","","","","","","",""
"318.79999999701977","140745","SARL_v6","SARL_v6zmfob1m7","62c5fbbb796500bb5406d772","freq","","","img/blue_2bandit_a2.png","70","","70","test","1","","3","","","","square","circle","3","3","1","1","","","","","","","",""
"null","141240","SARL_v6","SARL_v6zmfob1m7","62c5fbbb796500bb5406d772","freq_resp","","","img/blue_2bandit_a.png","70","img/blue_2bandit_a.png","70","test","","","","","","","","","","","1","","","","","","","","",""
"null","141400","SARL_v6","SARL_v6zmfob1m7","62c5fbbb796500bb5406d772","fixation","","","img/fixation.png","null","","","test","","","","","","","","","","","","","","","","","","","",""
"236.60000000149012","141639","SARL_v6","SARL_v6zmfob1m7","62c5fbbb796500bb5406d772","infreq","","","img/orange_2bandit_a2.png","70","","68","test","0","","4","","","","square","circle","4","4","1","0.75","","","","","","","",""
"null","142212","SARL_v6","SARL_v6zmfob1m7","62c5fbbb796500bb5406d772","infreq_resp","","","img/orange_2bandit_a.png","70","img/orange_2bandit_a.png","68","test","","","","","","","","","","","1","","","","","","","","",""
"null","142373","SARL_v6","SARL_v6zmfob1m7","62c5fbbb796500bb5406d772","fixation","","","img/fixation.png","null","","","test","","","","","","","","","","","","","","","","","","","",""
"469.79999999701977","142846","SARL_v6","SARL_v6zmfob1m7","62c5fbbb796500bb5406d772","freq","","","img/blue_2bandit_a2.png","70","","70","test","1","","5","","","","square","circle","5","5","1","0.8","","","","","","","",""
"null","143183","SARL_v6","SARL_v6zmfob1m7","62c5fbbb796500bb5406d772","freq_resp","","","img/blue_2bandit_a.png","70","img/blue_2bandit_a.png","70","test","","","","","","","","","","","1","","","","","","","","",""
"null","143345","SARL_v6","SARL_v6zmfob1m7","62c5fbbb796500bb5406d772","fixation","","","img/fixation.png","null","","","test","","","","","","","","","","","","","","","","","","","",""
"407.79999999701977","143755","SARL_v6","SARL_v6zmfob1m7","62c5fbbb796500bb5406d772","freq","","","img/blue_2bandit_a2.png","70","","70","test","1","","6","","","","square","circle","6","6","1","0.8333333333333334","","","","","","","",""
"null","144156","SARL_v6","SARL_v6zmfob1m7","62c5fbbb796500bb5406d772","freq_resp","","","img/blue_2bandit_a.png","70","img/blue_2bandit_a.png","70","test","","","","","","","","","","","1","","","","","","","","",""
"null","144316","SARL_v6","SARL_v6zmfob1m7","62c5fbbb796500bb5406d772","fixation","","","img/fixation.png","null","","","test","","","","","","","","","","","","","","","","","","","",""
"437.20000000298023","144755","SARL_v6","SARL_v6zmfob1m7","62c5fbbb796500bb5406d772","infreq","","","img/orange_2bandit_a2.png","68","","68","test","1","","7","","","","square","circle","7","7","1","0.8571428571428571","","","","","","","",""
"null","145129","SARL_v6","SARL_v6zmfob1m7","62c5fbbb796500bb5406d772","infreq_resp","","","img/orange_2bandit_a.png","68","img/orange_2bandit_a.png","68","test","","","","","","","","","","","1","","","","","","","","",""
"null","145285","SARL_v6","SARL_v6zmfob1m7","62c5fbbb796500bb5406d772","fixation","","","img/fixation.png","null","","","test","","","","","","","","","","","","","","","","","","","",""
"479","145767","SARL_v6","SARL_v6zmfob1m7","62c5fbbb796500bb5406d772","freq","","","img/blue_2bandit_a2.png","70","","70","test","1","","8","","","","square","circle","8","8","1","0.875","","","","","","","",""
"null","146092","SARL_v6","SARL_v6zmfob1m7","62c5fbbb796500bb5406d772","freq_resp","","","img/blue_2bandit_a.png","70","img/blue_2bandit_a.png","70","test","","","","","","","","","","","1","","","","","","","","",""
"null","146255","SARL_v6","SARL_v6zmfob1m7","62c5fbbb796500bb5406d772","fixation","","","img/fixation.png","null","","","test","","","","","","","","","","","","","","","","","","","",""
"374.90000000596046","146632","SARL_v6","SARL_v6zmfob1m7","62c5fbbb796500bb5406d772","freq","","","img/blue_2bandit_a2.png","70","","70","test","1","","9","","","","square","circle","9","9","1","0.8888888888888888","","","","","","","",""
"null","147068","SARL_v6","SARL_v6zmfob1m7","62c5fbbb796500bb5406d772","freq_resp","","","img/blue_2bandit_a.png","70","img/blue_2bandit_a.png","70","test","","","","","","","","","","","1","","","","","","","","",""
"null","147227","SARL_v6","SARL_v6zmfob1m7","62c5fbbb796500bb5406d772","fixation","","","img/fixation.png","null","","","test","","","","","","","","","","","","","","","","","","","",""
"342.8999999985099","147572","SARL_v6","SARL_v6zmfob1m7","62c5fbbb796500bb5406d772","freq","","","img/blue_2bandit_a2.png","70","","70","test","1","","10","","","","square","circle","10","10","1","0.9","","","","","","","",""
"null","148041","SARL_v6","SARL_v6zmfob1m7","62c5fbbb796500bb5406d772","freq_resp","","","img/blue_2bandit_a.png","70","img/blue_2bandit_a.png","70","test","","","","","","","","","","","1","","","","","","","","",""
"null","148197","SARL_v6","SARL_v6zmfob1m7","62c5fbbb796500bb5406d772","fixation","","","img/fixation.png","null","","","test","","","","","","","","","","","","","","","","","","","",""
"337.79999999701977","148536","SARL_v6","SARL_v6zmfob1m7","62c5fbbb796500bb5406d772","freq","","","img/blue_2bandit_a2.png","70","","70","test","1","","11","","","","square","circle","11","11","1","0.9090909090909091","","","","","","","",""
"null","149009","SARL_v6","SARL_v6zmfob1m7","62c5fbbb796500bb5406d772","freq_resp","","","img/blue_2bandit_a.png","70","img/blue_2bandit_a.png","70","test","","","","","","","","","","","1","","","","","","","","",""
"null","149163","SARL_v6","SARL_v6zmfob1m7","62c5fbbb796500bb5406d772","fixation","","","img/fixation.png","null","","","test","","","","","","","","","","","","","","","","","","","",""
"302.29999999701977","149468","SARL_v6","SARL_v6zmfob1m7","62c5fbbb796500bb5406d772","freq","","","img/blue_2bandit_a2.png","70","","70","test","1","","12","","","","square","circle","12","12","1","0.9166666666666666","","","","","","","",""
"null","149974","SARL_v6","SARL_v6zmfob1m7","62c5fbbb796500bb5406d772","freq_resp","","","img/blue_2bandit_a.png","70","img/blue_2bandit_a.png","70","test","","","","","","","","","","","1","","","","","","","","",""
"null","150132","SARL_v6","SARL_v6zmfob1m7","62c5fbbb796500bb5406d772","fixation","","","img/fixation.png","null","","","test","","","","","","","","","","","","","","","","","","","",""
"274.70000000298023","150409","SARL_v6","SARL_v6zmfob1m7","62c5fbbb796500bb5406d772","freq","","","img/blue_2bandit_a2.png","70","","70","test","1","","13","","","","square","circle","13","13","1","0.9230769230769231","","","","","","","",""
"null","150940","SARL_v6","SARL_v6zmfob1m7","62c5fbbb796500bb5406d772","freq_resp","","","img/blue_2bandit_a.png","70","img/blue_2bandit_a.png","70","test","","","","","","","","","","","1","","","","","","","","",""
"null","151100","SARL_v6","SARL_v6zmfob1m7","62c5fbbb796500bb5406d772","fixation","","","img/fixation.png","null","","","test","","","","","","","","","","","","","","","","","","","",""
"285.3999999985099","151387","SARL_v6","SARL_v6zmfob1m7","62c5fbbb796500bb5406d772","freq","","","img/blue_2bandit_a2.png","70","","70","test","1","","14","","","","square","circle","14","14","1","0.9285714285714286","","","","","","","",""
"null","151908","SARL_v6","SARL_v6zmfob1m7","62c5fbbb796500bb5406d772","freq_resp","","","img/blue_2bandit_a.png","70","img/blue_2bandit_a.png","70","test","","","","","","","","","","","1","","","","","","","","",""
"null","152069","SARL_v6","SARL_v6zmfob1m7","62c5fbbb796500bb5406d772","fixation","","","img/fixation.png","null","","","test","","","","","","","","","","","","","","","","","","","",""
"298.80000000447035","152370","SARL_v6","SARL_v6zmfob1m7","62c5fbbb796500bb5406d772","freq","","","img/blue_2bandit_a2.png","70","","70","test","1","","15","","","","square","circle","15","15","1","0.9333333333333333","","","","","","","",""
"null","152878","SARL_v6","SARL_v6zmfob1m7","62c5fbbb796500bb5406d772","freq_resp","","","img/blue_2bandit_a.png","70","img/blue_2bandit_a.png","70","test","","","","","","","","","","","1","","","","","","","","",""
"null","153040","SARL_v6","SARL_v6zmfob1m7","62c5fbbb796500bb5406d772","fixation","","","img/fixation.png","null","","","test","","","","","","","","","","","","","","","","","","","",""
"245.5","153288","SARL_v6","SARL_v6zmfob1m7","62c5fbbb796500bb5406d772","infreq","","","img/orange_2bandit_a2.png","70","","68","test","0","","16","","","","square","circle","16","16","1","0.875","","","","","","","",""
"null","153854","SARL_v6","SARL_v6zmfob1m7","62c5fbbb796500bb5406d772","infreq_resp","","","img/orange_2bandit_a.png","70","img/orange_2bandit_a.png","68","test","","","","","","","","","","","1","","","","","","","","",""
"null","154016","SARL_v6","SARL_v6zmfob1m7","62c5fbbb796500bb5406d772","fixation","","","img/fixation.png","null","","","test","","","","","","","","","","","","","","","","","","","",""
"719.6000000014901","154738","SARL_v6","SARL_v6zmfob1m7","62c5fbbb796500bb5406d772","freq","","","img/blue_2bandit_a2.png","70","","70","test","1","","17","","","","square","circle","17","17","1","0.8823529411764706","","","","","","","",""
"null","154830","SARL_v6","SARL_v6zmfob1m7","62c5fbbb796500bb5406d772","freq_resp","","","img/blue_2bandit_a.png","70","img/blue_2bandit_a.png","70","test","","","","","","","","","","","1","","","","","","","","",""
"null","154992","SARL_v6","SARL_v6zmfob1m7","62c5fbbb796500bb5406d772","fixation","","","img/fixation.png","null","","","test","","","","","","","","","","","","","","","","","","","",""
"400.6000000014901","155394","SARL_v6","SARL_v6zmfob1m7","62c5fbbb796500bb5406d772","freq","","","img/blue_2bandit_a2.png","70","","70","test","1","","18","","","","square","circle","18","18","1","0.8888888888888888","","","","","","","",""
"null","155804","SARL_v6","SARL_v6zmfob1m7","62c5fbbb796500bb5406d772","freq_resp","","","img/blue_2bandit_a.png","70","img/blue_2bandit_a.png","70","test","","","","","","","","","","","1","","","","","","","","",""
"null","155966","SARL_v6","SARL_v6zmfob1m7","62c5fbbb796500bb5406d772","fixation","","","img/fixation.png","null","","","test","","","","","","","","","","","","","","","","","","","",""
"328.79999999701977","156297","SARL_v6","SARL_v6zmfob1m7","62c5fbbb796500bb5406d772","freq","","","img/blue_2bandit_a2.png","70","","70","test","1","","19","","","","square","circle","19","19","1","0.8947368421052632","","","","","","","",""
"null","156773","SARL_v6","SARL_v6zmfob1m7","62c5fbbb796500bb5406d772","freq_resp","","","img/blue_2bandit_a.png","70","img/blue_2bandit_a.png","70","test","","","","","","","","","","","1","","","","","","","","",""
"null","156933","SARL_v6","SARL_v6zmfob1m7","62c5fbbb796500bb5406d772","fixation","","","img/fixation.png","null","","","test","","","","","","","","","","","","","","","","","","","",""
"345","157280","SARL_v6","SARL_v6zmfob1m7","62c5fbbb796500bb5406d772","freq","","","img/blue_2bandit_a2.png","70","","70","test","1","","20","","","","square","circle","20","20","1","0.9","","","","","","","",""
"null","157744","SARL_v6","SARL_v6zmfob1m7","62c5fbbb796500bb5406d772","freq_resp","","","img/blue_2bandit_a.png","70","img/blue_2bandit_a.png","70","test","","","","","","","","","","","1","","","","","","","","",""
"null","157906","SARL_v6","SARL_v6zmfob1m7","62c5fbbb796500bb5406d772","fixation","","","img/fixation.png","null","","","test","","","","","","","","","","","","","","","","","","","",""
"585.1000000014901","158493","SARL_v6","SARL_v6zmfob1m7","62c5fbbb796500bb5406d772","rl","","","img/black_2bandit_a2.png","75","","0","test","","","21","","","-3","square","circle","","0","1","","75","-3","-3","-3","-3","circle","1","0"
"null","159255","SARL_v6","SARL_v6zmfob1m7","62c5fbbb796500bb5406d772","feedback","","","<div class=""verylowPoints""> -3 </div>","null","","na","test","","","NaN","","","","","","","","1","","75","","","","","","1",""
"420.70000000298023","159678","SARL_v6","SARL_v6zmfob1m7","62c5fbbb796500bb5406d772","freq","","","img/blue_2bandit_a2.png","70","","70","test","1","","22","","","","square","circle","21","1","2","0.9047619047619048","","","","","","","",""
"null","160068","SARL_v6","SARL_v6zmfob1m7","62c5fbbb796500bb5406d772","freq_resp","","","img/blue_2bandit_a.png","70","img/blue_2bandit_a.png","70","test","","","","","","","","","","","2","","","","","","","","",""
"null","160230","SARL_v6","SARL_v6zmfob1m7","62c5fbbb796500bb5406d772","fixation","","","img/fixation.png","null","","","test","","","","","","","","","","","","","","","","","","","",""
"347.29999999701977","160579","SARL_v6","SARL_v6zmfob1m7","62c5fbbb796500bb5406d772","freq","","","img/blue_2bandit_a2.png","70","","70","test","1","","23","","","","square","circle","22","2","2","0.9090909090909091","","","","","","","",""
"null","161038","SARL_v6","SARL_v6zmfob1m7","62c5fbbb796500bb5406d772","freq_resp","","","img/blue_2bandit_a.png","70","img/blue_2bandit_a.png","70","test","","","","","","","","","","","2","","","","","","","","",""
"null","161201","SARL_v6","SARL_v6zmfob1m7","62c5fbbb796500bb5406d772","fixation","","","img/fixation.png","null","","","test","","","","","","","","","","","","","","","","","","","",""
"300.6000000014901","161503","SARL_v6","SARL_v6zmfob1m7","62c5fbbb796500bb5406d772","freq","","","img/blue_2bandit_a2.png","70","","70","test","1","","24","","","","square","circle","23","3","2","0.9130434782608695","","","","","","","",""
"null","162015","SARL_v6","SARL_v6zmfob1m7","62c5fbbb796500bb5406d772","freq_resp","","","img/blue_2bandit_a.png","70","img/blue_2bandit_a.png","70","test","","","","","","","","","","","2","","","","","","","","",""
"null","162177","SARL_v6","SARL_v6zmfob1m7","62c5fbbb796500bb5406d772","fixation","","","img/fixation.png","null","","","test","","","","","","","","","","","","","","","","","","","",""
"282.8999999985099","162462","SARL_v6","SARL_v6zmfob1m7","62c5fbbb796500bb5406d772","freq","","","img/blue_2bandit_a2.png","70","","70","test","1","","25","","","","square","circle","24","4","2","0.9166666666666666","","","","","","","",""
"null","162990","SARL_v6","SARL_v6zmfob1m7","62c5fbbb796500bb5406d772","freq_resp","","","img/blue_2bandit_a.png","70","img/blue_2bandit_a.png","70","test","","","","","","","","","","","2","","","","","","","","",""
"null","163150","SARL_v6","SARL_v6zmfob1m7","62c5fbbb796500bb5406d772","fixation","","","img/fixation.png","null","","","test","","","","","","","","","","","","","","","","","","","",""
"315.70000000298023","163468","SARL_v6","SARL_v6zmfob1m7","62c5fbbb796500bb5406d772","freq","","","img/blue_2bandit_a2.png","70","","70","test","1","","26","","","","square","circle","25","5","2","0.92","","","","","","","",""
"null","163961","SARL_v6","SARL_v6zmfob1m7","62c5fbbb796500bb5406d772","freq_resp","","","img/blue_2bandit_a.png","70","img/blue_2bandit_a.png","70","test","","","","","","","","","","","2","","","","","","","","",""
"null","164117","SARL_v6","SARL_v6zmfob1m7","62c5fbbb796500bb5406d772","fixation","","","img/fixation.png","null","","","test","","","","","","","","","","","","","","","","","","","",""
"254.60000000149012","164373","SARL_v6","SARL_v6zmfob1m7","62c5fbbb796500bb5406d772","freq","","","img/blue_2bandit_a2.png","70","","70","test","1","","27","","","","square","circle","26","6","2","0.9230769230769231","","","","","","","",""
"null","164927","SARL_v6","SARL_v6zmfob1m7","62c5fbbb796500bb5406d772","freq_resp","","","img/blue_2bandit_a.png","70","img/blue_2bandit_a.png","70","test","","","","","","","","","","","2","","","","","","","","",""
"null","165083","SARL_v6","SARL_v6zmfob1m7","62c5fbbb796500bb5406d772","fixation","","","img/fixation.png","null","","","test","","","","","","","","","","","","","","","","","","","",""
"266.6000000014901","165352","SARL_v6","SARL_v6zmfob1m7","62c5fbbb796500bb5406d772","freq","","","img/blue_2bandit_a2.png","70","","70","test","1","","28","","","","square","circle","27","7","2","0.9259259259259259","","","","","","","",""
"null","165897","SARL_v6","SARL_v6zmfob1m7","62c5fbbb796500bb5406d772","freq_resp","","","img/blue_2bandit_a.png","70","img/blue_2bandit_a.png","70","test","","","","","","","","","","","2","","","","","","","","",""
"null","166053","SARL_v6","SARL_v6zmfob1m7","62c5fbbb796500bb5406d772","fixation","","","img/fixation.png","null","","","test","","","","","","","","","","","","","","","","","","","",""
"297.29999999701977","166352","SARL_v6","SARL_v6zmfob1m7","62c5fbbb796500bb5406d772","freq","","","img/blue_2bandit_a2.png","70","","70","test","1","","29","","","","square","circle","28","8","2","0.9285714285714286","","","","","","","",""
"null","166860","SARL_v6","SARL_v6zmfob1m7","62c5fbbb796500bb5406d772","freq_resp","","","img/blue_2bandit_a.png","70","img/blue_2bandit_a.png","70","test","","","","","","","","","","","2","","","","","","","","",""
"null","167023","SARL_v6","SARL_v6zmfob1m7","62c5fbbb796500bb5406d772","fixation","","","img/fixation.png","null","","","test","","","","","","","","","","","","","","","","","","","",""
"182.79999999701977","167208","SARL_v6","SARL_v6zmfob1m7","62c5fbbb796500bb5406d772","freq","","","img/blue_2bandit_a2.png","70","","70","test","1","","30","","","","square","circle","29","9","2","0.9310344827586207","","","","","","","",""
"null","167839","SARL_v6","SARL_v6zmfob1m7","62c5fbbb796500bb5406d772","freq_resp","","","img/blue_2bandit_a.png","70","img/blue_2bandit_a.png","70","test","","","","","","","","","","","2","","","","","","","","",""
"null","168002","SARL_v6","SARL_v6zmfob1m7","62c5fbbb796500bb5406d772","fixation","","","img/fixation.png","null","","","test","","","","","","","","","","","","","","","","","","","",""
"121.10000000149012","168125","SARL_v6","SARL_v6zmfob1m7","62c5fbbb796500bb5406d772","freq","","","img/blue_2bandit_a2.png","70","","70","test","1","","31","","","","square","circle","30","10","2","0.9333333333333333","","","","","","","",""
"null","168815","SARL_v6","SARL_v6zmfob1m7","62c5fbbb796500bb5406d772","freq_resp","","","img/blue_2bandit_a.png","70","img/blue_2bandit_a.png","70","test","","","","","","","","","","","2","","","","","","","","",""
"null","168976","SARL_v6","SARL_v6zmfob1m7","62c5fbbb796500bb5406d772","fixation","","","img/fixation.png","null","","","test","","","","","","","","","","","","","","","","","","","",""
"146.10000000149012","169124","SARL_v6","SARL_v6zmfob1m7","62c5fbbb796500bb5406d772","freq","","","img/blue_2bandit_a2.png","70","","70","test","1","","32","","","","square","circle","31","11","2","0.9354838709677419","","","","","","","",""
"null","169788","SARL_v6","SARL_v6zmfob1m7","62c5fbbb796500bb5406d772","freq_resp","","","img/blue_2bandit_a.png","70","img/blue_2bandit_a.png","70","test","","","","","","","","","","","2","","","","","","","","",""
"null","169948","SARL_v6","SARL_v6zmfob1m7","62c5fbbb796500bb5406d772","fixation","","","img/fixation.png","null","","","test","","","","","","","","","","","","","","","","","","","",""
"183.19999999552965","170133","SARL_v6","SARL_v6zmfob1m7","62c5fbbb796500bb5406d772","freq","","","img/blue_2bandit_a2.png","70","","70","test","1","","33","","","","square","circle","32","12","2","0.9375","","","","","","","",""
"null","170758","SARL_v6","SARL_v6zmfob1m7","62c5fbbb796500bb5406d772","freq_resp","","","img/blue_2bandit_a.png","70","img/blue_2bandit_a.png","70","test","","","","","","","","","","","2","","","","","","","","",""
"null","170920","SARL_v6","SARL_v6zmfob1m7","62c5fbbb796500bb5406d772","fixation","","","img/fixation.png","null","","","test","","","","","","","","","","","","","","","","","","","",""
"160.10000000149012","171083","SARL_v6","SARL_v6zmfob1m7","62c5fbbb796500bb5406d772","freq","","","img/blue_2bandit_a2.png","70","","70","test","1","","34","","","","square","circle","33","13","2","0.9393939393939394","","","","","","","",""
"null","171733","SARL_v6","SARL_v6zmfob1m7","62c5fbbb796500bb5406d772","freq_resp","","","img/blue_2bandit_a.png","70","img/blue_2bandit_a.png","70","test","","","","","","","","","","","2","","","","","","","","",""
"null","171895","SARL_v6","SARL_v6zmfob1m7","62c5fbbb796500bb5406d772","fixation","","","img/fixation.png","null","","","test","","","","","","","","","","","","","","","","","","","",""
"167.60000000149012","172065","SARL_v6","SARL_v6zmfob1m7","62c5fbbb796500bb5406d772","freq","","","img/blue_2bandit_a2.png","70","","70","test","1","","35","","","","square","circle","34","14","2","0.9411764705882353","","","","","","","",""
"null","172708","SARL_v6","SARL_v6zmfob1m7","62c5fbbb796500bb5406d772","freq_resp","","","img/blue_2bandit_a.png","70","img/blue_2bandit_a.png","70","test","","","","","","","","","","","2","","","","","","","","",""
"null","172870","SARL_v6","SARL_v6zmfob1m7","62c5fbbb796500bb5406d772","fixation","","","img/fixation.png","null","","","test","","","","","","","","","","","","","","","","","","","",""
"149.79999999701977","173023","SARL_v6","SARL_v6zmfob1m7","62c5fbbb796500bb5406d772","freq","","","img/blue_2bandit_a2.png","70","","70","test","1","","36","","","","square","circle","35","15","2","0.9428571428571428","","","","","","","",""
"null","173687","SARL_v6","SARL_v6zmfob1m7","62c5fbbb796500bb5406d772","freq_resp","","","img/blue_2bandit_a.png","70","img/blue_2bandit_a.png","70","test","","","","","","","","","","","2","","","","","","","","",""
"null","173846","SARL_v6","SARL_v6zmfob1m7","62c5fbbb796500bb5406d772","fixation","","","img/fixation.png","null","","","test","","","","","","","","","","","","","","","","","","","",""
"164.60000000149012","174013","SARL_v6","SARL_v6zmfob1m7","62c5fbbb796500bb5406d772","freq","","","img/blue_2bandit_a2.png","70","","70","test","1","","37","","","","square","circle","36","16","2","0.9444444444444444","","","","","","","",""
"null","174652","SARL_v6","SARL_v6zmfob1m7","62c5fbbb796500bb5406d772","freq_resp","","","img/blue_2bandit_a.png","70","img/blue_2bandit_a.png","70","test","","","","","","","","","","","2","","","","","","","","",""
"null","174812","SARL_v6","SARL_v6zmfob1m7","62c5fbbb796500bb5406d772","fixation","","","img/fixation.png","null","","","test","","","","","","","","","","","","","","","","","","","",""
"168.59999999403954","174983","SARL_v6","SARL_v6zmfob1m7","62c5fbbb796500bb5406d772","infreq","","","img/orange_2bandit_a2.png","70","","68","test","0","","38","","","","square","circle","37","17","2","0.918918918918919","","","","","","","",""
"null","175621","SARL_v6","SARL_v6zmfob1m7","62c5fbbb796500bb5406d772","infreq_resp","","","img/orange_2bandit_a.png","70","img/orange_2bandit_a.png","68","test","","","","","","","","","","","2","","","","","","","","",""
"null","175785","SARL_v6","SARL_v6zmfob1m7","62c5fbbb796500bb5406d772","fixation","","","img/fixation.png","null","","","test","","","","","","","","","","","","","","","","","","","",""
"396.19999999552965","176183","SARL_v6","SARL_v6zmfob1m7","62c5fbbb796500bb5406d772","freq","","","img/blue_2bandit_a2.png","70","","70","test","1","","39","","","","square","circle","38","18","2","0.9210526315789473","","","","","","","",""
"null","176601","SARL_v6","SARL_v6zmfob1m7","62c5fbbb796500bb5406d772","freq_resp","","","img/blue_2bandit_a.png","70","img/blue_2bandit_a.png","70","test","","","","","","","","","","","2","","","","","","","","",""
"null","176760","SARL_v6","SARL_v6zmfob1m7","62c5fbbb796500bb5406d772","fixation","","","img/fixation.png","null","","","test","","","","","","","","","","","","","","","","","","","",""
"299.8999999985099","177062","SARL_v6","SARL_v6zmfob1m7","62c5fbbb796500bb5406d772","freq","","","img/blue_2bandit_a2.png","70","","70","test","1","","40","","","","square","circle","39","19","2","0.9230769230769231","","","","","","","",""
"null","177567","SARL_v6","SARL_v6zmfob1m7","62c5fbbb796500bb5406d772","freq_resp","","","img/blue_2bandit_a.png","70","img/blue_2bandit_a.png","70","test","","","","","","","","","","","2","","","","","","","","",""
"null","177724","SARL_v6","SARL_v6zmfob1m7","62c5fbbb796500bb5406d772","fixation","","","img/fixation.png","null","","","test","","","","","","","","","","","","","","","","","","","",""
"238.69999999552965","177965","SARL_v6","SARL_v6zmfob1m7","62c5fbbb796500bb5406d772","freq","","","img/blue_2bandit_a2.png","70","","70","test","1","","41","","","","square","circle","40","20","2","0.925","","","","","","","",""
"null","178537","SARL_v6","SARL_v6zmfob1m7","62c5fbbb796500bb5406d772","freq_resp","","","img/blue_2bandit_a.png","70","img/blue_2bandit_a.png","70","test","","","","","","","","","","","2","","","","","","","","",""
"null","178697","SARL_v6","SARL_v6zmfob1m7","62c5fbbb796500bb5406d772","fixation","","","img/fixation.png","null","","","test","","","","","","","","","","","","","","","","","","","",""
"159","178858","SARL_v6","SARL_v6zmfob1m7","62c5fbbb796500bb5406d772","freq","","","img/blue_2bandit_a2.png","70","","70","test","1","","42","","","","square","circle","41","21","2","0.926829268292683","","","","","","","",""
"null","179508","SARL_v6","SARL_v6zmfob1m7","62c5fbbb796500bb5406d772","freq_resp","","","img/blue_2bandit_a.png","70","img/blue_2bandit_a.png","70","test","","","","","","","","","","","2","","","","","","","","",""
"null","179670","SARL_v6","SARL_v6zmfob1m7","62c5fbbb796500bb5406d772","fixation","","","img/fixation.png","null","","","test","","","","","","","","","","","","","","","","","","","",""
"140.89999999850988","179814","SARL_v6","SARL_v6zmfob1m7","62c5fbbb796500bb5406d772","freq","","","img/blue_2bandit_a2.png","70","","70","test","1","","43","","","","square","circle","42","22","2","0.9285714285714286","","","","","","","",""
"null","180477","SARL_v6","SARL_v6zmfob1m7","62c5fbbb796500bb5406d772","freq_resp","","","img/blue_2bandit_a.png","70","img/blue_2bandit_a.png","70","test","","","","","","","","","","","2","","","","","","","","",""
"null","180630","SARL_v6","SARL_v6zmfob1m7","62c5fbbb796500bb5406d772","fixation","","","img/fixation.png","null","","","test","","","","","","","","","","","","","","","","","","","",""
"152.80000000447035","180785","SARL_v6","SARL_v6zmfob1m7","62c5fbbb796500bb5406d772","freq","","","img/blue_2bandit_a2.png","70","","70","test","1","","44","","","","square","circle","43","23","2","0.9302325581395349","","","","","","","",""
"null","181439","SARL_v6","SARL_v6zmfob1m7","62c5fbbb796500bb5406d772","freq_resp","","","img/blue_2bandit_a.png","70","img/blue_2bandit_a.png","70","test","","","","","","","","","","","2","","","","","","","","",""
"null","181597","SARL_v6","SARL_v6zmfob1m7","62c5fbbb796500bb5406d772","fixation","","","img/fixation.png","null","","","test","","","","","","","","","","","","","","","","","","","",""
"97.70000000298023","181696","SARL_v6","SARL_v6zmfob1m7","62c5fbbb796500bb5406d772","freq","","","img/blue_2bandit_a2.png","70","","70","test","1","","45","","","","square","circle","44","24","2","0.9318181818181818","","","","","","","",""
"null","182410","SARL_v6","SARL_v6zmfob1m7","62c5fbbb796500bb5406d772","freq_resp","","","img/blue_2bandit_a.png","70","img/blue_2bandit_a.png","70","test","","","","","","","","","","","2","","","","","","","","",""
"null","182569","SARL_v6","SARL_v6zmfob1m7","62c5fbbb796500bb5406d772","fixation","","","img/fixation.png","null","","","test","","","","","","","","","","","","","","","","","","","",""
"75.29999999701977","182647","SARL_v6","SARL_v6zmfob1m7","62c5fbbb796500bb5406d772","infreq","","","img/orange_2bandit_a2.png","70","","68","test","0","","46","","","","square","circle","45","25","2","0.9111111111111111","","","","","","","",""
"null","183381","SARL_v6","SARL_v6zmfob1m7","62c5fbbb796500bb5406d772","infreq_resp","","","img/orange_2bandit_a.png","70","img/orange_2bandit_a.png","68","test","","","","","","","","","","","2","","","","","","","","",""
"null","183545","SARL_v6","SARL_v6zmfob1m7","62c5fbbb796500bb5406d772","fixation","","","img/fixation.png","null","","","test","","","","","","","","","","","","","","","","","","","",""
"207.5","183754","SARL_v6","SARL_v6zmfob1m7","62c5fbbb796500bb5406d772","freq","","","img/blue_2bandit_a2.png","70","","70","test","1","","47","","","","square","circle","46","26","2","0.9130434782608695","","","","","","","",""
"null","184356","SARL_v6","SARL_v6zmfob1m7","62c5fbbb796500bb5406d772","freq_resp","","","img/blue_2bandit_a.png","70","img/blue_2bandit_a.png","70","test","","","","","","","","","","","2","","","","","","","","",""
"null","184515","SARL_v6","SARL_v6zmfob1m7","62c5fbbb796500bb5406d772","fixation","","","img/fixation.png","null","","","test","","","","","","","","","","","","","","","","","","","",""
"582.3999999985099","185100","SARL_v6","SARL_v6zmfob1m7","62c5fbbb796500bb5406d772","rl","","","img/black_2bandit_a2.png","75","","0","test","","","48","","","-5","square","circle","","0","2","","75","-5","-8","-8","-5","circle","2","0"
"null","185865","SARL_v6","SARL_v6zmfob1m7","62c5fbbb796500bb5406d772","feedback","","","<div class=""verylowPoints""> -5 </div>","null","","na","test","","","NaN","","","","","","","","2","","75","","","","","","2",""
"265.40000000596046","186133","SARL_v6","SARL_v6zmfob1m7","62c5fbbb796500bb5406d772","freq","","","img/blue_2bandit_a2.png","70","","70","test","1","","49","","","","square","circle","47","1","3","0.9148936170212766","","","","","","","",""
"null","186680","SARL_v6","SARL_v6zmfob1m7","62c5fbbb796500bb5406d772","freq_resp","","","img/blue_2bandit_a.png","70","img/blue_2bandit_a.png","70","test","","","","","","","","","","","3","","","","","","","","",""
"null","186840","SARL_v6","SARL_v6zmfob1m7","62c5fbbb796500bb5406d772","fixation","","","img/fixation.png","null","","","test","","","","","","","","","","","","","","","","","","","",""
"289.29999999701977","187131","SARL_v6","SARL_v6zmfob1m7","62c5fbbb796500bb5406d772","freq","","","img/blue_2bandit_a2.png","70","","70","test","1","","50","","","","square","circle","48","2","3","0.9166666666666666","","","","","","","",""
"null","187653","SARL_v6","SARL_v6zmfob1m7","62c5fbbb796500bb5406d772","freq_resp","","","img/blue_2bandit_a.png","70","img/blue_2bandit_a.png","70","test","","","","","","","","","","","3","","","","","","","","",""
"null","187817","SARL_v6","SARL_v6zmfob1m7","62c5fbbb796500bb5406d772","fixation","","","img/fixation.png","null","","","test","","","","","","","","","","","","","","","","","","","",""
"252.39999999850988","188072","SARL_v6","SARL_v6zmfob1m7","62c5fbbb796500bb5406d772","freq","","","img/blue_2bandit_a2.png","70","","70","test","1","","51","","","","square","circle","49","3","3","0.9183673469387755","","","","","","","",""
"null","188630","SARL_v6","SARL_v6zmfob1m7","62c5fbbb796500bb5406d772","freq_resp","","","img/blue_2bandit_a.png","70","img/blue_2bandit_a.png","70","test","","","","","","","","","","","3","","","","","","","","",""
"null","188791","SARL_v6","SARL_v6zmfob1m7","62c5fbbb796500bb5406d772","fixation","","","img/fixation.png","null","","","test","","","","","","","","","","","","","","","","","","","",""
"162","188955","SARL_v6","SARL_v6zmfob1m7","62c5fbbb796500bb5406d772","freq","","","img/blue_2bandit_a2.png","70","","70","test","1","","52","","","","square","circle","50","4","3","0.92","","","","","","","",""
"null","189606","SARL_v6","SARL_v6zmfob1m7","62c5fbbb796500bb5406d772","freq_resp","","","img/blue_2bandit_a.png","70","img/blue_2bandit_a.png","70","test","","","","","","","","","","","3","","","","","","","","",""
"null","189764","SARL_v6","SARL_v6zmfob1m7","62c5fbbb796500bb5406d772","fixation","","","img/fixation.png","null","","","test","","","","","","","","","","","","","","","","","","","",""
"266.70000000298023","190033","SARL_v6","SARL_v6zmfob1m7","62c5fbbb796500bb5406d772","freq","","","img/blue_2bandit_a2.png","70","","70","test","1","","53","","","","square","circle","51","5","3","0.9215686274509803","","","","","","","",""
"null","190578","SARL_v6","SARL_v6zmfob1m7","62c5fbbb796500bb5406d772","freq_resp","","","img/blue_2bandit_a.png","70","img/blue_2bandit_a.png","70","test","","","","","","","","","","","3","","","","","","","","",""
"null","190737","SARL_v6","SARL_v6zmfob1m7","62c5fbbb796500bb5406d772","fixation","","","img/fixation.png","null","","","test","","","","","","","","","","","","","","","","","","","",""
"294.69999999552965","191034","SARL_v6","SARL_v6zmfob1m7","62c5fbbb796500bb5406d772","freq","","","img/blue_2bandit_a2.png","70","","70","test","1","","54","","","","square","circle","52","6","3","0.9230769230769231","","","","","","","",""
"null","191549","SARL_v6","SARL_v6zmfob1m7","62c5fbbb796500bb5406d772","freq_resp","","","img/blue_2bandit_a.png","70","img/blue_2bandit_a.png","70","test","","","","","","","","","","","3","","","","","","","","",""
"null","191709","SARL_v6","SARL_v6zmfob1m7","62c5fbbb796500bb5406d772","fixation","","","img/fixation.png","null","","","test","","","","","","","","","","","","","","","","","","","",""
"335","192046","SARL_v6","SARL_v6zmfob1m7","62c5fbbb796500bb5406d772","freq","","","img/blue_2bandit_a2.png","70","","70","test","1","","55","","","","square","circle","53","7","3","0.9245283018867925","","","","","","","",""
"null","192515","SARL_v6","SARL_v6zmfob1m7","62c5fbbb796500bb5406d772","freq_resp","","","img/blue_2bandit_a.png","70","img/blue_2bandit_a.png","70","test","","","","","","","","","","","3","","","","","","","","",""
"null","192678","SARL_v6","SARL_v6zmfob1m7","62c5fbbb796500bb5406d772","fixation","","","img/fixation.png","null","","","test","","","","","","","","","","","","","","","","","","","",""
"271.29999999701977","192952","SARL_v6","SARL_v6zmfob1m7","62c5fbbb796500bb5406d772","infreq","","","img/orange_2bandit_a2.png","70","","68","test","0","","56","","","","square","circle","54","8","3","0.9074074074074074","","","","","","","",""
"null","193484","SARL_v6","SARL_v6zmfob1m7","62c5fbbb796500bb5406d772","infreq_resp","","","img/orange_2bandit_a.png","70","img/orange_2bandit_a.png","68","test","","","","","","","","","","","3","","","","","","","","",""
"null","193650","SARL_v6","SARL_v6zmfob1m7","62c5fbbb796500bb5406d772","fixation","","","img/fixation.png","null","","","test","","","","","","","","","","","","","","","","","","","",""
"500.69999999552965","194153","SARL_v6","SARL_v6zmfob1m7","62c5fbbb796500bb5406d772","freq","","","img/blue_2bandit_a2.png","70","","70","test","1","","57","","","","square","circle","55","9","3","0.9090909090909091","","","","","","","",""
"null","194461","SARL_v6","SARL_v6zmfob1m7","62c5fbbb796500bb5406d772","freq_resp","","","img/blue_2bandit_a.png","70","img/blue_2bandit_a.png","70","test","","","","","","","","","","","3","","","","","","","","",""
"null","194625","SARL_v6","SARL_v6zmfob1m7","62c5fbbb796500bb5406d772","fixation","","","img/fixation.png","null","","","test","","","","","","","","","","","","","","","","","","","",""
"392.79999999701977","195020","SARL_v6","SARL_v6zmfob1m7","62c5fbbb796500bb5406d772","freq","","","img/blue_2bandit_a2.png","70","","70","test","1","","58","","","","square","circle","56","10","3","0.9107142857142857","","","","","","","",""
"null","195441","SARL_v6","SARL_v6zmfob1m7","62c5fbbb796500bb5406d772","freq_resp","","","img/blue_2bandit_a.png","70","img/blue_2bandit_a.png","70","test","","","","","","","","","","","3","","","","","","","","",""
"null","195596","SARL_v6","SARL_v6zmfob1m7","62c5fbbb796500bb5406d772","fixation","","","img/fixation.png","null","","","test","","","","","","","","","","","","","","","","","","","",""
"326.3999999985099","195925","SARL_v6","SARL_v6zmfob1m7","62c5fbbb796500bb5406d772","freq","","","img/blue_2bandit_a2.png","70","","70","test","1","","59","","","","square","circle","57","11","3","0.9122807017543859","","","","","","","",""
"null","196409","SARL_v6","SARL_v6zmfob1m7","62c5fbbb796500bb5406d772","freq_resp","","","img/blue_2bandit_a.png","70","img/blue_2bandit_a.png","70","test","","","","","","","","","","","3","","","","","","","","",""
"null","196565","SARL_v6","SARL_v6zmfob1m7","62c5fbbb796500bb5406d772","fixation","","","img/fixation.png","null","","","test","","","","","","","","","","","","","","","","","","","",""
"235.10000000149012","196802","SARL_v6","SARL_v6zmfob1m7","62c5fbbb796500bb5406d772","freq","","","img/blue_2bandit_a2.png","70","","70","test","1","","60","","","","square","circle","58","12","3","0.9137931034482759","","","","","","","",""
"null","197373","SARL_v6","SARL_v6zmfob1m7","62c5fbbb796500bb5406d772","freq_resp","","","img/blue_2bandit_a.png","70","img/blue_2bandit_a.png","70","test","","","","","","","","","","","3","","","","","","","","",""
"null","197533","SARL_v6","SARL_v6zmfob1m7","62c5fbbb796500bb5406d772","fixation","","","img/fixation.png","null","","","test","","","","","","","","","","","","","","","","","","","",""
"219","197754","SARL_v6","SARL_v6zmfob1m7","62c5fbbb796500bb5406d772","freq","","","img/blue_2bandit_a2.png","70","","70","test","1","","61","","","","square","circle","59","13","3","0.9152542372881356","","","","","","","",""
"null","198344","SARL_v6","SARL_v6zmfob1m7","62c5fbbb796500bb5406d772","freq_resp","","","img/blue_2bandit_a.png","70","img/blue_2bandit_a.png","70","test","","","","","","","","","","","3","","","","","","","","",""
"null","198500","SARL_v6","SARL_v6zmfob1m7","62c5fbbb796500bb5406d772","fixation","","","img/fixation.png","null","","","test","","","","","","","","","","","","","","","","","","","",""
"309.80000000447035","198812","SARL_v6","SARL_v6zmfob1m7","62c5fbbb796500bb5406d772","freq","","","img/blue_2bandit_a2.png","70","","70","test","1","","62","","","","square","circle","60","14","3","0.9166666666666666","","","","","","","",""
"null","199312","SARL_v6","SARL_v6zmfob1m7","62c5fbbb796500bb5406d772","freq_resp","","","img/blue_2bandit_a.png","70","img/blue_2bandit_a.png","70","test","","","","","","","","","","","3","","","","","","","","",""
"null","199471","SARL_v6","SARL_v6zmfob1m7","62c5fbbb796500bb5406d772","fixation","","","img/fixation.png","null","","","test","","","","","","","","","","","","","","","","","","","",""
"300.8999999985099","199774","SARL_v6","SARL_v6zmfob1m7","62c5fbbb796500bb5406d772","freq","","","img/blue_2bandit_a2.png","70","","70","test","1","","63","","","","square","circle","61","15","3","0.9180327868852459","","","","","","","",""
"null","200280","SARL_v6","SARL_v6zmfob1m7","62c5fbbb796500bb5406d772","freq_resp","","","img/blue_2bandit_a.png","70","img/blue_2bandit_a.png","70","test","","","","","","","","","","","3","","","","","","","","",""
"null","200442","SARL_v6","SARL_v6zmfob1m7","62c5fbbb796500bb5406d772","fixation","","","img/fixation.png","null","","","test","","","","","","","","","","","","","","","","","","","",""
"294.79999999701977","200739","SARL_v6","SARL_v6zmfob1m7","62c5fbbb796500bb5406d772","freq","","","img/blue_2bandit_a2.png","70","","70","test","1","","64","","","","square","circle","62","16","3","0.9193548387096774","","","","","","","",""
"null","201253","SARL_v6","SARL_v6zmfob1m7","62c5fbbb796500bb5406d772","freq_resp","","","img/blue_2bandit_a.png","70","img/blue_2bandit_a.png","70","test","","","","","","","","","","","3","","","","","","","","",""
"null","201417","SARL_v6","SARL_v6zmfob1m7","62c5fbbb796500bb5406d772","fixation","","","img/fixation.png","null","","","test","","","","","","","","","","","","","","","","","","","",""
"311.6000000014901","201731","SARL_v6","SARL_v6zmfob1m7","62c5fbbb796500bb5406d772","freq","","","img/blue_2bandit_a2.png","70","","70","test","1","","65","","","","square","circle","63","17","3","0.9206349206349206","","","","","","","",""
"null","202229","SARL_v6","SARL_v6zmfob1m7","62c5fbbb796500bb5406d772","freq_resp","","","img/blue_2bandit_a.png","70","img/blue_2bandit_a.png","70","test","","","","","","","","","","","3","","","","","","","","",""
"null","202391","SARL_v6","SARL_v6zmfob1m7","62c5fbbb796500bb5406d772","fixation","","","img/fixation.png","null","","","test","","","","","","","","","","","","","","","","","","","",""
"275.1000000014901","202668","SARL_v6","SARL_v6zmfob1m7","62c5fbbb796500bb5406d772","freq","","","img/blue_2bandit_a2.png","70","","70","test","1","","66","","","","square","circle","64","18","3","0.921875","","","","","","","",""
"null","203197","SARL_v6","SARL_v6zmfob1m7","62c5fbbb796500bb5406d772","freq_resp","","","img/blue_2bandit_a.png","70","img/blue_2bandit_a.png","70","test","","","","","","","","","","","3","","","","","","","","",""
"null","203359","SARL_v6","SARL_v6zmfob1m7","62c5fbbb796500bb5406d772","fixation","","","img/fixation.png","null","","","test","","","","","","","","","","","","","","","","","","","",""
"260.5","203622","SARL_v6","SARL_v6zmfob1m7","62c5fbbb796500bb5406d772","freq","","","img/blue_2bandit_a2.png","70","","70","test","1","","67","","","","square","circle","65","19","3","0.9230769230769231","","","","","","","",""
"null","204167","SARL_v6","SARL_v6zmfob1m7","62c5fbbb796500bb5406d772","freq_resp","","","img/blue_2bandit_a.png","70","img/blue_2bandit_a.png","70","test","","","","","","","","","","","3","","","","","","","","",""
"null","204327","SARL_v6","SARL_v6zmfob1m7","62c5fbbb796500bb5406d772","fixation","","","img/fixation.png","null","","","test","","","","","","","","","","","","","","","","","","","",""
"342.20000000298023","204671","SARL_v6","SARL_v6zmfob1m7","62c5fbbb796500bb5406d772","freq","","","img/blue_2bandit_a2.png","70","","70","test","1","","68","","","","square","circle","66","20","3","0.9242424242424242","","","","","","","",""
"null","205134","SARL_v6","SARL_v6zmfob1m7","62c5fbbb796500bb5406d772","freq_resp","","","img/blue_2bandit_a.png","70","img/blue_2bandit_a.png","70","test","","","","","","","","","","","3","","","","","","","","",""
"null","205298","SARL_v6","SARL_v6zmfob1m7","62c5fbbb796500bb5406d772","fixation","","","img/fixation.png","null","","","test","","","","","","","","","","","","","","","","","","","",""
"466.6000000014901","205767","SARL_v6","SARL_v6zmfob1m7","62c5fbbb796500bb5406d772","infreq","","","img/orange_2bandit_a2.png","68","","68","test","1","","69","","","","square","circle","67","21","3","0.9253731343283582","","","","","","","",""
"null","206109","SARL_v6","SARL_v6zmfob1m7","62c5fbbb796500bb5406d772","infreq_resp","","","img/orange_2bandit_a.png","68","img/orange_2bandit_a.png","68","test","","","","","","","","","","","3","","","","","","","","",""
"null","206273","SARL_v6","SARL_v6zmfob1m7","62c5fbbb796500bb5406d772","fixation","","","img/fixation.png","null","","","test","","","","","","","","","","","","","","","","","","","",""
"432.5","206708","SARL_v6","SARL_v6zmfob1m7","62c5fbbb796500bb5406d772","freq","","","img/blue_2bandit_a2.png","70","","70","test","1","","70","","","","square","circle","68","22","3","0.9264705882352942","","","","","","","",""
"null","207086","SARL_v6","SARL_v6zmfob1m7","62c5fbbb796500bb5406d772","freq_resp","","","img/blue_2bandit_a.png","70","img/blue_2bandit_a.png","70","test","","","","","","","","","","","3","","","","","","","","",""
"null","207250","SARL_v6","SARL_v6zmfob1m7","62c5fbbb796500bb5406d772","fixation","","","img/fixation.png","null","","","test","","","","","","","","","","","","","","","","","","","",""
"247.89999999850988","207500","SARL_v6","SARL_v6zmfob1m7","62c5fbbb796500bb5406d772","freq","","","img/blue_2bandit_a2.png","70","","70","test","1","","71","","","","square","circle","69","23","3","0.927536231884058","","","","","","","",""
"null","208061","SARL_v6","SARL_v6zmfob1m7","62c5fbbb796500bb5406d772","freq_resp","","","img/blue_2bandit_a.png","70","img/blue_2bandit_a.png","70","test","","","","","","","","","","","3","","","","","","","","",""
"null","208221","SARL_v6","SARL_v6zmfob1m7","62c5fbbb796500bb5406d772","fixation","","","img/fixation.png","null","","","test","","","","","","","","","","","","","","","","","","","",""
"608.5","208832","SARL_v6","SARL_v6zmfob1m7","62c5fbbb796500bb5406d772","rl","","","img/black_2bandit_a2.png","75","","0","test","","","72","","","-4","square","circle","","0","3","","75","-4","-8","-8","-4","circle","3","0"
"null","209591","SARL_v6","SARL_v6zmfob1m7","62c5fbbb796500bb5406d772","feedback","","","<div class=""verylowPoints""> -4 </div>","null","","na","test","","","NaN","","","","","","","","3","","75","","","","","","3",""
"478.6000000014901","210072","SARL_v6","SARL_v6zmfob1m7","62c5fbbb796500bb5406d772","freq","","","img/blue_2bandit_a2.png","70","","70","test","1","","73","","","","square","circle","70","1","4","0.9285714285714286","","","","","","","",""
"null","210397","SARL_v6","SARL_v6zmfob1m7","62c5fbbb796500bb5406d772","freq_resp","","","img/blue_2bandit_a.png","70","img/blue_2bandit_a.png","70","test","","","","","","","","","","","4","","","","","","","","",""
"null","210558","SARL_v6","SARL_v6zmfob1m7","62c5fbbb796500bb5406d772","fixation","","","img/fixation.png","null","","","test","","","","","","","","","","","","","","","","","","","",""
"494","211054","SARL_v6","SARL_v6zmfob1m7","62c5fbbb796500bb5406d772","freq","","","img/blue_2bandit_a2.png","70","","70","test","1","","74","","","","square","circle","71","2","4","0.9295774647887324","","","","","","","",""
"null","211366","SARL_v6","SARL_v6zmfob1m7","62c5fbbb796500bb5406d772","freq_resp","","","img/blue_2bandit_a.png","70","img/blue_2bandit_a.png","70","test","","","","","","","","","","","4","","","","","","","","",""
"null","211530","SARL_v6","SARL_v6zmfob1m7","62c5fbbb796500bb5406d772","fixation","","","img/fixation.png","null","","","test","","","","","","","","","","","","","","","","","","","",""
"343.29999999701977","211875","SARL_v6","SARL_v6zmfob1m7","62c5fbbb796500bb5406d772","freq","","","img/blue_2bandit_a2.png","70","","70","test","1","","75","","","","square","circle","72","3","4","0.9305555555555556","","","","","","","",""
"null","212346","SARL_v6","SARL_v6zmfob1m7","62c5fbbb796500bb5406d772","freq_resp","","","img/blue_2bandit_a.png","70","img/blue_2bandit_a.png","70","test","","","","","","","","","","","4","","","","","","","","",""
"null","212505","SARL_v6","SARL_v6zmfob1m7","62c5fbbb796500bb5406d772","fixation","","","img/fixation.png","null","","","test","","","","","","","","","","","","","","","","","","","",""
"274.1000000014901","212781","SARL_v6","SARL_v6zmfob1m7","62c5fbbb796500bb5406d772","freq","","","img/blue_2bandit_a2.png","70","","70","test","1","","76","","","","square","circle","73","4","4","0.9315068493150684","","","","","","","",""
"null","213321","SARL_v6","SARL_v6zmfob1m7","62c5fbbb796500bb5406d772","freq_resp","","","img/blue_2bandit_a.png","70","img/blue_2bandit_a.png","70","test","","","","","","","","","","","4","","","","","","","","",""
"null","213482","SARL_v6","SARL_v6zmfob1m7","62c5fbbb796500bb5406d772","fixation","","","img/fixation.png","null","","","test","","","","","","","","","","","","","","","","","","","",""
"178.79999999701977","213663","SARL_v6","SARL_v6zmfob1m7","62c5fbbb796500bb5406d772","freq","","","img/blue_2bandit_a2.png","70","","70","test","1","","77","","","","square","circle","74","5","4","0.9324324324324325","","","","","","","",""
"null","214296","SARL_v6","SARL_v6zmfob1m7","62c5fbbb796500bb5406d772","freq_resp","","","img/blue_2bandit_a.png","70","img/blue_2bandit_a.png","70","test","","","","","","","","","","","4","","","","","","","","",""
"null","214457","SARL_v6","SARL_v6zmfob1m7","62c5fbbb796500bb5406d772","fixation","","","img/fixation.png","null","","","test","","","","","","","","","","","","","","","","","","","",""
"298.1000000014901","214758","SARL_v6","SARL_v6zmfob1m7","62c5fbbb796500bb5406d772","freq","","","img/blue_2bandit_a2.png","70","","70","test","1","","78","","","","square","circle","75","6","4","0.9333333333333333","","","","","","","",""
"null","215262","SARL_v6","SARL_v6zmfob1m7","62c5fbbb796500bb5406d772","freq_resp","","","img/blue_2bandit_a.png","70","img/blue_2bandit_a.png","70","test","","","","","","","","","","","4","","","","","","","","",""
"null","215421","SARL_v6","SARL_v6zmfob1m7","62c5fbbb796500bb5406d772","fixation","","","img/fixation.png","null","","","test","","","","","","","","","","","","","","","","","","","",""
"300.5","215724","SARL_v6","SARL_v6zmfob1m7","62c5fbbb796500bb5406d772","freq","","","img/blue_2bandit_a2.png","70","","70","test","1","","79","","","","square","circle","76","7","4","0.9342105263157895","","","","","","","",""
"null","216229","SARL_v6","SARL_v6zmfob1m7","62c5fbbb796500bb5406d772","freq_resp","","","img/blue_2bandit_a.png","70","img/blue_2bandit_a.png","70","test","","","","","","","","","","","4","","","","","","","","",""
"null","216391","SARL_v6","SARL_v6zmfob1m7","62c5fbbb796500bb5406d772","fixation","","","img/fixation.png","null","","","test","","","","","","","","","","","","","","","","","","","",""
"464.5","216858","SARL_v6","SARL_v6zmfob1m7","62c5fbbb796500bb5406d772","infreq","","","img/orange_2bandit_a2.png","68","","68","test","1","","80","","","","square","circle","77","8","4","0.935064935064935","","","","","","","",""
"null","217199","SARL_v6","SARL_v6zmfob1m7","62c5fbbb796500bb5406d772","infreq_resp","","","img/orange_2bandit_a.png","68","img/orange_2bandit_a.png","68","test","","","","","","","","","","","4","","","","","","","","",""
"null","217361","SARL_v6","SARL_v6zmfob1m7","62c5fbbb796500bb5406d772","fixation","","","img/fixation.png","null","","","test","","","","","","","","","","","","","","","","","","","",""
"287.29999999701977","217651","SARL_v6","SARL_v6zmfob1m7","62c5fbbb796500bb5406d772","freq","","","img/blue_2bandit_a2.png","70","","70","test","1","","81","","","","square","circle","78","9","4","0.9358974358974359","","","","","","","",""
"null","218174","SARL_v6","SARL_v6zmfob1m7","62c5fbbb796500bb5406d772","freq_resp","","","img/blue_2bandit_a.png","70","img/blue_2bandit_a.png","70","test","","","","","","","","","","","4","","","","","","","","",""
"null","218336","SARL_v6","SARL_v6zmfob1m7","62c5fbbb796500bb5406d772","fixation","","","img/fixation.png","null","","","test","","","","","","","","","","","","","","","","","","","",""
"243.30000000447035","218582","SARL_v6","SARL_v6zmfob1m7","62c5fbbb796500bb5406d772","freq","","","img/blue_2bandit_a2.png","70","","70","test","1","","82","","","","square","circle","79","10","4","0.9367088607594937","","","","","","","",""
"null","219149","SARL_v6","SARL_v6zmfob1m7","62c5fbbb796500bb5406d772","freq_resp","","","img/blue_2bandit_a.png","70","img/blue_2bandit_a.png","70","test","","","","","","","","","","","4","","","","","","","","",""
"null","219312","SARL_v6","SARL_v6zmfob1m7","62c5fbbb796500bb5406d772","fixation","","","img/fixation.png","null","","","test","","","","","","","","","","","","","","","","","","","",""
"179.89999999850988","219494","SARL_v6","SARL_v6zmfob1m7","62c5fbbb796500bb5406d772","freq","","","img/blue_2bandit_a2.png","70","","70","test","1","","83","","","","square","circle","80","11","4","0.9375","","","","","","","",""
"null","220127","SARL_v6","SARL_v6zmfob1m7","62c5fbbb796500bb5406d772","freq_resp","","","img/blue_2bandit_a.png","70","img/blue_2bandit_a.png","70","test","","","","","","","","","","","4","","","","","","","","",""
"null","220287","SARL_v6","SARL_v6zmfob1m7","62c5fbbb796500bb5406d772","fixation","","","img/fixation.png","null","","","test","","","","","","","","","","","","","","","","","","","",""
"130.60000000149012","220420","SARL_v6","SARL_v6zmfob1m7","62c5fbbb796500bb5406d772","freq","","","img/blue_2bandit_a2.png","70","","70","test","1","","84","","","","square","circle","81","12","4","0.9382716049382716","","","","","","","",""
"null","221095","SARL_v6","SARL_v6zmfob1m7","62c5fbbb796500bb5406d772","freq_resp","","","img/blue_2bandit_a.png","70","img/blue_2bandit_a.png","70","test","","","","","","","","","","","4","","","","","","","","",""
"null","221258","SARL_v6","SARL_v6zmfob1m7","62c5fbbb796500bb5406d772","fixation","","","img/fixation.png","null","","","test","","","","","","","","","","","","","","","","","","","",""
"94","221354","SARL_v6","SARL_v6zmfob1m7","62c5fbbb796500bb5406d772","freq","","","img/blue_2bandit_a2.png","70","","70","test","1","","85","","","","square","circle","82","13","4","0.9390243902439024","","","","","","","",""
"null","222071","SARL_v6","SARL_v6zmfob1m7","62c5fbbb796500bb5406d772","freq_resp","","","img/blue_2bandit_a.png","70","img/blue_2bandit_a.png","70","test","","","","","","","","","","","4","","","","","","","","",""
"null","222230","SARL_v6","SARL_v6zmfob1m7","62c5fbbb796500bb5406d772","fixation","","","img/fixation.png","null","","","test","","","","","","","","","","","","","","","","","","","",""
"125.29999999701977","222358","SARL_v6","SARL_v6zmfob1m7","62c5fbbb796500bb5406d772","freq","","","img/blue_2bandit_a2.png","70","","70","test","1","","86","","","","square","circle","83","14","4","0.9397590361445783","","","","","","","",""
"null","223038","SARL_v6","SARL_v6zmfob1m7","62c5fbbb796500bb5406d772","freq_resp","","","img/blue_2bandit_a.png","70","img/blue_2bandit_a.png","70","test","","","","","","","","","","","4","","","","","","","","",""
"null","223197","SARL_v6","SARL_v6zmfob1m7","62c5fbbb796500bb5406d772","fixation","","","img/fixation.png","null","","","test","","","","","","","","","","","","","","","","","","","",""
"121.40000000596046","223321","SARL_v6","SARL_v6zmfob1m7","62c5fbbb796500bb5406d772","freq","","","img/blue_2bandit_a2.png","70","","70","test","1","","87","","","","square","circle","84","15","4","0.9404761904761905","","","","","","","",""
"null","224005","SARL_v6","SARL_v6zmfob1m7","62c5fbbb796500bb5406d772","freq_resp","","","img/blue_2bandit_a.png","70","img/blue_2bandit_a.png","70","test","","","","","","","","","","","4","","","","","","","","",""
"null","224165","SARL_v6","SARL_v6zmfob1m7","62c5fbbb796500bb5406d772","fixation","","","img/fixation.png","null","","","test","","","","","","","","","","","","","","","","","","","",""
"168.69999999552965","224336","SARL_v6","SARL_v6zmfob1m7","62c5fbbb796500bb5406d772","infreq","","","img/orange_2bandit_a2.png","70","","68","test","0","","88","","","","square","circle","85","16","4","0.9294117647058824","","","","","","","",""
"null","224978","SARL_v6","SARL_v6zmfob1m7","62c5fbbb796500bb5406d772","infreq_resp","","","img/orange_2bandit_a.png","70","img/orange_2bandit_a.png","68","test","","","","","","","","","","","4","","","","","","","","",""
"null","225135","SARL_v6","SARL_v6zmfob1m7","62c5fbbb796500bb5406d772","fixation","","","img/fixation.png","null","","","test","","","","","","","","","","","","","","","","","","","",""
"126.39999999850988","225264","SARL_v6","SARL_v6zmfob1m7","62c5fbbb796500bb5406d772","freq","","","img/blue_2bandit_a2.png","70","","70","test","1","","89","","","","square","circle","86","17","4","0.9302325581395349","","","","","","","",""
"null","225944","SARL_v6","SARL_v6zmfob1m7","62c5fbbb796500bb5406d772","freq_resp","","","img/blue_2bandit_a.png","70","img/blue_2bandit_a.png","70","test","","","","","","","","","","","4","","","","","","","","",""
"null","226106","SARL_v6","SARL_v6zmfob1m7","62c5fbbb796500bb5406d772","fixation","","","img/fixation.png","null","","","test","","","","","","","","","","","","","","","","","","","",""
"63.70000000298023","226172","SARL_v6","SARL_v6zmfob1m7","62c5fbbb796500bb5406d772","freq","","","img/blue_2bandit_a2.png","70","","70","test","1","","90","","","","square","circle","87","18","4","0.9310344827586207","","","","","","","",""
"null","226923","SARL_v6","SARL_v6zmfob1m7","62c5fbbb796500bb5406d772","freq_resp","","","img/blue_2bandit_a.png","70","img/blue_2bandit_a.png","70","test","","","","","","","","","","","4","","","","","","","","",""
"null","227077","SARL_v6","SARL_v6zmfob1m7","62c5fbbb796500bb5406d772","fixation","","","img/fixation.png","null","","","test","","","","","","","","","","","","","","","","","","","",""
"102.29999999701977","227182","SARL_v6","SARL_v6zmfob1m7","62c5fbbb796500bb5406d772","freq","","","img/blue_2bandit_a2.png","70","","70","test","1","","91","","","","square","circle","88","19","4","0.9318181818181818","","","","","","","",""
"null","227890","SARL_v6","SARL_v6zmfob1m7","62c5fbbb796500bb5406d772","freq_resp","","","img/blue_2bandit_a.png","70","img/blue_2bandit_a.png","70","test","","","","","","","","","","","4","","","","","","","","",""
"null","228050","SARL_v6","SARL_v6zmfob1m7","62c5fbbb796500bb5406d772","fixation","","","img/fixation.png","null","","","test","","","","","","","","","","","","","","","","","","","",""
"125.89999999850988","228178","SARL_v6","SARL_v6zmfob1m7","62c5fbbb796500bb5406d772","freq","","","img/blue_2bandit_a2.png","70","","70","test","1","","92","","","","square","circle","89","20","4","0.9325842696629213","","","","","","","",""
"null","228862","SARL_v6","SARL_v6zmfob1m7","62c5fbbb796500bb5406d772","freq_resp","","","img/blue_2bandit_a.png","70","img/blue_2bandit_a.png","70","test","","","","","","","","","","","4","","","","","","","","",""
"null","229022","SARL_v6","SARL_v6zmfob1m7","62c5fbbb796500bb5406d772","fixation","","","img/fixation.png","null","","","test","","","","","","","","","","","","","","","","","","","",""
"521.3999999985099","229546","SARL_v6","SARL_v6zmfob1m7","62c5fbbb796500bb5406d772","rl","","","img/black_2bandit_a2.png","75","","0","test","","","93","","","0","square","circle","","0","4","","75","0","-12","-12","0","circle","4","0"
"null","230306","SARL_v6","SARL_v6zmfob1m7","62c5fbbb796500bb5406d772","feedback","","","<div class=""verylowPoints""> 0 </div>","null","","na","test","","","NaN","","","","","","","","4","","75","","","","","","4",""
"255.60000000149012","230564","SARL_v6","SARL_v6zmfob1m7","62c5fbbb796500bb5406d772","freq","","","img/blue_2bandit_a2.png","70","","70","test","1","","94","","","","square","circle","90","1","5","0.9333333333333333","","","","","","","",""
"null","231122","SARL_v6","SARL_v6zmfob1m7","62c5fbbb796500bb5406d772","freq_resp","","","img/blue_2bandit_a.png","70","img/blue_2bandit_a.png","70","test","","","","","","","","","","","5","","","","","","","","",""
"null","231278","SARL_v6","SARL_v6zmfob1m7","62c5fbbb796500bb5406d772","fixation","","","img/fixation.png","null","","","test","","","","","","","","","","","","","","","","","","","",""
"287.6000000014901","231568","SARL_v6","SARL_v6zmfob1m7","62c5fbbb796500bb5406d772","freq","","","img/blue_2bandit_a2.png","70","","70","test","1","","95","","","","square","circle","91","2","5","0.9340659340659341","","","","","","","",""
"null","232089","SARL_v6","SARL_v6zmfob1m7","62c5fbbb796500bb5406d772","freq_resp","","","img/blue_2bandit_a.png","70","img/blue_2bandit_a.png","70","test","","","","","","","","","","","5","","","","","","","","",""
"null","232246","SARL_v6","SARL_v6zmfob1m7","62c5fbbb796500bb5406d772","fixation","","","img/fixation.png","null","","","test","","","","","","","","","","","","","","","","","","","",""
"256.20000000298023","232504","SARL_v6","SARL_v6zmfob1m7","62c5fbbb796500bb5406d772","freq","","","img/blue_2bandit_a2.png","70","","70","test","1","","96","","","","square","circle","92","3","5","0.9347826086956522","","","","","","","",""
"null","233058","SARL_v6","SARL_v6zmfob1m7","62c5fbbb796500bb5406d772","freq_resp","","","img/blue_2bandit_a.png","70","img/blue_2bandit_a.png","70","test","","","","","","","","","","","5","","","","","","","","",""
"null","233217","SARL_v6","SARL_v6zmfob1m7","62c5fbbb796500bb5406d772","fixation","","","img/fixation.png","null","","","test","","","","","","","","","","","","","","","","","","","",""
"119.39999999850988","233339","SARL_v6","SARL_v6zmfob1m7","62c5fbbb796500bb5406d772","freq","","","img/blue_2bandit_a2.png","70","","70","test","1","","97","","","","square","circle","93","4","5","0.9354838709677419","","","","","","","",""
"null","234034","SARL_v6","SARL_v6zmfob1m7","62c5fbbb796500bb5406d772","freq_resp","","","img/blue_2bandit_a.png","70","img/blue_2bandit_a.png","70","test","","","","","","","","","","","5","","","","","","","","",""
"null","234192","SARL_v6","SARL_v6zmfob1m7","62c5fbbb796500bb5406d772","fixation","","","img/fixation.png","null","","","test","","","","","","","","","","","","","","","","","","","",""
"104.29999999701977","234298","SARL_v6","SARL_v6zmfob1m7","62c5fbbb796500bb5406d772","freq","","","img/blue_2bandit_a2.png","70","","70","test","1","","98","","","","square","circle","94","5","5","0.9361702127659575","","","","","","","",""
"null","235003","SARL_v6","SARL_v6zmfob1m7","62c5fbbb796500bb5406d772","freq_resp","","","img/blue_2bandit_a.png","70","img/blue_2bandit_a.png","70","test","","","","","","","","","","","5","","","","","","","","",""
"null","235158","SARL_v6","SARL_v6zmfob1m7","62c5fbbb796500bb5406d772","fixation","","","img/fixation.png","null","","","test","","","","","","","","","","","","","","","","","","","",""
"232.39999999850988","235393","SARL_v6","SARL_v6zmfob1m7","62c5fbbb796500bb5406d772","freq","","","img/blue_2bandit_a2.png","70","","70","test","1","","99","","","","square","circle","95","6","5","0.9368421052631579","","","","","","","",""
"null","235966","SARL_v6","SARL_v6zmfob1m7","62c5fbbb796500bb5406d772","freq_resp","","","img/blue_2bandit_a.png","70","img/blue_2bandit_a.png","70","test","","","","","","","","","","","5","","","","","","","","",""
"null","236130","SARL_v6","SARL_v6zmfob1m7","62c5fbbb796500bb5406d772","fixation","","","img/fixation.png","null","","","test","","","","","","","","","","","","","","","","","","","",""
"326.40000000596046","236459","SARL_v6","SARL_v6zmfob1m7","62c5fbbb796500bb5406d772","freq","","","img/blue_2bandit_a2.png","70","","70","test","1","","100","","","","square","circle","96","7","5","0.9375","","","","","","","",""
"null","236946","SARL_v6","SARL_v6zmfob1m7","62c5fbbb796500bb5406d772","freq_resp","","","img/blue_2bandit_a.png","70","img/blue_2bandit_a.png","70","test","","","","","","","","","","","5","","","","","","","","",""
"null","237105","SARL_v6","SARL_v6zmfob1m7","62c5fbbb796500bb5406d772","fixation","","","img/fixation.png","null","","","test","","","","","","","","","","","","","","","","","","","",""
"251.89999999850988","237360","SARL_v6","SARL_v6zmfob1m7","62c5fbbb796500bb5406d772","freq","","","img/blue_2bandit_a2.png","70","","70","test","1","","101","","","","square","circle","97","8","5","0.9381443298969072","","","","","","","",""
"null","237918","SARL_v6","SARL_v6zmfob1m7","62c5fbbb796500bb5406d772","freq_resp","","","img/blue_2bandit_a.png","70","img/blue_2bandit_a.png","70","test","","","","","","","","","","","5","","","","","","","","",""
"null","238078","SARL_v6","SARL_v6zmfob1m7","62c5fbbb796500bb5406d772","fixation","","","img/fixation.png","null","","","test","","","","","","","","","","","","","","","","","","","",""
"159","238239","SARL_v6","SARL_v6zmfob1m7","62c5fbbb796500bb5406d772","freq","","","img/blue_2bandit_a2.png","70","","70","test","1","","102","","","","square","circle","98","9","5","0.9387755102040817","","","","","","","",""
"null","238887","SARL_v6","SARL_v6zmfob1m7","62c5fbbb796500bb5406d772","freq_resp","","","img/blue_2bandit_a.png","70","img/blue_2bandit_a.png","70","test","","","","","","","","","","","5","","","","","","","","",""
"null","239050","SARL_v6","SARL_v6zmfob1m7","62c5fbbb796500bb5406d772","fixation","","","img/fixation.png","null","","","test","","","","","","","","","","","","","","","","","","","",""
"143.79999999701977","239196","SARL_v6","SARL_v6zmfob1m7","62c5fbbb796500bb5406d772","freq","","","img/blue_2bandit_a2.png","70","","70","test","1","","103","","","","square","circle","99","10","5","0.9393939393939394","","","","","","","",""
"null","239862","SARL_v6","SARL_v6zmfob1m7","62c5fbbb796500bb5406d772","freq_resp","","","img/blue_2bandit_a.png","70","img/blue_2bandit_a.png","70","test","","","","","","","","","","","5","","","","","","","","",""
"null","240025","SARL_v6","SARL_v6zmfob1m7","62c5fbbb796500bb5406d772","fixation","","","img/fixation.png","null","","","test","","","","","","","","","","","","","","","","","","","",""
"246.89999999850988","240274","SARL_v6","SARL_v6zmfob1m7","62c5fbbb796500bb5406d772","freq","","","img/blue_2bandit_a2.png","70","","70","test","1","","104","","","","square","circle","100","11","5","0.94","","","","","","","",""
"null","240841","SARL_v6","SARL_v6zmfob1m7","62c5fbbb796500bb5406d772","freq_resp","","","img/blue_2bandit_a.png","70","img/blue_2bandit_a.png","70","test","","","","","","","","","","","5","","","","","","","","",""
"null","241000","SARL_v6","SARL_v6zmfob1m7","62c5fbbb796500bb5406d772","fixation","","","img/fixation.png","null","","","test","","","","","","","","","","","","","","","","","","","",""
"298.79999999701977","241301","SARL_v6","SARL_v6zmfob1m7","62c5fbbb796500bb5406d772","freq","","","img/blue_2bandit_a2.png","70","","70","test","1","","105","","","","square","circle","101","12","5","0.9405940594059405","","","","","","","",""
"null","241811","SARL_v6","SARL_v6zmfob1m7","62c5fbbb796500bb5406d772","freq_resp","","","img/blue_2bandit_a.png","70","img/blue_2bandit_a.png","70","test","","","","","","","","","","","5","","","","","","","","",""
"null","241967","SARL_v6","SARL_v6zmfob1m7","62c5fbbb796500bb5406d772","fixation","","","img/fixation.png","null","","","test","","","","","","","","","","","","","","","","","","","",""
"284.8999999985099","242254","SARL_v6","SARL_v6zmfob1m7","62c5fbbb796500bb5406d772","freq","","","img/blue_2bandit_a2.png","70","","70","test","1","","106","","","","square","circle","102","13","5","0.9411764705882353","","","","","","","",""
"null","242777","SARL_v6","SARL_v6zmfob1m7","62c5fbbb796500bb5406d772","freq_resp","","","img/blue_2bandit_a.png","70","img/blue_2bandit_a.png","70","test","","","","","","","","","","","5","","","","","","","","",""
"null","242936","SARL_v6","SARL_v6zmfob1m7","62c5fbbb796500bb5406d772","fixation","","","img/fixation.png","null","","","test","","","","","","","","","","","","","","","","","","","",""
"262.1000000014901","243200","SARL_v6","SARL_v6zmfob1m7","62c5fbbb796500bb5406d772","freq","","","img/blue_2bandit_a2.png","70","","70","test","1","","107","","","","square","circle","103","14","5","0.941747572815534","","","","","","","",""
"null","243744","SARL_v6","SARL_v6zmfob1m7","62c5fbbb796500bb5406d772","freq_resp","","","img/blue_2bandit_a.png","70","img/blue_2bandit_a.png","70","test","","","","","","","","","","","5","","","","","","","","",""
"null","243903","SARL_v6","SARL_v6zmfob1m7","62c5fbbb796500bb5406d772","fixation","","","img/fixation.png","null","","","test","","","","","","","","","","","","","","","","","","","",""
"192.89999999850988","244098","SARL_v6","SARL_v6zmfob1m7","62c5fbbb796500bb5406d772","freq","","","img/blue_2bandit_a2.png","70","","70","test","1","","108","","","","square","circle","104","15","5","0.9423076923076923","","","","","","","",""
"null","244712","SARL_v6","SARL_v6zmfob1m7","62c5fbbb796500bb5406d772","freq_resp","","","img/blue_2bandit_a.png","70","img/blue_2bandit_a.png","70","test","","","","","","","","","","","5","","","","","","","","",""
"null","244872","SARL_v6","SARL_v6zmfob1m7","62c5fbbb796500bb5406d772","fixation","","","img/fixation.png","null","","","test","","","","","","","","","","","","","","","","","","","",""
"144.20000000298023","245018","SARL_v6","SARL_v6zmfob1m7","62c5fbbb796500bb5406d772","freq","","","img/blue_2bandit_a2.png","70","","70","test","1","","109","","","","square","circle","105","16","5","0.9428571428571428","","","","","","","",""
"null","245678","SARL_v6","SARL_v6zmfob1m7","62c5fbbb796500bb5406d772","freq_resp","","","img/blue_2bandit_a.png","70","img/blue_2bandit_a.png","70","test","","","","","","","","","","","5","","","","","","","","",""
"null","245843","SARL_v6","SARL_v6zmfob1m7","62c5fbbb796500bb5406d772","fixation","","","img/fixation.png","null","","","test","","","","","","","","","","","","","","","","","","","",""
"241","246087","SARL_v6","SARL_v6zmfob1m7","62c5fbbb796500bb5406d772","freq","","","img/blue_2bandit_a2.png","70","","70","test","1","","110","","","","square","circle","106","17","5","0.9433962264150944","","","","","","","",""
"null","246656","SARL_v6","SARL_v6zmfob1m7","62c5fbbb796500bb5406d772","freq_resp","","","img/blue_2bandit_a.png","70","img/blue_2bandit_a.png","70","test","","","","","","","","","","","5","","","","","","","","",""
"null","246818","SARL_v6","SARL_v6zmfob1m7","62c5fbbb796500bb5406d772","fixation","","","img/fixation.png","null","","","test","","","","","","","","","","","","","","","","","","","",""
"261.79999999701977","247082","SARL_v6","SARL_v6zmfob1m7","62c5fbbb796500bb5406d772","freq","","","img/blue_2bandit_a2.png","70","","70","test","1","","111","","","","square","circle","107","18","5","0.9439252336448598","","","","","","","",""
"null","247630","SARL_v6","SARL_v6zmfob1m7","62c5fbbb796500bb5406d772","freq_resp","","","img/blue_2bandit_a.png","70","img/blue_2bandit_a.png","70","test","","","","","","","","","","","5","","","","","","","","",""
"null","247790","SARL_v6","SARL_v6zmfob1m7","62c5fbbb796500bb5406d772","fixation","","","img/fixation.png","null","","","test","","","","","","","","","","","","","","","","","","","",""
"472.20000000298023","248265","SARL_v6","SARL_v6zmfob1m7","62c5fbbb796500bb5406d772","infreq","","","img/orange_2bandit_a2.png","68","","68","test","1","","112","","","","square","circle","108","19","5","0.9444444444444444","","","","","","","",""
"null","248601","SARL_v6","SARL_v6zmfob1m7","62c5fbbb796500bb5406d772","infreq_resp","","","img/orange_2bandit_a.png","68","img/orange_2bandit_a.png","68","test","","","","","","","","","","","5","","","","","","","","",""
"null","248761","SARL_v6","SARL_v6zmfob1m7","62c5fbbb796500bb5406d772","fixation","","","img/fixation.png","null","","","test","","","","","","","","","","","","","","","","","","","",""
"428.8999999985099","249192","SARL_v6","SARL_v6zmfob1m7","62c5fbbb796500bb5406d772","infreq","","","img/orange_2bandit_a2.png","68","","68","test","1","","113","","","","square","circle","109","20","5","0.944954128440367","","","","","","","",""
"null","249579","SARL_v6","SARL_v6zmfob1m7","62c5fbbb796500bb5406d772","infreq_resp","","","img/orange_2bandit_a.png","68","img/orange_2bandit_a.png","68","test","","","","","","","","","","","5","","","","","","","","",""
"null","249736","SARL_v6","SARL_v6zmfob1m7","62c5fbbb796500bb5406d772","fixation","","","img/fixation.png","null","","","test","","","","","","","","","","","","","","","","","","","",""
"437.3999999985099","250176","SARL_v6","SARL_v6zmfob1m7","62c5fbbb796500bb5406d772","freq","","","img/blue_2bandit_a2.png","70","","70","test","1","","114","","","","square","circle","110","21","5","0.9454545454545454","","","","","","","",""
"null","250543","SARL_v6","SARL_v6zmfob1m7","62c5fbbb796500bb5406d772","freq_resp","","","img/blue_2bandit_a.png","70","img/blue_2bandit_a.png","70","test","","","","","","","","","","","5","","","","","","","","",""
"null","250706","SARL_v6","SARL_v6zmfob1m7","62c5fbbb796500bb5406d772","fixation","","","img/fixation.png","null","","","test","","","","","","","","","","","","","","","","","","","",""
"293.70000000298023","251002","SARL_v6","SARL_v6zmfob1m7","62c5fbbb796500bb5406d772","freq","","","img/blue_2bandit_a2.png","70","","70","test","1","","115","","","","square","circle","111","22","5","0.9459459459459459","","","","","","","",""
"null","251519","SARL_v6","SARL_v6zmfob1m7","62c5fbbb796500bb5406d772","freq_resp","","","img/blue_2bandit_a.png","70","img/blue_2bandit_a.png","70","test","","","","","","","","","","","5","","","","","","","","",""
"null","251678","SARL_v6","SARL_v6zmfob1m7","62c5fbbb796500bb5406d772","fixation","","","img/fixation.png","null","","","test","","","","","","","","","","","","","","","","","","","",""
"312.79999999701977","251994","SARL_v6","SARL_v6zmfob1m7","62c5fbbb796500bb5406d772","freq","","","img/blue_2bandit_a2.png","70","","70","test","1","","116","","","","square","circle","112","23","5","0.9464285714285714","","","","","","","",""
"null","252487","SARL_v6","SARL_v6zmfob1m7","62c5fbbb796500bb5406d772","freq_resp","","","img/blue_2bandit_a.png","70","img/blue_2bandit_a.png","70","test","","","","","","","","","","","5","","","","","","","","",""
"null","252651","SARL_v6","SARL_v6zmfob1m7","62c5fbbb796500bb5406d772","fixation","","","img/fixation.png","null","","","test","","","","","","","","","","","","","","","","","","","",""
"145.20000000298023","252798","SARL_v6","SARL_v6zmfob1m7","62c5fbbb796500bb5406d772","freq","","","img/blue_2bandit_a2.png","70","","70","test","1","","117","","","","square","circle","113","24","5","0.9469026548672567","","","","","","","",""
"null","253463","SARL_v6","SARL_v6zmfob1m7","62c5fbbb796500bb5406d772","freq_resp","","","img/blue_2bandit_a.png","70","img/blue_2bandit_a.png","70","test","","","","","","","","","","","5","","","","","","","","",""
"null","253627","SARL_v6","SARL_v6zmfob1m7","62c5fbbb796500bb5406d772","fixation","","","img/fixation.png","null","","","test","","","","","","","","","","","","","","","","","","","",""
"580.2000000029802","254210","SARL_v6","SARL_v6zmfob1m7","62c5fbbb796500bb5406d772","rl","","","img/black_2bandit_a2.png","75","","0","test","","","118","","","4","square","circle","","0","5","","75","4","-7","-7","4","circle","5","0"
"null","254966","SARL_v6","SARL_v6zmfob1m7","62c5fbbb796500bb5406d772","feedback","","","<div class=""veryhighPoints""> 4 </div>","null","","na","test","","","NaN","","","","","","","","5","","75","","","","","","5",""
"201.70000000298023","255170","SARL_v6","SARL_v6zmfob1m7","62c5fbbb796500bb5406d772","freq","","","img/blue_2bandit_a2.png","70","","70","test","1","","119","","","","square","circle","114","1","6","0.9473684210526315","","","","","","","",""
"null","255774","SARL_v6","SARL_v6zmfob1m7","62c5fbbb796500bb5406d772","freq_resp","","","img/blue_2bandit_a.png","70","img/blue_2bandit_a.png","70","test","","","","","","","","","","","6","","","","","","","","",""
"null","255934","SARL_v6","SARL_v6zmfob1m7","62c5fbbb796500bb5406d772","fixation","","","img/fixation.png","null","","","test","","","","","","","","","","","","","","","","","","","",""
"193.20000000298023","256130","SARL_v6","SARL_v6zmfob1m7","62c5fbbb796500bb5406d772","infreq","","","img/orange_2bandit_a2.png","70","","68","test","0","","120","","","","square","circle","115","2","6","0.9391304347826087","","","","","","","",""
"null","256743","SARL_v6","SARL_v6zmfob1m7","62c5fbbb796500bb5406d772","infreq_resp","","","img/orange_2bandit_a.png","70","img/orange_2bandit_a.png","68","test","","","","","","","","","","","6","","","","","","","","",""
"null","256906","SARL_v6","SARL_v6zmfob1m7","62c5fbbb796500bb5406d772","fixation","","","img/fixation.png","null","","","test","","","","","","","","","","","","","","","","","","","",""
"483.90000000596046","257393","SARL_v6","SARL_v6zmfob1m7","62c5fbbb796500bb5406d772","infreq","","","img/orange_2bandit_a2.png","68","","68","test","1","","121","","","","square","circle","116","3","6","0.9396551724137931","","","","","","","",""
"null","257712","SARL_v6","SARL_v6zmfob1m7","62c5fbbb796500bb5406d772","infreq_resp","","","img/orange_2bandit_a.png","68","img/orange_2bandit_a.png","68","test","","","","","","","","","","","6","","","","","","","","",""
"null","257872","SARL_v6","SARL_v6zmfob1m7","62c5fbbb796500bb5406d772","fixation","","","img/fixation.png","null","","","test","","","","","","","","","","","","","","","","","","","",""
"482.29999999701977","258357","SARL_v6","SARL_v6zmfob1m7","62c5fbbb796500bb5406d772","freq","","","img/blue_2bandit_a2.png","70","","70","test","1","","122","","","","square","circle","117","4","6","0.9401709401709402","","","","","","","",""
"null","258679","SARL_v6","SARL_v6zmfob1m7","62c5fbbb796500bb5406d772","freq_resp","","","img/blue_2bandit_a.png","70","img/blue_2bandit_a.png","70","test","","","","","","","","","","","6","","","","","","","","",""
"null","258843","SARL_v6","SARL_v6zmfob1m7","62c5fbbb796500bb5406d772","fixation","","","img/fixation.png","null","","","test","","","","","","","","","","","","","","","","","","","",""
"348.5","259194","SARL_v6","SARL_v6zmfob1m7","62c5fbbb796500bb5406d772","freq","","","img/blue_2bandit_a2.png","70","","70","test","1","","123","","","","square","circle","118","5","6","0.940677966101695","","","","","","","",""
"null","259658","SARL_v6","SARL_v6zmfob1m7","62c5fbbb796500bb5406d772","freq_resp","","","img/blue_2bandit_a.png","70","img/blue_2bandit_a.png","70","test","","","","","","","","","","","6","","","","","","","","",""
"null","259820","SARL_v6","SARL_v6zmfob1m7","62c5fbbb796500bb5406d772","fixation","","","img/fixation.png","null","","","test","","","","","","","","","","","","","","","","","","","",""
"303.79999999701977","260126","SARL_v6","SARL_v6zmfob1m7","62c5fbbb796500bb5406d772","freq","","","img/blue_2bandit_a2.png","70","","70","test","1","","124","","","","square","circle","119","6","6","0.9411764705882353","","","","","","","",""
"null","260630","SARL_v6","SARL_v6zmfob1m7","62c5fbbb796500bb5406d772","freq_resp","","","img/blue_2bandit_a.png","70","img/blue_2bandit_a.png","70","test","","","","","","","","","","","6","","","","","","","","",""
"null","260792","SARL_v6","SARL_v6zmfob1m7","62c5fbbb796500bb5406d772","fixation","","","img/fixation.png","null","","","test","","","","","","","","","","","","","","","","","","","",""
"188","260982","SARL_v6","SARL_v6zmfob1m7","62c5fbbb796500bb5406d772","freq","","","img/blue_2bandit_a2.png","70","","70","test","1","","125","","","","square","circle","120","7","6","0.9416666666666667","","","","","","","",""
"null","261598","SARL_v6","SARL_v6zmfob1m7","62c5fbbb796500bb5406d772","freq_resp","","","img/blue_2bandit_a.png","70","img/blue_2bandit_a.png","70","test","","","","","","","","","","","6","","","","","","","","",""
"null","261759","SARL_v6","SARL_v6zmfob1m7","62c5fbbb796500bb5406d772","fixation","","","img/fixation.png","null","","","test","","","","","","","","","","","","","","","","","","","",""
"112.10000000149012","261873","SARL_v6","SARL_v6zmfob1m7","62c5fbbb796500bb5406d772","freq","","","img/blue_2bandit_a2.png","70","","70","test","1","","126","","","","square","circle","121","8","6","0.9421487603305785","","","","","","","",""
"null","262571","SARL_v6","SARL_v6zmfob1m7","62c5fbbb796500bb5406d772","freq_resp","","","img/blue_2bandit_a.png","70","img/blue_2bandit_a.png","70","test","","","","","","","","","","","6","","","","","","","","",""
"null","262731","SARL_v6","SARL_v6zmfob1m7","62c5fbbb796500bb5406d772","fixation","","","img/fixation.png","null","","","test","","","","","","","","","","","","","","","","","","","",""
"91","262825","SARL_v6","SARL_v6zmfob1m7","62c5fbbb796500bb5406d772","freq","","","img/blue_2bandit_a2.png","70","","70","test","1","","127","","","","square","circle","122","9","6","0.9426229508196722","","","","","","","",""
"null","263547","SARL_v6","SARL_v6zmfob1m7","62c5fbbb796500bb5406d772","freq_resp","","","img/blue_2bandit_a.png","70","img/blue_2bandit_a.png","70","test","","","","","","","","","","","6","","","","","","","","",""
"null","263707","SARL_v6","SARL_v6zmfob1m7","62c5fbbb796500bb5406d772","fixation","","","img/fixation.png","null","","","test","","","","","","","","","","","","","","","","","","","",""
"159.70000000298023","263869","SARL_v6","SARL_v6zmfob1m7","62c5fbbb796500bb5406d772","freq","","","img/blue_2bandit_a2.png","70","","70","test","1","","128","","","","square","circle","123","10","6","0.943089430894309","","","","","","","",""
"null","264523","SARL_v6","SARL_v6zmfob1m7","62c5fbbb796500bb5406d772","freq_resp","","","img/blue_2bandit_a.png","70","img/blue_2bandit_a.png","70","test","","","","","","","","","","","6","","","","","","","","",""
"null","264683","SARL_v6","SARL_v6zmfob1m7","62c5fbbb796500bb5406d772","fixation","","","img/fixation.png","null","","","test","","","","","","","","","","","","","","","","","","","",""
"74.19999999552965","264760","SARL_v6","SARL_v6zmfob1m7","62c5fbbb796500bb5406d772","freq","","","img/blue_2bandit_a2.png","70","","70","test","1","","129","","","","square","circle","124","11","6","0.9435483870967742","","","","","","","",""
"null","265497","SARL_v6","SARL_v6zmfob1m7","62c5fbbb796500bb5406d772","freq_resp","","","img/blue_2bandit_a.png","70","img/blue_2bandit_a.png","70","test","","","","","","","","","","","6","","","","","","","","",""
"null","265657","SARL_v6","SARL_v6zmfob1m7","62c5fbbb796500bb5406d772","fixation","","","img/fixation.png","null","","","test","","","","","","","","","","","","","","","","","","","",""
"600.1999999955297","266260","SARL_v6","SARL_v6zmfob1m7","62c5fbbb796500bb5406d772","freq","","","img/blue_2bandit_a2.png","70","","70","test","1","","130","","","","square","circle","125","12","6","0.944","","","","","","","",""
