"rt","time_elapsed","expId","subject","prolificID","trialType","rlType","attType","stimulus","key_press","stim","corrresp","phase","corr","pracCounter","trialNum","rewardOne","rewardTwo","reward","bandOne","bandTwo","attentionNum","attentionRunNum","blockNum","performance","bandChosen","circleVal","squareVal","bandOneVal","bandTwoVal","shapeChosen","rlNum","badFlag"
"18388.400000095367","18397","SARL_v6","SARL_v61corkw6a","60fc2ec58ad0da367daee3c1","","","","","","","","","","","","","","","","","","","","","","","","","","","",""
"","22310","SARL_v6","SARL_v61corkw6a","60fc2ec58ad0da367daee3c1","fullscreen","fullscreen","fullscreen","","","","","","","","","","","","","","","","","","","","","","","","",""
"273079","295406","SARL_v6","SARL_v61corkw6a","60fc2ec58ad0da367daee3c1","","","","","","","","","","","","","","","","","","","","","","","","","","","",""
"null","296225","SARL_v6","SARL_v61corkw6a","60fc2ec58ad0da367daee3c1","freqPrac","","","img/orange_2bandit_b2.png","null","img/orange_2bandit_b2.png","70","prac","0","1","","","","","","","","","","","","","","","","","",""
"null","297241","SARL_v6","SARL_v61corkw6a","60fc2ec58ad0da367daee3c1","feedback","","","img/tooSlow.png","null","","na","prac","","","","","","","","","","","","","","","","","","","",""
"null","297402","SARL_v6","SARL_v61corkw6a","60fc2ec58ad0da367daee3c1","fixation","","","img/fixation.png","null","","","prac","","","","","","","","","","","","","","","","","","","",""
"null","298220","SARL_v6","SARL_v61corkw6a","60fc2ec58ad0da367daee3c1","infreqPrac","","","img/blue_2bandit_b2.png","null","img/blue_2bandit_b2.png","68","prac","0","2","","","","","","","","","","","","","","","","","",""
"null","299242","SARL_v6","SARL_v61corkw6a","60fc2ec58ad0da367daee3c1","feedback","","","img/tooSlow.png","null","","na","prac","","","","","","","","","","","","","","","","","","","",""
"null","299416","SARL_v6","SARL_v61corkw6a","60fc2ec58ad0da367daee3c1","fixation","","","img/fixation.png","null","","","prac","","","","","","","","","","","","","","","","","","","",""
"520.7000002861023","299947","SARL_v6","SARL_v61corkw6a","60fc2ec58ad0da367daee3c1","freqPrac","","","img/orange_2bandit_b2.png","70","img/orange_2bandit_b2.png","70","prac","1","2","","","","","","","","","","","","","","","","","",""
"520.7000002861023","300249","SARL_v6","SARL_v61corkw6a","60fc2ec58ad0da367daee3c1","freqPrac_resp","","","img/orange_2bandit_b.png","70","img/orange_2bandit_b.png","70","prac","","","","","","","","","","","","","","","","","","","",""
"null","300424","SARL_v6","SARL_v61corkw6a","60fc2ec58ad0da367daee3c1","fixation","","","img/fixation.png","null","","","prac","","","","","","","","","","","","","","","","","","","",""
"null","301238","SARL_v6","SARL_v61corkw6a","60fc2ec58ad0da367daee3c1","infreqPrac","","","img/blue_2bandit_b2.png","null","img/blue_2bandit_b2.png","68","prac","0","3","","","","","","","","","","","","","","","","","",""
"null","302252","SARL_v6","SARL_v61corkw6a","60fc2ec58ad0da367daee3c1","feedback","","","img/tooSlow.png","null","","na","prac","","","","","","","","","","","","","","","","","","","",""
"null","302414","SARL_v6","SARL_v61corkw6a","60fc2ec58ad0da367daee3c1","fixation","","","img/fixation.png","null","","","prac","","","","","","","","","","","","","","","","","","","",""
"null","303231","SARL_v6","SARL_v61corkw6a","60fc2ec58ad0da367daee3c1","infreqPrac","","","img/blue_2bandit_b2.png","null","img/blue_2bandit_b2.png","68","prac","0","4","","","","","","","","","","","","","","","","","",""
"null","304251","SARL_v6","SARL_v61corkw6a","60fc2ec58ad0da367daee3c1","feedback","","","img/tooSlow.png","null","","na","prac","","","","","","","","","","","","","","","","","","","",""
"null","304415","SARL_v6","SARL_v61corkw6a","60fc2ec58ad0da367daee3c1","fixation","","","img/fixation.png","null","","","prac","","","","","","","","","","","","","","","","","","","",""
"null","305231","SARL_v6","SARL_v61corkw6a","60fc2ec58ad0da367daee3c1","infreqPrac","","","img/blue_2bandit_b2.png","null","img/blue_2bandit_b2.png","68","prac","0","5","","","","","","","","","","","","","","","","","",""
"null","306252","SARL_v6","SARL_v61corkw6a","60fc2ec58ad0da367daee3c1","feedback","","","img/tooSlow.png","null","","na","prac","","","","","","","","","","","","","","","","","","","",""
"null","306423","SARL_v6","SARL_v61corkw6a","60fc2ec58ad0da367daee3c1","fixation","","","img/fixation.png","null","","","prac","","","","","","","","","","","","","","","","","","","",""
"null","307238","SARL_v6","SARL_v61corkw6a","60fc2ec58ad0da367daee3c1","freqPrac","","","img/orange_2bandit_b2.png","null","img/orange_2bandit_b2.png","70","prac","0","6","","","","","","","","","","","","","","","","","",""
"null","308251","SARL_v6","SARL_v61corkw6a","60fc2ec58ad0da367daee3c1","feedback","","","img/tooSlow.png","null","","na","prac","","","","","","","","","","","","","","","","","","","",""
"null","308423","SARL_v6","SARL_v61corkw6a","60fc2ec58ad0da367daee3c1","fixation","","","img/fixation.png","null","","","prac","","","","","","","","","","","","","","","","","","","",""
"null","309237","SARL_v6","SARL_v61corkw6a","60fc2ec58ad0da367daee3c1","infreqPrac","","","img/blue_2bandit_b2.png","null","img/blue_2bandit_b2.png","68","prac","0","7","","","","","","","","","","","","","","","","","",""
"null","310251","SARL_v6","SARL_v61corkw6a","60fc2ec58ad0da367daee3c1","feedback","","","img/tooSlow.png","null","","na","prac","","","","","","","","","","","","","","","","","","","",""
"null","310423","SARL_v6","SARL_v61corkw6a","60fc2ec58ad0da367daee3c1","fixation","","","img/fixation.png","null","","","prac","","","","","","","","","","","","","","","","","","","",""
"741.1000003814697","311173","SARL_v6","SARL_v61corkw6a","60fc2ec58ad0da367daee3c1","freqPrac","","","img/orange_2bandit_b2.png","70","img/orange_2bandit_b2.png","70","prac","1","7","","","","","","","","","","","","","","","","","",""
"741.1000003814697","311254","SARL_v6","SARL_v61corkw6a","60fc2ec58ad0da367daee3c1","freqPrac_resp","","","img/orange_2bandit_b.png","70","img/orange_2bandit_b.png","70","prac","","","","","","","","","","","","","","","","","","","",""
"null","311424","SARL_v6","SARL_v61corkw6a","60fc2ec58ad0da367daee3c1","fixation","","","img/fixation.png","null","","","prac","","","","","","","","","","","","","","","","","","","",""
"696.0999999046326","312129","SARL_v6","SARL_v61corkw6a","60fc2ec58ad0da367daee3c1","freqPrac","","","img/orange_2bandit_b2.png","70","img/orange_2bandit_b2.png","70","prac","1","7","","","","","","","","","","","","","","","","","",""
"696.0999999046326","312244","SARL_v6","SARL_v61corkw6a","60fc2ec58ad0da367daee3c1","freqPrac_resp","","","img/orange_2bandit_b.png","70","img/orange_2bandit_b.png","70","prac","","","","","","","","","","","","","","","","","","","",""
"null","312407","SARL_v6","SARL_v61corkw6a","60fc2ec58ad0da367daee3c1","fixation","","","img/fixation.png","null","","","prac","","","","","","","","","","","","","","","","","","","",""
"63058.300000190735","375473","SARL_v6","SARL_v61corkw6a","60fc2ec58ad0da367daee3c1","","","","","","","","prac","","","","","","","","","","","","","","","","","","","",""
"1095.4000000953674","376580","SARL_v6","SARL_v61corkw6a","60fc2ec58ad0da367daee3c1","rlPractice","","","img/black_2bandit_b2.png","75","img/black_2bandit_b2.png","","prac","","","0","","","","","","","","","","","","","","","","",""
"null","377344","SARL_v6","SARL_v61corkw6a","60fc2ec58ad0da367daee3c1","feedback","","","<div class=""verylowPoints_sq""> -14 </div>","null","","na","prac","","","1","10","-14","10","","","","","","","","","","","","","",""
"null","377515","SARL_v6","SARL_v61corkw6a","60fc2ec58ad0da367daee3c1","fixation","","","img/fixation.png","null","","","prac","","","","","","","","","","","","","","","","","","","",""
"772.5","378297","SARL_v6","SARL_v61corkw6a","60fc2ec58ad0da367daee3c1","rlPractice","","","img/black_2bandit_b2.png","74","img/black_2bandit_b2.png","","prac","","","1","","","","","","","","","","","","","","","","",""
"null","379061","SARL_v6","SARL_v61corkw6a","60fc2ec58ad0da367daee3c1","feedback","","","<div class=""veryhighPoints""> 5 </div>","null","","na","prac","","","2","5","-5","5","","","","","","","","","","","","","",""
"null","379233","SARL_v6","SARL_v61corkw6a","60fc2ec58ad0da367daee3c1","fixation","","","img/fixation.png","null","","","prac","","","","","","","","","","","","","","","","","","","",""
"477.59999990463257","379719","SARL_v6","SARL_v61corkw6a","60fc2ec58ad0da367daee3c1","rlPractice","","","img/black_2bandit_b2.png","74","img/black_2bandit_b2.png","","prac","","","2","","","","","","","","","","","","","","","","",""
"null","380493","SARL_v6","SARL_v61corkw6a","60fc2ec58ad0da367daee3c1","feedback","","","<div class=""veryhighPoints""> 30 </div>","null","","na","prac","","","3","30","2","30","","","","","","","","","","","","","",""
"null","380665","SARL_v6","SARL_v61corkw6a","60fc2ec58ad0da367daee3c1","fixation","","","img/fixation.png","null","","","prac","","","","","","","","","","","","","","","","","","","",""
"472.69999980926514","381147","SARL_v6","SARL_v61corkw6a","60fc2ec58ad0da367daee3c1","rlPractice","","","img/black_2bandit_b2.png","74","img/black_2bandit_b2.png","","prac","","","3","","","","","","","","","","","","","","","","",""
"null","381910","SARL_v6","SARL_v61corkw6a","60fc2ec58ad0da367daee3c1","feedback","","","<div class=""verylowPoints""> -2 </div>","null","","na","prac","","","4","-2","20","-2","","","","","","","","","","","","","",""
"null","382083","SARL_v6","SARL_v61corkw6a","60fc2ec58ad0da367daee3c1","fixation","","","img/fixation.png","null","","","prac","","","","","","","","","","","","","","","","","","","",""
"67260.40000009537","449352","SARL_v6","SARL_v61corkw6a","60fc2ec58ad0da367daee3c1","","","","","","","","prac","","","","","","","","","","","","","","","","","","","",""
"790.7000002861023","450153","SARL_v6","SARL_v61corkw6a","60fc2ec58ad0da367daee3c1","mixAttFreqPrac","","","img/orange_2bandit_b2.png","70","img/orange_2bandit_b2.png","70","prac","","","1","","","","","","","","","","","","","","","","",""
"790.7000002861023","450177","SARL_v6","SARL_v61corkw6a","60fc2ec58ad0da367daee3c1","freqPrac_resp","","","img/orange_2bandit_b.png","70","img/orange_2bandit_b.png","70","prac","","","1","","","","","","","","","","","","","","","","",""
"null","450343","SARL_v6","SARL_v61corkw6a","60fc2ec58ad0da367daee3c1","fixation","","","img/fixation.png","null","","","prac","","","","","","","","","","","","","","","","","","","",""
"635.5999999046326","450989","SARL_v6","SARL_v61corkw6a","60fc2ec58ad0da367daee3c1","mixAttInfreqPrac","","","img/blue_2bandit_b2.png","68","img/blue_2bandit_b2.png","68","prac","","","2","","","","","","","","","","","","","","","","",""
"635.5999999046326","451163","SARL_v6","SARL_v61corkw6a","60fc2ec58ad0da367daee3c1","infreqPrac_resp","","","img/blue_2bandit_b.png","68","img/orange_2bandit_b.png","68","prac","","","2","","","","","","","","","","","","","","","","",""
"null","451335","SARL_v6","SARL_v61corkw6a","60fc2ec58ad0da367daee3c1","fixation","","","img/fixation.png","null","","","prac","","","","","","","","","","","","","","","","","","","",""
"655.1999998092651","452000","SARL_v6","SARL_v61corkw6a","60fc2ec58ad0da367daee3c1","mixAttInfreqPrac","","","img/blue_2bandit_b2.png","68","img/blue_2bandit_b2.png","68","prac","","","3","","","","","","","","","","","","","","","","",""
"655.1999998092651","452160","SARL_v6","SARL_v61corkw6a","60fc2ec58ad0da367daee3c1","infreqPrac_resp","","","img/blue_2bandit_b.png","68","img/orange_2bandit_b.png","68","prac","","","3","","","","","","","","","","","","","","","","",""
"null","452326","SARL_v6","SARL_v61corkw6a","60fc2ec58ad0da367daee3c1","fixation","","","img/fixation.png","null","","","prac","","","","","","","","","","","","","","","","","","","",""
"510.2999997138977","452846","SARL_v6","SARL_v61corkw6a","60fc2ec58ad0da367daee3c1","mixAttInfreqPrac","","","img/blue_2bandit_b2.png","68","img/blue_2bandit_b2.png","68","prac","","","4","","","","","","","","","","","","","","","","",""
"510.2999997138977","453159","SARL_v6","SARL_v61corkw6a","60fc2ec58ad0da367daee3c1","infreqPrac_resp","","","img/blue_2bandit_b.png","68","img/orange_2bandit_b.png","68","prac","","","4","","","","","","","","","","","","","","","","",""
"null","453333","SARL_v6","SARL_v61corkw6a","60fc2ec58ad0da367daee3c1","fixation","","","img/fixation.png","null","","","prac","","","","","","","","","","","","","","","","","","","",""
"465","453807","SARL_v6","SARL_v61corkw6a","60fc2ec58ad0da367daee3c1","mixAttFreqPrac","","","img/orange_2bandit_b2.png","70","img/orange_2bandit_b2.png","70","prac","","","5","","","","","","","","","","","","","","","","",""
"465","454164","SARL_v6","SARL_v61corkw6a","60fc2ec58ad0da367daee3c1","freqPrac_resp","","","img/orange_2bandit_b.png","70","img/orange_2bandit_b.png","70","prac","","","5","","","","","","","","","","","","","","","","",""
"null","454326","SARL_v6","SARL_v61corkw6a","60fc2ec58ad0da367daee3c1","fixation","","","img/fixation.png","null","","","prac","","","","","","","","","","","","","","","","","","","",""
"null","455844","SARL_v6","SARL_v61corkw6a","60fc2ec58ad0da367daee3c1","mixRLPractice","","","img/black_2bandit_b2.png","null","img/black_2bandit_b2.png","","prac","","","5","","","","","","","","","","","","","","","","",""
"null","456619","SARL_v6","SARL_v61corkw6a","60fc2ec58ad0da367daee3c1","feedback","","","<div font size = 80> TOO SLOW  </div>","null","","na","prac","","","6","-14","10","-14","","","","","","","","","","","","","",""
"null","456792","SARL_v6","SARL_v61corkw6a","60fc2ec58ad0da367daee3c1","fixation","","","img/fixation.png","null","","","prac","","","","","","","","","","","","","","","","","","","",""
"null","457607","SARL_v6","SARL_v61corkw6a","60fc2ec58ad0da367daee3c1","mixAttFreqPrac","","","img/orange_2bandit_b2.png","null","img/orange_2bandit_b2.png","70","prac","","","7","","","","","","","","","","","","","","","","",""
"null","457776","SARL_v6","SARL_v61corkw6a","60fc2ec58ad0da367daee3c1","fixation","","","img/fixation.png","null","","","prac","","","","","","","","","","","","","","","","","","","",""
"164","457949","SARL_v6","SARL_v61corkw6a","60fc2ec58ad0da367daee3c1","mixAttInfreqPrac","","","img/blue_2bandit_b2.png","70","img/blue_2bandit_b2.png","68","prac","","","8","","","","","","","","","","","","","","","","",""
"164","458603","SARL_v6","SARL_v61corkw6a","60fc2ec58ad0da367daee3c1","infreqPrac_resp","","","img/blue_2bandit_b.png","70","img/orange_2bandit_b.png","68","prac","","","8","","","","","","","","","","","","","","","","",""
"null","458775","SARL_v6","SARL_v61corkw6a","60fc2ec58ad0da367daee3c1","fixation","","","img/fixation.png","null","","","prac","","","","","","","","","","","","","","","","","","","",""
"486.8999996185303","459271","SARL_v6","SARL_v61corkw6a","60fc2ec58ad0da367daee3c1","mixAttFreqPrac","","","img/orange_2bandit_b2.png","70","img/orange_2bandit_b2.png","70","prac","","","9","","","","","","","","","","","","","","","","",""
"486.8999996185303","459598","SARL_v6","SARL_v61corkw6a","60fc2ec58ad0da367daee3c1","freqPrac_resp","","","img/orange_2bandit_b.png","70","img/orange_2bandit_b.png","70","prac","","","9","","","","","","","","","","","","","","","","",""
"null","459757","SARL_v6","SARL_v61corkw6a","60fc2ec58ad0da367daee3c1","fixation","","","img/fixation.png","null","","","prac","","","","","","","","","","","","","","","","","","","",""
"516.7999997138977","460283","SARL_v6","SARL_v61corkw6a","60fc2ec58ad0da367daee3c1","mixAttFreqPrac","","","img/orange_2bandit_b2.png","70","img/orange_2bandit_b2.png","70","prac","","","10","","","","","","","","","","","","","","","","",""
"516.7999997138977","460582","SARL_v6","SARL_v61corkw6a","60fc2ec58ad0da367daee3c1","freqPrac_resp","","","img/orange_2bandit_b.png","70","img/orange_2bandit_b.png","70","prac","","","10","","","","","","","","","","","","","","","","",""
"null","460742","SARL_v6","SARL_v61corkw6a","60fc2ec58ad0da367daee3c1","fixation","","","img/fixation.png","null","","","prac","","","","","","","","","","","","","","","","","","","",""
"557.7000002861023","461309","SARL_v6","SARL_v61corkw6a","60fc2ec58ad0da367daee3c1","mixAttInfreqPrac","","","img/blue_2bandit_b2.png","68","img/blue_2bandit_b2.png","68","prac","","","11","","","","","","","","","","","","","","","","",""
"557.7000002861023","461561","SARL_v6","SARL_v61corkw6a","60fc2ec58ad0da367daee3c1","infreqPrac_resp","","","img/blue_2bandit_b.png","68","img/orange_2bandit_b.png","68","prac","","","11","","","","","","","","","","","","","","","","",""
"null","461727","SARL_v6","SARL_v61corkw6a","60fc2ec58ad0da367daee3c1","fixation","","","img/fixation.png","null","","","prac","","","","","","","","","","","","","","","","","","","",""
"930.2000002861023","462666","SARL_v6","SARL_v61corkw6a","60fc2ec58ad0da367daee3c1","mixRLPractice","","","img/black_2bandit_b2.png","74","img/black_2bandit_b2.png","","prac","","","11","","","","","","","","","","","","","","","","",""
"null","463435","SARL_v6","SARL_v61corkw6a","60fc2ec58ad0da367daee3c1","feedback","","","<div class=""veryhighPoints""> 5 </div>","null","","na","prac","","","12","5","-5","5","","","","","","","","","","","","","",""
"null","463601","SARL_v6","SARL_v61corkw6a","60fc2ec58ad0da367daee3c1","fixation","","","img/fixation.png","null","","","prac","","","","","","","","","","","","","","","","","","","",""
"98573.2999997139","562175","SARL_v6","SARL_v61corkw6a","60fc2ec58ad0da367daee3c1","","","","","","","","prac","","","","","","","","","","","","","","","","","","","",""
"517.9000000953674","562704","SARL_v6","SARL_v61corkw6a","60fc2ec58ad0da367daee3c1","freq","","","img/orange_2bandit_b2.png","70","","70","test","1","","1","","","","circle","square","1","1","1","1","","","","","","","",""
"null","562999","SARL_v6","SARL_v61corkw6a","60fc2ec58ad0da367daee3c1","freq_resp","","","img/orange_2bandit_b.png","70","img/orange_2bandit_b.png","70","test","","","","","","","","","","","1","","","","","","","","",""
"null","563173","SARL_v6","SARL_v61corkw6a","60fc2ec58ad0da367daee3c1","fixation","","","img/fixation.png","null","","","test","","","","","","","","","","","","","","","","","","","",""
"362.5","563545","SARL_v6","SARL_v61corkw6a","60fc2ec58ad0da367daee3c1","freq","","","img/orange_2bandit_b2.png","70","","70","test","1","","2","","","","circle","square","2","2","1","1","","","","","","","",""
"null","564004","SARL_v6","SARL_v61corkw6a","60fc2ec58ad0da367daee3c1","freq_resp","","","img/orange_2bandit_b.png","70","img/orange_2bandit_b.png","70","test","","","","","","","","","","","1","","","","","","","","",""
"null","564174","SARL_v6","SARL_v61corkw6a","60fc2ec58ad0da367daee3c1","fixation","","","img/fixation.png","null","","","test","","","","","","","","","","","","","","","","","","","",""
"363.40000009536743","564547","SARL_v6","SARL_v61corkw6a","60fc2ec58ad0da367daee3c1","freq","","","img/orange_2bandit_b2.png","70","","70","test","1","","3","","","","circle","square","3","3","1","1","","","","","","","",""
"null","565004","SARL_v6","SARL_v61corkw6a","60fc2ec58ad0da367daee3c1","freq_resp","","","img/orange_2bandit_b.png","70","img/orange_2bandit_b.png","70","test","","","","","","","","","","","1","","","","","","","","",""
"null","565174","SARL_v6","SARL_v61corkw6a","60fc2ec58ad0da367daee3c1","fixation","","","img/fixation.png","null","","","test","","","","","","","","","","","","","","","","","","","",""
"365.09999990463257","565548","SARL_v6","SARL_v61corkw6a","60fc2ec58ad0da367daee3c1","freq","","","img/orange_2bandit_b2.png","70","","70","test","1","","4","","","","circle","square","4","4","1","1","","","","","","","",""
"null","566004","SARL_v6","SARL_v61corkw6a","60fc2ec58ad0da367daee3c1","freq_resp","","","img/orange_2bandit_b.png","70","img/orange_2bandit_b.png","70","test","","","","","","","","","","","1","","","","","","","","",""
"null","566166","SARL_v6","SARL_v61corkw6a","60fc2ec58ad0da367daee3c1","fixation","","","img/fixation.png","null","","","test","","","","","","","","","","","","","","","","","","","",""
"394.7999997138977","566570","SARL_v6","SARL_v61corkw6a","60fc2ec58ad0da367daee3c1","freq","","","img/orange_2bandit_b2.png","70","","70","test","1","","5","","","","circle","square","5","5","1","1","","","","","","","",""
"null","566997","SARL_v6","SARL_v61corkw6a","60fc2ec58ad0da367daee3c1","freq_resp","","","img/orange_2bandit_b.png","70","img/orange_2bandit_b.png","70","test","","","","","","","","","","","1","","","","","","","","",""
"null","567157","SARL_v6","SARL_v61corkw6a","60fc2ec58ad0da367daee3c1","fixation","","","img/fixation.png","null","","","test","","","","","","","","","","","","","","","","","","","",""
"355","567522","SARL_v6","SARL_v61corkw6a","60fc2ec58ad0da367daee3c1","freq","","","img/orange_2bandit_b2.png","70","","70","test","1","","6","","","","circle","square","6","6","1","1","","","","","","","",""
"null","567987","SARL_v6","SARL_v61corkw6a","60fc2ec58ad0da367daee3c1","freq_resp","","","img/orange_2bandit_b.png","70","img/orange_2bandit_b.png","70","test","","","","","","","","","","","1","","","","","","","","",""
"null","568150","SARL_v6","SARL_v61corkw6a","60fc2ec58ad0da367daee3c1","fixation","","","img/fixation.png","null","","","test","","","","","","","","","","","","","","","","","","","",""
"368.40000009536743","568528","SARL_v6","SARL_v61corkw6a","60fc2ec58ad0da367daee3c1","freq","","","img/orange_2bandit_b2.png","70","","70","test","1","","7","","","","circle","square","7","7","1","1","","","","","","","",""
"null","568972","SARL_v6","SARL_v61corkw6a","60fc2ec58ad0da367daee3c1","freq_resp","","","img/orange_2bandit_b.png","70","img/orange_2bandit_b.png","70","test","","","","","","","","","","","1","","","","","","","","",""
"null","569140","SARL_v6","SARL_v61corkw6a","60fc2ec58ad0da367daee3c1","fixation","","","img/fixation.png","null","","","test","","","","","","","","","","","","","","","","","","","",""
"400.5","569550","SARL_v6","SARL_v61corkw6a","60fc2ec58ad0da367daee3c1","freq","","","img/orange_2bandit_b2.png","70","","70","test","1","","8","","","","circle","square","8","8","1","1","","","","","","","",""
"null","569972","SARL_v6","SARL_v61corkw6a","60fc2ec58ad0da367daee3c1","freq_resp","","","img/orange_2bandit_b.png","70","img/orange_2bandit_b.png","70","test","","","","","","","","","","","1","","","","","","","","",""
"null","570146","SARL_v6","SARL_v61corkw6a","60fc2ec58ad0da367daee3c1","fixation","","","img/fixation.png","null","","","test","","","","","","","","","","","","","","","","","","","",""
"466.2000002861023","570622","SARL_v6","SARL_v61corkw6a","60fc2ec58ad0da367daee3c1","freq","","","img/orange_2bandit_b2.png","70","","70","test","1","","9","","","","circle","square","9","9","1","1","","","","","","","",""
"null","570977","SARL_v6","SARL_v61corkw6a","60fc2ec58ad0da367daee3c1","freq_resp","","","img/orange_2bandit_b.png","70","img/orange_2bandit_b.png","70","test","","","","","","","","","","","1","","","","","","","","",""
"null","571140","SARL_v6","SARL_v61corkw6a","60fc2ec58ad0da367daee3c1","fixation","","","img/fixation.png","null","","","test","","","","","","","","","","","","","","","","","","","",""
"563.8000001907349","571713","SARL_v6","SARL_v61corkw6a","60fc2ec58ad0da367daee3c1","infreq","","","img/blue_2bandit_b2.png","68","","68","test","1","","10","","","","circle","square","10","10","1","1","","","","","","","",""
"null","571960","SARL_v6","SARL_v61corkw6a","60fc2ec58ad0da367daee3c1","infreq_resp","","","img/blue_2bandit_b.png","68","img/blue_2bandit_b.png","68","test","","","","","","","","","","","1","","","","","","","","",""
"null","572135","SARL_v6","SARL_v61corkw6a","60fc2ec58ad0da367daee3c1","fixation","","","img/fixation.png","null","","","test","","","","","","","","","","","","","","","","","","","",""
"465.8999996185303","572610","SARL_v6","SARL_v61corkw6a","60fc2ec58ad0da367daee3c1","freq","","","img/orange_2bandit_b2.png","70","","70","test","1","","11","","","","circle","square","11","11","1","1","","","","","","","",""
"null","572961","SARL_v6","SARL_v61corkw6a","60fc2ec58ad0da367daee3c1","freq_resp","","","img/orange_2bandit_b.png","70","img/orange_2bandit_b.png","70","test","","","","","","","","","","","1","","","","","","","","",""
"null","573123","SARL_v6","SARL_v61corkw6a","60fc2ec58ad0da367daee3c1","fixation","","","img/fixation.png","null","","","test","","","","","","","","","","","","","","","","","","","",""
"493.5","573626","SARL_v6","SARL_v61corkw6a","60fc2ec58ad0da367daee3c1","freq","","","img/orange_2bandit_b2.png","70","","70","test","1","","12","","","","circle","square","12","12","1","1","","","","","","","",""
"null","573946","SARL_v6","SARL_v61corkw6a","60fc2ec58ad0da367daee3c1","freq_resp","","","img/orange_2bandit_b.png","70","img/orange_2bandit_b.png","70","test","","","","","","","","","","","1","","","","","","","","",""
"null","574115","SARL_v6","SARL_v61corkw6a","60fc2ec58ad0da367daee3c1","fixation","","","img/fixation.png","null","","","test","","","","","","","","","","","","","","","","","","","",""
"638.5","574763","SARL_v6","SARL_v61corkw6a","60fc2ec58ad0da367daee3c1","freq","","","img/orange_2bandit_b2.png","70","","70","test","1","","13","","","","circle","square","13","13","1","1","","","","","","","",""
"null","574941","SARL_v6","SARL_v61corkw6a","60fc2ec58ad0da367daee3c1","freq_resp","","","img/orange_2bandit_b.png","70","img/orange_2bandit_b.png","70","test","","","","","","","","","","","1","","","","","","","","",""
"null","575113","SARL_v6","SARL_v61corkw6a","60fc2ec58ad0da367daee3c1","fixation","","","img/fixation.png","null","","","test","","","","","","","","","","","","","","","","","","","",""
"516.3000001907349","575639","SARL_v6","SARL_v61corkw6a","60fc2ec58ad0da367daee3c1","infreq","","","img/blue_2bandit_b2.png","68","","68","test","1","","14","","","","circle","square","14","14","1","1","","","","","","","",""
"null","575933","SARL_v6","SARL_v61corkw6a","60fc2ec58ad0da367daee3c1","infreq_resp","","","img/blue_2bandit_b.png","68","img/blue_2bandit_b.png","68","test","","","","","","","","","","","1","","","","","","","","",""
"null","576105","SARL_v6","SARL_v61corkw6a","60fc2ec58ad0da367daee3c1","fixation","","","img/fixation.png","null","","","test","","","","","","","","","","","","","","","","","","","",""
"482.19999980926514","576596","SARL_v6","SARL_v61corkw6a","60fc2ec58ad0da367daee3c1","freq","","","img/orange_2bandit_b2.png","70","","70","test","1","","15","","","","circle","square","15","15","1","1","","","","","","","",""
"null","576928","SARL_v6","SARL_v61corkw6a","60fc2ec58ad0da367daee3c1","freq_resp","","","img/orange_2bandit_b.png","70","img/orange_2bandit_b.png","70","test","","","","","","","","","","","1","","","","","","","","",""
"null","577090","SARL_v6","SARL_v61corkw6a","60fc2ec58ad0da367daee3c1","fixation","","","img/fixation.png","null","","","test","","","","","","","","","","","","","","","","","","","",""
"413.80000019073486","577513","SARL_v6","SARL_v61corkw6a","60fc2ec58ad0da367daee3c1","freq","","","img/orange_2bandit_b2.png","70","","70","test","1","","16","","","","circle","square","16","16","1","1","","","","","","","",""
"null","577923","SARL_v6","SARL_v61corkw6a","60fc2ec58ad0da367daee3c1","freq_resp","","","img/orange_2bandit_b.png","70","img/orange_2bandit_b.png","70","test","","","","","","","","","","","1","","","","","","","","",""
"null","578096","SARL_v6","SARL_v61corkw6a","60fc2ec58ad0da367daee3c1","fixation","","","img/fixation.png","null","","","test","","","","","","","","","","","","","","","","","","","",""
"373.2000002861023","578479","SARL_v6","SARL_v61corkw6a","60fc2ec58ad0da367daee3c1","freq","","","img/orange_2bandit_b2.png","70","","70","test","1","","17","","","","circle","square","17","17","1","1","","","","","","","",""
"null","578920","SARL_v6","SARL_v61corkw6a","60fc2ec58ad0da367daee3c1","freq_resp","","","img/orange_2bandit_b.png","70","img/orange_2bandit_b.png","70","test","","","","","","","","","","","1","","","","","","","","",""
"null","579088","SARL_v6","SARL_v61corkw6a","60fc2ec58ad0da367daee3c1","fixation","","","img/fixation.png","null","","","test","","","","","","","","","","","","","","","","","","","",""
"367.90000009536743","579466","SARL_v6","SARL_v61corkw6a","60fc2ec58ad0da367daee3c1","freq","","","img/orange_2bandit_b2.png","70","","70","test","1","","18","","","","circle","square","18","18","1","1","","","","","","","",""
"null","579919","SARL_v6","SARL_v61corkw6a","60fc2ec58ad0da367daee3c1","freq_resp","","","img/orange_2bandit_b.png","70","img/orange_2bandit_b.png","70","test","","","","","","","","","","","1","","","","","","","","",""
"null","580089","SARL_v6","SARL_v61corkw6a","60fc2ec58ad0da367daee3c1","fixation","","","img/fixation.png","null","","","test","","","","","","","","","","","","","","","","","","","",""
"479.2999997138977","580577","SARL_v6","SARL_v61corkw6a","60fc2ec58ad0da367daee3c1","freq","","","img/orange_2bandit_b2.png","70","","70","test","1","","19","","","","circle","square","19","19","1","1","","","","","","","",""
"null","580911","SARL_v6","SARL_v61corkw6a","60fc2ec58ad0da367daee3c1","freq_resp","","","img/orange_2bandit_b.png","70","img/orange_2bandit_b.png","70","test","","","","","","","","","","","1","","","","","","","","",""
"null","581073","SARL_v6","SARL_v61corkw6a","60fc2ec58ad0da367daee3c1","fixation","","","img/fixation.png","null","","","test","","","","","","","","","","","","","","","","","","","",""
"431.69999980926514","581514","SARL_v6","SARL_v61corkw6a","60fc2ec58ad0da367daee3c1","freq","","","img/orange_2bandit_b2.png","70","","70","test","1","","20","","","","circle","square","20","20","1","1","","","","","","","",""
"null","581907","SARL_v6","SARL_v61corkw6a","60fc2ec58ad0da367daee3c1","freq_resp","","","img/orange_2bandit_b.png","70","img/orange_2bandit_b.png","70","test","","","","","","","","","","","1","","","","","","","","",""
"null","582079","SARL_v6","SARL_v61corkw6a","60fc2ec58ad0da367daee3c1","fixation","","","img/fixation.png","null","","","test","","","","","","","","","","","","","","","","","","","",""
"516.3999996185303","582605","SARL_v6","SARL_v61corkw6a","60fc2ec58ad0da367daee3c1","freq","","","img/orange_2bandit_b2.png","70","","70","test","1","","21","","","","circle","square","21","21","1","1","","","","","","","",""
"null","582904","SARL_v6","SARL_v61corkw6a","60fc2ec58ad0da367daee3c1","freq_resp","","","img/orange_2bandit_b.png","70","img/orange_2bandit_b.png","70","test","","","","","","","","","","","1","","","","","","","","",""
"null","583078","SARL_v6","SARL_v61corkw6a","60fc2ec58ad0da367daee3c1","fixation","","","img/fixation.png","null","","","test","","","","","","","","","","","","","","","","","","","",""
"745","583833","SARL_v6","SARL_v61corkw6a","60fc2ec58ad0da367daee3c1","rl","","","img/black_2bandit_b2.png","74","","0","test","","","22","","","-3","circle","square","","0","1","","74","-3","-3","-3","-3","circle","1","0"
"null","584605","SARL_v6","SARL_v61corkw6a","60fc2ec58ad0da367daee3c1","feedback","","","<div class=""verylowPoints""> -3 </div>","null","","na","test","","","NaN","","","","","","","","1","","74","","","","","","1",""
"null","585419","SARL_v6","SARL_v61corkw6a","60fc2ec58ad0da367daee3c1","freq","","","img/orange_2bandit_b2.png","null","","70","test","0","","23","","","","circle","square","22","1","2","0.9545454545454546","","","","","","","",""
"null","585588","SARL_v6","SARL_v61corkw6a","60fc2ec58ad0da367daee3c1","fixation","","","img/fixation.png","null","","","test","","","","","","","","","","","","","","","","","","","",""
"613.5","586211","SARL_v6","SARL_v61corkw6a","60fc2ec58ad0da367daee3c1","freq","","","img/orange_2bandit_b2.png","70","","70","test","1","","24","","","","circle","square","23","2","2","0.9565217391304348","","","","","","","",""
"null","586419","SARL_v6","SARL_v61corkw6a","60fc2ec58ad0da367daee3c1","freq_resp","","","img/orange_2bandit_b.png","70","img/orange_2bandit_b.png","70","test","","","","","","","","","","","2","","","","","","","","",""
"null","586588","SARL_v6","SARL_v61corkw6a","60fc2ec58ad0da367daee3c1","fixation","","","img/fixation.png","null","","","test","","","","","","","","","","","","","","","","","","","",""
"415.40000009536743","587013","SARL_v6","SARL_v61corkw6a","60fc2ec58ad0da367daee3c1","freq","","","img/orange_2bandit_b2.png","70","","70","test","1","","25","","","","circle","square","24","3","2","0.9583333333333334","","","","","","","",""
"null","587422","SARL_v6","SARL_v61corkw6a","60fc2ec58ad0da367daee3c1","freq_resp","","","img/orange_2bandit_b.png","70","img/orange_2bandit_b.png","70","test","","","","","","","","","","","2","","","","","","","","",""
"null","587596","SARL_v6","SARL_v61corkw6a","60fc2ec58ad0da367daee3c1","fixation","","","img/fixation.png","null","","","test","","","","","","","","","","","","","","","","","","","",""
"348.5","587954","SARL_v6","SARL_v61corkw6a","60fc2ec58ad0da367daee3c1","freq","","","img/orange_2bandit_b2.png","70","","70","test","1","","26","","","","circle","square","25","4","2","0.96","","","","","","","",""
"null","588425","SARL_v6","SARL_v61corkw6a","60fc2ec58ad0da367daee3c1","freq_resp","","","img/orange_2bandit_b.png","70","img/orange_2bandit_b.png","70","test","","","","","","","","","","","2","","","","","","","","",""
"null","588599","SARL_v6","SARL_v61corkw6a","60fc2ec58ad0da367daee3c1","fixation","","","img/fixation.png","null","","","test","","","","","","","","","","","","","","","","","","","",""
"337","588945","SARL_v6","SARL_v61corkw6a","60fc2ec58ad0da367daee3c1","freq","","","img/orange_2bandit_b2.png","70","","70","test","1","","27","","","","circle","square","26","5","2","0.9615384615384616","","","","","","","",""
"null","589433","SARL_v6","SARL_v61corkw6a","60fc2ec58ad0da367daee3c1","freq_resp","","","img/orange_2bandit_b.png","70","img/orange_2bandit_b.png","70","test","","","","","","","","","","","2","","","","","","","","",""
"null","589603","SARL_v6","SARL_v61corkw6a","60fc2ec58ad0da367daee3c1","fixation","","","img/fixation.png","null","","","test","","","","","","","","","","","","","","","","","","","",""
"369.69999980926514","589983","SARL_v6","SARL_v61corkw6a","60fc2ec58ad0da367daee3c1","freq","","","img/orange_2bandit_b2.png","70","","70","test","1","","28","","","","circle","square","27","6","2","0.9629629629629629","","","","","","","",""
"null","590435","SARL_v6","SARL_v61corkw6a","60fc2ec58ad0da367daee3c1","freq_resp","","","img/orange_2bandit_b.png","70","img/orange_2bandit_b.png","70","test","","","","","","","","","","","2","","","","","","","","",""
"null","590604","SARL_v6","SARL_v61corkw6a","60fc2ec58ad0da367daee3c1","fixation","","","img/fixation.png","null","","","test","","","","","","","","","","","","","","","","","","","",""
"350","590964","SARL_v6","SARL_v61corkw6a","60fc2ec58ad0da367daee3c1","freq","","","img/orange_2bandit_b2.png","70","","70","test","1","","29","","","","circle","square","28","7","2","0.9642857142857143","","","","","","","",""
"null","591434","SARL_v6","SARL_v61corkw6a","60fc2ec58ad0da367daee3c1","freq_resp","","","img/orange_2bandit_b.png","70","img/orange_2bandit_b.png","70","test","","","","","","","","","","","2","","","","","","","","",""
"null","591604","SARL_v6","SARL_v61corkw6a","60fc2ec58ad0da367daee3c1","fixation","","","img/fixation.png","null","","","test","","","","","","","","","","","","","","","","","","","",""
"337.5","591951","SARL_v6","SARL_v61corkw6a","60fc2ec58ad0da367daee3c1","freq","","","img/orange_2bandit_b2.png","70","","70","test","1","","30","","","","circle","square","29","8","2","0.9655172413793104","","","","","","","",""
"null","592433","SARL_v6","SARL_v61corkw6a","60fc2ec58ad0da367daee3c1","freq_resp","","","img/orange_2bandit_b.png","70","img/orange_2bandit_b.png","70","test","","","","","","","","","","","2","","","","","","","","",""
"null","592603","SARL_v6","SARL_v61corkw6a","60fc2ec58ad0da367daee3c1","fixation","","","img/fixation.png","null","","","test","","","","","","","","","","","","","","","","","","","",""
"394.19999980926514","593007","SARL_v6","SARL_v61corkw6a","60fc2ec58ad0da367daee3c1","freq","","","img/orange_2bandit_b2.png","70","","70","test","1","","31","","","","circle","square","30","9","2","0.9666666666666667","","","","","","","",""
"null","593433","SARL_v6","SARL_v61corkw6a","60fc2ec58ad0da367daee3c1","freq_resp","","","img/orange_2bandit_b.png","70","img/orange_2bandit_b.png","70","test","","","","","","","","","","","2","","","","","","","","",""
"null","593596","SARL_v6","SARL_v61corkw6a","60fc2ec58ad0da367daee3c1","fixation","","","img/fixation.png","null","","","test","","","","","","","","","","","","","","","","","","","",""
"508.40000009536743","594114","SARL_v6","SARL_v61corkw6a","60fc2ec58ad0da367daee3c1","infreq","","","img/blue_2bandit_b2.png","68","","68","test","1","","32","","","","circle","square","31","10","2","0.967741935483871","","","","","","","",""
"null","594427","SARL_v6","SARL_v61corkw6a","60fc2ec58ad0da367daee3c1","infreq_resp","","","img/blue_2bandit_b.png","68","img/blue_2bandit_b.png","68","test","","","","","","","","","","","2","","","","","","","","",""
"null","594588","SARL_v6","SARL_v61corkw6a","60fc2ec58ad0da367daee3c1","fixation","","","img/fixation.png","null","","","test","","","","","","","","","","","","","","","","","","","",""
"433.2000002861023","595030","SARL_v6","SARL_v61corkw6a","60fc2ec58ad0da367daee3c1","freq","","","img/orange_2bandit_b2.png","70","","70","test","1","","33","","","","circle","square","32","11","2","0.96875","","","","","","","",""
"null","595422","SARL_v6","SARL_v61corkw6a","60fc2ec58ad0da367daee3c1","freq_resp","","","img/orange_2bandit_b.png","70","img/orange_2bandit_b.png","70","test","","","","","","","","","","","2","","","","","","","","",""
"null","595587","SARL_v6","SARL_v61corkw6a","60fc2ec58ad0da367daee3c1","fixation","","","img/fixation.png","null","","","test","","","","","","","","","","","","","","","","","","","",""
"575.5","596172","SARL_v6","SARL_v61corkw6a","60fc2ec58ad0da367daee3c1","freq","","","img/orange_2bandit_b2.png","70","","70","test","1","","34","","","","circle","square","33","12","2","0.9696969696969697","","","","","","","",""
"null","596419","SARL_v6","SARL_v61corkw6a","60fc2ec58ad0da367daee3c1","freq_resp","","","img/orange_2bandit_b.png","70","img/orange_2bandit_b.png","70","test","","","","","","","","","","","2","","","","","","","","",""
"null","596594","SARL_v6","SARL_v61corkw6a","60fc2ec58ad0da367daee3c1","fixation","","","img/fixation.png","null","","","test","","","","","","","","","","","","","","","","","","","",""
"555.0999999046326","597158","SARL_v6","SARL_v61corkw6a","60fc2ec58ad0da367daee3c1","infreq","","","img/blue_2bandit_b2.png","68","","68","test","1","","35","","","","circle","square","34","13","2","0.9705882352941176","","","","","","","",""
"null","597415","SARL_v6","SARL_v61corkw6a","60fc2ec58ad0da367daee3c1","infreq_resp","","","img/blue_2bandit_b.png","68","img/blue_2bandit_b.png","68","test","","","","","","","","","","","2","","","","","","","","",""
"null","597586","SARL_v6","SARL_v61corkw6a","60fc2ec58ad0da367daee3c1","fixation","","","img/fixation.png","null","","","test","","","","","","","","","","","","","","","","","","","",""
"584.5999999046326","598180","SARL_v6","SARL_v61corkw6a","60fc2ec58ad0da367daee3c1","freq","","","img/orange_2bandit_b2.png","70","","70","test","1","","36","","","","circle","square","35","14","2","0.9714285714285714","","","","","","","",""
"null","598418","SARL_v6","SARL_v61corkw6a","60fc2ec58ad0da367daee3c1","freq_resp","","","img/orange_2bandit_b.png","70","img/orange_2bandit_b.png","70","test","","","","","","","","","","","2","","","","","","","","",""
"null","598586","SARL_v6","SARL_v61corkw6a","60fc2ec58ad0da367daee3c1","fixation","","","img/fixation.png","null","","","test","","","","","","","","","","","","","","","","","","","",""
"536.2999997138977","599132","SARL_v6","SARL_v61corkw6a","60fc2ec58ad0da367daee3c1","freq","","","img/orange_2bandit_b2.png","70","","70","test","1","","37","","","","circle","square","36","15","2","0.9722222222222222","","","","","","","",""
"null","599413","SARL_v6","SARL_v61corkw6a","60fc2ec58ad0da367daee3c1","freq_resp","","","img/orange_2bandit_b.png","70","img/orange_2bandit_b.png","70","test","","","","","","","","","","","2","","","","","","","","",""
"null","599586","SARL_v6","SARL_v61corkw6a","60fc2ec58ad0da367daee3c1","fixation","","","img/fixation.png","null","","","test","","","","","","","","","","","","","","","","","","","",""
"448.09999990463257","600043","SARL_v6","SARL_v61corkw6a","60fc2ec58ad0da367daee3c1","freq","","","img/orange_2bandit_b2.png","70","","70","test","1","","38","","","","circle","square","37","16","2","0.972972972972973","","","","","","","",""
"null","600414","SARL_v6","SARL_v61corkw6a","60fc2ec58ad0da367daee3c1","freq_resp","","","img/orange_2bandit_b.png","70","img/orange_2bandit_b.png","70","test","","","","","","","","","","","2","","","","","","","","",""
"null","600586","SARL_v6","SARL_v61corkw6a","60fc2ec58ad0da367daee3c1","fixation","","","img/fixation.png","null","","","test","","","","","","","","","","","","","","","","","","","",""
"469.40000009536743","601065","SARL_v6","SARL_v61corkw6a","60fc2ec58ad0da367daee3c1","freq","","","img/orange_2bandit_b2.png","70","","70","test","1","","39","","","","circle","square","38","17","2","0.9736842105263158","","","","","","","",""
"null","601408","SARL_v6","SARL_v61corkw6a","60fc2ec58ad0da367daee3c1","freq_resp","","","img/orange_2bandit_b.png","70","img/orange_2bandit_b.png","70","test","","","","","","","","","","","2","","","","","","","","",""
"null","601570","SARL_v6","SARL_v61corkw6a","60fc2ec58ad0da367daee3c1","fixation","","","img/fixation.png","null","","","test","","","","","","","","","","","","","","","","","","","",""
"366.5","601946","SARL_v6","SARL_v61corkw6a","60fc2ec58ad0da367daee3c1","freq","","","img/orange_2bandit_b2.png","70","","70","test","1","","40","","","","circle","square","39","18","2","0.9743589743589743","","","","","","","",""
"null","602401","SARL_v6","SARL_v61corkw6a","60fc2ec58ad0da367daee3c1","freq_resp","","","img/orange_2bandit_b.png","70","img/orange_2bandit_b.png","70","test","","","","","","","","","","","2","","","","","","","","",""
"null","602570","SARL_v6","SARL_v61corkw6a","60fc2ec58ad0da367daee3c1","fixation","","","img/fixation.png","null","","","test","","","","","","","","","","","","","","","","","","","",""
"638.4000000953674","603218","SARL_v6","SARL_v61corkw6a","60fc2ec58ad0da367daee3c1","infreq","","","img/blue_2bandit_b2.png","68","","68","test","1","","41","","","","circle","square","40","19","2","0.975","","","","","","","",""
"null","603397","SARL_v6","SARL_v61corkw6a","60fc2ec58ad0da367daee3c1","infreq_resp","","","img/blue_2bandit_b.png","68","img/blue_2bandit_b.png","68","test","","","","","","","","","","","2","","","","","","","","",""
"null","603569","SARL_v6","SARL_v61corkw6a","60fc2ec58ad0da367daee3c1","fixation","","","img/fixation.png","null","","","test","","","","","","","","","","","","","","","","","","","",""
"516.0999999046326","604094","SARL_v6","SARL_v61corkw6a","60fc2ec58ad0da367daee3c1","freq","","","img/orange_2bandit_b2.png","70","","70","test","1","","42","","","","circle","square","41","20","2","0.975609756097561","","","","","","","",""
"null","604393","SARL_v6","SARL_v61corkw6a","60fc2ec58ad0da367daee3c1","freq_resp","","","img/orange_2bandit_b.png","70","img/orange_2bandit_b.png","70","test","","","","","","","","","","","2","","","","","","","","",""
"null","604553","SARL_v6","SARL_v61corkw6a","60fc2ec58ad0da367daee3c1","fixation","","","img/fixation.png","null","","","test","","","","","","","","","","","","","","","","","","","",""
"488.40000009536743","605051","SARL_v6","SARL_v61corkw6a","60fc2ec58ad0da367daee3c1","freq","","","img/orange_2bandit_b2.png","70","","70","test","1","","43","","","","circle","square","42","21","2","0.9761904761904762","","","","","","","",""
"null","605376","SARL_v6","SARL_v61corkw6a","60fc2ec58ad0da367daee3c1","freq_resp","","","img/orange_2bandit_b.png","70","img/orange_2bandit_b.png","70","test","","","","","","","","","","","2","","","","","","","","",""
"null","605536","SARL_v6","SARL_v61corkw6a","60fc2ec58ad0da367daee3c1","fixation","","","img/fixation.png","null","","","test","","","","","","","","","","","","","","","","","","","",""
"396.40000009536743","605942","SARL_v6","SARL_v61corkw6a","60fc2ec58ad0da367daee3c1","freq","","","img/orange_2bandit_b2.png","70","","70","test","1","","44","","","","circle","square","43","22","2","0.9767441860465116","","","","","","","",""
"null","606369","SARL_v6","SARL_v61corkw6a","60fc2ec58ad0da367daee3c1","freq_resp","","","img/orange_2bandit_b.png","70","img/orange_2bandit_b.png","70","test","","","","","","","","","","","2","","","","","","","","",""
"null","606528","SARL_v6","SARL_v61corkw6a","60fc2ec58ad0da367daee3c1","fixation","","","img/fixation.png","null","","","test","","","","","","","","","","","","","","","","","","","",""
"366","606904","SARL_v6","SARL_v61corkw6a","60fc2ec58ad0da367daee3c1","freq","","","img/orange_2bandit_b2.png","70","","70","test","1","","45","","","","circle","square","44","23","2","0.9772727272727273","","","","","","","",""
"null","607352","SARL_v6","SARL_v61corkw6a","60fc2ec58ad0da367daee3c1","freq_resp","","","img/orange_2bandit_b.png","70","img/orange_2bandit_b.png","70","test","","","","","","","","","","","2","","","","","","","","",""
"null","607518","SARL_v6","SARL_v61corkw6a","60fc2ec58ad0da367daee3c1","fixation","","","img/fixation.png","null","","","test","","","","","","","","","","","","","","","","","","","",""
"367.69999980926514","607896","SARL_v6","SARL_v61corkw6a","60fc2ec58ad0da367daee3c1","freq","","","img/orange_2bandit_b2.png","70","","70","test","1","","46","","","","circle","square","45","24","2","0.9777777777777777","","","","","","","",""
"null","608344","SARL_v6","SARL_v61corkw6a","60fc2ec58ad0da367daee3c1","freq_resp","","","img/orange_2bandit_b.png","70","img/orange_2bandit_b.png","70","test","","","","","","","","","","","2","","","","","","","","",""
"null","608517","SARL_v6","SARL_v61corkw6a","60fc2ec58ad0da367daee3c1","fixation","","","img/fixation.png","null","","","test","","","","","","","","","","","","","","","","","","","",""
"410.5","608937","SARL_v6","SARL_v61corkw6a","60fc2ec58ad0da367daee3c1","freq","","","img/orange_2bandit_b2.png","70","","70","test","1","","47","","","","circle","square","46","25","2","0.9782608695652174","","","","","","","",""
"null","609337","SARL_v6","SARL_v61corkw6a","60fc2ec58ad0da367daee3c1","freq_resp","","","img/orange_2bandit_b.png","70","img/orange_2bandit_b.png","70","test","","","","","","","","","","","2","","","","","","","","",""
"null","609503","SARL_v6","SARL_v61corkw6a","60fc2ec58ad0da367daee3c1","fixation","","","img/fixation.png","null","","","test","","","","","","","","","","","","","","","","","","","",""
"606.6999998092651","610119","SARL_v6","SARL_v61corkw6a","60fc2ec58ad0da367daee3c1","rl","","","img/black_2bandit_b2.png","75","","0","test","","","48","","","-5","circle","square","","0","2","","75","-8","-5","-8","-5","square","2","0"
"null","610887","SARL_v6","SARL_v61corkw6a","60fc2ec58ad0da367daee3c1","feedback","","","<div class=""verylowPoints_sq""> -5 </div>","null","","na","test","","","NaN","","","","","","","","2","","75","","","","","","2",""
"604.5","611501","SARL_v6","SARL_v61corkw6a","60fc2ec58ad0da367daee3c1","freq","","","img/orange_2bandit_b2.png","70","","70","test","1","","49","","","","circle","square","47","1","3","0.9787234042553191","","","","","","","",""
"null","611707","SARL_v6","SARL_v61corkw6a","60fc2ec58ad0da367daee3c1","freq_resp","","","img/orange_2bandit_b.png","70","img/orange_2bandit_b.png","70","test","","","","","","","","","","","3","","","","","","","","",""
"null","611869","SARL_v6","SARL_v61corkw6a","60fc2ec58ad0da367daee3c1","fixation","","","img/fixation.png","null","","","test","","","","","","","","","","","","","","","","","","","",""
"484.90000009536743","612364","SARL_v6","SARL_v61corkw6a","60fc2ec58ad0da367daee3c1","freq","","","img/orange_2bandit_b2.png","70","","70","test","1","","50","","","","circle","square","48","2","3","0.9791666666666666","","","","","","","",""
"null","612691","SARL_v6","SARL_v61corkw6a","60fc2ec58ad0da367daee3c1","freq_resp","","","img/orange_2bandit_b.png","70","img/orange_2bandit_b.png","70","test","","","","","","","","","","","3","","","","","","","","",""
"null","612852","SARL_v6","SARL_v61corkw6a","60fc2ec58ad0da367daee3c1","fixation","","","img/fixation.png","null","","","test","","","","","","","","","","","","","","","","","","","",""
"427.19999980926514","613289","SARL_v6","SARL_v61corkw6a","60fc2ec58ad0da367daee3c1","freq","","","img/orange_2bandit_b2.png","70","","70","test","1","","51","","","","circle","square","49","3","3","0.9795918367346939","","","","","","","",""
"null","613683","SARL_v6","SARL_v61corkw6a","60fc2ec58ad0da367daee3c1","freq_resp","","","img/orange_2bandit_b.png","70","img/orange_2bandit_b.png","70","test","","","","","","","","","","","3","","","","","","","","",""
"null","613852","SARL_v6","SARL_v61corkw6a","60fc2ec58ad0da367daee3c1","fixation","","","img/fixation.png","null","","","test","","","","","","","","","","","","","","","","","","","",""
"458.90000009536743","614320","SARL_v6","SARL_v61corkw6a","60fc2ec58ad0da367daee3c1","freq","","","img/orange_2bandit_b2.png","70","","70","test","1","","52","","","","circle","square","50","4","3","0.98","","","","","","","",""
"null","614674","SARL_v6","SARL_v61corkw6a","60fc2ec58ad0da367daee3c1","freq_resp","","","img/orange_2bandit_b.png","70","img/orange_2bandit_b.png","70","test","","","","","","","","","","","3","","","","","","","","",""
"null","614835","SARL_v6","SARL_v61corkw6a","60fc2ec58ad0da367daee3c1","fixation","","","img/fixation.png","null","","","test","","","","","","","","","","","","","","","","","","","",""
"623.0999999046326","615468","SARL_v6","SARL_v61corkw6a","60fc2ec58ad0da367daee3c1","infreq","","","img/blue_2bandit_b2.png","68","","68","test","1","","53","","","","circle","square","51","5","3","0.9803921568627451","","","","","","","",""
"null","615658","SARL_v6","SARL_v61corkw6a","60fc2ec58ad0da367daee3c1","infreq_resp","","","img/blue_2bandit_b.png","68","img/blue_2bandit_b.png","68","test","","","","","","","","","","","3","","","","","","","","",""
"null","615819","SARL_v6","SARL_v61corkw6a","60fc2ec58ad0da367daee3c1","fixation","","","img/fixation.png","null","","","test","","","","","","","","","","","","","","","","","","","",""
"475.5","616304","SARL_v6","SARL_v61corkw6a","60fc2ec58ad0da367daee3c1","freq","","","img/orange_2bandit_b2.png","70","","70","test","1","","54","","","","circle","square","52","6","3","0.9807692307692307","","","","","","","",""
"null","616642","SARL_v6","SARL_v61corkw6a","60fc2ec58ad0da367daee3c1","freq_resp","","","img/orange_2bandit_b.png","70","img/orange_2bandit_b.png","70","test","","","","","","","","","","","3","","","","","","","","",""
"null","616802","SARL_v6","SARL_v61corkw6a","60fc2ec58ad0da367daee3c1","fixation","","","img/fixation.png","null","","","test","","","","","","","","","","","","","","","","","","","",""
"379","617190","SARL_v6","SARL_v61corkw6a","60fc2ec58ad0da367daee3c1","freq","","","img/orange_2bandit_b2.png","70","","70","test","1","","55","","","","circle","square","53","7","3","0.9811320754716981","","","","","","","",""
"null","617634","SARL_v6","SARL_v61corkw6a","60fc2ec58ad0da367daee3c1","freq_resp","","","img/orange_2bandit_b.png","70","img/orange_2bandit_b.png","70","test","","","","","","","","","","","3","","","","","","","","",""
"null","617795","SARL_v6","SARL_v61corkw6a","60fc2ec58ad0da367daee3c1","fixation","","","img/fixation.png","null","","","test","","","","","","","","","","","","","","","","","","","",""
"357.59999990463257","618162","SARL_v6","SARL_v61corkw6a","60fc2ec58ad0da367daee3c1","freq","","","img/orange_2bandit_b2.png","70","","70","test","1","","56","","","","circle","square","54","8","3","0.9814814814814815","","","","","","","",""
"null","618615","SARL_v6","SARL_v61corkw6a","60fc2ec58ad0da367daee3c1","freq_resp","","","img/orange_2bandit_b.png","70","img/orange_2bandit_b.png","70","test","","","","","","","","","","","3","","","","","","","","",""
"null","618784","SARL_v6","SARL_v61corkw6a","60fc2ec58ad0da367daee3c1","fixation","","","img/fixation.png","null","","","test","","","","","","","","","","","","","","","","","","","",""
"405.09999990463257","619199","SARL_v6","SARL_v61corkw6a","60fc2ec58ad0da367daee3c1","freq","","","img/orange_2bandit_b2.png","70","","70","test","1","","57","","","","circle","square","55","9","3","0.9818181818181818","","","","","","","",""
"null","619602","SARL_v6","SARL_v61corkw6a","60fc2ec58ad0da367daee3c1","freq_resp","","","img/orange_2bandit_b.png","70","img/orange_2bandit_b.png","70","test","","","","","","","","","","","3","","","","","","","","",""
"null","619768","SARL_v6","SARL_v61corkw6a","60fc2ec58ad0da367daee3c1","fixation","","","img/fixation.png","null","","","test","","","","","","","","","","","","","","","","","","","",""
"367.19999980926514","620145","SARL_v6","SARL_v61corkw6a","60fc2ec58ad0da367daee3c1","freq","","","img/orange_2bandit_b2.png","70","","70","test","1","","58","","","","circle","square","56","10","3","0.9821428571428571","","","","","","","",""
"null","620598","SARL_v6","SARL_v61corkw6a","60fc2ec58ad0da367daee3c1","freq_resp","","","img/orange_2bandit_b.png","70","img/orange_2bandit_b.png","70","test","","","","","","","","","","","3","","","","","","","","",""
"null","620768","SARL_v6","SARL_v61corkw6a","60fc2ec58ad0da367daee3c1","fixation","","","img/fixation.png","null","","","test","","","","","","","","","","","","","","","","","","","",""
"640.1999998092651","621417","SARL_v6","SARL_v61corkw6a","60fc2ec58ad0da367daee3c1","infreq","","","img/blue_2bandit_b2.png","68","","68","test","1","","59","","","","circle","square","57","11","3","0.9824561403508771","","","","","","","",""
"null","621595","SARL_v6","SARL_v61corkw6a","60fc2ec58ad0da367daee3c1","infreq_resp","","","img/blue_2bandit_b.png","68","img/blue_2bandit_b.png","68","test","","","","","","","","","","","3","","","","","","","","",""
"null","621767","SARL_v6","SARL_v61corkw6a","60fc2ec58ad0da367daee3c1","fixation","","","img/fixation.png","null","","","test","","","","","","","","","","","","","","","","","","","",""
"417","622199","SARL_v6","SARL_v61corkw6a","60fc2ec58ad0da367daee3c1","freq","","","img/orange_2bandit_b2.png","70","","70","test","1","","60","","","","circle","square","58","12","3","0.9827586206896551","","","","","","","",""
"null","622600","SARL_v6","SARL_v61corkw6a","60fc2ec58ad0da367daee3c1","freq_resp","","","img/orange_2bandit_b.png","70","img/orange_2bandit_b.png","70","test","","","","","","","","","","","3","","","","","","","","",""
"null","622770","SARL_v6","SARL_v61corkw6a","60fc2ec58ad0da367daee3c1","fixation","","","img/fixation.png","null","","","test","","","","","","","","","","","","","","","","","","","",""
"397.2000002861023","623175","SARL_v6","SARL_v61corkw6a","60fc2ec58ad0da367daee3c1","freq","","","img/orange_2bandit_b2.png","70","","70","test","1","","61","","","","circle","square","59","13","3","0.9830508474576272","","","","","","","",""
"null","623596","SARL_v6","SARL_v61corkw6a","60fc2ec58ad0da367daee3c1","freq_resp","","","img/orange_2bandit_b.png","70","img/orange_2bandit_b.png","70","test","","","","","","","","","","","3","","","","","","","","",""
"null","623757","SARL_v6","SARL_v61corkw6a","60fc2ec58ad0da367daee3c1","fixation","","","img/fixation.png","null","","","test","","","","","","","","","","","","","","","","","","","",""
"330.7000002861023","624096","SARL_v6","SARL_v61corkw6a","60fc2ec58ad0da367daee3c1","freq","","","img/orange_2bandit_b2.png","70","","70","test","1","","62","","","","circle","square","60","14","3","0.9833333333333333","","","","","","","",""
"null","624585","SARL_v6","SARL_v61corkw6a","60fc2ec58ad0da367daee3c1","freq_resp","","","img/orange_2bandit_b.png","70","img/orange_2bandit_b.png","70","test","","","","","","","","","","","3","","","","","","","","",""
"null","624749","SARL_v6","SARL_v61corkw6a","60fc2ec58ad0da367daee3c1","fixation","","","img/fixation.png","null","","","test","","","","","","","","","","","","","","","","","","","",""
"380.80000019073486","625139","SARL_v6","SARL_v61corkw6a","60fc2ec58ad0da367daee3c1","freq","","","img/orange_2bandit_b2.png","70","","70","test","1","","63","","","","circle","square","61","15","3","0.9836065573770492","","","","","","","",""
"null","625578","SARL_v6","SARL_v61corkw6a","60fc2ec58ad0da367daee3c1","freq_resp","","","img/orange_2bandit_b.png","70","img/orange_2bandit_b.png","70","test","","","","","","","","","","","3","","","","","","","","",""
"null","625740","SARL_v6","SARL_v61corkw6a","60fc2ec58ad0da367daee3c1","fixation","","","img/fixation.png","null","","","test","","","","","","","","","","","","","","","","","","","",""
"401","626151","SARL_v6","SARL_v61corkw6a","60fc2ec58ad0da367daee3c1","freq","","","img/orange_2bandit_b2.png","70","","70","test","1","","64","","","","circle","square","62","16","3","0.9838709677419355","","","","","","","",""
"null","626572","SARL_v6","SARL_v61corkw6a","60fc2ec58ad0da367daee3c1","freq_resp","","","img/orange_2bandit_b.png","70","img/orange_2bandit_b.png","70","test","","","","","","","","","","","3","","","","","","","","",""
"null","626732","SARL_v6","SARL_v61corkw6a","60fc2ec58ad0da367daee3c1","fixation","","","img/fixation.png","null","","","test","","","","","","","","","","","","","","","","","","","",""
"345.3999996185303","627086","SARL_v6","SARL_v61corkw6a","60fc2ec58ad0da367daee3c1","freq","","","img/orange_2bandit_b2.png","70","","70","test","1","","65","","","","circle","square","63","17","3","0.9841269841269841","","","","","","","",""
"null","627560","SARL_v6","SARL_v61corkw6a","60fc2ec58ad0da367daee3c1","freq_resp","","","img/orange_2bandit_b.png","70","img/orange_2bandit_b.png","70","test","","","","","","","","","","","3","","","","","","","","",""
"null","627732","SARL_v6","SARL_v61corkw6a","60fc2ec58ad0da367daee3c1","fixation","","","img/fixation.png","null","","","test","","","","","","","","","","","","","","","","","","","",""
"381.90000009536743","628123","SARL_v6","SARL_v61corkw6a","60fc2ec58ad0da367daee3c1","freq","","","img/orange_2bandit_b2.png","70","","70","test","1","","66","","","","circle","square","64","18","3","0.984375","","","","","","","",""
"null","628563","SARL_v6","SARL_v61corkw6a","60fc2ec58ad0da367daee3c1","freq_resp","","","img/orange_2bandit_b.png","70","img/orange_2bandit_b.png","70","test","","","","","","","","","","","3","","","","","","","","",""
"null","628738","SARL_v6","SARL_v61corkw6a","60fc2ec58ad0da367daee3c1","fixation","","","img/fixation.png","null","","","test","","","","","","","","","","","","","","","","","","","",""
"366.80000019073486","629115","SARL_v6","SARL_v61corkw6a","60fc2ec58ad0da367daee3c1","freq","","","img/orange_2bandit_b2.png","70","","70","test","1","","67","","","","circle","square","65","19","3","0.9846153846153847","","","","","","","",""
"null","629570","SARL_v6","SARL_v61corkw6a","60fc2ec58ad0da367daee3c1","freq_resp","","","img/orange_2bandit_b.png","70","img/orange_2bandit_b.png","70","test","","","","","","","","","","","3","","","","","","","","",""
"null","629739","SARL_v6","SARL_v61corkw6a","60fc2ec58ad0da367daee3c1","fixation","","","img/fixation.png","null","","","test","","","","","","","","","","","","","","","","","","","",""
"422.69999980926514","630171","SARL_v6","SARL_v61corkw6a","60fc2ec58ad0da367daee3c1","freq","","","img/orange_2bandit_b2.png","70","","70","test","1","","68","","","","circle","square","66","20","3","0.9848484848484849","","","","","","","",""
"null","630565","SARL_v6","SARL_v61corkw6a","60fc2ec58ad0da367daee3c1","freq_resp","","","img/orange_2bandit_b.png","70","img/orange_2bandit_b.png","70","test","","","","","","","","","","","3","","","","","","","","",""
"null","630739","SARL_v6","SARL_v61corkw6a","60fc2ec58ad0da367daee3c1","fixation","","","img/fixation.png","null","","","test","","","","","","","","","","","","","","","","","","","",""
"716.0999999046326","631465","SARL_v6","SARL_v61corkw6a","60fc2ec58ad0da367daee3c1","rl","","","img/black_2bandit_b2.png","75","","0","test","","","69","","","-4","circle","square","","0","3","","75","-8","-4","-8","-4","square","3","0"
"null","632233","SARL_v6","SARL_v61corkw6a","60fc2ec58ad0da367daee3c1","feedback","","","<div class=""verylowPoints_sq""> -4 </div>","null","","na","test","","","NaN","","","","","","","","3","","75","","","","","","3",""
"733.3000001907349","632976","SARL_v6","SARL_v61corkw6a","60fc2ec58ad0da367daee3c1","freq","","","img/orange_2bandit_b2.png","70","","70","test","1","","70","","","","circle","square","67","1","4","0.9850746268656716","","","","","","","",""
"null","633062","SARL_v6","SARL_v61corkw6a","60fc2ec58ad0da367daee3c1","freq_resp","","","img/orange_2bandit_b.png","70","img/orange_2bandit_b.png","70","test","","","","","","","","","","","4","","","","","","","","",""
"null","633222","SARL_v6","SARL_v61corkw6a","60fc2ec58ad0da367daee3c1","fixation","","","img/fixation.png","null","","","test","","","","","","","","","","","","","","","","","","","",""
"470.30000019073486","633702","SARL_v6","SARL_v61corkw6a","60fc2ec58ad0da367daee3c1","freq","","","img/orange_2bandit_b2.png","70","","70","test","1","","71","","","","circle","square","68","2","4","0.9852941176470589","","","","","","","",""
"null","634052","SARL_v6","SARL_v61corkw6a","60fc2ec58ad0da367daee3c1","freq_resp","","","img/orange_2bandit_b.png","70","img/orange_2bandit_b.png","70","test","","","","","","","","","","","4","","","","","","","","",""
"null","634213","SARL_v6","SARL_v61corkw6a","60fc2ec58ad0da367daee3c1","fixation","","","img/fixation.png","null","","","test","","","","","","","","","","","","","","","","","","","",""
"626.4000000953674","634849","SARL_v6","SARL_v61corkw6a","60fc2ec58ad0da367daee3c1","freq","","","img/orange_2bandit_b2.png","70","","70","test","1","","72","","","","circle","square","69","3","4","0.9855072463768116","","","","","","","",""
"null","635037","SARL_v6","SARL_v61corkw6a","60fc2ec58ad0da367daee3c1","freq_resp","","","img/orange_2bandit_b.png","70","img/orange_2bandit_b.png","70","test","","","","","","","","","","","4","","","","","","","","",""
"null","635205","SARL_v6","SARL_v61corkw6a","60fc2ec58ad0da367daee3c1","fixation","","","img/fixation.png","null","","","test","","","","","","","","","","","","","","","","","","","",""
"500.40000009536743","635715","SARL_v6","SARL_v61corkw6a","60fc2ec58ad0da367daee3c1","freq","","","img/orange_2bandit_b2.png","70","","70","test","1","","73","","","","circle","square","70","4","4","0.9857142857142858","","","","","","","",""
"null","636028","SARL_v6","SARL_v61corkw6a","60fc2ec58ad0da367daee3c1","freq_resp","","","img/orange_2bandit_b.png","70","img/orange_2bandit_b.png","70","test","","","","","","","","","","","4","","","","","","","","",""
"null","636189","SARL_v6","SARL_v61corkw6a","60fc2ec58ad0da367daee3c1","fixation","","","img/fixation.png","null","","","test","","","","","","","","","","","","","","","","","","","",""
"464","636662","SARL_v6","SARL_v61corkw6a","60fc2ec58ad0da367daee3c1","freq","","","img/orange_2bandit_b2.png","70","","70","test","1","","74","","","","circle","square","71","5","4","0.9859154929577465","","","","","","","",""
"null","637010","SARL_v6","SARL_v61corkw6a","60fc2ec58ad0da367daee3c1","freq_resp","","","img/orange_2bandit_b.png","70","img/orange_2bandit_b.png","70","test","","","","","","","","","","","4","","","","","","","","",""
"null","637172","SARL_v6","SARL_v61corkw6a","60fc2ec58ad0da367daee3c1","fixation","","","img/fixation.png","null","","","test","","","","","","","","","","","","","","","","","","","",""
"532.1999998092651","637714","SARL_v6","SARL_v61corkw6a","60fc2ec58ad0da367daee3c1","freq","","","img/orange_2bandit_b2.png","70","","70","test","1","","75","","","","circle","square","72","6","4","0.9861111111111112","","","","","","","",""
"null","637997","SARL_v6","SARL_v61corkw6a","60fc2ec58ad0da367daee3c1","freq_resp","","","img/orange_2bandit_b.png","70","img/orange_2bandit_b.png","70","test","","","","","","","","","","","4","","","","","","","","",""
"null","638171","SARL_v6","SARL_v61corkw6a","60fc2ec58ad0da367daee3c1","fixation","","","img/fixation.png","null","","","test","","","","","","","","","","","","","","","","","","","",""
"555.2000002861023","638735","SARL_v6","SARL_v61corkw6a","60fc2ec58ad0da367daee3c1","infreq","","","img/blue_2bandit_b2.png","68","","68","test","1","","76","","","","circle","square","73","7","4","0.9863013698630136","","","","","","","",""
"null","638998","SARL_v6","SARL_v61corkw6a","60fc2ec58ad0da367daee3c1","infreq_resp","","","img/blue_2bandit_b.png","68","img/blue_2bandit_b.png","68","test","","","","","","","","","","","4","","","","","","","","",""
"null","639170","SARL_v6","SARL_v61corkw6a","60fc2ec58ad0da367daee3c1","fixation","","","img/fixation.png","null","","","test","","","","","","","","","","","","","","","","","","","",""
"411.59999990463257","639591","SARL_v6","SARL_v61corkw6a","60fc2ec58ad0da367daee3c1","freq","","","img/orange_2bandit_b2.png","70","","70","test","1","","77","","","","circle","square","74","8","4","0.9864864864864865","","","","","","","",""
"null","640000","SARL_v6","SARL_v61corkw6a","60fc2ec58ad0da367daee3c1","freq_resp","","","img/orange_2bandit_b.png","70","img/orange_2bandit_b.png","70","test","","","","","","","","","","","4","","","","","","","","",""
"null","640170","SARL_v6","SARL_v61corkw6a","60fc2ec58ad0da367daee3c1","fixation","","","img/fixation.png","null","","","test","","","","","","","","","","","","","","","","","","","",""
"563.4000000953674","640743","SARL_v6","SARL_v61corkw6a","60fc2ec58ad0da367daee3c1","freq","","","img/orange_2bandit_b2.png","70","","70","test","1","","78","","","","circle","square","75","9","4","0.9866666666666667","","","","","","","",""
"null","640990","SARL_v6","SARL_v61corkw6a","60fc2ec58ad0da367daee3c1","freq_resp","","","img/orange_2bandit_b.png","70","img/orange_2bandit_b.png","70","test","","","","","","","","","","","4","","","","","","","","",""
"null","641156","SARL_v6","SARL_v61corkw6a","60fc2ec58ad0da367daee3c1","fixation","","","img/fixation.png","null","","","test","","","","","","","","","","","","","","","","","","","",""
"429.09999990463257","641594","SARL_v6","SARL_v61corkw6a","60fc2ec58ad0da367daee3c1","freq","","","img/orange_2bandit_b2.png","70","","70","test","1","","79","","","","circle","square","76","10","4","0.9868421052631579","","","","","","","",""
"null","641989","SARL_v6","SARL_v61corkw6a","60fc2ec58ad0da367daee3c1","freq_resp","","","img/orange_2bandit_b.png","70","img/orange_2bandit_b.png","70","test","","","","","","","","","","","4","","","","","","","","",""
"null","642162","SARL_v6","SARL_v61corkw6a","60fc2ec58ad0da367daee3c1","fixation","","","img/fixation.png","null","","","test","","","","","","","","","","","","","","","","","","","",""
"414.09999990463257","642586","SARL_v6","SARL_v61corkw6a","60fc2ec58ad0da367daee3c1","freq","","","img/orange_2bandit_b2.png","70","","70","test","1","","80","","","","circle","square","77","11","4","0.987012987012987","","","","","","","",""
"null","642990","SARL_v6","SARL_v61corkw6a","60fc2ec58ad0da367daee3c1","freq_resp","","","img/orange_2bandit_b.png","70","img/orange_2bandit_b.png","70","test","","","","","","","","","","","4","","","","","","","","",""
"null","643156","SARL_v6","SARL_v61corkw6a","60fc2ec58ad0da367daee3c1","fixation","","","img/fixation.png","null","","","test","","","","","","","","","","","","","","","","","","","",""
"357.09999990463257","643522","SARL_v6","SARL_v61corkw6a","60fc2ec58ad0da367daee3c1","freq","","","img/orange_2bandit_b2.png","70","","70","test","1","","81","","","","circle","square","78","12","4","0.9871794871794872","","","","","","","",""
"null","643985","SARL_v6","SARL_v61corkw6a","60fc2ec58ad0da367daee3c1","freq_resp","","","img/orange_2bandit_b.png","70","img/orange_2bandit_b.png","70","test","","","","","","","","","","","4","","","","","","","","",""
"null","644155","SARL_v6","SARL_v61corkw6a","60fc2ec58ad0da367daee3c1","fixation","","","img/fixation.png","null","","","test","","","","","","","","","","","","","","","","","","","",""
"355","644519","SARL_v6","SARL_v61corkw6a","60fc2ec58ad0da367daee3c1","freq","","","img/orange_2bandit_b2.png","70","","70","test","1","","82","","","","circle","square","79","13","4","0.9873417721518988","","","","","","","",""
"null","644986","SARL_v6","SARL_v61corkw6a","60fc2ec58ad0da367daee3c1","freq_resp","","","img/orange_2bandit_b.png","70","img/orange_2bandit_b.png","70","test","","","","","","","","","","","4","","","","","","","","",""
"null","645155","SARL_v6","SARL_v61corkw6a","60fc2ec58ad0da367daee3c1","fixation","","","img/fixation.png","null","","","test","","","","","","","","","","","","","","","","","","","",""
"551.2000002861023","645716","SARL_v6","SARL_v61corkw6a","60fc2ec58ad0da367daee3c1","infreq","","","img/blue_2bandit_b2.png","68","","68","test","1","","83","","","","circle","square","80","14","4","0.9875","","","","","","","",""
"null","645981","SARL_v6","SARL_v61corkw6a","60fc2ec58ad0da367daee3c1","infreq_resp","","","img/blue_2bandit_b.png","68","img/blue_2bandit_b.png","68","test","","","","","","","","","","","4","","","","","","","","",""
"null","646154","SARL_v6","SARL_v61corkw6a","60fc2ec58ad0da367daee3c1","fixation","","","img/fixation.png","null","","","test","","","","","","","","","","","","","","","","","","","",""
"509.7000002861023","646673","SARL_v6","SARL_v61corkw6a","60fc2ec58ad0da367daee3c1","freq","","","img/orange_2bandit_b2.png","70","","70","test","1","","84","","","","circle","square","81","15","4","0.9876543209876543","","","","","","","",""
"null","646985","SARL_v6","SARL_v61corkw6a","60fc2ec58ad0da367daee3c1","freq_resp","","","img/orange_2bandit_b.png","70","img/orange_2bandit_b.png","70","test","","","","","","","","","","","4","","","","","","","","",""
"null","647147","SARL_v6","SARL_v61corkw6a","60fc2ec58ad0da367daee3c1","fixation","","","img/fixation.png","null","","","test","","","","","","","","","","","","","","","","","","","",""
"427.69999980926514","647584","SARL_v6","SARL_v61corkw6a","60fc2ec58ad0da367daee3c1","freq","","","img/orange_2bandit_b2.png","70","","70","test","1","","85","","","","circle","square","82","16","4","0.9878048780487805","","","","","","","",""
"null","647972","SARL_v6","SARL_v61corkw6a","60fc2ec58ad0da367daee3c1","freq_resp","","","img/orange_2bandit_b.png","70","img/orange_2bandit_b.png","70","test","","","","","","","","","","","4","","","","","","","","",""
"null","648145","SARL_v6","SARL_v61corkw6a","60fc2ec58ad0da367daee3c1","fixation","","","img/fixation.png","null","","","test","","","","","","","","","","","","","","","","","","","",""
"406","648560","SARL_v6","SARL_v61corkw6a","60fc2ec58ad0da367daee3c1","freq","","","img/orange_2bandit_b2.png","70","","70","test","1","","86","","","","circle","square","83","17","4","0.9879518072289156","","","","","","","",""
"null","648971","SARL_v6","SARL_v61corkw6a","60fc2ec58ad0da367daee3c1","freq_resp","","","img/orange_2bandit_b.png","70","img/orange_2bandit_b.png","70","test","","","","","","","","","","","4","","","","","","","","",""
"null","649144","SARL_v6","SARL_v61corkw6a","60fc2ec58ad0da367daee3c1","fixation","","","img/fixation.png","null","","","test","","","","","","","","","","","","","","","","","","","",""
"508.19999980926514","649662","SARL_v6","SARL_v61corkw6a","60fc2ec58ad0da367daee3c1","freq","","","img/orange_2bandit_b2.png","70","","70","test","1","","87","","","","circle","square","84","18","4","0.9880952380952381","","","","","","","",""
"null","649970","SARL_v6","SARL_v61corkw6a","60fc2ec58ad0da367daee3c1","freq_resp","","","img/orange_2bandit_b.png","70","img/orange_2bandit_b.png","70","test","","","","","","","","","","","4","","","","","","","","",""
"null","650144","SARL_v6","SARL_v61corkw6a","60fc2ec58ad0da367daee3c1","fixation","","","img/fixation.png","null","","","test","","","","","","","","","","","","","","","","","","","",""
"415.80000019073486","650569","SARL_v6","SARL_v61corkw6a","60fc2ec58ad0da367daee3c1","freq","","","img/orange_2bandit_b2.png","70","","70","test","1","","88","","","","circle","square","85","19","4","0.9882352941176471","","","","","","","",""
"null","650978","SARL_v6","SARL_v61corkw6a","60fc2ec58ad0da367daee3c1","freq_resp","","","img/orange_2bandit_b.png","70","img/orange_2bandit_b.png","70","test","","","","","","","","","","","4","","","","","","","","",""
"null","651153","SARL_v6","SARL_v61corkw6a","60fc2ec58ad0da367daee3c1","fixation","","","img/fixation.png","null","","","test","","","","","","","","","","","","","","","","","","","",""
"423","651585","SARL_v6","SARL_v61corkw6a","60fc2ec58ad0da367daee3c1","freq","","","img/orange_2bandit_b2.png","70","","70","test","1","","89","","","","circle","square","86","20","4","0.9883720930232558","","","","","","","",""
"null","651972","SARL_v6","SARL_v61corkw6a","60fc2ec58ad0da367daee3c1","freq_resp","","","img/orange_2bandit_b.png","70","img/orange_2bandit_b.png","70","test","","","","","","","","","","","4","","","","","","","","",""
"null","652138","SARL_v6","SARL_v61corkw6a","60fc2ec58ad0da367daee3c1","fixation","","","img/fixation.png","null","","","test","","","","","","","","","","","","","","","","","","","",""
"679.1999998092651","652827","SARL_v6","SARL_v61corkw6a","60fc2ec58ad0da367daee3c1","rl","","","img/black_2bandit_b2.png","75","","0","test","","","90","","","0","circle","square","","0","4","","75","-12","0","-12","0","square","4","0"
"null","653589","SARL_v6","SARL_v61corkw6a","60fc2ec58ad0da367daee3c1","feedback","","","<div class=""verylowPoints_sq""> 0 </div>","null","","na","test","","","NaN","","","","","","","","4","","75","","","","","","4",""
"611","654209","SARL_v6","SARL_v61corkw6a","60fc2ec58ad0da367daee3c1","freq","","","img/orange_2bandit_b2.png","70","","70","test","1","","91","","","","circle","square","87","1","5","0.9885057471264368","","","","","","","",""
"null","654417","SARL_v6","SARL_v61corkw6a","60fc2ec58ad0da367daee3c1","freq_resp","","","img/orange_2bandit_b.png","70","img/orange_2bandit_b.png","70","test","","","","","","","","","","","5","","","","","","","","",""
"null","654580","SARL_v6","SARL_v61corkw6a","60fc2ec58ad0da367daee3c1","fixation","","","img/fixation.png","null","","","test","","","","","","","","","","","","","","","","","","","",""
"546.7999997138977","655136","SARL_v6","SARL_v61corkw6a","60fc2ec58ad0da367daee3c1","freq","","","img/orange_2bandit_b2.png","70","","70","test","1","","92","","","","circle","square","88","2","5","0.9886363636363636","","","","","","","",""
"null","655404","SARL_v6","SARL_v61corkw6a","60fc2ec58ad0da367daee3c1","freq_resp","","","img/orange_2bandit_b.png","70","img/orange_2bandit_b.png","70","test","","","","","","","","","","","5","","","","","","","","",""
"null","655576","SARL_v6","SARL_v61corkw6a","60fc2ec58ad0da367daee3c1","fixation","","","img/fixation.png","null","","","test","","","","","","","","","","","","","","","","","","","",""
"376.19999980926514","655962","SARL_v6","SARL_v61corkw6a","60fc2ec58ad0da367daee3c1","freq","","","img/orange_2bandit_b2.png","70","","70","test","1","","93","","","","circle","square","89","3","5","0.9887640449438202","","","","","","","",""
"null","656409","SARL_v6","SARL_v61corkw6a","60fc2ec58ad0da367daee3c1","freq_resp","","","img/orange_2bandit_b.png","70","img/orange_2bandit_b.png","70","test","","","","","","","","","","","5","","","","","","","","",""
"null","656572","SARL_v6","SARL_v61corkw6a","60fc2ec58ad0da367daee3c1","fixation","","","img/fixation.png","null","","","test","","","","","","","","","","","","","","","","","","","",""
"537.3000001907349","657119","SARL_v6","SARL_v61corkw6a","60fc2ec58ad0da367daee3c1","infreq","","","img/blue_2bandit_b2.png","68","","68","test","1","","94","","","","circle","square","90","4","5","0.9888888888888889","","","","","","","",""
"null","657403","SARL_v6","SARL_v61corkw6a","60fc2ec58ad0da367daee3c1","infreq_resp","","","img/blue_2bandit_b.png","68","img/blue_2bandit_b.png","68","test","","","","","","","","","","","5","","","","","","","","",""
"null","657570","SARL_v6","SARL_v61corkw6a","60fc2ec58ad0da367daee3c1","fixation","","","img/fixation.png","null","","","test","","","","","","","","","","","","","","","","","","","",""
"null","658384","SARL_v6","SARL_v61corkw6a","60fc2ec58ad0da367daee3c1","freq","","","img/orange_2bandit_b2.png","null","","70","test","0","","95","","","","circle","square","91","5","5","0.978021978021978","","","","","","","",""
"null","658553","SARL_v6","SARL_v61corkw6a","60fc2ec58ad0da367daee3c1","fixation","","","img/fixation.png","null","","","test","","","","","","","","","","","","","","","","","","","",""
"605","659167","SARL_v6","SARL_v61corkw6a","60fc2ec58ad0da367daee3c1","freq","","","img/orange_2bandit_b2.png","70","","70","test","1","","96","","","","circle","square","92","6","5","0.9782608695652174","","","","","","","",""
"null","659383","SARL_v6","SARL_v61corkw6a","60fc2ec58ad0da367daee3c1","freq_resp","","","img/orange_2bandit_b.png","70","img/orange_2bandit_b.png","70","test","","","","","","","","","","","5","","","","","","","","",""
"null","659553","SARL_v6","SARL_v61corkw6a","60fc2ec58ad0da367daee3c1","fixation","","","img/fixation.png","null","","","test","","","","","","","","","","","","","","","","","","","",""
"516.5999999046326","660079","SARL_v6","SARL_v61corkw6a","60fc2ec58ad0da367daee3c1","freq","","","img/orange_2bandit_b2.png","70","","70","test","1","","97","","","","circle","square","93","7","5","0.978494623655914","","","","","","","",""
"null","660377","SARL_v6","SARL_v61corkw6a","60fc2ec58ad0da367daee3c1","freq_resp","","","img/orange_2bandit_b.png","70","img/orange_2bandit_b.png","70","test","","","","","","","","","","","5","","","","","","","","",""
"null","660536","SARL_v6","SARL_v61corkw6a","60fc2ec58ad0da367daee3c1","fixation","","","img/fixation.png","null","","","test","","","","","","","","","","","","","","","","","","","",""
"499.7999997138977","661045","SARL_v6","SARL_v61corkw6a","60fc2ec58ad0da367daee3c1","freq","","","img/orange_2bandit_b2.png","70","","70","test","1","","98","","","","circle","square","94","8","5","0.9787234042553191","","","","","","","",""
"null","661359","SARL_v6","SARL_v61corkw6a","60fc2ec58ad0da367daee3c1","freq_resp","","","img/orange_2bandit_b.png","70","img/orange_2bandit_b.png","70","test","","","","","","","","","","","5","","","","","","","","",""
"null","661520","SARL_v6","SARL_v61corkw6a","60fc2ec58ad0da367daee3c1","fixation","","","img/fixation.png","null","","","test","","","","","","","","","","","","","","","","","","","",""
"367.7000002861023","661897","SARL_v6","SARL_v61corkw6a","60fc2ec58ad0da367daee3c1","freq","","","img/orange_2bandit_b2.png","70","","70","test","1","","99","","","","circle","square","95","9","5","0.9789473684210527","","","","","","","",""
"null","662349","SARL_v6","SARL_v61corkw6a","60fc2ec58ad0da367daee3c1","freq_resp","","","img/orange_2bandit_b.png","70","img/orange_2bandit_b.png","70","test","","","","","","","","","","","5","","","","","","","","",""
"null","662511","SARL_v6","SARL_v61corkw6a","60fc2ec58ad0da367daee3c1","fixation","","","img/fixation.png","null","","","test","","","","","","","","","","","","","","","","","","","",""
"362.5","662883","SARL_v6","SARL_v61corkw6a","60fc2ec58ad0da367daee3c1","freq","","","img/orange_2bandit_b2.png","70","","70","test","1","","100","","","","circle","square","96","10","5","0.9791666666666666","","","","","","","",""
"null","663334","SARL_v6","SARL_v61corkw6a","60fc2ec58ad0da367daee3c1","freq_resp","","","img/orange_2bandit_b.png","70","img/orange_2bandit_b.png","70","test","","","","","","","","","","","5","","","","","","","","",""
"null","663502","SARL_v6","SARL_v61corkw6a","60fc2ec58ad0da367daee3c1","fixation","","","img/fixation.png","null","","","test","","","","","","","","","","","","","","","","","","","",""
"383","663895","SARL_v6","SARL_v61corkw6a","60fc2ec58ad0da367daee3c1","freq","","","img/orange_2bandit_b2.png","70","","70","test","1","","101","","","","circle","square","97","11","5","0.979381443298969","","","","","","","",""
"null","664334","SARL_v6","SARL_v61corkw6a","60fc2ec58ad0da367daee3c1","freq_resp","","","img/orange_2bandit_b.png","70","img/orange_2bandit_b.png","70","test","","","","","","","","","","","5","","","","","","","","",""
"null","664497","SARL_v6","SARL_v61corkw6a","60fc2ec58ad0da367daee3c1","fixation","","","img/fixation.png","null","","","test","","","","","","","","","","","","","","","","","","","",""
"565.3000001907349","665071","SARL_v6","SARL_v61corkw6a","60fc2ec58ad0da367daee3c1","infreq","","","img/blue_2bandit_b2.png","68","","68","test","1","","102","","","","circle","square","98","12","5","0.9795918367346939","","","","","","","",""
"null","665329","SARL_v6","SARL_v61corkw6a","60fc2ec58ad0da367daee3c1","infreq_resp","","","img/blue_2bandit_b.png","68","img/blue_2bandit_b.png","68","test","","","","","","","","","","","5","","","","","","","","",""
"null","665501","SARL_v6","SARL_v61corkw6a","60fc2ec58ad0da367daee3c1","fixation","","","img/fixation.png","null","","","test","","","","","","","","","","","","","","","","","","","",""
"442.2999997138977","665953","SARL_v6","SARL_v61corkw6a","60fc2ec58ad0da367daee3c1","freq","","","img/orange_2bandit_b2.png","70","","70","test","1","","103","","","","circle","square","99","13","5","0.9797979797979798","","","","","","","",""
"null","666329","SARL_v6","SARL_v61corkw6a","60fc2ec58ad0da367daee3c1","freq_resp","","","img/orange_2bandit_b.png","70","img/orange_2bandit_b.png","70","test","","","","","","","","","","","5","","","","","","","","",""
"null","666501","SARL_v6","SARL_v61corkw6a","60fc2ec58ad0da367daee3c1","fixation","","","img/fixation.png","null","","","test","","","","","","","","","","","","","","","","","","","",""
"384.30000019073486","666895","SARL_v6","SARL_v61corkw6a","60fc2ec58ad0da367daee3c1","freq","","","img/orange_2bandit_b2.png","70","","70","test","1","","104","","","","circle","square","100","14","5","0.98","","","","","","","",""
"null","667333","SARL_v6","SARL_v61corkw6a","60fc2ec58ad0da367daee3c1","freq_resp","","","img/orange_2bandit_b.png","70","img/orange_2bandit_b.png","70","test","","","","","","","","","","","5","","","","","","","","",""
"null","667496","SARL_v6","SARL_v61corkw6a","60fc2ec58ad0da367daee3c1","fixation","","","img/fixation.png","null","","","test","","","","","","","","","","","","","","","","","","","",""
"391","667896","SARL_v6","SARL_v61corkw6a","60fc2ec58ad0da367daee3c1","freq","","","img/orange_2bandit_b2.png","70","","70","test","1","","105","","","","circle","square","101","15","5","0.9801980198019802","","","","","","","",""
"null","668317","SARL_v6","SARL_v61corkw6a","60fc2ec58ad0da367daee3c1","freq_resp","","","img/orange_2bandit_b.png","70","img/orange_2bandit_b.png","70","test","","","","","","","","","","","5","","","","","","","","",""
"null","668484","SARL_v6","SARL_v61corkw6a","60fc2ec58ad0da367daee3c1","fixation","","","img/fixation.png","null","","","test","","","","","","","","","","","","","","","","","","","",""
"444.5","668938","SARL_v6","SARL_v61corkw6a","60fc2ec58ad0da367daee3c1","freq","","","img/orange_2bandit_b2.png","70","","70","test","1","","106","","","","circle","square","102","16","5","0.9803921568627451","","","","","","","",""
"null","669316","SARL_v6","SARL_v61corkw6a","60fc2ec58ad0da367daee3c1","freq_resp","","","img/orange_2bandit_b.png","70","img/orange_2bandit_b.png","70","test","","","","","","","","","","","5","","","","","","","","",""
"null","669485","SARL_v6","SARL_v61corkw6a","60fc2ec58ad0da367daee3c1","fixation","","","img/fixation.png","null","","","test","","","","","","","","","","","","","","","","","","","",""
"394.59999990463257","669889","SARL_v6","SARL_v61corkw6a","60fc2ec58ad0da367daee3c1","freq","","","img/orange_2bandit_b2.png","70","","70","test","1","","107","","","","circle","square","103","17","5","0.9805825242718447","","","","","","","",""
"null","670318","SARL_v6","SARL_v61corkw6a","60fc2ec58ad0da367daee3c1","freq_resp","","","img/orange_2bandit_b.png","70","img/orange_2bandit_b.png","70","test","","","","","","","","","","","5","","","","","","","","",""
"null","670491","SARL_v6","SARL_v61corkw6a","60fc2ec58ad0da367daee3c1","fixation","","","img/fixation.png","null","","","test","","","","","","","","","","","","","","","","","","","",""
"349.2000002861023","670850","SARL_v6","SARL_v61corkw6a","60fc2ec58ad0da367daee3c1","freq","","","img/orange_2bandit_b2.png","70","","70","test","1","","108","","","","circle","square","104","18","5","0.9807692307692307","","","","","","","",""
"null","671322","SARL_v6","SARL_v61corkw6a","60fc2ec58ad0da367daee3c1","freq_resp","","","img/orange_2bandit_b.png","70","img/orange_2bandit_b.png","70","test","","","","","","","","","","","5","","","","","","","","",""
"null","671485","SARL_v6","SARL_v61corkw6a","60fc2ec58ad0da367daee3c1","fixation","","","img/fixation.png","null","","","test","","","","","","","","","","","","","","","","","","","",""
"332.80000019073486","671827","SARL_v6","SARL_v61corkw6a","60fc2ec58ad0da367daee3c1","freq","","","img/orange_2bandit_b2.png","70","","70","test","1","","109","","","","circle","square","105","19","5","0.9809523809523809","","","","","","","",""
"null","672313","SARL_v6","SARL_v61corkw6a","60fc2ec58ad0da367daee3c1","freq_resp","","","img/orange_2bandit_b.png","70","img/orange_2bandit_b.png","70","test","","","","","","","","","","","5","","","","","","","","",""
"null","672484","SARL_v6","SARL_v61corkw6a","60fc2ec58ad0da367daee3c1","fixation","","","img/fixation.png","null","","","test","","","","","","","","","","","","","","","","","","","",""
"335.2000002861023","672829","SARL_v6","SARL_v61corkw6a","60fc2ec58ad0da367daee3c1","freq","","","img/orange_2bandit_b2.png","70","","70","test","1","","110","","","","circle","square","106","20","5","0.9811320754716981","","","","","","","",""
"null","673313","SARL_v6","SARL_v61corkw6a","60fc2ec58ad0da367daee3c1","freq_resp","","","img/orange_2bandit_b.png","70","img/orange_2bandit_b.png","70","test","","","","","","","","","","","5","","","","","","","","",""
"null","673483","SARL_v6","SARL_v61corkw6a","60fc2ec58ad0da367daee3c1","fixation","","","img/fixation.png","null","","","test","","","","","","","","","","","","","","","","","","","",""
"362.2000002861023","673855","SARL_v6","SARL_v61corkw6a","60fc2ec58ad0da367daee3c1","freq","","","img/orange_2bandit_b2.png","70","","70","test","1","","111","","","","circle","square","107","21","5","0.9813084112149533","","","","","","","",""
"null","674315","SARL_v6","SARL_v61corkw6a","60fc2ec58ad0da367daee3c1","freq_resp","","","img/orange_2bandit_b.png","70","img/orange_2bandit_b.png","70","test","","","","","","","","","","","5","","","","","","","","",""
"null","674485","SARL_v6","SARL_v61corkw6a","60fc2ec58ad0da367daee3c1","fixation","","","img/fixation.png","null","","","test","","","","","","","","","","","","","","","","","","","",""
"337.59999990463257","674832","SARL_v6","SARL_v61corkw6a","60fc2ec58ad0da367daee3c1","freq","","","img/orange_2bandit_b2.png","70","","70","test","1","","112","","","","circle","square","108","22","5","0.9814814814814815","","","","","","","",""
"null","675314","SARL_v6","SARL_v61corkw6a","60fc2ec58ad0da367daee3c1","freq_resp","","","img/orange_2bandit_b.png","70","img/orange_2bandit_b.png","70","test","","","","","","","","","","","5","","","","","","","","",""
"null","675477","SARL_v6","SARL_v61corkw6a","60fc2ec58ad0da367daee3c1","fixation","","","img/fixation.png","null","","","test","","","","","","","","","","","","","","","","","","","",""
"377.40000009536743","675864","SARL_v6","SARL_v61corkw6a","60fc2ec58ad0da367daee3c1","freq","","","img/orange_2bandit_b2.png","70","","70","test","1","","113","","","","circle","square","109","23","5","0.981651376146789","","","","","","","",""
"null","676299","SARL_v6","SARL_v61corkw6a","60fc2ec58ad0da367daee3c1","freq_resp","","","img/orange_2bandit_b.png","70","img/orange_2bandit_b.png","70","test","","","","","","","","","","","5","","","","","","","","",""
"null","676468","SARL_v6","SARL_v61corkw6a","60fc2ec58ad0da367daee3c1","fixation","","","img/fixation.png","null","","","test","","","","","","","","","","","","","","","","","","","",""
"1124.0999999046326","677601","SARL_v6","SARL_v61corkw6a","60fc2ec58ad0da367daee3c1","rl","","","img/black_2bandit_b2.png","75","","0","test","","","114","","","4","circle","square","","0","5","","75","-7","4","-7","4","square","5","0"
"null","678362","SARL_v6","SARL_v61corkw6a","60fc2ec58ad0da367daee3c1","feedback","","","<div class=""veryhighPoints_sq""> 4 </div>","null","","na","test","","","NaN","","","","","","","","5","","75","","","","","","5",""
"667.5999999046326","679039","SARL_v6","SARL_v61corkw6a","60fc2ec58ad0da367daee3c1","freq","","","img/orange_2bandit_b2.png","70","","70","test","1","","115","","","","circle","square","110","1","6","0.9818181818181818","","","","","","","",""
"null","679195","SARL_v6","SARL_v61corkw6a","60fc2ec58ad0da367daee3c1","freq_resp","","","img/orange_2bandit_b.png","70","img/orange_2bandit_b.png","70","test","","","","","","","","","","","6","","","","","","","","",""
"null","679366","SARL_v6","SARL_v61corkw6a","60fc2ec58ad0da367daee3c1","fixation","","","img/fixation.png","null","","","test","","","","","","","","","","","","","","","","","","","",""
"414.09999990463257","679789","SARL_v6","SARL_v61corkw6a","60fc2ec58ad0da367daee3c1","freq","","","img/orange_2bandit_b2.png","70","","70","test","1","","116","","","","circle","square","111","2","6","0.9819819819819819","","","","","","","",""
"null","680185","SARL_v6","SARL_v61corkw6a","60fc2ec58ad0da367daee3c1","freq_resp","","","img/orange_2bandit_b.png","70","img/orange_2bandit_b.png","70","test","","","","","","","","","","","6","","","","","","","","",""
"null","680360","SARL_v6","SARL_v61corkw6a","60fc2ec58ad0da367daee3c1","fixation","","","img/fixation.png","null","","","test","","","","","","","","","","","","","","","","","","","",""
"391.80000019073486","680761","SARL_v6","SARL_v61corkw6a","60fc2ec58ad0da367daee3c1","freq","","","img/orange_2bandit_b2.png","70","","70","test","1","","117","","","","circle","square","112","3","6","0.9821428571428571","","","","","","","",""
"null","681183","SARL_v6","SARL_v61corkw6a","60fc2ec58ad0da367daee3c1","freq_resp","","","img/orange_2bandit_b.png","70","img/orange_2bandit_b.png","70","test","","","","","","","","","","","6","","","","","","","","",""
"null","681357","SARL_v6","SARL_v61corkw6a","60fc2ec58ad0da367daee3c1","fixation","","","img/fixation.png","null","","","test","","","","","","","","","","","","","","","","","","","",""
"501","681868","SARL_v6","SARL_v61corkw6a","60fc2ec58ad0da367daee3c1","freq","","","img/orange_2bandit_b2.png","70","","70","test","1","","118","","","","circle","square","113","4","6","0.9823008849557522","","","","","","","",""
"null","682181","SARL_v6","SARL_v61corkw6a","60fc2ec58ad0da367daee3c1","freq_resp","","","img/orange_2bandit_b.png","70","img/orange_2bandit_b.png","70","test","","","","","","","","","","","6","","","","","","","","",""
"null","682339","SARL_v6","SARL_v61corkw6a","60fc2ec58ad0da367daee3c1","fixation","","","img/fixation.png","null","","","test","","","","","","","","","","","","","","","","","","","",""
"361.90000009536743","682711","SARL_v6","SARL_v61corkw6a","60fc2ec58ad0da367daee3c1","freq","","","img/orange_2bandit_b2.png","70","","70","test","1","","119","","","","circle","square","114","5","6","0.9824561403508771","","","","","","","",""
"null","683160","SARL_v6","SARL_v61corkw6a","60fc2ec58ad0da367daee3c1","freq_resp","","","img/orange_2bandit_b.png","70","img/orange_2bandit_b.png","70","test","","","","","","","","","","","6","","","","","","","","",""
"null","683322","SARL_v6","SARL_v61corkw6a","60fc2ec58ad0da367daee3c1","fixation","","","img/fixation.png","null","","","test","","","","","","","","","","","","","","","","","","","",""
"570.3000001907349","683902","SARL_v6","SARL_v61corkw6a","60fc2ec58ad0da367daee3c1","infreq","","","img/blue_2bandit_b2.png","68","","68","test","1","","120","","","","circle","square","115","6","6","0.9826086956521739","","","","","","","",""
"null","684141","SARL_v6","SARL_v61corkw6a","60fc2ec58ad0da367daee3c1","infreq_resp","","","img/blue_2bandit_b.png","68","img/blue_2bandit_b.png","68","test","","","","","","","","","","","6","","","","","","","","",""
"null","684311","SARL_v6","SARL_v61corkw6a","60fc2ec58ad0da367daee3c1","fixation","","","img/fixation.png","null","","","test","","","","","","","","","","","","","","","","","","","",""
"537.5","684858","SARL_v6","SARL_v61corkw6a","60fc2ec58ad0da367daee3c1","freq","","","img/orange_2bandit_b2.png","70","","70","test","1","","121","","","","circle","square","116","7","6","0.9827586206896551","","","","","","","",""
"null","685138","SARL_v6","SARL_v61corkw6a","60fc2ec58ad0da367daee3c1","freq_resp","","","img/orange_2bandit_b.png","70","img/orange_2bandit_b.png","70","test","","","","","","","","","","","6","","","","","","","","",""
"null","685310","SARL_v6","SARL_v61corkw6a","60fc2ec58ad0da367daee3c1","fixation","","","img/fixation.png","null","","","test","","","","","","","","","","","","","","","","","","","",""
"414.80000019073486","685734","SARL_v6","SARL_v61corkw6a","60fc2ec58ad0da367daee3c1","freq","","","img/orange_2bandit_b2.png","70","","70","test","1","","122","","","","circle","square","117","8","6","0.9829059829059829","","","","","","","",""
"null","686129","SARL_v6","SARL_v61corkw6a","60fc2ec58ad0da367daee3c1","freq_resp","","","img/orange_2bandit_b.png","70","img/orange_2bandit_b.png","70","test","","","","","","","","","","","6","","","","","","","","",""
"null","686295","SARL_v6","SARL_v61corkw6a","60fc2ec58ad0da367daee3c1","fixation","","","img/fixation.png","null","","","test","","","","","","","","","","","","","","","","","","","",""
"571.7000002861023","686876","SARL_v6","SARL_v61corkw6a","60fc2ec58ad0da367daee3c1","infreq","","","img/blue_2bandit_b2.png","68","","68","test","1","","123","","","","circle","square","118","9","6","0.9830508474576272","","","","","","","",""
"null","687124","SARL_v6","SARL_v61corkw6a","60fc2ec58ad0da367daee3c1","infreq_resp","","","img/blue_2bandit_b.png","68","img/blue_2bandit_b.png","68","test","","","","","","","","","","","6","","","","","","","","",""
"null","687294","SARL_v6","SARL_v61corkw6a","60fc2ec58ad0da367daee3c1","fixation","","","img/fixation.png","null","","","test","","","","","","","","","","","","","","","","","","","",""
"344.40000009536743","687647","SARL_v6","SARL_v61corkw6a","60fc2ec58ad0da367daee3c1","freq","","","img/orange_2bandit_b2.png","70","","70","test","1","","124","","","","circle","square","119","10","6","0.9831932773109243","","","","","","","",""
"null","688121","SARL_v6","SARL_v61corkw6a","60fc2ec58ad0da367daee3c1","freq_resp","","","img/orange_2bandit_b.png","70","img/orange_2bandit_b.png","70","test","","","","","","","","","","","6","","","","","","","","",""
"null","688294","SARL_v6","SARL_v61corkw6a","60fc2ec58ad0da367daee3c1","fixation","","","img/fixation.png","null","","","test","","","","","","","","","","","","","","","","","","","",""
"520.7000002861023","688825","SARL_v6","SARL_v61corkw6a","60fc2ec58ad0da367daee3c1","freq","","","img/orange_2bandit_b2.png","70","","70","test","1","","125","","","","circle","square","120","11","6","0.9833333333333333","","","","","","","",""
"null","689119","SARL_v6","SARL_v61corkw6a","60fc2ec58ad0da367daee3c1","freq_resp","","","img/orange_2bandit_b.png","70","img/orange_2bandit_b.png","70","test","","","","","","","","","","","6","","","","","","","","",""
"null","689294","SARL_v6","SARL_v61corkw6a","60fc2ec58ad0da367daee3c1","fixation","","","img/fixation.png","null","","","test","","","","","","","","","","","","","","","","","","","",""
"462.5","689765","SARL_v6","SARL_v61corkw6a","60fc2ec58ad0da367daee3c1","freq","","","img/orange_2bandit_b2.png","70","","70","test","1","","126","","","","circle","square","121","12","6","0.9834710743801653","","","","","","","",""
"null","690116","SARL_v6","SARL_v61corkw6a","60fc2ec58ad0da367daee3c1","freq_resp","","","img/orange_2bandit_b.png","70","img/orange_2bandit_b.png","70","test","","","","","","","","","","","6","","","","","","","","",""
"null","690278","SARL_v6","SARL_v61corkw6a","60fc2ec58ad0da367daee3c1","fixation","","","img/fixation.png","null","","","test","","","","","","","","","","","","","","","","","","","",""
"444","690731","SARL_v6","SARL_v61corkw6a","60fc2ec58ad0da367daee3c1","freq","","","img/orange_2bandit_b2.png","70","","70","test","1","","127","","","","circle","square","122","13","6","0.9836065573770492","","","","","","","",""
"null","691098","SARL_v6","SARL_v61corkw6a","60fc2ec58ad0da367daee3c1","freq_resp","","","img/orange_2bandit_b.png","70","img/orange_2bandit_b.png","70","test","","","","","","","","","","","6","","","","","","","","",""
"null","691273","SARL_v6","SARL_v61corkw6a","60fc2ec58ad0da367daee3c1","fixation","","","img/fixation.png","null","","","test","","","","","","","","","","","","","","","","","","","",""
"466.09999990463257","691748","SARL_v6","SARL_v61corkw6a","60fc2ec58ad0da367daee3c1","freq","","","img/orange_2bandit_b2.png","70","","70","test","1","","128","","","","circle","square","123","14","6","0.983739837398374","","","","","","","",""
"null","692099","SARL_v6","SARL_v61corkw6a","60fc2ec58ad0da367daee3c1","freq_resp","","","img/orange_2bandit_b.png","70","img/orange_2bandit_b.png","70","test","","","","","","","","","","","6","","","","","","","","",""
"null","692261","SARL_v6","SARL_v61corkw6a","60fc2ec58ad0da367daee3c1","fixation","","","img/fixation.png","null","","","test","","","","","","","","","","","","","","","","","","","",""
"449.19999980926514","692720","SARL_v6","SARL_v61corkw6a","60fc2ec58ad0da367daee3c1","freq","","","img/orange_2bandit_b2.png","70","","70","test","1","","129","","","","circle","square","124","15","6","0.9838709677419355","","","","","","","",""
"null","693081","SARL_v6","SARL_v61corkw6a","60fc2ec58ad0da367daee3c1","freq_resp","","","img/orange_2bandit_b.png","70","img/orange_2bandit_b.png","70","test","","","","","","","","","","","6","","","","","","","","",""
"null","693256","SARL_v6","SARL_v61corkw6a","60fc2ec58ad0da367daee3c1","fixation","","","img/fixation.png","null","","","test","","","","","","","","","","","","","","","","","","","",""
"386.30000019073486","693651","SARL_v6","SARL_v61corkw6a","60fc2ec58ad0da367daee3c1","freq","","","img/orange_2bandit_b2.png","70","","70","test","1","","130","","","","circle","square","125","16","6","0.984","","","","","","","",""
"null","694077","SARL_v6","SARL_v61corkw6a","60fc2ec58ad0da367daee3c1","freq_resp","","","img/orange_2bandit_b.png","70","img/orange_2bandit_b.png","70","test","","","","","","","","","","","6","","","","","","","","",""
