"rt","time_elapsed","expId","subject","prolificID","trialType","rlType","attType","stimulus","key_press","stim","corrresp","phase","corr","pracCounter","trialNum","rewardOne","rewardTwo","reward","bandOne","bandTwo","attentionNum","attentionRunNum","blockNum","performance","bandChosen","circleVal","squareVal","bandOneVal","bandTwoVal","shapeChosen","rlNum","badFlag"
"5492.900000095367","5495","SARL_v6","SARL_v6pjy5edrn","61005a9bfd2f14f18ef7ec7d","","","","","","","","","","","","","","","","","","","","","","","","","","","",""
"","7161","SARL_v6","SARL_v6pjy5edrn","61005a9bfd2f14f18ef7ec7d","fullscreen","fullscreen","fullscreen","","","","","","","","","","","","","","","","","","","","","","","","",""
"6702.299999952316","13866","SARL_v6","SARL_v6pjy5edrn","61005a9bfd2f14f18ef7ec7d","","","","","","","","","","","","","","","","","","","","","","","","","","","",""
"632.1000001430511","14501","SARL_v6","SARL_v6pjy5edrn","61005a9bfd2f14f18ef7ec7d","freqPrac","","","img/blue_2bandit_a2.png","70","img/blue_2bandit_a2.png","70","prac","1","0","","","","","","","","","","","","","","","","","",""
"632.1000001430511","14685","SARL_v6","SARL_v6pjy5edrn","61005a9bfd2f14f18ef7ec7d","freqPrac_resp","","","img/blue_2bandit_a.png","70","img/blue_2bandit_a.png","70","prac","","","","","","","","","","","","","","","","","","","",""
"null","14845","SARL_v6","SARL_v6pjy5edrn","61005a9bfd2f14f18ef7ec7d","fixation","","","img/fixation.png","null","","","prac","","","","","","","","","","","","","","","","","","","",""
"411.2000000476837","15258","SARL_v6","SARL_v6pjy5edrn","61005a9bfd2f14f18ef7ec7d","infreqPrac","","","img/orange_2bandit_a2.png","68","img/orange_2bandit_a2.png","68","prac","1","0","","","","","","","","","","","","","","","","","",""
"411.2000000476837","15654","SARL_v6","SARL_v6pjy5edrn","61005a9bfd2f14f18ef7ec7d","infreqPrac_resp","","","img/orange_2bandit_a.png","68","img/orange_2bandit_a.png","68","prac","","","","","","","","","","","","","","","","","","","",""
"null","15812","SARL_v6","SARL_v6pjy5edrn","61005a9bfd2f14f18ef7ec7d","fixation","","","img/fixation.png","null","","","prac","","","","","","","","","","","","","","","","","","","",""
"300","16114","SARL_v6","SARL_v6pjy5edrn","61005a9bfd2f14f18ef7ec7d","freqPrac","","","img/blue_2bandit_a2.png","70","img/blue_2bandit_a2.png","70","prac","1","0","","","","","","","","","","","","","","","","","",""
"300","16626","SARL_v6","SARL_v6pjy5edrn","61005a9bfd2f14f18ef7ec7d","freqPrac_resp","","","img/blue_2bandit_a.png","70","img/blue_2bandit_a.png","70","prac","","","","","","","","","","","","","","","","","","","",""
"null","16785","SARL_v6","SARL_v6pjy5edrn","61005a9bfd2f14f18ef7ec7d","fixation","","","img/fixation.png","null","","","prac","","","","","","","","","","","","","","","","","","","",""
"375.7999999523163","17163","SARL_v6","SARL_v6pjy5edrn","61005a9bfd2f14f18ef7ec7d","infreqPrac","","","img/orange_2bandit_a2.png","68","img/orange_2bandit_a2.png","68","prac","1","0","","","","","","","","","","","","","","","","","",""
"375.7999999523163","17595","SARL_v6","SARL_v6pjy5edrn","61005a9bfd2f14f18ef7ec7d","infreqPrac_resp","","","img/orange_2bandit_a.png","68","img/orange_2bandit_a.png","68","prac","","","","","","","","","","","","","","","","","","","",""
"null","17754","SARL_v6","SARL_v6pjy5edrn","61005a9bfd2f14f18ef7ec7d","fixation","","","img/fixation.png","null","","","prac","","","","","","","","","","","","","","","","","","","",""
"347.40000009536743","18104","SARL_v6","SARL_v6pjy5edrn","61005a9bfd2f14f18ef7ec7d","infreqPrac","","","img/orange_2bandit_a2.png","68","img/orange_2bandit_a2.png","68","prac","1","0","","","","","","","","","","","","","","","","","",""
"347.40000009536743","18566","SARL_v6","SARL_v6pjy5edrn","61005a9bfd2f14f18ef7ec7d","infreqPrac_resp","","","img/orange_2bandit_a.png","68","img/orange_2bandit_a.png","68","prac","","","","","","","","","","","","","","","","","","","",""
"null","18726","SARL_v6","SARL_v6pjy5edrn","61005a9bfd2f14f18ef7ec7d","fixation","","","img/fixation.png","null","","","prac","","","","","","","","","","","","","","","","","","","",""
"311","19040","SARL_v6","SARL_v6pjy5edrn","61005a9bfd2f14f18ef7ec7d","infreqPrac","","","img/orange_2bandit_a2.png","68","img/orange_2bandit_a2.png","68","prac","1","0","","","","","","","","","","","","","","","","","",""
"311","19540","SARL_v6","SARL_v6pjy5edrn","61005a9bfd2f14f18ef7ec7d","infreqPrac_resp","","","img/orange_2bandit_a.png","68","img/orange_2bandit_a.png","68","prac","","","","","","","","","","","","","","","","","","","",""
"null","19692","SARL_v6","SARL_v6pjy5edrn","61005a9bfd2f14f18ef7ec7d","fixation","","","img/fixation.png","null","","","prac","","","","","","","","","","","","","","","","","","","",""
"793.5","20488","SARL_v6","SARL_v6pjy5edrn","61005a9bfd2f14f18ef7ec7d","freqPrac","","","img/blue_2bandit_a2.png","70","img/blue_2bandit_a2.png","70","prac","1","0","","","","","","","","","","","","","","","","","",""
"793.5","20496","SARL_v6","SARL_v6pjy5edrn","61005a9bfd2f14f18ef7ec7d","freqPrac_resp","","","img/blue_2bandit_a.png","70","img/blue_2bandit_a.png","70","prac","","","","","","","","","","","","","","","","","","","",""
"null","20664","SARL_v6","SARL_v6pjy5edrn","61005a9bfd2f14f18ef7ec7d","fixation","","","img/fixation.png","null","","","prac","","","","","","","","","","","","","","","","","","","",""
"441","21107","SARL_v6","SARL_v6pjy5edrn","61005a9bfd2f14f18ef7ec7d","infreqPrac","","","img/orange_2bandit_a2.png","68","img/orange_2bandit_a2.png","68","prac","1","0","","","","","","","","","","","","","","","","","",""
"441","21479","SARL_v6","SARL_v6pjy5edrn","61005a9bfd2f14f18ef7ec7d","infreqPrac_resp","","","img/orange_2bandit_a.png","68","img/orange_2bandit_a.png","68","prac","","","","","","","","","","","","","","","","","","","",""
"null","21638","SARL_v6","SARL_v6pjy5edrn","61005a9bfd2f14f18ef7ec7d","fixation","","","img/fixation.png","null","","","prac","","","","","","","","","","","","","","","","","","","",""
"460.7999999523163","22101","SARL_v6","SARL_v6pjy5edrn","61005a9bfd2f14f18ef7ec7d","freqPrac","","","img/blue_2bandit_a2.png","70","img/blue_2bandit_a2.png","70","prac","1","0","","","","","","","","","","","","","","","","","",""
"460.7999999523163","22457","SARL_v6","SARL_v6pjy5edrn","61005a9bfd2f14f18ef7ec7d","freqPrac_resp","","","img/blue_2bandit_a.png","70","img/blue_2bandit_a.png","70","prac","","","","","","","","","","","","","","","","","","","",""
"null","22616","SARL_v6","SARL_v6pjy5edrn","61005a9bfd2f14f18ef7ec7d","fixation","","","img/fixation.png","null","","","prac","","","","","","","","","","","","","","","","","","","",""
"266.90000009536743","22886","SARL_v6","SARL_v6pjy5edrn","61005a9bfd2f14f18ef7ec7d","freqPrac","","","img/blue_2bandit_a2.png","70","img/blue_2bandit_a2.png","70","prac","1","0","","","","","","","","","","","","","","","","","",""
"266.90000009536743","23431","SARL_v6","SARL_v6pjy5edrn","61005a9bfd2f14f18ef7ec7d","freqPrac_resp","","","img/blue_2bandit_a.png","70","img/blue_2bandit_a.png","70","prac","","","","","","","","","","","","","","","","","","","",""
"null","23586","SARL_v6","SARL_v6pjy5edrn","61005a9bfd2f14f18ef7ec7d","fixation","","","img/fixation.png","null","","","prac","","","","","","","","","","","","","","","","","","","",""
"10431.299999952316","34019","SARL_v6","SARL_v6pjy5edrn","61005a9bfd2f14f18ef7ec7d","","","","","","","","prac","","","","","","","","","","","","","","","","","","","",""
"812.8000001907349","34835","SARL_v6","SARL_v6pjy5edrn","61005a9bfd2f14f18ef7ec7d","rlPractice","","","img/black_2bandit_a2.png","74","img/black_2bandit_a2.png","","prac","","","0","","","","","","","","","","","","","","","","",""
"null","35593","SARL_v6","SARL_v6pjy5edrn","61005a9bfd2f14f18ef7ec7d","feedback","","","<div class=""verylowPoints_sq""> -14 </div>","null","","na","prac","","","1","10","-14","10","","","","","","","","","","","","","",""
"null","35752","SARL_v6","SARL_v6pjy5edrn","61005a9bfd2f14f18ef7ec7d","fixation","","","img/fixation.png","null","","","prac","","","","","","","","","","","","","","","","","","","",""
"563.8999998569489","36319","SARL_v6","SARL_v6pjy5edrn","61005a9bfd2f14f18ef7ec7d","rlPractice","","","img/black_2bandit_a2.png","75","img/black_2bandit_a2.png","","prac","","","1","","","","","","","","","","","","","","","","",""
"null","37080","SARL_v6","SARL_v6pjy5edrn","61005a9bfd2f14f18ef7ec7d","feedback","","","<div class=""veryhighPoints""> 5 </div>","null","","na","prac","","","2","5","-5","5","","","","","","","","","","","","","",""
"null","37239","SARL_v6","SARL_v6pjy5edrn","61005a9bfd2f14f18ef7ec7d","fixation","","","img/fixation.png","null","","","prac","","","","","","","","","","","","","","","","","","","",""
"257.60000014305115","37499","SARL_v6","SARL_v6pjy5edrn","61005a9bfd2f14f18ef7ec7d","rlPractice","","","img/black_2bandit_a2.png","75","img/black_2bandit_a2.png","","prac","","","2","","","","","","","","","","","","","","","","",""
"null","38267","SARL_v6","SARL_v6pjy5edrn","61005a9bfd2f14f18ef7ec7d","feedback","","","<div class=""veryhighPoints""> 30 </div>","null","","na","prac","","","3","30","2","30","","","","","","","","","","","","","",""
"null","38425","SARL_v6","SARL_v6pjy5edrn","61005a9bfd2f14f18ef7ec7d","fixation","","","img/fixation.png","null","","","prac","","","","","","","","","","","","","","","","","","","",""
"263","38690","SARL_v6","SARL_v6pjy5edrn","61005a9bfd2f14f18ef7ec7d","rlPractice","","","img/black_2bandit_a2.png","75","img/black_2bandit_a2.png","","prac","","","3","","","","","","","","","","","","","","","","",""
"null","39453","SARL_v6","SARL_v6pjy5edrn","61005a9bfd2f14f18ef7ec7d","feedback","","","<div class=""verylowPoints""> -2 </div>","null","","na","prac","","","4","-2","20","-2","","","","","","","","","","","","","",""
"null","39612","SARL_v6","SARL_v6pjy5edrn","61005a9bfd2f14f18ef7ec7d","fixation","","","img/fixation.png","null","","","prac","","","","","","","","","","","","","","","","","","","",""
"4785.200000047684","44400","SARL_v6","SARL_v6pjy5edrn","61005a9bfd2f14f18ef7ec7d","","","","","","","","prac","","","","","","","","","","","","","","","","","","","",""
"null","45208","SARL_v6","SARL_v6pjy5edrn","61005a9bfd2f14f18ef7ec7d","mixAttFreqPrac","","","img/blue_2bandit_a2.png","null","img/blue_2bandit_a2.png","70","prac","","","1","","","","","","","","","","","","","","","","",""
"null","45362","SARL_v6","SARL_v6pjy5edrn","61005a9bfd2f14f18ef7ec7d","fixation","","","img/fixation.png","null","","","prac","","","","","","","","","","","","","","","","","","","",""
"708.9000000953674","46073","SARL_v6","SARL_v6pjy5edrn","61005a9bfd2f14f18ef7ec7d","mixAttInfreqPrac","","","img/orange_2bandit_a2.png","68","img/orange_2bandit_a2.png","68","prac","","","2","","","","","","","","","","","","","","","","",""
"708.9000000953674","46170","SARL_v6","SARL_v6pjy5edrn","61005a9bfd2f14f18ef7ec7d","infreqPrac_resp","","","img/orange_2bandit_a.png","68","img/blue_2bandit_a.png","68","prac","","","2","","","","","","","","","","","","","","","","",""
"null","46327","SARL_v6","SARL_v6pjy5edrn","61005a9bfd2f14f18ef7ec7d","fixation","","","img/fixation.png","null","","","prac","","","","","","","","","","","","","","","","","","","",""
"358.7000000476837","46688","SARL_v6","SARL_v6pjy5edrn","61005a9bfd2f14f18ef7ec7d","mixAttInfreqPrac","","","img/orange_2bandit_a2.png","68","img/orange_2bandit_a2.png","68","prac","","","3","","","","","","","","","","","","","","","","",""
"358.7000000476837","47136","SARL_v6","SARL_v6pjy5edrn","61005a9bfd2f14f18ef7ec7d","infreqPrac_resp","","","img/orange_2bandit_a.png","68","img/blue_2bandit_a.png","68","prac","","","3","","","","","","","","","","","","","","","","",""
"null","47294","SARL_v6","SARL_v6pjy5edrn","61005a9bfd2f14f18ef7ec7d","fixation","","","img/fixation.png","null","","","prac","","","","","","","","","","","","","","","","","","","",""
"335.7999999523163","47632","SARL_v6","SARL_v6pjy5edrn","61005a9bfd2f14f18ef7ec7d","mixAttInfreqPrac","","","img/orange_2bandit_a2.png","68","img/orange_2bandit_a2.png","68","prac","","","4","","","","","","","","","","","","","","","","",""
"335.7999999523163","48100","SARL_v6","SARL_v6pjy5edrn","61005a9bfd2f14f18ef7ec7d","infreqPrac_resp","","","img/orange_2bandit_a.png","68","img/blue_2bandit_a.png","68","prac","","","4","","","","","","","","","","","","","","","","",""
"null","48252","SARL_v6","SARL_v6pjy5edrn","61005a9bfd2f14f18ef7ec7d","fixation","","","img/fixation.png","null","","","prac","","","","","","","","","","","","","","","","","","","",""
"401.09999990463257","48656","SARL_v6","SARL_v6pjy5edrn","61005a9bfd2f14f18ef7ec7d","mixAttFreqPrac","","","img/blue_2bandit_a2.png","70","img/blue_2bandit_a2.png","70","prac","","","5","","","","","","","","","","","","","","","","",""
"401.09999990463257","49061","SARL_v6","SARL_v6pjy5edrn","61005a9bfd2f14f18ef7ec7d","freqPrac_resp","","","img/blue_2bandit_a.png","70","img/blue_2bandit_a.png","70","prac","","","5","","","","","","","","","","","","","","","","",""
"null","49219","SARL_v6","SARL_v6pjy5edrn","61005a9bfd2f14f18ef7ec7d","fixation","","","img/fixation.png","null","","","prac","","","","","","","","","","","","","","","","","","","",""
"702.4000000953674","49924","SARL_v6","SARL_v6pjy5edrn","61005a9bfd2f14f18ef7ec7d","mixRLPractice","","","img/black_2bandit_a2.png","74","img/black_2bandit_a2.png","","prac","","","5","","","","","","","","","","","","","","","","",""
"null","50680","SARL_v6","SARL_v6pjy5edrn","61005a9bfd2f14f18ef7ec7d","feedback","","","<div class=""veryhighPoints_sq""> 10 </div>","null","","na","prac","","","6","-14","10","-14","","","","","","","","","","","","","",""
"null","50838","SARL_v6","SARL_v6pjy5edrn","61005a9bfd2f14f18ef7ec7d","fixation","","","img/fixation.png","null","","","prac","","","","","","","","","","","","","","","","","","","",""
"572.7000000476837","51412","SARL_v6","SARL_v6pjy5edrn","61005a9bfd2f14f18ef7ec7d","mixAttFreqPrac","","","img/blue_2bandit_a2.png","70","img/blue_2bandit_a2.png","70","prac","","","7","","","","","","","","","","","","","","","","",""
"572.7000000476837","51641","SARL_v6","SARL_v6pjy5edrn","61005a9bfd2f14f18ef7ec7d","freqPrac_resp","","","img/blue_2bandit_a.png","70","img/blue_2bandit_a.png","70","prac","","","7","","","","","","","","","","","","","","","","",""
"null","51794","SARL_v6","SARL_v6pjy5edrn","61005a9bfd2f14f18ef7ec7d","fixation","","","img/fixation.png","null","","","prac","","","","","","","","","","","","","","","","","","","",""
"366.39999985694885","52162","SARL_v6","SARL_v6pjy5edrn","61005a9bfd2f14f18ef7ec7d","mixAttInfreqPrac","","","img/orange_2bandit_a2.png","68","img/orange_2bandit_a2.png","68","prac","","","8","","","","","","","","","","","","","","","","",""
"366.39999985694885","52602","SARL_v6","SARL_v6pjy5edrn","61005a9bfd2f14f18ef7ec7d","infreqPrac_resp","","","img/orange_2bandit_a.png","68","img/blue_2bandit_a.png","68","prac","","","8","","","","","","","","","","","","","","","","",""
"null","52758","SARL_v6","SARL_v6pjy5edrn","61005a9bfd2f14f18ef7ec7d","fixation","","","img/fixation.png","null","","","prac","","","","","","","","","","","","","","","","","","","",""
"425.7000000476837","53185","SARL_v6","SARL_v6pjy5edrn","61005a9bfd2f14f18ef7ec7d","mixAttFreqPrac","","","img/blue_2bandit_a2.png","70","img/blue_2bandit_a2.png","70","prac","","","9","","","","","","","","","","","","","","","","",""
"425.7000000476837","53576","SARL_v6","SARL_v6pjy5edrn","61005a9bfd2f14f18ef7ec7d","freqPrac_resp","","","img/blue_2bandit_a.png","70","img/blue_2bandit_a.png","70","prac","","","9","","","","","","","","","","","","","","","","",""
"null","53736","SARL_v6","SARL_v6pjy5edrn","61005a9bfd2f14f18ef7ec7d","fixation","","","img/fixation.png","null","","","prac","","","","","","","","","","","","","","","","","","","",""
"409","54147","SARL_v6","SARL_v6pjy5edrn","61005a9bfd2f14f18ef7ec7d","mixAttFreqPrac","","","img/blue_2bandit_a2.png","70","img/blue_2bandit_a2.png","70","prac","","","10","","","","","","","","","","","","","","","","",""
"409","54543","SARL_v6","SARL_v6pjy5edrn","61005a9bfd2f14f18ef7ec7d","freqPrac_resp","","","img/blue_2bandit_a.png","70","img/blue_2bandit_a.png","70","prac","","","10","","","","","","","","","","","","","","","","",""
"null","54702","SARL_v6","SARL_v6pjy5edrn","61005a9bfd2f14f18ef7ec7d","fixation","","","img/fixation.png","null","","","prac","","","","","","","","","","","","","","","","","","","",""
"590.1000001430511","55295","SARL_v6","SARL_v6pjy5edrn","61005a9bfd2f14f18ef7ec7d","mixAttInfreqPrac","","","img/orange_2bandit_a2.png","68","img/orange_2bandit_a2.png","68","prac","","","11","","","","","","","","","","","","","","","","",""
"590.1000001430511","55519","SARL_v6","SARL_v6pjy5edrn","61005a9bfd2f14f18ef7ec7d","infreqPrac_resp","","","img/orange_2bandit_a.png","68","img/blue_2bandit_a.png","68","prac","","","11","","","","","","","","","","","","","","","","",""
"null","55672","SARL_v6","SARL_v6pjy5edrn","61005a9bfd2f14f18ef7ec7d","fixation","","","img/fixation.png","null","","","prac","","","","","","","","","","","","","","","","","","","",""
"651","56325","SARL_v6","SARL_v6pjy5edrn","61005a9bfd2f14f18ef7ec7d","mixRLPractice","","","img/black_2bandit_a2.png","75","img/black_2bandit_a2.png","","prac","","","11","","","","","","","","","","","","","","","","",""
"null","57082","SARL_v6","SARL_v6pjy5edrn","61005a9bfd2f14f18ef7ec7d","feedback","","","<div class=""veryhighPoints""> 5 </div>","null","","na","prac","","","12","5","-5","5","","","","","","","","","","","","","",""
"null","57240","SARL_v6","SARL_v6pjy5edrn","61005a9bfd2f14f18ef7ec7d","fixation","","","img/fixation.png","null","","","prac","","","","","","","","","","","","","","","","","","","",""
"1220.9000000953674","58463","SARL_v6","SARL_v6pjy5edrn","61005a9bfd2f14f18ef7ec7d","","","","","","","","prac","","","","","","","","","","","","","","","","","","","",""
"554.3999998569489","59019","SARL_v6","SARL_v6pjy5edrn","61005a9bfd2f14f18ef7ec7d","freq","","","img/blue_2bandit_a2.png","70","","70","test","1","","1","","","","square","circle","1","1","1","1","","","","","","","",""
"null","59271","SARL_v6","SARL_v6pjy5edrn","61005a9bfd2f14f18ef7ec7d","freq_resp","","","img/blue_2bandit_a.png","70","img/blue_2bandit_a.png","70","test","","","","","","","","","","","1","","","","","","","","",""
"null","59423","SARL_v6","SARL_v6pjy5edrn","61005a9bfd2f14f18ef7ec7d","fixation","","","img/fixation.png","null","","","test","","","","","","","","","","","","","","","","","","","",""
"253.79999995231628","59679","SARL_v6","SARL_v6pjy5edrn","61005a9bfd2f14f18ef7ec7d","freq","","","img/blue_2bandit_a2.png","70","","70","test","1","","2","","","","square","circle","2","2","1","1","","","","","","","",""
"null","60234","SARL_v6","SARL_v6pjy5edrn","61005a9bfd2f14f18ef7ec7d","freq_resp","","","img/blue_2bandit_a.png","70","img/blue_2bandit_a.png","70","test","","","","","","","","","","","1","","","","","","","","",""
"null","60392","SARL_v6","SARL_v6pjy5edrn","61005a9bfd2f14f18ef7ec7d","fixation","","","img/fixation.png","null","","","test","","","","","","","","","","","","","","","","","","","",""
"309.10000014305115","60703","SARL_v6","SARL_v6pjy5edrn","61005a9bfd2f14f18ef7ec7d","freq","","","img/blue_2bandit_a2.png","70","","70","test","1","","3","","","","square","circle","3","3","1","1","","","","","","","",""
"null","61198","SARL_v6","SARL_v6pjy5edrn","61005a9bfd2f14f18ef7ec7d","freq_resp","","","img/blue_2bandit_a.png","70","img/blue_2bandit_a.png","70","test","","","","","","","","","","","1","","","","","","","","",""
"null","61351","SARL_v6","SARL_v6pjy5edrn","61005a9bfd2f14f18ef7ec7d","fixation","","","img/fixation.png","null","","","test","","","","","","","","","","","","","","","","","","","",""
"296.59999990463257","61650","SARL_v6","SARL_v6pjy5edrn","61005a9bfd2f14f18ef7ec7d","freq","","","img/blue_2bandit_a2.png","70","","70","test","1","","4","","","","square","circle","4","4","1","1","","","","","","","",""
"null","62159","SARL_v6","SARL_v6pjy5edrn","61005a9bfd2f14f18ef7ec7d","freq_resp","","","img/blue_2bandit_a.png","70","img/blue_2bandit_a.png","70","test","","","","","","","","","","","1","","","","","","","","",""
"null","62311","SARL_v6","SARL_v6pjy5edrn","61005a9bfd2f14f18ef7ec7d","fixation","","","img/fixation.png","null","","","test","","","","","","","","","","","","","","","","","","","",""
"280.59999990463257","62594","SARL_v6","SARL_v6pjy5edrn","61005a9bfd2f14f18ef7ec7d","freq","","","img/blue_2bandit_a2.png","70","","70","test","1","","5","","","","square","circle","5","5","1","1","","","","","","","",""
"null","63118","SARL_v6","SARL_v6pjy5edrn","61005a9bfd2f14f18ef7ec7d","freq_resp","","","img/blue_2bandit_a.png","70","img/blue_2bandit_a.png","70","test","","","","","","","","","","","1","","","","","","","","",""
"null","63270","SARL_v6","SARL_v6pjy5edrn","61005a9bfd2f14f18ef7ec7d","fixation","","","img/fixation.png","null","","","test","","","","","","","","","","","","","","","","","","","",""
"257.2000000476837","63529","SARL_v6","SARL_v6pjy5edrn","61005a9bfd2f14f18ef7ec7d","freq","","","img/blue_2bandit_a2.png","70","","70","test","1","","6","","","","square","circle","6","6","1","1","","","","","","","",""
"null","64077","SARL_v6","SARL_v6pjy5edrn","61005a9bfd2f14f18ef7ec7d","freq_resp","","","img/blue_2bandit_a.png","70","img/blue_2bandit_a.png","70","test","","","","","","","","","","","1","","","","","","","","",""
"null","64234","SARL_v6","SARL_v6pjy5edrn","61005a9bfd2f14f18ef7ec7d","fixation","","","img/fixation.png","null","","","test","","","","","","","","","","","","","","","","","","","",""
"87","64323","SARL_v6","SARL_v6pjy5edrn","61005a9bfd2f14f18ef7ec7d","freq","","","img/blue_2bandit_a2.png","70","","70","test","1","","7","","","","square","circle","7","7","1","1","","","","","","","",""
"null","65042","SARL_v6","SARL_v6pjy5edrn","61005a9bfd2f14f18ef7ec7d","freq_resp","","","img/blue_2bandit_a.png","70","img/blue_2bandit_a.png","70","test","","","","","","","","","","","1","","","","","","","","",""
"null","65200","SARL_v6","SARL_v6pjy5edrn","61005a9bfd2f14f18ef7ec7d","fixation","","","img/fixation.png","null","","","test","","","","","","","","","","","","","","","","","","","",""
"75.09999990463257","65277","SARL_v6","SARL_v6pjy5edrn","61005a9bfd2f14f18ef7ec7d","freq","","","img/blue_2bandit_a2.png","70","","70","test","1","","8","","","","square","circle","8","8","1","1","","","","","","","",""
"null","66005","SARL_v6","SARL_v6pjy5edrn","61005a9bfd2f14f18ef7ec7d","freq_resp","","","img/blue_2bandit_a.png","70","img/blue_2bandit_a.png","70","test","","","","","","","","","","","1","","","","","","","","",""
"null","66158","SARL_v6","SARL_v6pjy5edrn","61005a9bfd2f14f18ef7ec7d","fixation","","","img/fixation.png","null","","","test","","","","","","","","","","","","","","","","","","","",""
"97.39999985694885","66258","SARL_v6","SARL_v6pjy5edrn","61005a9bfd2f14f18ef7ec7d","freq","","","img/blue_2bandit_a2.png","70","","70","test","1","","9","","","","square","circle","9","9","1","1","","","","","","","",""
"null","66970","SARL_v6","SARL_v6pjy5edrn","61005a9bfd2f14f18ef7ec7d","freq_resp","","","img/blue_2bandit_a.png","70","img/blue_2bandit_a.png","70","test","","","","","","","","","","","1","","","","","","","","",""
"null","67129","SARL_v6","SARL_v6pjy5edrn","61005a9bfd2f14f18ef7ec7d","fixation","","","img/fixation.png","null","","","test","","","","","","","","","","","","","","","","","","","",""
"177.20000004768372","67308","SARL_v6","SARL_v6pjy5edrn","61005a9bfd2f14f18ef7ec7d","freq","","","img/blue_2bandit_a2.png","70","","70","test","1","","10","","","","square","circle","10","10","1","1","","","","","","","",""
"null","67934","SARL_v6","SARL_v6pjy5edrn","61005a9bfd2f14f18ef7ec7d","freq_resp","","","img/blue_2bandit_a.png","70","img/blue_2bandit_a.png","70","test","","","","","","","","","","","1","","","","","","","","",""
"null","68091","SARL_v6","SARL_v6pjy5edrn","61005a9bfd2f14f18ef7ec7d","fixation","","","img/fixation.png","null","","","test","","","","","","","","","","","","","","","","","","","",""
"221.79999995231628","68315","SARL_v6","SARL_v6pjy5edrn","61005a9bfd2f14f18ef7ec7d","freq","","","img/blue_2bandit_a2.png","70","","70","test","1","","11","","","","square","circle","11","11","1","1","","","","","","","",""
"null","68905","SARL_v6","SARL_v6pjy5edrn","61005a9bfd2f14f18ef7ec7d","freq_resp","","","img/blue_2bandit_a.png","70","img/blue_2bandit_a.png","70","test","","","","","","","","","","","1","","","","","","","","",""
"null","69057","SARL_v6","SARL_v6pjy5edrn","61005a9bfd2f14f18ef7ec7d","fixation","","","img/fixation.png","null","","","test","","","","","","","","","","","","","","","","","","","",""
"245","69304","SARL_v6","SARL_v6pjy5edrn","61005a9bfd2f14f18ef7ec7d","infreq","","","img/orange_2bandit_a2.png","70","","68","test","0","","12","","","","square","circle","12","12","1","0.9166666666666666","","","","","","","",""
"null","69868","SARL_v6","SARL_v6pjy5edrn","61005a9bfd2f14f18ef7ec7d","infreq_resp","","","img/orange_2bandit_a.png","70","img/orange_2bandit_a.png","68","test","","","","","","","","","","","1","","","","","","","","",""
"null","70028","SARL_v6","SARL_v6pjy5edrn","61005a9bfd2f14f18ef7ec7d","fixation","","","img/fixation.png","null","","","test","","","","","","","","","","","","","","","","","","","",""
"381.40000009536743","70412","SARL_v6","SARL_v6pjy5edrn","61005a9bfd2f14f18ef7ec7d","freq","","","img/blue_2bandit_a2.png","70","","70","test","1","","13","","","","square","circle","13","13","1","0.9230769230769231","","","","","","","",""
"null","70844","SARL_v6","SARL_v6pjy5edrn","61005a9bfd2f14f18ef7ec7d","freq_resp","","","img/blue_2bandit_a.png","70","img/blue_2bandit_a.png","70","test","","","","","","","","","","","1","","","","","","","","",""
"null","71002","SARL_v6","SARL_v6pjy5edrn","61005a9bfd2f14f18ef7ec7d","fixation","","","img/fixation.png","null","","","test","","","","","","","","","","","","","","","","","","","",""
"321.59999990463257","71325","SARL_v6","SARL_v6pjy5edrn","61005a9bfd2f14f18ef7ec7d","freq","","","img/blue_2bandit_a2.png","70","","70","test","1","","14","","","","square","circle","14","14","1","0.9285714285714286","","","","","","","",""
"null","71811","SARL_v6","SARL_v6pjy5edrn","61005a9bfd2f14f18ef7ec7d","freq_resp","","","img/blue_2bandit_a.png","70","img/blue_2bandit_a.png","70","test","","","","","","","","","","","1","","","","","","","","",""
"null","71964","SARL_v6","SARL_v6pjy5edrn","61005a9bfd2f14f18ef7ec7d","fixation","","","img/fixation.png","null","","","test","","","","","","","","","","","","","","","","","","","",""
"444.5","72410","SARL_v6","SARL_v6pjy5edrn","61005a9bfd2f14f18ef7ec7d","freq","","","img/blue_2bandit_a2.png","70","","70","test","1","","15","","","","square","circle","15","15","1","0.9333333333333333","","","","","","","",""
"null","72772","SARL_v6","SARL_v6pjy5edrn","61005a9bfd2f14f18ef7ec7d","freq_resp","","","img/blue_2bandit_a.png","70","img/blue_2bandit_a.png","70","test","","","","","","","","","","","1","","","","","","","","",""
"null","72931","SARL_v6","SARL_v6pjy5edrn","61005a9bfd2f14f18ef7ec7d","fixation","","","img/fixation.png","null","","","test","","","","","","","","","","","","","","","","","","","",""
"371.7999999523163","73304","SARL_v6","SARL_v6pjy5edrn","61005a9bfd2f14f18ef7ec7d","freq","","","img/blue_2bandit_a2.png","70","","70","test","1","","16","","","","square","circle","16","16","1","0.9375","","","","","","","",""
"null","73750","SARL_v6","SARL_v6pjy5edrn","61005a9bfd2f14f18ef7ec7d","freq_resp","","","img/blue_2bandit_a.png","70","img/blue_2bandit_a.png","70","test","","","","","","","","","","","1","","","","","","","","",""
"null","73907","SARL_v6","SARL_v6pjy5edrn","61005a9bfd2f14f18ef7ec7d","fixation","","","img/fixation.png","null","","","test","","","","","","","","","","","","","","","","","","","",""
"289.7000000476837","74198","SARL_v6","SARL_v6pjy5edrn","61005a9bfd2f14f18ef7ec7d","freq","","","img/blue_2bandit_a2.png","70","","70","test","1","","17","","","","square","circle","17","17","1","0.9411764705882353","","","","","","","",""
"null","74715","SARL_v6","SARL_v6pjy5edrn","61005a9bfd2f14f18ef7ec7d","freq_resp","","","img/blue_2bandit_a.png","70","img/blue_2bandit_a.png","70","test","","","","","","","","","","","1","","","","","","","","",""
"null","74872","SARL_v6","SARL_v6pjy5edrn","61005a9bfd2f14f18ef7ec7d","fixation","","","img/fixation.png","null","","","test","","","","","","","","","","","","","","","","","","","",""
"145.39999985694885","75019","SARL_v6","SARL_v6pjy5edrn","61005a9bfd2f14f18ef7ec7d","freq","","","img/blue_2bandit_a2.png","70","","70","test","1","","18","","","","square","circle","18","18","1","0.9444444444444444","","","","","","","",""
"null","75677","SARL_v6","SARL_v6pjy5edrn","61005a9bfd2f14f18ef7ec7d","freq_resp","","","img/blue_2bandit_a.png","70","img/blue_2bandit_a.png","70","test","","","","","","","","","","","1","","","","","","","","",""
"null","75834","SARL_v6","SARL_v6pjy5edrn","61005a9bfd2f14f18ef7ec7d","fixation","","","img/fixation.png","null","","","test","","","","","","","","","","","","","","","","","","","",""
"230.39999985694885","76067","SARL_v6","SARL_v6pjy5edrn","61005a9bfd2f14f18ef7ec7d","freq","","","img/blue_2bandit_a2.png","70","","70","test","1","","19","","","","square","circle","19","19","1","0.9473684210526315","","","","","","","",""
"null","76647","SARL_v6","SARL_v6pjy5edrn","61005a9bfd2f14f18ef7ec7d","freq_resp","","","img/blue_2bandit_a.png","70","img/blue_2bandit_a.png","70","test","","","","","","","","","","","1","","","","","","","","",""
"null","76799","SARL_v6","SARL_v6pjy5edrn","61005a9bfd2f14f18ef7ec7d","fixation","","","img/fixation.png","null","","","test","","","","","","","","","","","","","","","","","","","",""
"324.5","77126","SARL_v6","SARL_v6pjy5edrn","61005a9bfd2f14f18ef7ec7d","freq","","","img/blue_2bandit_a2.png","70","","70","test","1","","20","","","","square","circle","20","20","1","0.95","","","","","","","",""
"null","77604","SARL_v6","SARL_v6pjy5edrn","61005a9bfd2f14f18ef7ec7d","freq_resp","","","img/blue_2bandit_a.png","70","img/blue_2bandit_a.png","70","test","","","","","","","","","","","1","","","","","","","","",""
"null","77761","SARL_v6","SARL_v6pjy5edrn","61005a9bfd2f14f18ef7ec7d","fixation","","","img/fixation.png","null","","","test","","","","","","","","","","","","","","","","","","","",""
"304","78067","SARL_v6","SARL_v6pjy5edrn","61005a9bfd2f14f18ef7ec7d","freq","","","img/blue_2bandit_a2.png","70","","70","test","1","","21","","","","square","circle","21","21","1","0.9523809523809523","","","","","","","",""
"null","78578","SARL_v6","SARL_v6pjy5edrn","61005a9bfd2f14f18ef7ec7d","freq_resp","","","img/blue_2bandit_a.png","70","img/blue_2bandit_a.png","70","test","","","","","","","","","","","1","","","","","","","","",""
"null","78736","SARL_v6","SARL_v6pjy5edrn","61005a9bfd2f14f18ef7ec7d","fixation","","","img/fixation.png","null","","","test","","","","","","","","","","","","","","","","","","","",""
"233.10000014305115","78971","SARL_v6","SARL_v6pjy5edrn","61005a9bfd2f14f18ef7ec7d","infreq","","","img/orange_2bandit_a2.png","70","","68","test","0","","22","","","","square","circle","22","22","1","0.9090909090909091","","","","","","","",""
"null","79547","SARL_v6","SARL_v6pjy5edrn","61005a9bfd2f14f18ef7ec7d","infreq_resp","","","img/orange_2bandit_a.png","70","img/orange_2bandit_a.png","68","test","","","","","","","","","","","1","","","","","","","","",""
"null","79705","SARL_v6","SARL_v6pjy5edrn","61005a9bfd2f14f18ef7ec7d","fixation","","","img/fixation.png","null","","","test","","","","","","","","","","","","","","","","","","","",""
"237.70000004768372","79945","SARL_v6","SARL_v6pjy5edrn","61005a9bfd2f14f18ef7ec7d","freq","","","img/blue_2bandit_a2.png","70","","70","test","1","","23","","","","square","circle","23","23","1","0.9130434782608695","","","","","","","",""
"null","80509","SARL_v6","SARL_v6pjy5edrn","61005a9bfd2f14f18ef7ec7d","freq_resp","","","img/blue_2bandit_a.png","70","img/blue_2bandit_a.png","70","test","","","","","","","","","","","1","","","","","","","","",""
"null","80667","SARL_v6","SARL_v6pjy5edrn","61005a9bfd2f14f18ef7ec7d","fixation","","","img/fixation.png","null","","","test","","","","","","","","","","","","","","","","","","","",""
"255","80924","SARL_v6","SARL_v6pjy5edrn","61005a9bfd2f14f18ef7ec7d","freq","","","img/blue_2bandit_a2.png","70","","70","test","1","","24","","","","square","circle","24","24","1","0.9166666666666666","","","","","","","",""
"null","81479","SARL_v6","SARL_v6pjy5edrn","61005a9bfd2f14f18ef7ec7d","freq_resp","","","img/blue_2bandit_a.png","70","img/blue_2bandit_a.png","70","test","","","","","","","","","","","1","","","","","","","","",""
"null","81631","SARL_v6","SARL_v6pjy5edrn","61005a9bfd2f14f18ef7ec7d","fixation","","","img/fixation.png","null","","","test","","","","","","","","","","","","","","","","","","","",""
"309.2999999523163","81942","SARL_v6","SARL_v6pjy5edrn","61005a9bfd2f14f18ef7ec7d","freq","","","img/blue_2bandit_a2.png","70","","70","test","1","","25","","","","square","circle","25","25","1","0.92","","","","","","","",""
"null","82444","SARL_v6","SARL_v6pjy5edrn","61005a9bfd2f14f18ef7ec7d","freq_resp","","","img/blue_2bandit_a.png","70","img/blue_2bandit_a.png","70","test","","","","","","","","","","","1","","","","","","","","",""
"null","82601","SARL_v6","SARL_v6pjy5edrn","61005a9bfd2f14f18ef7ec7d","fixation","","","img/fixation.png","null","","","test","","","","","","","","","","","","","","","","","","","",""
"252.29999995231628","82855","SARL_v6","SARL_v6pjy5edrn","61005a9bfd2f14f18ef7ec7d","freq","","","img/blue_2bandit_a2.png","70","","70","test","1","","26","","","","square","circle","26","26","1","0.9230769230769231","","","","","","","",""
"null","83408","SARL_v6","SARL_v6pjy5edrn","61005a9bfd2f14f18ef7ec7d","freq_resp","","","img/blue_2bandit_a.png","70","img/blue_2bandit_a.png","70","test","","","","","","","","","","","1","","","","","","","","",""
"null","83564","SARL_v6","SARL_v6pjy5edrn","61005a9bfd2f14f18ef7ec7d","fixation","","","img/fixation.png","null","","","test","","","","","","","","","","","","","","","","","","","",""
"823.7000000476837","84390","SARL_v6","SARL_v6pjy5edrn","61005a9bfd2f14f18ef7ec7d","rl","","","img/black_2bandit_a2.png","74","","0","test","","","27","","","-3","square","circle","","0","1","","74","-3","-3","-3","-3","square","1","0"
"null","85151","SARL_v6","SARL_v6pjy5edrn","61005a9bfd2f14f18ef7ec7d","feedback","","","<div class=""verylowPoints_sq""> -3 </div>","null","","na","test","","","NaN","","","","","","","","1","","74","","","","","","1",""
"495.69999980926514","85649","SARL_v6","SARL_v6pjy5edrn","61005a9bfd2f14f18ef7ec7d","freq","","","img/blue_2bandit_a2.png","70","","70","test","1","","28","","","","square","circle","27","1","2","0.9259259259259259","","","","","","","",""
"null","85970","SARL_v6","SARL_v6pjy5edrn","61005a9bfd2f14f18ef7ec7d","freq_resp","","","img/blue_2bandit_a.png","70","img/blue_2bandit_a.png","70","test","","","","","","","","","","","2","","","","","","","","",""
"null","86121","SARL_v6","SARL_v6pjy5edrn","61005a9bfd2f14f18ef7ec7d","fixation","","","img/fixation.png","null","","","test","","","","","","","","","","","","","","","","","","","",""
"323.5","86447","SARL_v6","SARL_v6pjy5edrn","61005a9bfd2f14f18ef7ec7d","freq","","","img/blue_2bandit_a2.png","70","","70","test","1","","29","","","","square","circle","28","2","2","0.9285714285714286","","","","","","","",""
"null","86941","SARL_v6","SARL_v6pjy5edrn","61005a9bfd2f14f18ef7ec7d","freq_resp","","","img/blue_2bandit_a.png","70","img/blue_2bandit_a.png","70","test","","","","","","","","","","","2","","","","","","","","",""
"null","87098","SARL_v6","SARL_v6pjy5edrn","61005a9bfd2f14f18ef7ec7d","fixation","","","img/fixation.png","null","","","test","","","","","","","","","","","","","","","","","","","",""
"312.09999990463257","87412","SARL_v6","SARL_v6pjy5edrn","61005a9bfd2f14f18ef7ec7d","freq","","","img/blue_2bandit_a2.png","70","","70","test","1","","30","","","","square","circle","29","3","2","0.9310344827586207","","","","","","","",""
"null","87916","SARL_v6","SARL_v6pjy5edrn","61005a9bfd2f14f18ef7ec7d","freq_resp","","","img/blue_2bandit_a.png","70","img/blue_2bandit_a.png","70","test","","","","","","","","","","","2","","","","","","","","",""
"null","88068","SARL_v6","SARL_v6pjy5edrn","61005a9bfd2f14f18ef7ec7d","fixation","","","img/fixation.png","null","","","test","","","","","","","","","","","","","","","","","","","",""
"239.5","88310","SARL_v6","SARL_v6pjy5edrn","61005a9bfd2f14f18ef7ec7d","freq","","","img/blue_2bandit_a2.png","70","","70","test","1","","31","","","","square","circle","30","4","2","0.9333333333333333","","","","","","","",""
"null","88876","SARL_v6","SARL_v6pjy5edrn","61005a9bfd2f14f18ef7ec7d","freq_resp","","","img/blue_2bandit_a.png","70","img/blue_2bandit_a.png","70","test","","","","","","","","","","","2","","","","","","","","",""
"null","89028","SARL_v6","SARL_v6pjy5edrn","61005a9bfd2f14f18ef7ec7d","fixation","","","img/fixation.png","null","","","test","","","","","","","","","","","","","","","","","","","",""
"325.19999980926514","89355","SARL_v6","SARL_v6pjy5edrn","61005a9bfd2f14f18ef7ec7d","freq","","","img/blue_2bandit_a2.png","70","","70","test","1","","32","","","","square","circle","31","5","2","0.9354838709677419","","","","","","","",""
"null","89837","SARL_v6","SARL_v6pjy5edrn","61005a9bfd2f14f18ef7ec7d","freq_resp","","","img/blue_2bandit_a.png","70","img/blue_2bandit_a.png","70","test","","","","","","","","","","","2","","","","","","","","",""
"null","89990","SARL_v6","SARL_v6pjy5edrn","61005a9bfd2f14f18ef7ec7d","fixation","","","img/fixation.png","null","","","test","","","","","","","","","","","","","","","","","","","",""
"288.5","90280","SARL_v6","SARL_v6pjy5edrn","61005a9bfd2f14f18ef7ec7d","freq","","","img/blue_2bandit_a2.png","70","","70","test","1","","33","","","","square","circle","32","6","2","0.9375","","","","","","","",""
"null","90796","SARL_v6","SARL_v6pjy5edrn","61005a9bfd2f14f18ef7ec7d","freq_resp","","","img/blue_2bandit_a.png","70","img/blue_2bandit_a.png","70","test","","","","","","","","","","","2","","","","","","","","",""
"null","90949","SARL_v6","SARL_v6pjy5edrn","61005a9bfd2f14f18ef7ec7d","fixation","","","img/fixation.png","null","","","test","","","","","","","","","","","","","","","","","","","",""
"291.90000009536743","91243","SARL_v6","SARL_v6pjy5edrn","61005a9bfd2f14f18ef7ec7d","freq","","","img/blue_2bandit_a2.png","70","","70","test","1","","34","","","","square","circle","33","7","2","0.9393939393939394","","","","","","","",""
"null","91753","SARL_v6","SARL_v6pjy5edrn","61005a9bfd2f14f18ef7ec7d","freq_resp","","","img/blue_2bandit_a.png","70","img/blue_2bandit_a.png","70","test","","","","","","","","","","","2","","","","","","","","",""
"null","91905","SARL_v6","SARL_v6pjy5edrn","61005a9bfd2f14f18ef7ec7d","fixation","","","img/fixation.png","null","","","test","","","","","","","","","","","","","","","","","","","",""
"378.59999990463257","92286","SARL_v6","SARL_v6pjy5edrn","61005a9bfd2f14f18ef7ec7d","infreq","","","img/orange_2bandit_a2.png","68","","68","test","1","","35","","","","square","circle","34","8","2","0.9411764705882353","","","","","","","",""
"null","92712","SARL_v6","SARL_v6pjy5edrn","61005a9bfd2f14f18ef7ec7d","infreq_resp","","","img/orange_2bandit_a.png","68","img/orange_2bandit_a.png","68","test","","","","","","","","","","","2","","","","","","","","",""
"null","92868","SARL_v6","SARL_v6pjy5edrn","61005a9bfd2f14f18ef7ec7d","fixation","","","img/fixation.png","null","","","test","","","","","","","","","","","","","","","","","","","",""
"401.5","93271","SARL_v6","SARL_v6pjy5edrn","61005a9bfd2f14f18ef7ec7d","freq","","","img/blue_2bandit_a2.png","70","","70","test","1","","36","","","","square","circle","35","9","2","0.9428571428571428","","","","","","","",""
"null","93686","SARL_v6","SARL_v6pjy5edrn","61005a9bfd2f14f18ef7ec7d","freq_resp","","","img/blue_2bandit_a.png","70","img/blue_2bandit_a.png","70","test","","","","","","","","","","","2","","","","","","","","",""
"null","93840","SARL_v6","SARL_v6pjy5edrn","61005a9bfd2f14f18ef7ec7d","fixation","","","img/fixation.png","null","","","test","","","","","","","","","","","","","","","","","","","",""
"300.10000014305115","94142","SARL_v6","SARL_v6pjy5edrn","61005a9bfd2f14f18ef7ec7d","freq","","","img/blue_2bandit_a2.png","70","","70","test","1","","37","","","","square","circle","36","10","2","0.9444444444444444","","","","","","","",""
"null","94648","SARL_v6","SARL_v6pjy5edrn","61005a9bfd2f14f18ef7ec7d","freq_resp","","","img/blue_2bandit_a.png","70","img/blue_2bandit_a.png","70","test","","","","","","","","","","","2","","","","","","","","",""
"null","94807","SARL_v6","SARL_v6pjy5edrn","61005a9bfd2f14f18ef7ec7d","fixation","","","img/fixation.png","null","","","test","","","","","","","","","","","","","","","","","","","",""
"170.29999995231628","94979","SARL_v6","SARL_v6pjy5edrn","61005a9bfd2f14f18ef7ec7d","freq","","","img/blue_2bandit_a2.png","70","","70","test","1","","38","","","","square","circle","37","11","2","0.9459459459459459","","","","","","","",""
"null","95615","SARL_v6","SARL_v6pjy5edrn","61005a9bfd2f14f18ef7ec7d","freq_resp","","","img/blue_2bandit_a.png","70","img/blue_2bandit_a.png","70","test","","","","","","","","","","","2","","","","","","","","",""
"null","95772","SARL_v6","SARL_v6pjy5edrn","61005a9bfd2f14f18ef7ec7d","fixation","","","img/fixation.png","null","","","test","","","","","","","","","","","","","","","","","","","",""
"280","96053","SARL_v6","SARL_v6pjy5edrn","61005a9bfd2f14f18ef7ec7d","freq","","","img/blue_2bandit_a2.png","70","","70","test","1","","39","","","","square","circle","38","12","2","0.9473684210526315","","","","","","","",""
"null","96580","SARL_v6","SARL_v6pjy5edrn","61005a9bfd2f14f18ef7ec7d","freq_resp","","","img/blue_2bandit_a.png","70","img/blue_2bandit_a.png","70","test","","","","","","","","","","","2","","","","","","","","",""
"null","96732","SARL_v6","SARL_v6pjy5edrn","61005a9bfd2f14f18ef7ec7d","fixation","","","img/fixation.png","null","","","test","","","","","","","","","","","","","","","","","","","",""
"254.79999995231628","96989","SARL_v6","SARL_v6pjy5edrn","61005a9bfd2f14f18ef7ec7d","freq","","","img/blue_2bandit_a2.png","70","","70","test","1","","40","","","","square","circle","39","13","2","0.9487179487179487","","","","","","","",""
"null","97539","SARL_v6","SARL_v6pjy5edrn","61005a9bfd2f14f18ef7ec7d","freq_resp","","","img/blue_2bandit_a.png","70","img/blue_2bandit_a.png","70","test","","","","","","","","","","","2","","","","","","","","",""
"null","97692","SARL_v6","SARL_v6pjy5edrn","61005a9bfd2f14f18ef7ec7d","fixation","","","img/fixation.png","null","","","test","","","","","","","","","","","","","","","","","","","",""
"240.5","97935","SARL_v6","SARL_v6pjy5edrn","61005a9bfd2f14f18ef7ec7d","freq","","","img/blue_2bandit_a2.png","70","","70","test","1","","41","","","","square","circle","40","14","2","0.95","","","","","","","",""
"null","98511","SARL_v6","SARL_v6pjy5edrn","61005a9bfd2f14f18ef7ec7d","freq_resp","","","img/blue_2bandit_a.png","70","img/blue_2bandit_a.png","70","test","","","","","","","","","","","2","","","","","","","","",""
"null","98664","SARL_v6","SARL_v6pjy5edrn","61005a9bfd2f14f18ef7ec7d","fixation","","","img/fixation.png","null","","","test","","","","","","","","","","","","","","","","","","","",""
"394.40000009536743","99060","SARL_v6","SARL_v6pjy5edrn","61005a9bfd2f14f18ef7ec7d","infreq","","","img/orange_2bandit_a2.png","68","","68","test","1","","42","","","","square","circle","41","15","2","0.9512195121951219","","","","","","","",""
"null","99472","SARL_v6","SARL_v6pjy5edrn","61005a9bfd2f14f18ef7ec7d","infreq_resp","","","img/orange_2bandit_a.png","68","img/orange_2bandit_a.png","68","test","","","","","","","","","","","2","","","","","","","","",""
"null","99631","SARL_v6","SARL_v6pjy5edrn","61005a9bfd2f14f18ef7ec7d","fixation","","","img/fixation.png","null","","","test","","","","","","","","","","","","","","","","","","","",""
"536.0999999046326","100169","SARL_v6","SARL_v6pjy5edrn","61005a9bfd2f14f18ef7ec7d","freq","","","img/blue_2bandit_a2.png","70","","70","test","1","","43","","","","square","circle","42","16","2","0.9523809523809523","","","","","","","",""
"null","100435","SARL_v6","SARL_v6pjy5edrn","61005a9bfd2f14f18ef7ec7d","freq_resp","","","img/blue_2bandit_a.png","70","img/blue_2bandit_a.png","70","test","","","","","","","","","","","2","","","","","","","","",""
"null","100592","SARL_v6","SARL_v6pjy5edrn","61005a9bfd2f14f18ef7ec7d","fixation","","","img/fixation.png","null","","","test","","","","","","","","","","","","","","","","","","","",""
"372.2000000476837","100966","SARL_v6","SARL_v6pjy5edrn","61005a9bfd2f14f18ef7ec7d","freq","","","img/blue_2bandit_a2.png","70","","70","test","1","","44","","","","square","circle","43","17","2","0.9534883720930233","","","","","","","",""
"null","101411","SARL_v6","SARL_v6pjy5edrn","61005a9bfd2f14f18ef7ec7d","freq_resp","","","img/blue_2bandit_a.png","70","img/blue_2bandit_a.png","70","test","","","","","","","","","","","2","","","","","","","","",""
"null","101567","SARL_v6","SARL_v6pjy5edrn","61005a9bfd2f14f18ef7ec7d","fixation","","","img/fixation.png","null","","","test","","","","","","","","","","","","","","","","","","","",""
"252.20000004768372","101821","SARL_v6","SARL_v6pjy5edrn","61005a9bfd2f14f18ef7ec7d","freq","","","img/blue_2bandit_a2.png","70","","70","test","1","","45","","","","square","circle","44","18","2","0.9545454545454546","","","","","","","",""
"null","102382","SARL_v6","SARL_v6pjy5edrn","61005a9bfd2f14f18ef7ec7d","freq_resp","","","img/blue_2bandit_a.png","70","img/blue_2bandit_a.png","70","test","","","","","","","","","","","2","","","","","","","","",""
"null","102535","SARL_v6","SARL_v6pjy5edrn","61005a9bfd2f14f18ef7ec7d","fixation","","","img/fixation.png","null","","","test","","","","","","","","","","","","","","","","","","","",""
"181.09999990463257","102718","SARL_v6","SARL_v6pjy5edrn","61005a9bfd2f14f18ef7ec7d","freq","","","img/blue_2bandit_a2.png","70","","70","test","1","","46","","","","square","circle","45","19","2","0.9555555555555556","","","","","","","",""
"null","103339","SARL_v6","SARL_v6pjy5edrn","61005a9bfd2f14f18ef7ec7d","freq_resp","","","img/blue_2bandit_a.png","70","img/blue_2bandit_a.png","70","test","","","","","","","","","","","2","","","","","","","","",""
"null","103492","SARL_v6","SARL_v6pjy5edrn","61005a9bfd2f14f18ef7ec7d","fixation","","","img/fixation.png","null","","","test","","","","","","","","","","","","","","","","","","","",""
"254.79999995231628","103749","SARL_v6","SARL_v6pjy5edrn","61005a9bfd2f14f18ef7ec7d","freq","","","img/blue_2bandit_a2.png","70","","70","test","1","","47","","","","square","circle","46","20","2","0.9565217391304348","","","","","","","",""
"null","104298","SARL_v6","SARL_v6pjy5edrn","61005a9bfd2f14f18ef7ec7d","freq_resp","","","img/blue_2bandit_a.png","70","img/blue_2bandit_a.png","70","test","","","","","","","","","","","2","","","","","","","","",""
"null","104450","SARL_v6","SARL_v6pjy5edrn","61005a9bfd2f14f18ef7ec7d","fixation","","","img/fixation.png","null","","","test","","","","","","","","","","","","","","","","","","","",""
"276.2000000476837","104728","SARL_v6","SARL_v6pjy5edrn","61005a9bfd2f14f18ef7ec7d","freq","","","img/blue_2bandit_a2.png","70","","70","test","1","","48","","","","square","circle","47","21","2","0.9574468085106383","","","","","","","",""
"null","105258","SARL_v6","SARL_v6pjy5edrn","61005a9bfd2f14f18ef7ec7d","freq_resp","","","img/blue_2bandit_a.png","70","img/blue_2bandit_a.png","70","test","","","","","","","","","","","2","","","","","","","","",""
"null","105410","SARL_v6","SARL_v6pjy5edrn","61005a9bfd2f14f18ef7ec7d","fixation","","","img/fixation.png","null","","","test","","","","","","","","","","","","","","","","","","","",""
"null","106215","SARL_v6","SARL_v6pjy5edrn","61005a9bfd2f14f18ef7ec7d","freq","","","img/blue_2bandit_a2.png","null","","70","test","0","","49","","","","square","circle","48","22","2","0.9375","","","","","","","",""
"null","106374","SARL_v6","SARL_v6pjy5edrn","61005a9bfd2f14f18ef7ec7d","fixation","","","img/fixation.png","null","","","test","","","","","","","","","","","","","","","","","","","",""
"490","106866","SARL_v6","SARL_v6pjy5edrn","61005a9bfd2f14f18ef7ec7d","freq","","","img/blue_2bandit_a2.png","70","","70","test","1","","50","","","","square","circle","49","23","2","0.9387755102040817","","","","","","","",""
"null","107182","SARL_v6","SARL_v6pjy5edrn","61005a9bfd2f14f18ef7ec7d","freq_resp","","","img/blue_2bandit_a.png","70","img/blue_2bandit_a.png","70","test","","","","","","","","","","","2","","","","","","","","",""
"null","107340","SARL_v6","SARL_v6pjy5edrn","61005a9bfd2f14f18ef7ec7d","fixation","","","img/fixation.png","null","","","test","","","","","","","","","","","","","","","","","","","",""
"243.29999995231628","107586","SARL_v6","SARL_v6pjy5edrn","61005a9bfd2f14f18ef7ec7d","freq","","","img/blue_2bandit_a2.png","70","","70","test","1","","51","","","","square","circle","50","24","2","0.94","","","","","","","",""
"null","108150","SARL_v6","SARL_v6pjy5edrn","61005a9bfd2f14f18ef7ec7d","freq_resp","","","img/blue_2bandit_a.png","70","img/blue_2bandit_a.png","70","test","","","","","","","","","","","2","","","","","","","","",""
"null","108302","SARL_v6","SARL_v6pjy5edrn","61005a9bfd2f14f18ef7ec7d","fixation","","","img/fixation.png","null","","","test","","","","","","","","","","","","","","","","","","","",""
"623.4000000953674","108928","SARL_v6","SARL_v6pjy5edrn","61005a9bfd2f14f18ef7ec7d","rl","","","img/black_2bandit_a2.png","75","","0","test","","","52","","","-8","square","circle","","0","2","","75","-8","-5","-5","-8","circle","2","0"
"null","109691","SARL_v6","SARL_v6pjy5edrn","61005a9bfd2f14f18ef7ec7d","feedback","","","<div class=""verylowPoints""> -8 </div>","null","","na","test","","","NaN","","","","","","","","2","","75","","","","","","2",""
"643.2999999523163","110336","SARL_v6","SARL_v6pjy5edrn","61005a9bfd2f14f18ef7ec7d","freq","","","img/blue_2bandit_a2.png","70","","70","test","1","","53","","","","square","circle","51","1","3","0.9411764705882353","","","","","","","",""
"null","110500","SARL_v6","SARL_v6pjy5edrn","61005a9bfd2f14f18ef7ec7d","freq_resp","","","img/blue_2bandit_a.png","70","img/blue_2bandit_a.png","70","test","","","","","","","","","","","3","","","","","","","","",""
"null","110666","SARL_v6","SARL_v6pjy5edrn","61005a9bfd2f14f18ef7ec7d","fixation","","","img/fixation.png","null","","","test","","","","","","","","","","","","","","","","","","","",""
"391.7000000476837","111060","SARL_v6","SARL_v6pjy5edrn","61005a9bfd2f14f18ef7ec7d","freq","","","img/blue_2bandit_a2.png","70","","70","test","1","","54","","","","square","circle","52","2","3","0.9423076923076923","","","","","","","",""
"null","111484","SARL_v6","SARL_v6pjy5edrn","61005a9bfd2f14f18ef7ec7d","freq_resp","","","img/blue_2bandit_a.png","70","img/blue_2bandit_a.png","70","test","","","","","","","","","","","3","","","","","","","","",""
"null","111640","SARL_v6","SARL_v6pjy5edrn","61005a9bfd2f14f18ef7ec7d","fixation","","","img/fixation.png","null","","","test","","","","","","","","","","","","","","","","","","","",""
"329.19999980926514","111971","SARL_v6","SARL_v6pjy5edrn","61005a9bfd2f14f18ef7ec7d","freq","","","img/blue_2bandit_a2.png","70","","70","test","1","","55","","","","square","circle","53","3","3","0.9433962264150944","","","","","","","",""
"null","112457","SARL_v6","SARL_v6pjy5edrn","61005a9bfd2f14f18ef7ec7d","freq_resp","","","img/blue_2bandit_a.png","70","img/blue_2bandit_a.png","70","test","","","","","","","","","","","3","","","","","","","","",""
"null","112610","SARL_v6","SARL_v6pjy5edrn","61005a9bfd2f14f18ef7ec7d","fixation","","","img/fixation.png","null","","","test","","","","","","","","","","","","","","","","","","","",""
"374.7000000476837","112987","SARL_v6","SARL_v6pjy5edrn","61005a9bfd2f14f18ef7ec7d","freq","","","img/blue_2bandit_a2.png","70","","70","test","1","","56","","","","square","circle","54","4","3","0.9444444444444444","","","","","","","",""
"null","113427","SARL_v6","SARL_v6pjy5edrn","61005a9bfd2f14f18ef7ec7d","freq_resp","","","img/blue_2bandit_a.png","70","img/blue_2bandit_a.png","70","test","","","","","","","","","","","3","","","","","","","","",""
"null","113586","SARL_v6","SARL_v6pjy5edrn","61005a9bfd2f14f18ef7ec7d","fixation","","","img/fixation.png","null","","","test","","","","","","","","","","","","","","","","","","","",""
"349.60000014305115","113937","SARL_v6","SARL_v6pjy5edrn","61005a9bfd2f14f18ef7ec7d","freq","","","img/blue_2bandit_a2.png","70","","70","test","1","","57","","","","square","circle","55","5","3","0.9454545454545454","","","","","","","",""
"null","114401","SARL_v6","SARL_v6pjy5edrn","61005a9bfd2f14f18ef7ec7d","freq_resp","","","img/blue_2bandit_a.png","70","img/blue_2bandit_a.png","70","test","","","","","","","","","","","3","","","","","","","","",""
"null","114554","SARL_v6","SARL_v6pjy5edrn","61005a9bfd2f14f18ef7ec7d","fixation","","","img/fixation.png","null","","","test","","","","","","","","","","","","","","","","","","","",""
"334.59999990463257","114891","SARL_v6","SARL_v6pjy5edrn","61005a9bfd2f14f18ef7ec7d","freq","","","img/blue_2bandit_a2.png","70","","70","test","1","","58","","","","square","circle","56","6","3","0.9464285714285714","","","","","","","",""
"null","115361","SARL_v6","SARL_v6pjy5edrn","61005a9bfd2f14f18ef7ec7d","freq_resp","","","img/blue_2bandit_a.png","70","img/blue_2bandit_a.png","70","test","","","","","","","","","","","3","","","","","","","","",""
"null","115513","SARL_v6","SARL_v6pjy5edrn","61005a9bfd2f14f18ef7ec7d","fixation","","","img/fixation.png","null","","","test","","","","","","","","","","","","","","","","","","","",""
"283.39999985694885","115800","SARL_v6","SARL_v6pjy5edrn","61005a9bfd2f14f18ef7ec7d","freq","","","img/blue_2bandit_a2.png","70","","70","test","1","","59","","","","square","circle","57","7","3","0.9473684210526315","","","","","","","",""
"null","116333","SARL_v6","SARL_v6pjy5edrn","61005a9bfd2f14f18ef7ec7d","freq_resp","","","img/blue_2bandit_a.png","70","img/blue_2bandit_a.png","70","test","","","","","","","","","","","3","","","","","","","","",""
"null","116485","SARL_v6","SARL_v6pjy5edrn","61005a9bfd2f14f18ef7ec7d","fixation","","","img/fixation.png","null","","","test","","","","","","","","","","","","","","","","","","","",""
"179.79999995231628","116667","SARL_v6","SARL_v6pjy5edrn","61005a9bfd2f14f18ef7ec7d","infreq","","","img/orange_2bandit_a2.png","70","","68","test","0","","60","","","","square","circle","58","8","3","0.9310344827586207","","","","","","","",""
"null","117296","SARL_v6","SARL_v6pjy5edrn","61005a9bfd2f14f18ef7ec7d","infreq_resp","","","img/orange_2bandit_a.png","70","img/orange_2bandit_a.png","68","test","","","","","","","","","","","3","","","","","","","","",""
"null","117448","SARL_v6","SARL_v6pjy5edrn","61005a9bfd2f14f18ef7ec7d","fixation","","","img/fixation.png","null","","","test","","","","","","","","","","","","","","","","","","","",""
"346.89999985694885","117796","SARL_v6","SARL_v6pjy5edrn","61005a9bfd2f14f18ef7ec7d","infreq","","","img/orange_2bandit_a2.png","68","","68","test","1","","61","","","","square","circle","59","9","3","0.9322033898305084","","","","","","","",""
"null","118264","SARL_v6","SARL_v6pjy5edrn","61005a9bfd2f14f18ef7ec7d","infreq_resp","","","img/orange_2bandit_a.png","68","img/orange_2bandit_a.png","68","test","","","","","","","","","","","3","","","","","","","","",""
"null","118418","SARL_v6","SARL_v6pjy5edrn","61005a9bfd2f14f18ef7ec7d","fixation","","","img/fixation.png","null","","","test","","","","","","","","","","","","","","","","","","","",""
"371.5","118791","SARL_v6","SARL_v6pjy5edrn","61005a9bfd2f14f18ef7ec7d","freq","","","img/blue_2bandit_a2.png","70","","70","test","1","","62","","","","square","circle","60","10","3","0.9333333333333333","","","","","","","",""
"null","119227","SARL_v6","SARL_v6pjy5edrn","61005a9bfd2f14f18ef7ec7d","freq_resp","","","img/blue_2bandit_a.png","70","img/blue_2bandit_a.png","70","test","","","","","","","","","","","3","","","","","","","","",""
"null","119386","SARL_v6","SARL_v6pjy5edrn","61005a9bfd2f14f18ef7ec7d","fixation","","","img/fixation.png","null","","","test","","","","","","","","","","","","","","","","","","","",""
"398.2999999523163","119786","SARL_v6","SARL_v6pjy5edrn","61005a9bfd2f14f18ef7ec7d","freq","","","img/blue_2bandit_a2.png","70","","70","test","1","","63","","","","square","circle","61","11","3","0.9344262295081968","","","","","","","",""
"null","120206","SARL_v6","SARL_v6pjy5edrn","61005a9bfd2f14f18ef7ec7d","freq_resp","","","img/blue_2bandit_a.png","70","img/blue_2bandit_a.png","70","test","","","","","","","","","","","3","","","","","","","","",""
"null","120364","SARL_v6","SARL_v6pjy5edrn","61005a9bfd2f14f18ef7ec7d","fixation","","","img/fixation.png","null","","","test","","","","","","","","","","","","","","","","","","","",""
"330.2999999523163","120697","SARL_v6","SARL_v6pjy5edrn","61005a9bfd2f14f18ef7ec7d","freq","","","img/blue_2bandit_a2.png","70","","70","test","1","","64","","","","square","circle","62","12","3","0.9354838709677419","","","","","","","",""
"null","121180","SARL_v6","SARL_v6pjy5edrn","61005a9bfd2f14f18ef7ec7d","freq_resp","","","img/blue_2bandit_a.png","70","img/blue_2bandit_a.png","70","test","","","","","","","","","","","3","","","","","","","","",""
"null","121336","SARL_v6","SARL_v6pjy5edrn","61005a9bfd2f14f18ef7ec7d","fixation","","","img/fixation.png","null","","","test","","","","","","","","","","","","","","","","","","","",""
"310.2000000476837","121648","SARL_v6","SARL_v6pjy5edrn","61005a9bfd2f14f18ef7ec7d","freq","","","img/blue_2bandit_a2.png","70","","70","test","1","","65","","","","square","circle","63","13","3","0.9365079365079365","","","","","","","",""
"null","122154","SARL_v6","SARL_v6pjy5edrn","61005a9bfd2f14f18ef7ec7d","freq_resp","","","img/blue_2bandit_a.png","70","img/blue_2bandit_a.png","70","test","","","","","","","","","","","3","","","","","","","","",""
"null","122311","SARL_v6","SARL_v6pjy5edrn","61005a9bfd2f14f18ef7ec7d","fixation","","","img/fixation.png","null","","","test","","","","","","","","","","","","","","","","","","","",""
"332.10000014305115","122645","SARL_v6","SARL_v6pjy5edrn","61005a9bfd2f14f18ef7ec7d","freq","","","img/blue_2bandit_a2.png","70","","70","test","1","","66","","","","square","circle","64","14","3","0.9375","","","","","","","",""
"null","123116","SARL_v6","SARL_v6pjy5edrn","61005a9bfd2f14f18ef7ec7d","freq_resp","","","img/blue_2bandit_a.png","70","img/blue_2bandit_a.png","70","test","","","","","","","","","","","3","","","","","","","","",""
"null","123268","SARL_v6","SARL_v6pjy5edrn","61005a9bfd2f14f18ef7ec7d","fixation","","","img/fixation.png","null","","","test","","","","","","","","","","","","","","","","","","","",""
"298.59999990463257","123568","SARL_v6","SARL_v6pjy5edrn","61005a9bfd2f14f18ef7ec7d","freq","","","img/blue_2bandit_a2.png","70","","70","test","1","","67","","","","square","circle","65","15","3","0.9384615384615385","","","","","","","",""
"null","124072","SARL_v6","SARL_v6pjy5edrn","61005a9bfd2f14f18ef7ec7d","freq_resp","","","img/blue_2bandit_a.png","70","img/blue_2bandit_a.png","70","test","","","","","","","","","","","3","","","","","","","","",""
"null","124225","SARL_v6","SARL_v6pjy5edrn","61005a9bfd2f14f18ef7ec7d","fixation","","","img/fixation.png","null","","","test","","","","","","","","","","","","","","","","","","","",""
"245.09999990463257","124472","SARL_v6","SARL_v6pjy5edrn","61005a9bfd2f14f18ef7ec7d","freq","","","img/blue_2bandit_a2.png","70","","70","test","1","","68","","","","square","circle","66","16","3","0.9393939393939394","","","","","","","",""
"null","125044","SARL_v6","SARL_v6pjy5edrn","61005a9bfd2f14f18ef7ec7d","freq_resp","","","img/blue_2bandit_a.png","70","img/blue_2bandit_a.png","70","test","","","","","","","","","","","3","","","","","","","","",""
"null","125200","SARL_v6","SARL_v6pjy5edrn","61005a9bfd2f14f18ef7ec7d","fixation","","","img/fixation.png","null","","","test","","","","","","","","","","","","","","","","","","","",""
"273","125475","SARL_v6","SARL_v6pjy5edrn","61005a9bfd2f14f18ef7ec7d","freq","","","img/blue_2bandit_a2.png","70","","70","test","1","","69","","","","square","circle","67","17","3","0.9402985074626866","","","","","","","",""
"null","126011","SARL_v6","SARL_v6pjy5edrn","61005a9bfd2f14f18ef7ec7d","freq_resp","","","img/blue_2bandit_a.png","70","img/blue_2bandit_a.png","70","test","","","","","","","","","","","3","","","","","","","","",""
"null","126164","SARL_v6","SARL_v6pjy5edrn","61005a9bfd2f14f18ef7ec7d","fixation","","","img/fixation.png","null","","","test","","","","","","","","","","","","","","","","","","","",""
"316.19999980926514","126482","SARL_v6","SARL_v6pjy5edrn","61005a9bfd2f14f18ef7ec7d","freq","","","img/blue_2bandit_a2.png","70","","70","test","1","","70","","","","square","circle","68","18","3","0.9411764705882353","","","","","","","",""
"null","126978","SARL_v6","SARL_v6pjy5edrn","61005a9bfd2f14f18ef7ec7d","freq_resp","","","img/blue_2bandit_a.png","70","img/blue_2bandit_a.png","70","test","","","","","","","","","","","3","","","","","","","","",""
"null","127130","SARL_v6","SARL_v6pjy5edrn","61005a9bfd2f14f18ef7ec7d","fixation","","","img/fixation.png","null","","","test","","","","","","","","","","","","","","","","","","","",""
"279.59999990463257","127411","SARL_v6","SARL_v6pjy5edrn","61005a9bfd2f14f18ef7ec7d","freq","","","img/blue_2bandit_a2.png","70","","70","test","1","","71","","","","square","circle","69","19","3","0.9420289855072463","","","","","","","",""
"null","127936","SARL_v6","SARL_v6pjy5edrn","61005a9bfd2f14f18ef7ec7d","freq_resp","","","img/blue_2bandit_a.png","70","img/blue_2bandit_a.png","70","test","","","","","","","","","","","3","","","","","","","","",""
"null","128089","SARL_v6","SARL_v6pjy5edrn","61005a9bfd2f14f18ef7ec7d","fixation","","","img/fixation.png","null","","","test","","","","","","","","","","","","","","","","","","","",""
"318.2000000476837","128409","SARL_v6","SARL_v6pjy5edrn","61005a9bfd2f14f18ef7ec7d","freq","","","img/blue_2bandit_a2.png","70","","70","test","1","","72","","","","square","circle","70","20","3","0.9428571428571428","","","","","","","",""
"null","128898","SARL_v6","SARL_v6pjy5edrn","61005a9bfd2f14f18ef7ec7d","freq_resp","","","img/blue_2bandit_a.png","70","img/blue_2bandit_a.png","70","test","","","","","","","","","","","3","","","","","","","","",""
"null","129050","SARL_v6","SARL_v6pjy5edrn","61005a9bfd2f14f18ef7ec7d","fixation","","","img/fixation.png","null","","","test","","","","","","","","","","","","","","","","","","","",""
"278.2999999523163","129331","SARL_v6","SARL_v6pjy5edrn","61005a9bfd2f14f18ef7ec7d","freq","","","img/blue_2bandit_a2.png","70","","70","test","1","","73","","","","square","circle","71","21","3","0.9436619718309859","","","","","","","",""
"null","129861","SARL_v6","SARL_v6pjy5edrn","61005a9bfd2f14f18ef7ec7d","freq_resp","","","img/blue_2bandit_a.png","70","img/blue_2bandit_a.png","70","test","","","","","","","","","","","3","","","","","","","","",""
"null","130019","SARL_v6","SARL_v6pjy5edrn","61005a9bfd2f14f18ef7ec7d","fixation","","","img/fixation.png","null","","","test","","","","","","","","","","","","","","","","","","","",""
"333.5","130355","SARL_v6","SARL_v6pjy5edrn","61005a9bfd2f14f18ef7ec7d","freq","","","img/blue_2bandit_a2.png","70","","70","test","1","","74","","","","square","circle","72","22","3","0.9444444444444444","","","","","","","",""
"null","130838","SARL_v6","SARL_v6pjy5edrn","61005a9bfd2f14f18ef7ec7d","freq_resp","","","img/blue_2bandit_a.png","70","img/blue_2bandit_a.png","70","test","","","","","","","","","","","3","","","","","","","","",""
"null","130995","SARL_v6","SARL_v6pjy5edrn","61005a9bfd2f14f18ef7ec7d","fixation","","","img/fixation.png","null","","","test","","","","","","","","","","","","","","","","","","","",""
"403.60000014305115","131400","SARL_v6","SARL_v6pjy5edrn","61005a9bfd2f14f18ef7ec7d","rl","","","img/black_2bandit_a2.png","75","","0","test","","","75","","","-8","square","circle","","0","3","","75","-8","-4","-4","-8","circle","3","0"
"null","132162","SARL_v6","SARL_v6pjy5edrn","61005a9bfd2f14f18ef7ec7d","feedback","","","<div class=""verylowPoints""> -8 </div>","null","","na","test","","","NaN","","","","","","","","3","","75","","","","","","3",""
"240","132404","SARL_v6","SARL_v6pjy5edrn","61005a9bfd2f14f18ef7ec7d","freq","","","img/blue_2bandit_a2.png","70","","70","test","1","","76","","","","square","circle","73","1","4","0.9452054794520548","","","","","","","",""
"null","132979","SARL_v6","SARL_v6pjy5edrn","61005a9bfd2f14f18ef7ec7d","freq_resp","","","img/blue_2bandit_a.png","70","img/blue_2bandit_a.png","70","test","","","","","","","","","","","4","","","","","","","","",""
"null","133132","SARL_v6","SARL_v6pjy5edrn","61005a9bfd2f14f18ef7ec7d","fixation","","","img/fixation.png","null","","","test","","","","","","","","","","","","","","","","","","","",""
"94.70000004768372","133228","SARL_v6","SARL_v6pjy5edrn","61005a9bfd2f14f18ef7ec7d","freq","","","img/blue_2bandit_a2.png","70","","70","test","1","","77","","","","square","circle","74","2","4","0.9459459459459459","","","","","","","",""
"null","133937","SARL_v6","SARL_v6pjy5edrn","61005a9bfd2f14f18ef7ec7d","freq_resp","","","img/blue_2bandit_a.png","70","img/blue_2bandit_a.png","70","test","","","","","","","","","","","4","","","","","","","","",""
"null","134096","SARL_v6","SARL_v6pjy5edrn","61005a9bfd2f14f18ef7ec7d","fixation","","","img/fixation.png","null","","","test","","","","","","","","","","","","","","","","","","","",""
"50.700000047683716","134148","SARL_v6","SARL_v6pjy5edrn","61005a9bfd2f14f18ef7ec7d","freq","","","img/blue_2bandit_a2.png","70","","70","test","1","","78","","","","square","circle","75","3","4","0.9466666666666667","","","","","","","",""
"null","134902","SARL_v6","SARL_v6pjy5edrn","61005a9bfd2f14f18ef7ec7d","freq_resp","","","img/blue_2bandit_a.png","70","img/blue_2bandit_a.png","70","test","","","","","","","","","","","4","","","","","","","","",""
"null","135061","SARL_v6","SARL_v6pjy5edrn","61005a9bfd2f14f18ef7ec7d","fixation","","","img/fixation.png","null","","","test","","","","","","","","","","","","","","","","","","","",""
"268.39999985694885","135331","SARL_v6","SARL_v6pjy5edrn","61005a9bfd2f14f18ef7ec7d","freq","","","img/blue_2bandit_a2.png","70","","70","test","1","","79","","","","square","circle","76","4","4","0.9473684210526315","","","","","","","",""
"null","135878","SARL_v6","SARL_v6pjy5edrn","61005a9bfd2f14f18ef7ec7d","freq_resp","","","img/blue_2bandit_a.png","70","img/blue_2bandit_a.png","70","test","","","","","","","","","","","4","","","","","","","","",""
"null","136036","SARL_v6","SARL_v6pjy5edrn","61005a9bfd2f14f18ef7ec7d","fixation","","","img/fixation.png","null","","","test","","","","","","","","","","","","","","","","","","","",""
"283","136321","SARL_v6","SARL_v6pjy5edrn","61005a9bfd2f14f18ef7ec7d","freq","","","img/blue_2bandit_a2.png","70","","70","test","1","","80","","","","square","circle","77","5","4","0.948051948051948","","","","","","","",""
"null","136852","SARL_v6","SARL_v6pjy5edrn","61005a9bfd2f14f18ef7ec7d","freq_resp","","","img/blue_2bandit_a.png","70","img/blue_2bandit_a.png","70","test","","","","","","","","","","","4","","","","","","","","",""
"null","137009","SARL_v6","SARL_v6pjy5edrn","61005a9bfd2f14f18ef7ec7d","fixation","","","img/fixation.png","null","","","test","","","","","","","","","","","","","","","","","","","",""
"212.40000009536743","137223","SARL_v6","SARL_v6pjy5edrn","61005a9bfd2f14f18ef7ec7d","infreq","","","img/orange_2bandit_a2.png","70","","68","test","0","","81","","","","square","circle","78","6","4","0.9358974358974359","","","","","","","",""
"null","137828","SARL_v6","SARL_v6pjy5edrn","61005a9bfd2f14f18ef7ec7d","infreq_resp","","","img/orange_2bandit_a.png","70","img/orange_2bandit_a.png","68","test","","","","","","","","","","","4","","","","","","","","",""
"null","137985","SARL_v6","SARL_v6pjy5edrn","61005a9bfd2f14f18ef7ec7d","fixation","","","img/fixation.png","null","","","test","","","","","","","","","","","","","","","","","","","",""
"369","138356","SARL_v6","SARL_v6pjy5edrn","61005a9bfd2f14f18ef7ec7d","freq","","","img/blue_2bandit_a2.png","70","","70","test","1","","82","","","","square","circle","79","7","4","0.9367088607594937","","","","","","","",""
"null","138803","SARL_v6","SARL_v6pjy5edrn","61005a9bfd2f14f18ef7ec7d","freq_resp","","","img/blue_2bandit_a.png","70","img/blue_2bandit_a.png","70","test","","","","","","","","","","","4","","","","","","","","",""
"null","138959","SARL_v6","SARL_v6pjy5edrn","61005a9bfd2f14f18ef7ec7d","fixation","","","img/fixation.png","null","","","test","","","","","","","","","","","","","","","","","","","",""
"294.7999999523163","139256","SARL_v6","SARL_v6pjy5edrn","61005a9bfd2f14f18ef7ec7d","freq","","","img/blue_2bandit_a2.png","70","","70","test","1","","83","","","","square","circle","80","8","4","0.9375","","","","","","","",""
"null","139776","SARL_v6","SARL_v6pjy5edrn","61005a9bfd2f14f18ef7ec7d","freq_resp","","","img/blue_2bandit_a.png","70","img/blue_2bandit_a.png","70","test","","","","","","","","","","","4","","","","","","","","",""
"null","139928","SARL_v6","SARL_v6pjy5edrn","61005a9bfd2f14f18ef7ec7d","fixation","","","img/fixation.png","null","","","test","","","","","","","","","","","","","","","","","","","",""
"271.2999999523163","140202","SARL_v6","SARL_v6pjy5edrn","61005a9bfd2f14f18ef7ec7d","freq","","","img/blue_2bandit_a2.png","70","","70","test","1","","84","","","","square","circle","81","9","4","0.9382716049382716","","","","","","","",""
"null","140737","SARL_v6","SARL_v6pjy5edrn","61005a9bfd2f14f18ef7ec7d","freq_resp","","","img/blue_2bandit_a.png","70","img/blue_2bandit_a.png","70","test","","","","","","","","","","","4","","","","","","","","",""
"null","140894","SARL_v6","SARL_v6pjy5edrn","61005a9bfd2f14f18ef7ec7d","fixation","","","img/fixation.png","null","","","test","","","","","","","","","","","","","","","","","","","",""
"153.20000004768372","141049","SARL_v6","SARL_v6pjy5edrn","61005a9bfd2f14f18ef7ec7d","freq","","","img/blue_2bandit_a2.png","70","","70","test","1","","85","","","","square","circle","82","10","4","0.9390243902439024","","","","","","","",""
"null","141713","SARL_v6","SARL_v6pjy5edrn","61005a9bfd2f14f18ef7ec7d","freq_resp","","","img/blue_2bandit_a.png","70","img/blue_2bandit_a.png","70","test","","","","","","","","","","","4","","","","","","","","",""
"null","141871","SARL_v6","SARL_v6pjy5edrn","61005a9bfd2f14f18ef7ec7d","fixation","","","img/fixation.png","null","","","test","","","","","","","","","","","","","","","","","","","",""
"261","142134","SARL_v6","SARL_v6pjy5edrn","61005a9bfd2f14f18ef7ec7d","freq","","","img/blue_2bandit_a2.png","70","","70","test","1","","86","","","","square","circle","83","11","4","0.9397590361445783","","","","","","","",""
"null","142677","SARL_v6","SARL_v6pjy5edrn","61005a9bfd2f14f18ef7ec7d","freq_resp","","","img/blue_2bandit_a.png","70","img/blue_2bandit_a.png","70","test","","","","","","","","","","","4","","","","","","","","",""
"null","142828","SARL_v6","SARL_v6pjy5edrn","61005a9bfd2f14f18ef7ec7d","fixation","","","img/fixation.png","null","","","test","","","","","","","","","","","","","","","","","","","",""
"338.40000009536743","143169","SARL_v6","SARL_v6pjy5edrn","61005a9bfd2f14f18ef7ec7d","freq","","","img/blue_2bandit_a2.png","70","","70","test","1","","87","","","","square","circle","84","12","4","0.9404761904761905","","","","","","","",""
"null","143635","SARL_v6","SARL_v6pjy5edrn","61005a9bfd2f14f18ef7ec7d","freq_resp","","","img/blue_2bandit_a.png","70","img/blue_2bandit_a.png","70","test","","","","","","","","","","","4","","","","","","","","",""
"null","143794","SARL_v6","SARL_v6pjy5edrn","61005a9bfd2f14f18ef7ec7d","fixation","","","img/fixation.png","null","","","test","","","","","","","","","","","","","","","","","","","",""
"445.09999990463257","144241","SARL_v6","SARL_v6pjy5edrn","61005a9bfd2f14f18ef7ec7d","infreq","","","img/orange_2bandit_a2.png","68","","68","test","1","","88","","","","square","circle","85","13","4","0.9411764705882353","","","","","","","",""
"null","144598","SARL_v6","SARL_v6pjy5edrn","61005a9bfd2f14f18ef7ec7d","infreq_resp","","","img/orange_2bandit_a.png","68","img/orange_2bandit_a.png","68","test","","","","","","","","","","","4","","","","","","","","",""
"null","144756","SARL_v6","SARL_v6pjy5edrn","61005a9bfd2f14f18ef7ec7d","fixation","","","img/fixation.png","null","","","test","","","","","","","","","","","","","","","","","","","",""
"496.40000009536743","145254","SARL_v6","SARL_v6pjy5edrn","61005a9bfd2f14f18ef7ec7d","freq","","","img/blue_2bandit_a2.png","70","","70","test","1","","89","","","","square","circle","86","14","4","0.9418604651162791","","","","","","","",""
"null","145561","SARL_v6","SARL_v6pjy5edrn","61005a9bfd2f14f18ef7ec7d","freq_resp","","","img/blue_2bandit_a.png","70","img/blue_2bandit_a.png","70","test","","","","","","","","","","","4","","","","","","","","",""
"null","145714","SARL_v6","SARL_v6pjy5edrn","61005a9bfd2f14f18ef7ec7d","fixation","","","img/fixation.png","null","","","test","","","","","","","","","","","","","","","","","","","",""
"544.5999999046326","146261","SARL_v6","SARL_v6pjy5edrn","61005a9bfd2f14f18ef7ec7d","freq","","","img/blue_2bandit_a2.png","70","","70","test","1","","90","","","","square","circle","87","15","4","0.9425287356321839","","","","","","","",""
"null","146523","SARL_v6","SARL_v6pjy5edrn","61005a9bfd2f14f18ef7ec7d","freq_resp","","","img/blue_2bandit_a.png","70","img/blue_2bandit_a.png","70","test","","","","","","","","","","","4","","","","","","","","",""
"null","146675","SARL_v6","SARL_v6pjy5edrn","61005a9bfd2f14f18ef7ec7d","fixation","","","img/fixation.png","null","","","test","","","","","","","","","","","","","","","","","","","",""
"299.2999999523163","146977","SARL_v6","SARL_v6pjy5edrn","61005a9bfd2f14f18ef7ec7d","freq","","","img/blue_2bandit_a2.png","70","","70","test","1","","91","","","","square","circle","88","16","4","0.9431818181818182","","","","","","","",""
"null","147482","SARL_v6","SARL_v6pjy5edrn","61005a9bfd2f14f18ef7ec7d","freq_resp","","","img/blue_2bandit_a.png","70","img/blue_2bandit_a.png","70","test","","","","","","","","","","","4","","","","","","","","",""
"null","147641","SARL_v6","SARL_v6pjy5edrn","61005a9bfd2f14f18ef7ec7d","fixation","","","img/fixation.png","null","","","test","","","","","","","","","","","","","","","","","","","",""
"263.40000009536743","147907","SARL_v6","SARL_v6pjy5edrn","61005a9bfd2f14f18ef7ec7d","freq","","","img/blue_2bandit_a2.png","70","","70","test","1","","92","","","","square","circle","89","17","4","0.9438202247191011","","","","","","","",""
"null","148447","SARL_v6","SARL_v6pjy5edrn","61005a9bfd2f14f18ef7ec7d","freq_resp","","","img/blue_2bandit_a.png","70","img/blue_2bandit_a.png","70","test","","","","","","","","","","","4","","","","","","","","",""
"null","148606","SARL_v6","SARL_v6pjy5edrn","61005a9bfd2f14f18ef7ec7d","fixation","","","img/fixation.png","null","","","test","","","","","","","","","","","","","","","","","","","",""
"169.40000009536743","148777","SARL_v6","SARL_v6pjy5edrn","61005a9bfd2f14f18ef7ec7d","freq","","","img/blue_2bandit_a2.png","70","","70","test","1","","93","","","","square","circle","90","18","4","0.9444444444444444","","","","","","","",""
"null","149422","SARL_v6","SARL_v6pjy5edrn","61005a9bfd2f14f18ef7ec7d","freq_resp","","","img/blue_2bandit_a.png","70","img/blue_2bandit_a.png","70","test","","","","","","","","","","","4","","","","","","","","",""
"null","149574","SARL_v6","SARL_v6pjy5edrn","61005a9bfd2f14f18ef7ec7d","fixation","","","img/fixation.png","null","","","test","","","","","","","","","","","","","","","","","","","",""
"145.20000004768372","149721","SARL_v6","SARL_v6pjy5edrn","61005a9bfd2f14f18ef7ec7d","freq","","","img/blue_2bandit_a2.png","70","","70","test","1","","94","","","","square","circle","91","19","4","0.945054945054945","","","","","","","",""
"null","150379","SARL_v6","SARL_v6pjy5edrn","61005a9bfd2f14f18ef7ec7d","freq_resp","","","img/blue_2bandit_a.png","70","img/blue_2bandit_a.png","70","test","","","","","","","","","","","4","","","","","","","","",""
"null","150535","SARL_v6","SARL_v6pjy5edrn","61005a9bfd2f14f18ef7ec7d","fixation","","","img/fixation.png","null","","","test","","","","","","","","","","","","","","","","","","","",""
"683.1999998092651","151220","SARL_v6","SARL_v6pjy5edrn","61005a9bfd2f14f18ef7ec7d","rl","","","img/black_2bandit_a2.png","74","","0","test","","","95","","","0","square","circle","","0","4","","74","-12","0","0","-12","square","4","0"
"null","151973","SARL_v6","SARL_v6pjy5edrn","61005a9bfd2f14f18ef7ec7d","feedback","","","<div class=""verylowPoints_sq""> 0 </div>","null","","na","test","","","NaN","","","","","","","","4","","74","","","","","","4",""
"443.09999990463257","152418","SARL_v6","SARL_v6pjy5edrn","61005a9bfd2f14f18ef7ec7d","freq","","","img/blue_2bandit_a2.png","70","","70","test","1","","96","","","","square","circle","92","1","5","0.9456521739130435","","","","","","","",""
"null","152790","SARL_v6","SARL_v6pjy5edrn","61005a9bfd2f14f18ef7ec7d","freq_resp","","","img/blue_2bandit_a.png","70","img/blue_2bandit_a.png","70","test","","","","","","","","","","","5","","","","","","","","",""
"null","152945","SARL_v6","SARL_v6pjy5edrn","61005a9bfd2f14f18ef7ec7d","fixation","","","img/fixation.png","null","","","test","","","","","","","","","","","","","","","","","","","",""
"306.89999985694885","153253","SARL_v6","SARL_v6pjy5edrn","61005a9bfd2f14f18ef7ec7d","freq","","","img/blue_2bandit_a2.png","70","","70","test","1","","97","","","","square","circle","93","2","5","0.946236559139785","","","","","","","",""
"null","153750","SARL_v6","SARL_v6pjy5edrn","61005a9bfd2f14f18ef7ec7d","freq_resp","","","img/blue_2bandit_a.png","70","img/blue_2bandit_a.png","70","test","","","","","","","","","","","5","","","","","","","","",""
"null","153906","SARL_v6","SARL_v6pjy5edrn","61005a9bfd2f14f18ef7ec7d","fixation","","","img/fixation.png","null","","","test","","","","","","","","","","","","","","","","","","","",""
"362.39999985694885","154271","SARL_v6","SARL_v6pjy5edrn","61005a9bfd2f14f18ef7ec7d","freq","","","img/blue_2bandit_a2.png","70","","70","test","1","","98","","","","square","circle","94","3","5","0.9468085106382979","","","","","","","",""
"null","154725","SARL_v6","SARL_v6pjy5edrn","61005a9bfd2f14f18ef7ec7d","freq_resp","","","img/blue_2bandit_a.png","70","img/blue_2bandit_a.png","70","test","","","","","","","","","","","5","","","","","","","","",""
"null","154882","SARL_v6","SARL_v6pjy5edrn","61005a9bfd2f14f18ef7ec7d","fixation","","","img/fixation.png","null","","","test","","","","","","","","","","","","","","","","","","","",""
"185.70000004768372","155069","SARL_v6","SARL_v6pjy5edrn","61005a9bfd2f14f18ef7ec7d","freq","","","img/blue_2bandit_a2.png","70","","70","test","1","","99","","","","square","circle","95","4","5","0.9473684210526315","","","","","","","",""
"null","155695","SARL_v6","SARL_v6pjy5edrn","61005a9bfd2f14f18ef7ec7d","freq_resp","","","img/blue_2bandit_a.png","70","img/blue_2bandit_a.png","70","test","","","","","","","","","","","5","","","","","","","","",""
"null","155853","SARL_v6","SARL_v6pjy5edrn","61005a9bfd2f14f18ef7ec7d","fixation","","","img/fixation.png","null","","","test","","","","","","","","","","","","","","","","","","","",""
"null","156660","SARL_v6","SARL_v6pjy5edrn","61005a9bfd2f14f18ef7ec7d","freq","","","img/blue_2bandit_a2.png","null","","70","test","0","","100","","","","square","circle","96","5","5","0.9375","","","","","","","",""
"null","156813","SARL_v6","SARL_v6pjy5edrn","61005a9bfd2f14f18ef7ec7d","fixation","","","img/fixation.png","null","","","test","","","","","","","","","","","","","","","","","","","",""
"339.09999990463257","157154","SARL_v6","SARL_v6pjy5edrn","61005a9bfd2f14f18ef7ec7d","freq","","","img/blue_2bandit_a2.png","70","","70","test","1","","101","","","","square","circle","97","6","5","0.9381443298969072","","","","","","","",""
"null","157623","SARL_v6","SARL_v6pjy5edrn","61005a9bfd2f14f18ef7ec7d","freq_resp","","","img/blue_2bandit_a.png","70","img/blue_2bandit_a.png","70","test","","","","","","","","","","","5","","","","","","","","",""
"null","157777","SARL_v6","SARL_v6pjy5edrn","61005a9bfd2f14f18ef7ec7d","fixation","","","img/fixation.png","null","","","test","","","","","","","","","","","","","","","","","","","",""
"258.7000000476837","158037","SARL_v6","SARL_v6pjy5edrn","61005a9bfd2f14f18ef7ec7d","freq","","","img/blue_2bandit_a2.png","70","","70","test","1","","102","","","","square","circle","98","7","5","0.9387755102040817","","","","","","","",""
"null","158596","SARL_v6","SARL_v6pjy5edrn","61005a9bfd2f14f18ef7ec7d","freq_resp","","","img/blue_2bandit_a.png","70","img/blue_2bandit_a.png","70","test","","","","","","","","","","","5","","","","","","","","",""
"null","158748","SARL_v6","SARL_v6pjy5edrn","61005a9bfd2f14f18ef7ec7d","fixation","","","img/fixation.png","null","","","test","","","","","","","","","","","","","","","","","","","",""
"128.39999985694885","158878","SARL_v6","SARL_v6pjy5edrn","61005a9bfd2f14f18ef7ec7d","freq","","","img/blue_2bandit_a2.png","70","","70","test","1","","103","","","","square","circle","99","8","5","0.9393939393939394","","","","","","","",""
"null","159553","SARL_v6","SARL_v6pjy5edrn","61005a9bfd2f14f18ef7ec7d","freq_resp","","","img/blue_2bandit_a.png","70","img/blue_2bandit_a.png","70","test","","","","","","","","","","","5","","","","","","","","",""
"null","159706","SARL_v6","SARL_v6pjy5edrn","61005a9bfd2f14f18ef7ec7d","fixation","","","img/fixation.png","null","","","test","","","","","","","","","","","","","","","","","","","",""
"315.59999990463257","160023","SARL_v6","SARL_v6pjy5edrn","61005a9bfd2f14f18ef7ec7d","freq","","","img/blue_2bandit_a2.png","70","","70","test","1","","104","","","","square","circle","100","9","5","0.94","","","","","","","",""
"null","160523","SARL_v6","SARL_v6pjy5edrn","61005a9bfd2f14f18ef7ec7d","freq_resp","","","img/blue_2bandit_a.png","70","img/blue_2bandit_a.png","70","test","","","","","","","","","","","5","","","","","","","","",""
"null","160675","SARL_v6","SARL_v6pjy5edrn","61005a9bfd2f14f18ef7ec7d","fixation","","","img/fixation.png","null","","","test","","","","","","","","","","","","","","","","","","","",""
"316.7999999523163","160994","SARL_v6","SARL_v6pjy5edrn","61005a9bfd2f14f18ef7ec7d","freq","","","img/blue_2bandit_a2.png","70","","70","test","1","","105","","","","square","circle","101","10","5","0.9405940594059405","","","","","","","",""
"null","161488","SARL_v6","SARL_v6pjy5edrn","61005a9bfd2f14f18ef7ec7d","freq_resp","","","img/blue_2bandit_a.png","70","img/blue_2bandit_a.png","70","test","","","","","","","","","","","5","","","","","","","","",""
"null","161640","SARL_v6","SARL_v6pjy5edrn","61005a9bfd2f14f18ef7ec7d","fixation","","","img/fixation.png","null","","","test","","","","","","","","","","","","","","","","","","","",""
"216.70000004768372","161859","SARL_v6","SARL_v6pjy5edrn","61005a9bfd2f14f18ef7ec7d","infreq","","","img/orange_2bandit_a2.png","70","","68","test","0","","106","","","","square","circle","102","11","5","0.9313725490196079","","","","","","","",""
"null","162444","SARL_v6","SARL_v6pjy5edrn","61005a9bfd2f14f18ef7ec7d","infreq_resp","","","img/orange_2bandit_a.png","70","img/orange_2bandit_a.png","68","test","","","","","","","","","","","5","","","","","","","","",""
"null","162597","SARL_v6","SARL_v6pjy5edrn","61005a9bfd2f14f18ef7ec7d","fixation","","","img/fixation.png","null","","","test","","","","","","","","","","","","","","","","","","","",""
"359.7999999523163","162959","SARL_v6","SARL_v6pjy5edrn","61005a9bfd2f14f18ef7ec7d","freq","","","img/blue_2bandit_a2.png","70","","70","test","1","","107","","","","square","circle","103","12","5","0.9320388349514563","","","","","","","",""
"null","163405","SARL_v6","SARL_v6pjy5edrn","61005a9bfd2f14f18ef7ec7d","freq_resp","","","img/blue_2bandit_a.png","70","img/blue_2bandit_a.png","70","test","","","","","","","","","","","5","","","","","","","","",""
"null","163562","SARL_v6","SARL_v6pjy5edrn","61005a9bfd2f14f18ef7ec7d","fixation","","","img/fixation.png","null","","","test","","","","","","","","","","","","","","","","","","","",""
"301.7000000476837","163866","SARL_v6","SARL_v6pjy5edrn","61005a9bfd2f14f18ef7ec7d","freq","","","img/blue_2bandit_a2.png","70","","70","test","1","","108","","","","square","circle","104","13","5","0.9326923076923077","","","","","","","",""
"null","164380","SARL_v6","SARL_v6pjy5edrn","61005a9bfd2f14f18ef7ec7d","freq_resp","","","img/blue_2bandit_a.png","70","img/blue_2bandit_a.png","70","test","","","","","","","","","","","5","","","","","","","","",""
"null","164540","SARL_v6","SARL_v6pjy5edrn","61005a9bfd2f14f18ef7ec7d","fixation","","","img/fixation.png","null","","","test","","","","","","","","","","","","","","","","","","","",""
"274.40000009536743","164816","SARL_v6","SARL_v6pjy5edrn","61005a9bfd2f14f18ef7ec7d","freq","","","img/blue_2bandit_a2.png","70","","70","test","1","","109","","","","square","circle","105","14","5","0.9333333333333333","","","","","","","",""
"null","165351","SARL_v6","SARL_v6pjy5edrn","61005a9bfd2f14f18ef7ec7d","freq_resp","","","img/blue_2bandit_a.png","70","img/blue_2bandit_a.png","70","test","","","","","","","","","","","5","","","","","","","","",""
"null","165508","SARL_v6","SARL_v6pjy5edrn","61005a9bfd2f14f18ef7ec7d","fixation","","","img/fixation.png","null","","","test","","","","","","","","","","","","","","","","","","","",""
"242.5","165753","SARL_v6","SARL_v6pjy5edrn","61005a9bfd2f14f18ef7ec7d","freq","","","img/blue_2bandit_a2.png","70","","70","test","1","","110","","","","square","circle","106","15","5","0.9339622641509434","","","","","","","",""
"null","166328","SARL_v6","SARL_v6pjy5edrn","61005a9bfd2f14f18ef7ec7d","freq_resp","","","img/blue_2bandit_a.png","70","img/blue_2bandit_a.png","70","test","","","","","","","","","","","5","","","","","","","","",""
"null","166485","SARL_v6","SARL_v6pjy5edrn","61005a9bfd2f14f18ef7ec7d","fixation","","","img/fixation.png","null","","","test","","","","","","","","","","","","","","","","","","","",""
"502.59999990463257","166990","SARL_v6","SARL_v6pjy5edrn","61005a9bfd2f14f18ef7ec7d","infreq","","","img/orange_2bandit_a2.png","68","","68","test","1","","111","","","","square","circle","107","16","5","0.9345794392523364","","","","","","","",""
"null","167303","SARL_v6","SARL_v6pjy5edrn","61005a9bfd2f14f18ef7ec7d","infreq_resp","","","img/orange_2bandit_a.png","68","img/orange_2bandit_a.png","68","test","","","","","","","","","","","5","","","","","","","","",""
"null","167460","SARL_v6","SARL_v6pjy5edrn","61005a9bfd2f14f18ef7ec7d","fixation","","","img/fixation.png","null","","","test","","","","","","","","","","","","","","","","","","","",""
"341.5","167803","SARL_v6","SARL_v6pjy5edrn","61005a9bfd2f14f18ef7ec7d","freq","","","img/blue_2bandit_a2.png","70","","70","test","1","","112","","","","square","circle","108","17","5","0.9351851851851852","","","","","","","",""
"null","168279","SARL_v6","SARL_v6pjy5edrn","61005a9bfd2f14f18ef7ec7d","freq_resp","","","img/blue_2bandit_a.png","70","img/blue_2bandit_a.png","70","test","","","","","","","","","","","5","","","","","","","","",""
"null","168431","SARL_v6","SARL_v6pjy5edrn","61005a9bfd2f14f18ef7ec7d","fixation","","","img/fixation.png","null","","","test","","","","","","","","","","","","","","","","","","","",""
"290.09999990463257","168723","SARL_v6","SARL_v6pjy5edrn","61005a9bfd2f14f18ef7ec7d","freq","","","img/blue_2bandit_a2.png","70","","70","test","1","","113","","","","square","circle","109","18","5","0.9357798165137615","","","","","","","",""
"null","169241","SARL_v6","SARL_v6pjy5edrn","61005a9bfd2f14f18ef7ec7d","freq_resp","","","img/blue_2bandit_a.png","70","img/blue_2bandit_a.png","70","test","","","","","","","","","","","5","","","","","","","","",""
"null","169394","SARL_v6","SARL_v6pjy5edrn","61005a9bfd2f14f18ef7ec7d","fixation","","","img/fixation.png","null","","","test","","","","","","","","","","","","","","","","","","","",""
"266.59999990463257","169663","SARL_v6","SARL_v6pjy5edrn","61005a9bfd2f14f18ef7ec7d","freq","","","img/blue_2bandit_a2.png","70","","70","test","1","","114","","","","square","circle","110","19","5","0.9363636363636364","","","","","","","",""
"null","170207","SARL_v6","SARL_v6pjy5edrn","61005a9bfd2f14f18ef7ec7d","freq_resp","","","img/blue_2bandit_a.png","70","img/blue_2bandit_a.png","70","test","","","","","","","","","","","5","","","","","","","","",""
"null","170360","SARL_v6","SARL_v6pjy5edrn","61005a9bfd2f14f18ef7ec7d","fixation","","","img/fixation.png","null","","","test","","","","","","","","","","","","","","","","","","","",""
"265","170627","SARL_v6","SARL_v6pjy5edrn","61005a9bfd2f14f18ef7ec7d","freq","","","img/blue_2bandit_a2.png","70","","70","test","1","","115","","","","square","circle","111","20","5","0.9369369369369369","","","","","","","",""
"null","171171","SARL_v6","SARL_v6pjy5edrn","61005a9bfd2f14f18ef7ec7d","freq_resp","","","img/blue_2bandit_a.png","70","img/blue_2bandit_a.png","70","test","","","","","","","","","","","5","","","","","","","","",""
"null","171323","SARL_v6","SARL_v6pjy5edrn","61005a9bfd2f14f18ef7ec7d","fixation","","","img/fixation.png","null","","","test","","","","","","","","","","","","","","","","","","","",""
"null","172136","SARL_v6","SARL_v6pjy5edrn","61005a9bfd2f14f18ef7ec7d","freq","","","img/blue_2bandit_a2.png","null","","70","test","0","","116","","","","square","circle","112","21","5","0.9285714285714286","","","","","","","",""
"null","172295","SARL_v6","SARL_v6pjy5edrn","61005a9bfd2f14f18ef7ec7d","fixation","","","img/fixation.png","null","","","test","","","","","","","","","","","","","","","","","","","",""
"431","172728","SARL_v6","SARL_v6pjy5edrn","61005a9bfd2f14f18ef7ec7d","freq","","","img/blue_2bandit_a2.png","70","","70","test","1","","117","","","","square","circle","113","22","5","0.9292035398230089","","","","","","","",""
"null","173103","SARL_v6","SARL_v6pjy5edrn","61005a9bfd2f14f18ef7ec7d","freq_resp","","","img/blue_2bandit_a.png","70","img/blue_2bandit_a.png","70","test","","","","","","","","","","","5","","","","","","","","",""
"null","173259","SARL_v6","SARL_v6pjy5edrn","61005a9bfd2f14f18ef7ec7d","fixation","","","img/fixation.png","null","","","test","","","","","","","","","","","","","","","","","","","",""
"312.60000014305115","173573","SARL_v6","SARL_v6pjy5edrn","61005a9bfd2f14f18ef7ec7d","freq","","","img/blue_2bandit_a2.png","70","","70","test","1","","118","","","","square","circle","114","23","5","0.9298245614035088","","","","","","","",""
"null","174063","SARL_v6","SARL_v6pjy5edrn","61005a9bfd2f14f18ef7ec7d","freq_resp","","","img/blue_2bandit_a.png","70","img/blue_2bandit_a.png","70","test","","","","","","","","","","","5","","","","","","","","",""
"null","174218","SARL_v6","SARL_v6pjy5edrn","61005a9bfd2f14f18ef7ec7d","fixation","","","img/fixation.png","null","","","test","","","","","","","","","","","","","","","","","","","",""
"722.2000000476837","174943","SARL_v6","SARL_v6pjy5edrn","61005a9bfd2f14f18ef7ec7d","rl","","","img/black_2bandit_a2.png","75","","0","test","","","119","","","-7","square","circle","","0","5","","75","-7","4","4","-7","circle","5","0"
"null","175709","SARL_v6","SARL_v6pjy5edrn","61005a9bfd2f14f18ef7ec7d","feedback","","","<div class=""verylowPoints""> -7 </div>","null","","na","test","","","NaN","","","","","","","","5","","75","","","","","","5",""
"381.60000014305115","176092","SARL_v6","SARL_v6pjy5edrn","61005a9bfd2f14f18ef7ec7d","freq","","","img/blue_2bandit_a2.png","70","","70","test","1","","120","","","","square","circle","115","1","6","0.9304347826086956","","","","","","","",""
"null","176526","SARL_v6","SARL_v6pjy5edrn","61005a9bfd2f14f18ef7ec7d","freq_resp","","","img/blue_2bandit_a.png","70","img/blue_2bandit_a.png","70","test","","","","","","","","","","","6","","","","","","","","",""
"null","176683","SARL_v6","SARL_v6pjy5edrn","61005a9bfd2f14f18ef7ec7d","fixation","","","img/fixation.png","null","","","test","","","","","","","","","","","","","","","","","","","",""
"409.89999985694885","177095","SARL_v6","SARL_v6pjy5edrn","61005a9bfd2f14f18ef7ec7d","freq","","","img/blue_2bandit_a2.png","70","","70","test","1","","121","","","","square","circle","116","2","6","0.9310344827586207","","","","","","","",""
"null","177503","SARL_v6","SARL_v6pjy5edrn","61005a9bfd2f14f18ef7ec7d","freq_resp","","","img/blue_2bandit_a.png","70","img/blue_2bandit_a.png","70","test","","","","","","","","","","","6","","","","","","","","",""
"null","177661","SARL_v6","SARL_v6pjy5edrn","61005a9bfd2f14f18ef7ec7d","fixation","","","img/fixation.png","null","","","test","","","","","","","","","","","","","","","","","","","",""
"327.5","177990","SARL_v6","SARL_v6pjy5edrn","61005a9bfd2f14f18ef7ec7d","freq","","","img/blue_2bandit_a2.png","70","","70","test","1","","122","","","","square","circle","117","3","6","0.9316239316239316","","","","","","","",""
"null","178465","SARL_v6","SARL_v6pjy5edrn","61005a9bfd2f14f18ef7ec7d","freq_resp","","","img/blue_2bandit_a.png","70","img/blue_2bandit_a.png","70","test","","","","","","","","","","","6","","","","","","","","",""
"null","178619","SARL_v6","SARL_v6pjy5edrn","61005a9bfd2f14f18ef7ec7d","fixation","","","img/fixation.png","null","","","test","","","","","","","","","","","","","","","","","","","",""
"301.90000009536743","178923","SARL_v6","SARL_v6pjy5edrn","61005a9bfd2f14f18ef7ec7d","freq","","","img/blue_2bandit_a2.png","70","","70","test","1","","123","","","","square","circle","118","4","6","0.9322033898305084","","","","","","","",""
"null","179428","SARL_v6","SARL_v6pjy5edrn","61005a9bfd2f14f18ef7ec7d","freq_resp","","","img/blue_2bandit_a.png","70","img/blue_2bandit_a.png","70","test","","","","","","","","","","","6","","","","","","","","",""
"null","179585","SARL_v6","SARL_v6pjy5edrn","61005a9bfd2f14f18ef7ec7d","fixation","","","img/fixation.png","null","","","test","","","","","","","","","","","","","","","","","","","",""
"257","179844","SARL_v6","SARL_v6pjy5edrn","61005a9bfd2f14f18ef7ec7d","freq","","","img/blue_2bandit_a2.png","70","","70","test","1","","124","","","","square","circle","119","5","6","0.9327731092436975","","","","","","","",""
"null","180391","SARL_v6","SARL_v6pjy5edrn","61005a9bfd2f14f18ef7ec7d","freq_resp","","","img/blue_2bandit_a.png","70","img/blue_2bandit_a.png","70","test","","","","","","","","","","","6","","","","","","","","",""
"null","180544","SARL_v6","SARL_v6pjy5edrn","61005a9bfd2f14f18ef7ec7d","fixation","","","img/fixation.png","null","","","test","","","","","","","","","","","","","","","","","","","",""
"284.69999980926514","180831","SARL_v6","SARL_v6pjy5edrn","61005a9bfd2f14f18ef7ec7d","freq","","","img/blue_2bandit_a2.png","70","","70","test","1","","125","","","","square","circle","120","6","6","0.9333333333333333","","","","","","","",""
"null","181352","SARL_v6","SARL_v6pjy5edrn","61005a9bfd2f14f18ef7ec7d","freq_resp","","","img/blue_2bandit_a.png","70","img/blue_2bandit_a.png","70","test","","","","","","","","","","","6","","","","","","","","",""
"null","181511","SARL_v6","SARL_v6pjy5edrn","61005a9bfd2f14f18ef7ec7d","fixation","","","img/fixation.png","null","","","test","","","","","","","","","","","","","","","","","","","",""
"250.09999990463257","181763","SARL_v6","SARL_v6pjy5edrn","61005a9bfd2f14f18ef7ec7d","freq","","","img/blue_2bandit_a2.png","70","","70","test","1","","126","","","","square","circle","121","7","6","0.9338842975206612","","","","","","","",""
"null","182318","SARL_v6","SARL_v6pjy5edrn","61005a9bfd2f14f18ef7ec7d","freq_resp","","","img/blue_2bandit_a.png","70","img/blue_2bandit_a.png","70","test","","","","","","","","","","","6","","","","","","","","",""
"null","182471","SARL_v6","SARL_v6pjy5edrn","61005a9bfd2f14f18ef7ec7d","fixation","","","img/fixation.png","null","","","test","","","","","","","","","","","","","","","","","","","",""
"263.2999999523163","182736","SARL_v6","SARL_v6pjy5edrn","61005a9bfd2f14f18ef7ec7d","freq","","","img/blue_2bandit_a2.png","70","","70","test","1","","127","","","","square","circle","122","8","6","0.9344262295081968","","","","","","","",""
"null","183283","SARL_v6","SARL_v6pjy5edrn","61005a9bfd2f14f18ef7ec7d","freq_resp","","","img/blue_2bandit_a.png","70","img/blue_2bandit_a.png","70","test","","","","","","","","","","","6","","","","","","","","",""
"null","183435","SARL_v6","SARL_v6pjy5edrn","61005a9bfd2f14f18ef7ec7d","fixation","","","img/fixation.png","null","","","test","","","","","","","","","","","","","","","","","","","",""
"274.2999999523163","183711","SARL_v6","SARL_v6pjy5edrn","61005a9bfd2f14f18ef7ec7d","freq","","","img/blue_2bandit_a2.png","70","","70","test","1","","128","","","","square","circle","123","9","6","0.9349593495934959","","","","","","","",""
"null","184249","SARL_v6","SARL_v6pjy5edrn","61005a9bfd2f14f18ef7ec7d","freq_resp","","","img/blue_2bandit_a.png","70","img/blue_2bandit_a.png","70","test","","","","","","","","","","","6","","","","","","","","",""
"null","184401","SARL_v6","SARL_v6pjy5edrn","61005a9bfd2f14f18ef7ec7d","fixation","","","img/fixation.png","null","","","test","","","","","","","","","","","","","","","","","","","",""
"425.39999985694885","184828","SARL_v6","SARL_v6pjy5edrn","61005a9bfd2f14f18ef7ec7d","infreq","","","img/orange_2bandit_a2.png","68","","68","test","1","","129","","","","square","circle","124","10","6","0.9354838709677419","","","","","","","",""
"null","185212","SARL_v6","SARL_v6pjy5edrn","61005a9bfd2f14f18ef7ec7d","infreq_resp","","","img/orange_2bandit_a.png","68","img/orange_2bandit_a.png","68","test","","","","","","","","","","","6","","","","","","","","",""
"null","185370","SARL_v6","SARL_v6pjy5edrn","61005a9bfd2f14f18ef7ec7d","fixation","","","img/fixation.png","null","","","test","","","","","","","","","","","","","","","","","","","",""
"430.10000014305115","185802","SARL_v6","SARL_v6pjy5edrn","61005a9bfd2f14f18ef7ec7d","freq","","","img/blue_2bandit_a2.png","70","","70","test","1","","130","","","","square","circle","125","11","6","0.936","","","","","","","",""
"null","186184","SARL_v6","SARL_v6pjy5edrn","61005a9bfd2f14f18ef7ec7d","freq_resp","","","img/blue_2bandit_a.png","70","img/blue_2bandit_a.png","70","test","","","","","","","","","","","6","","","","","","","","",""
"null","186343","SARL_v6","SARL_v6pjy5edrn","61005a9bfd2f14f18ef7ec7d","fixation","","","img/fixation.png","null","","","test","","","","","","","","","","","","","","","","","","","",""
"312.2999999523163","186657","SARL_v6","SARL_v6pjy5edrn","61005a9bfd2f14f18ef7ec7d","freq","","","img/blue_2bandit_a2.png","70","","70","test","1","","131","","","","square","circle","126","12","6","0.9365079365079365","","","","","","","",""
