"rt","time_elapsed","expId","subject","prolificID","trialType","rlType","attType","stimulus","key_press","stim","corrresp","phase","corr","pracCounter","trialNum","rewardOne","rewardTwo","reward","bandOne","bandTwo","attentionNum","attentionRunNum","blockNum","performance","bandChosen","circleVal","squareVal","bandOneVal","bandTwoVal","shapeChosen","rlNum","badFlag"
"9272.599999904633","9277","SARL_v6","SARL_v6oan5qmn9","6400dc9f84ed19aeedc1a2cc","","","","","","","","","","","","","","","","","","","","","","","","","","","",""
"","11321","SARL_v6","SARL_v6oan5qmn9","6400dc9f84ed19aeedc1a2cc","fullscreen","fullscreen","fullscreen","","","","","","","","","","","","","","","","","","","","","","","","",""
"74214.60000014305","85537","SARL_v6","SARL_v6oan5qmn9","6400dc9f84ed19aeedc1a2cc","","","","","","","","","","","","","","","","","","","","","","","","","","","",""
"453.39999985694885","85994","SARL_v6","SARL_v6oan5qmn9","6400dc9f84ed19aeedc1a2cc","freqPrac","","","img/orange_2bandit_a2.png","70","img/orange_2bandit_a2.png","70","prac","1","0","","","","","","","","","","","","","","","","","",""
"453.39999985694885","86347","SARL_v6","SARL_v6oan5qmn9","6400dc9f84ed19aeedc1a2cc","freqPrac_resp","","","img/orange_2bandit_a.png","70","img/orange_2bandit_a.png","70","prac","","","","","","","","","","","","","","","","","","","",""
"null","86502","SARL_v6","SARL_v6oan5qmn9","6400dc9f84ed19aeedc1a2cc","fixation","","","img/fixation.png","null","","","prac","","","","","","","","","","","","","","","","","","","",""
"486.7000000476837","86991","SARL_v6","SARL_v6oan5qmn9","6400dc9f84ed19aeedc1a2cc","infreqPrac","","","img/blue_2bandit_a2.png","68","img/blue_2bandit_a2.png","68","prac","1","0","","","","","","","","","","","","","","","","","",""
"486.7000000476837","87314","SARL_v6","SARL_v6oan5qmn9","6400dc9f84ed19aeedc1a2cc","infreqPrac_resp","","","img/blue_2bandit_a.png","68","img/blue_2bandit_a.png","68","prac","","","","","","","","","","","","","","","","","","","",""
"null","87466","SARL_v6","SARL_v6oan5qmn9","6400dc9f84ed19aeedc1a2cc","fixation","","","img/fixation.png","null","","","prac","","","","","","","","","","","","","","","","","","","",""
"376","87844","SARL_v6","SARL_v6oan5qmn9","6400dc9f84ed19aeedc1a2cc","freqPrac","","","img/orange_2bandit_a2.png","70","img/orange_2bandit_a2.png","70","prac","1","0","","","","","","","","","","","","","","","","","",""
"376","88281","SARL_v6","SARL_v6oan5qmn9","6400dc9f84ed19aeedc1a2cc","freqPrac_resp","","","img/orange_2bandit_a.png","70","img/orange_2bandit_a.png","70","prac","","","","","","","","","","","","","","","","","","","",""
"null","88440","SARL_v6","SARL_v6oan5qmn9","6400dc9f84ed19aeedc1a2cc","fixation","","","img/fixation.png","null","","","prac","","","","","","","","","","","","","","","","","","","",""
"387.39999985694885","88830","SARL_v6","SARL_v6oan5qmn9","6400dc9f84ed19aeedc1a2cc","infreqPrac","","","img/blue_2bandit_a2.png","68","img/blue_2bandit_a2.png","68","prac","1","0","","","","","","","","","","","","","","","","","",""
"387.39999985694885","89250","SARL_v6","SARL_v6oan5qmn9","6400dc9f84ed19aeedc1a2cc","infreqPrac_resp","","","img/blue_2bandit_a.png","68","img/blue_2bandit_a.png","68","prac","","","","","","","","","","","","","","","","","","","",""
"null","89406","SARL_v6","SARL_v6oan5qmn9","6400dc9f84ed19aeedc1a2cc","fixation","","","img/fixation.png","null","","","prac","","","","","","","","","","","","","","","","","","","",""
"354","89762","SARL_v6","SARL_v6oan5qmn9","6400dc9f84ed19aeedc1a2cc","infreqPrac","","","img/blue_2bandit_a2.png","68","img/blue_2bandit_a2.png","68","prac","1","0","","","","","","","","","","","","","","","","","",""
"354","90224","SARL_v6","SARL_v6oan5qmn9","6400dc9f84ed19aeedc1a2cc","infreqPrac_resp","","","img/blue_2bandit_a.png","68","img/blue_2bandit_a.png","68","prac","","","","","","","","","","","","","","","","","","","",""
"null","90378","SARL_v6","SARL_v6oan5qmn9","6400dc9f84ed19aeedc1a2cc","fixation","","","img/fixation.png","null","","","prac","","","","","","","","","","","","","","","","","","","",""
"396.2000000476837","90776","SARL_v6","SARL_v6oan5qmn9","6400dc9f84ed19aeedc1a2cc","infreqPrac","","","img/blue_2bandit_a2.png","68","img/blue_2bandit_a2.png","68","prac","1","0","","","","","","","","","","","","","","","","","",""
"396.2000000476837","91196","SARL_v6","SARL_v6oan5qmn9","6400dc9f84ed19aeedc1a2cc","infreqPrac_resp","","","img/blue_2bandit_a.png","68","img/blue_2bandit_a.png","68","prac","","","","","","","","","","","","","","","","","","","",""
"null","91353","SARL_v6","SARL_v6oan5qmn9","6400dc9f84ed19aeedc1a2cc","fixation","","","img/fixation.png","null","","","prac","","","","","","","","","","","","","","","","","","","",""
"418.2000000476837","91773","SARL_v6","SARL_v6oan5qmn9","6400dc9f84ed19aeedc1a2cc","freqPrac","","","img/orange_2bandit_a2.png","70","img/orange_2bandit_a2.png","70","prac","1","0","","","","","","","","","","","","","","","","","",""
"418.2000000476837","92166","SARL_v6","SARL_v6oan5qmn9","6400dc9f84ed19aeedc1a2cc","freqPrac_resp","","","img/orange_2bandit_a.png","70","img/orange_2bandit_a.png","70","prac","","","","","","","","","","","","","","","","","","","",""
"null","92321","SARL_v6","SARL_v6oan5qmn9","6400dc9f84ed19aeedc1a2cc","fixation","","","img/fixation.png","null","","","prac","","","","","","","","","","","","","","","","","","","",""
"727.6999998092651","93051","SARL_v6","SARL_v6oan5qmn9","6400dc9f84ed19aeedc1a2cc","infreqPrac","","","img/blue_2bandit_a2.png","68","img/blue_2bandit_a2.png","68","prac","1","0","","","","","","","","","","","","","","","","","",""
"727.6999998092651","93127","SARL_v6","SARL_v6oan5qmn9","6400dc9f84ed19aeedc1a2cc","infreqPrac_resp","","","img/blue_2bandit_a.png","68","img/blue_2bandit_a.png","68","prac","","","","","","","","","","","","","","","","","","","",""
"null","93292","SARL_v6","SARL_v6oan5qmn9","6400dc9f84ed19aeedc1a2cc","fixation","","","img/fixation.png","null","","","prac","","","","","","","","","","","","","","","","","","","",""
"465.90000009536743","93760","SARL_v6","SARL_v6oan5qmn9","6400dc9f84ed19aeedc1a2cc","freqPrac","","","img/orange_2bandit_a2.png","70","img/orange_2bandit_a2.png","70","prac","1","0","","","","","","","","","","","","","","","","","",""
"465.90000009536743","94102","SARL_v6","SARL_v6oan5qmn9","6400dc9f84ed19aeedc1a2cc","freqPrac_resp","","","img/orange_2bandit_a.png","70","img/orange_2bandit_a.png","70","prac","","","","","","","","","","","","","","","","","","","",""
"null","94259","SARL_v6","SARL_v6oan5qmn9","6400dc9f84ed19aeedc1a2cc","fixation","","","img/fixation.png","null","","","prac","","","","","","","","","","","","","","","","","","","",""
"399.90000009536743","94660","SARL_v6","SARL_v6oan5qmn9","6400dc9f84ed19aeedc1a2cc","freqPrac","","","img/orange_2bandit_a2.png","70","img/orange_2bandit_a2.png","70","prac","1","0","","","","","","","","","","","","","","","","","",""
"399.90000009536743","95074","SARL_v6","SARL_v6oan5qmn9","6400dc9f84ed19aeedc1a2cc","freqPrac_resp","","","img/orange_2bandit_a.png","70","img/orange_2bandit_a.png","70","prac","","","","","","","","","","","","","","","","","","","",""
"null","95229","SARL_v6","SARL_v6oan5qmn9","6400dc9f84ed19aeedc1a2cc","fixation","","","img/fixation.png","null","","","prac","","","","","","","","","","","","","","","","","","","",""
"52221.800000190735","147452","SARL_v6","SARL_v6oan5qmn9","6400dc9f84ed19aeedc1a2cc","","","","","","","","prac","","","","","","","","","","","","","","","","","","","",""
"486.60000014305115","147942","SARL_v6","SARL_v6oan5qmn9","6400dc9f84ed19aeedc1a2cc","rlPractice","","","img/black_2bandit_a2.png","75","img/black_2bandit_a2.png","","prac","","","0","","","","","","","","","","","","","","","","",""
"null","148709","SARL_v6","SARL_v6oan5qmn9","6400dc9f84ed19aeedc1a2cc","feedback","","","<div class=""veryhighPoints""> 10 </div>","null","","na","prac","","","1","10","-14","10","","","","","","","","","","","","","",""
"null","148865","SARL_v6","SARL_v6oan5qmn9","6400dc9f84ed19aeedc1a2cc","fixation","","","img/fixation.png","null","","","prac","","","","","","","","","","","","","","","","","","","",""
"435.2000000476837","149303","SARL_v6","SARL_v6oan5qmn9","6400dc9f84ed19aeedc1a2cc","rlPractice","","","img/black_2bandit_a2.png","75","img/black_2bandit_a2.png","","prac","","","1","","","","","","","","","","","","","","","","",""
"null","150064","SARL_v6","SARL_v6oan5qmn9","6400dc9f84ed19aeedc1a2cc","feedback","","","<div class=""veryhighPoints""> 5 </div>","null","","na","prac","","","2","5","-5","5","","","","","","","","","","","","","",""
"null","150222","SARL_v6","SARL_v6oan5qmn9","6400dc9f84ed19aeedc1a2cc","fixation","","","img/fixation.png","null","","","prac","","","","","","","","","","","","","","","","","","","",""
"552.7999999523163","150777","SARL_v6","SARL_v6oan5qmn9","6400dc9f84ed19aeedc1a2cc","rlPractice","","","img/black_2bandit_a2.png","75","img/black_2bandit_a2.png","","prac","","","2","","","","","","","","","","","","","","","","",""
"null","151537","SARL_v6","SARL_v6oan5qmn9","6400dc9f84ed19aeedc1a2cc","feedback","","","<div class=""veryhighPoints""> 30 </div>","null","","na","prac","","","3","30","2","30","","","","","","","","","","","","","",""
"null","151692","SARL_v6","SARL_v6oan5qmn9","6400dc9f84ed19aeedc1a2cc","fixation","","","img/fixation.png","null","","","prac","","","","","","","","","","","","","","","","","","","",""
"571.9000000953674","152266","SARL_v6","SARL_v6oan5qmn9","6400dc9f84ed19aeedc1a2cc","rlPractice","","","img/black_2bandit_a2.png","75","img/black_2bandit_a2.png","","prac","","","3","","","","","","","","","","","","","","","","",""
"null","153022","SARL_v6","SARL_v6oan5qmn9","6400dc9f84ed19aeedc1a2cc","feedback","","","<div class=""verylowPoints""> -2 </div>","null","","na","prac","","","4","-2","20","-2","","","","","","","","","","","","","",""
"null","153181","SARL_v6","SARL_v6oan5qmn9","6400dc9f84ed19aeedc1a2cc","fixation","","","img/fixation.png","null","","","prac","","","","","","","","","","","","","","","","","","","",""
"17424.5","170607","SARL_v6","SARL_v6oan5qmn9","6400dc9f84ed19aeedc1a2cc","","","","","","","","prac","","","","","","","","","","","","","","","","","","","",""
"354.7000000476837","170964","SARL_v6","SARL_v6oan5qmn9","6400dc9f84ed19aeedc1a2cc","mixAttFreqPrac","","","img/orange_2bandit_a2.png","70","img/orange_2bandit_a2.png","70","prac","","","1","","","","","","","","","","","","","","","","",""
"354.7000000476837","171427","SARL_v6","SARL_v6oan5qmn9","6400dc9f84ed19aeedc1a2cc","freqPrac_resp","","","img/orange_2bandit_a.png","70","img/orange_2bandit_a.png","70","prac","","","1","","","","","","","","","","","","","","","","",""
"null","171580","SARL_v6","SARL_v6oan5qmn9","6400dc9f84ed19aeedc1a2cc","fixation","","","img/fixation.png","null","","","prac","","","","","","","","","","","","","","","","","","","",""
"430.7000000476837","172012","SARL_v6","SARL_v6oan5qmn9","6400dc9f84ed19aeedc1a2cc","mixAttInfreqPrac","","","img/blue_2bandit_a2.png","68","img/blue_2bandit_a2.png","68","prac","","","2","","","","","","","","","","","","","","","","",""
"430.7000000476837","172397","SARL_v6","SARL_v6oan5qmn9","6400dc9f84ed19aeedc1a2cc","infreqPrac_resp","","","img/blue_2bandit_a.png","68","img/orange_2bandit_a.png","68","prac","","","2","","","","","","","","","","","","","","","","",""
"null","172553","SARL_v6","SARL_v6oan5qmn9","6400dc9f84ed19aeedc1a2cc","fixation","","","img/fixation.png","null","","","prac","","","","","","","","","","","","","","","","","","","",""
"483.69999980926514","173039","SARL_v6","SARL_v6oan5qmn9","6400dc9f84ed19aeedc1a2cc","mixAttInfreqPrac","","","img/blue_2bandit_a2.png","68","img/blue_2bandit_a2.png","68","prac","","","3","","","","","","","","","","","","","","","","",""
"483.69999980926514","173362","SARL_v6","SARL_v6oan5qmn9","6400dc9f84ed19aeedc1a2cc","infreqPrac_resp","","","img/blue_2bandit_a.png","68","img/orange_2bandit_a.png","68","prac","","","3","","","","","","","","","","","","","","","","",""
"null","173514","SARL_v6","SARL_v6oan5qmn9","6400dc9f84ed19aeedc1a2cc","fixation","","","img/fixation.png","null","","","prac","","","","","","","","","","","","","","","","","","","",""
"450.7999999523163","173967","SARL_v6","SARL_v6oan5qmn9","6400dc9f84ed19aeedc1a2cc","mixAttInfreqPrac","","","img/blue_2bandit_a2.png","68","img/blue_2bandit_a2.png","68","prac","","","4","","","","","","","","","","","","","","","","",""
"450.7999999523163","174324","SARL_v6","SARL_v6oan5qmn9","6400dc9f84ed19aeedc1a2cc","infreqPrac_resp","","","img/blue_2bandit_a.png","68","img/orange_2bandit_a.png","68","prac","","","4","","","","","","","","","","","","","","","","",""
"null","174479","SARL_v6","SARL_v6oan5qmn9","6400dc9f84ed19aeedc1a2cc","fixation","","","img/fixation.png","null","","","prac","","","","","","","","","","","","","","","","","","","",""
"439.7000000476837","174921","SARL_v6","SARL_v6oan5qmn9","6400dc9f84ed19aeedc1a2cc","mixAttFreqPrac","","","img/orange_2bandit_a2.png","70","img/orange_2bandit_a2.png","70","prac","","","5","","","","","","","","","","","","","","","","",""
"439.7000000476837","175286","SARL_v6","SARL_v6oan5qmn9","6400dc9f84ed19aeedc1a2cc","freqPrac_resp","","","img/orange_2bandit_a.png","70","img/orange_2bandit_a.png","70","prac","","","5","","","","","","","","","","","","","","","","",""
"null","175441","SARL_v6","SARL_v6oan5qmn9","6400dc9f84ed19aeedc1a2cc","fixation","","","img/fixation.png","null","","","prac","","","","","","","","","","","","","","","","","","","",""
"620","176062","SARL_v6","SARL_v6oan5qmn9","6400dc9f84ed19aeedc1a2cc","mixRLPractice","","","img/black_2bandit_a2.png","75","img/black_2bandit_a2.png","","prac","","","5","","","","","","","","","","","","","","","","",""
"null","176818","SARL_v6","SARL_v6oan5qmn9","6400dc9f84ed19aeedc1a2cc","feedback","","","<div class=""verylowPoints""> -14 </div>","null","","na","prac","","","6","-14","10","-14","","","","","","","","","","","","","",""
"null","176974","SARL_v6","SARL_v6oan5qmn9","6400dc9f84ed19aeedc1a2cc","fixation","","","img/fixation.png","null","","","prac","","","","","","","","","","","","","","","","","","","",""
"737","177713","SARL_v6","SARL_v6oan5qmn9","6400dc9f84ed19aeedc1a2cc","mixAttFreqPrac","","","img/orange_2bandit_a2.png","70","img/orange_2bandit_a2.png","70","prac","","","7","","","","","","","","","","","","","","","","",""
"737","177781","SARL_v6","SARL_v6oan5qmn9","6400dc9f84ed19aeedc1a2cc","freqPrac_resp","","","img/orange_2bandit_a.png","70","img/orange_2bandit_a.png","70","prac","","","7","","","","","","","","","","","","","","","","",""
"null","177938","SARL_v6","SARL_v6oan5qmn9","6400dc9f84ed19aeedc1a2cc","fixation","","","img/fixation.png","null","","","prac","","","","","","","","","","","","","","","","","","","",""
"545.5999999046326","178485","SARL_v6","SARL_v6oan5qmn9","6400dc9f84ed19aeedc1a2cc","mixAttInfreqPrac","","","img/blue_2bandit_a2.png","68","img/blue_2bandit_a2.png","68","prac","","","8","","","","","","","","","","","","","","","","",""
"545.5999999046326","178749","SARL_v6","SARL_v6oan5qmn9","6400dc9f84ed19aeedc1a2cc","infreqPrac_resp","","","img/blue_2bandit_a.png","68","img/orange_2bandit_a.png","68","prac","","","8","","","","","","","","","","","","","","","","",""
"null","178906","SARL_v6","SARL_v6oan5qmn9","6400dc9f84ed19aeedc1a2cc","fixation","","","img/fixation.png","null","","","prac","","","","","","","","","","","","","","","","","","","",""
"622.8999998569489","179531","SARL_v6","SARL_v6oan5qmn9","6400dc9f84ed19aeedc1a2cc","mixAttFreqPrac","","","img/orange_2bandit_a2.png","70","img/orange_2bandit_a2.png","70","prac","","","9","","","","","","","","","","","","","","","","",""
"622.8999998569489","179722","SARL_v6","SARL_v6oan5qmn9","6400dc9f84ed19aeedc1a2cc","freqPrac_resp","","","img/orange_2bandit_a.png","70","img/orange_2bandit_a.png","70","prac","","","9","","","","","","","","","","","","","","","","",""
"null","179877","SARL_v6","SARL_v6oan5qmn9","6400dc9f84ed19aeedc1a2cc","fixation","","","img/fixation.png","null","","","prac","","","","","","","","","","","","","","","","","","","",""
"604.5","180484","SARL_v6","SARL_v6oan5qmn9","6400dc9f84ed19aeedc1a2cc","mixAttFreqPrac","","","img/orange_2bandit_a2.png","70","img/orange_2bandit_a2.png","70","prac","","","10","","","","","","","","","","","","","","","","",""
"604.5","180689","SARL_v6","SARL_v6oan5qmn9","6400dc9f84ed19aeedc1a2cc","freqPrac_resp","","","img/orange_2bandit_a.png","70","img/orange_2bandit_a.png","70","prac","","","10","","","","","","","","","","","","","","","","",""
"null","180845","SARL_v6","SARL_v6oan5qmn9","6400dc9f84ed19aeedc1a2cc","fixation","","","img/fixation.png","null","","","prac","","","","","","","","","","","","","","","","","","","",""
"513.9000000953674","181361","SARL_v6","SARL_v6oan5qmn9","6400dc9f84ed19aeedc1a2cc","mixAttInfreqPrac","","","img/blue_2bandit_a2.png","68","img/blue_2bandit_a2.png","68","prac","","","11","","","","","","","","","","","","","","","","",""
"513.9000000953674","181657","SARL_v6","SARL_v6oan5qmn9","6400dc9f84ed19aeedc1a2cc","infreqPrac_resp","","","img/blue_2bandit_a.png","68","img/orange_2bandit_a.png","68","prac","","","11","","","","","","","","","","","","","","","","",""
"null","181813","SARL_v6","SARL_v6oan5qmn9","6400dc9f84ed19aeedc1a2cc","fixation","","","img/fixation.png","null","","","prac","","","","","","","","","","","","","","","","","","","",""
"635.0999999046326","182450","SARL_v6","SARL_v6oan5qmn9","6400dc9f84ed19aeedc1a2cc","mixRLPractice","","","img/black_2bandit_a2.png","74","img/black_2bandit_a2.png","","prac","","","11","","","","","","","","","","","","","","","","",""
"null","183211","SARL_v6","SARL_v6oan5qmn9","6400dc9f84ed19aeedc1a2cc","feedback","","","<div class=""verylowPoints_sq""> -5 </div>","null","","na","prac","","","12","5","-5","5","","","","","","","","","","","","","",""
"null","183366","SARL_v6","SARL_v6oan5qmn9","6400dc9f84ed19aeedc1a2cc","fixation","","","img/fixation.png","null","","","prac","","","","","","","","","","","","","","","","","","","",""
"17801.10000014305","201169","SARL_v6","SARL_v6oan5qmn9","6400dc9f84ed19aeedc1a2cc","","","","","","","","prac","","","","","","","","","","","","","","","","","","","",""
"361.90000009536743","201534","SARL_v6","SARL_v6oan5qmn9","6400dc9f84ed19aeedc1a2cc","freq","","","img/orange_2bandit_a2.png","70","","70","test","1","","1","","","","square","circle","1","1","1","1","","","","","","","",""
"null","201990","SARL_v6","SARL_v6oan5qmn9","6400dc9f84ed19aeedc1a2cc","freq_resp","","","img/orange_2bandit_a.png","70","img/orange_2bandit_a.png","70","test","","","","","","","","","","","1","","","","","","","","",""
"null","202146","SARL_v6","SARL_v6oan5qmn9","6400dc9f84ed19aeedc1a2cc","fixation","","","img/fixation.png","null","","","test","","","","","","","","","","","","","","","","","","","",""
"406.09999990463257","202554","SARL_v6","SARL_v6oan5qmn9","6400dc9f84ed19aeedc1a2cc","freq","","","img/orange_2bandit_a2.png","70","","70","test","1","","2","","","","square","circle","2","2","1","1","","","","","","","",""
"null","202956","SARL_v6","SARL_v6oan5qmn9","6400dc9f84ed19aeedc1a2cc","freq_resp","","","img/orange_2bandit_a.png","70","img/orange_2bandit_a.png","70","test","","","","","","","","","","","1","","","","","","","","",""
"null","203113","SARL_v6","SARL_v6oan5qmn9","6400dc9f84ed19aeedc1a2cc","fixation","","","img/fixation.png","null","","","test","","","","","","","","","","","","","","","","","","","",""
"508.80000019073486","203624","SARL_v6","SARL_v6oan5qmn9","6400dc9f84ed19aeedc1a2cc","freq","","","img/orange_2bandit_a2.png","70","","70","test","1","","3","","","","square","circle","3","3","1","1","","","","","","","",""
"null","203924","SARL_v6","SARL_v6oan5qmn9","6400dc9f84ed19aeedc1a2cc","freq_resp","","","img/orange_2bandit_a.png","70","img/orange_2bandit_a.png","70","test","","","","","","","","","","","1","","","","","","","","",""
"null","204079","SARL_v6","SARL_v6oan5qmn9","6400dc9f84ed19aeedc1a2cc","fixation","","","img/fixation.png","null","","","test","","","","","","","","","","","","","","","","","","","",""
"468","204549","SARL_v6","SARL_v6oan5qmn9","6400dc9f84ed19aeedc1a2cc","freq","","","img/orange_2bandit_a2.png","70","","70","test","1","","4","","","","square","circle","4","4","1","1","","","","","","","",""
"null","204891","SARL_v6","SARL_v6oan5qmn9","6400dc9f84ed19aeedc1a2cc","freq_resp","","","img/orange_2bandit_a.png","70","img/orange_2bandit_a.png","70","test","","","","","","","","","","","1","","","","","","","","",""
"null","205044","SARL_v6","SARL_v6oan5qmn9","6400dc9f84ed19aeedc1a2cc","fixation","","","img/fixation.png","null","","","test","","","","","","","","","","","","","","","","","","","",""
"443.59999990463257","205489","SARL_v6","SARL_v6oan5qmn9","6400dc9f84ed19aeedc1a2cc","freq","","","img/orange_2bandit_a2.png","70","","70","test","1","","5","","","","square","circle","5","5","1","1","","","","","","","",""
"null","205847","SARL_v6","SARL_v6oan5qmn9","6400dc9f84ed19aeedc1a2cc","freq_resp","","","img/orange_2bandit_a.png","70","img/orange_2bandit_a.png","70","test","","","","","","","","","","","1","","","","","","","","",""
"null","206006","SARL_v6","SARL_v6oan5qmn9","6400dc9f84ed19aeedc1a2cc","fixation","","","img/fixation.png","null","","","test","","","","","","","","","","","","","","","","","","","",""
"447.39999985694885","206456","SARL_v6","SARL_v6oan5qmn9","6400dc9f84ed19aeedc1a2cc","freq","","","img/orange_2bandit_a2.png","70","","70","test","1","","6","","","","square","circle","6","6","1","1","","","","","","","",""
"null","206821","SARL_v6","SARL_v6oan5qmn9","6400dc9f84ed19aeedc1a2cc","freq_resp","","","img/orange_2bandit_a.png","70","img/orange_2bandit_a.png","70","test","","","","","","","","","","","1","","","","","","","","",""
"null","206976","SARL_v6","SARL_v6oan5qmn9","6400dc9f84ed19aeedc1a2cc","fixation","","","img/fixation.png","null","","","test","","","","","","","","","","","","","","","","","","","",""
"434.5","207413","SARL_v6","SARL_v6oan5qmn9","6400dc9f84ed19aeedc1a2cc","freq","","","img/orange_2bandit_a2.png","70","","70","test","1","","7","","","","square","circle","7","7","1","1","","","","","","","",""
"null","207784","SARL_v6","SARL_v6oan5qmn9","6400dc9f84ed19aeedc1a2cc","freq_resp","","","img/orange_2bandit_a.png","70","img/orange_2bandit_a.png","70","test","","","","","","","","","","","1","","","","","","","","",""
"null","207942","SARL_v6","SARL_v6oan5qmn9","6400dc9f84ed19aeedc1a2cc","fixation","","","img/fixation.png","null","","","test","","","","","","","","","","","","","","","","","","","",""
"445.40000009536743","208390","SARL_v6","SARL_v6oan5qmn9","6400dc9f84ed19aeedc1a2cc","infreq","","","img/blue_2bandit_a2.png","68","","68","test","1","","8","","","","square","circle","8","8","1","1","","","","","","","",""
"null","208749","SARL_v6","SARL_v6oan5qmn9","6400dc9f84ed19aeedc1a2cc","infreq_resp","","","img/blue_2bandit_a.png","68","img/blue_2bandit_a.png","68","test","","","","","","","","","","","1","","","","","","","","",""
"null","208904","SARL_v6","SARL_v6oan5qmn9","6400dc9f84ed19aeedc1a2cc","fixation","","","img/fixation.png","null","","","test","","","","","","","","","","","","","","","","","","","",""
"497.7000000476837","209404","SARL_v6","SARL_v6oan5qmn9","6400dc9f84ed19aeedc1a2cc","freq","","","img/orange_2bandit_a2.png","70","","70","test","1","","9","","","","square","circle","9","9","1","1","","","","","","","",""
"null","209719","SARL_v6","SARL_v6oan5qmn9","6400dc9f84ed19aeedc1a2cc","freq_resp","","","img/orange_2bandit_a.png","70","img/orange_2bandit_a.png","70","test","","","","","","","","","","","1","","","","","","","","",""
"null","209873","SARL_v6","SARL_v6oan5qmn9","6400dc9f84ed19aeedc1a2cc","fixation","","","img/fixation.png","null","","","test","","","","","","","","","","","","","","","","","","","",""
"489.7999999523163","210364","SARL_v6","SARL_v6oan5qmn9","6400dc9f84ed19aeedc1a2cc","freq","","","img/orange_2bandit_a2.png","70","","70","test","1","","10","","","","square","circle","10","10","1","1","","","","","","","",""
"null","210684","SARL_v6","SARL_v6oan5qmn9","6400dc9f84ed19aeedc1a2cc","freq_resp","","","img/orange_2bandit_a.png","70","img/orange_2bandit_a.png","70","test","","","","","","","","","","","1","","","","","","","","",""
"null","210837","SARL_v6","SARL_v6oan5qmn9","6400dc9f84ed19aeedc1a2cc","fixation","","","img/fixation.png","null","","","test","","","","","","","","","","","","","","","","","","","",""
"474.40000009536743","211314","SARL_v6","SARL_v6oan5qmn9","6400dc9f84ed19aeedc1a2cc","freq","","","img/orange_2bandit_a2.png","70","","70","test","1","","11","","","","square","circle","11","11","1","1","","","","","","","",""
"null","211650","SARL_v6","SARL_v6oan5qmn9","6400dc9f84ed19aeedc1a2cc","freq_resp","","","img/orange_2bandit_a.png","70","img/orange_2bandit_a.png","70","test","","","","","","","","","","","1","","","","","","","","",""
"null","211803","SARL_v6","SARL_v6oan5qmn9","6400dc9f84ed19aeedc1a2cc","fixation","","","img/fixation.png","null","","","test","","","","","","","","","","","","","","","","","","","",""
"418","212223","SARL_v6","SARL_v6oan5qmn9","6400dc9f84ed19aeedc1a2cc","freq","","","img/orange_2bandit_a2.png","70","","70","test","1","","12","","","","square","circle","12","12","1","1","","","","","","","",""
"null","212618","SARL_v6","SARL_v6oan5qmn9","6400dc9f84ed19aeedc1a2cc","freq_resp","","","img/orange_2bandit_a.png","70","img/orange_2bandit_a.png","70","test","","","","","","","","","","","1","","","","","","","","",""
"null","212772","SARL_v6","SARL_v6oan5qmn9","6400dc9f84ed19aeedc1a2cc","fixation","","","img/fixation.png","null","","","test","","","","","","","","","","","","","","","","","","","",""
"398","213172","SARL_v6","SARL_v6oan5qmn9","6400dc9f84ed19aeedc1a2cc","freq","","","img/orange_2bandit_a2.png","70","","70","test","1","","13","","","","square","circle","13","13","1","1","","","","","","","",""
"null","213583","SARL_v6","SARL_v6oan5qmn9","6400dc9f84ed19aeedc1a2cc","freq_resp","","","img/orange_2bandit_a.png","70","img/orange_2bandit_a.png","70","test","","","","","","","","","","","1","","","","","","","","",""
"null","213738","SARL_v6","SARL_v6oan5qmn9","6400dc9f84ed19aeedc1a2cc","fixation","","","img/fixation.png","null","","","test","","","","","","","","","","","","","","","","","","","",""
"449","214189","SARL_v6","SARL_v6oan5qmn9","6400dc9f84ed19aeedc1a2cc","freq","","","img/orange_2bandit_a2.png","70","","70","test","1","","14","","","","square","circle","14","14","1","1","","","","","","","",""
"null","214545","SARL_v6","SARL_v6oan5qmn9","6400dc9f84ed19aeedc1a2cc","freq_resp","","","img/orange_2bandit_a.png","70","img/orange_2bandit_a.png","70","test","","","","","","","","","","","1","","","","","","","","",""
"null","214701","SARL_v6","SARL_v6oan5qmn9","6400dc9f84ed19aeedc1a2cc","fixation","","","img/fixation.png","null","","","test","","","","","","","","","","","","","","","","","","","",""
"587","215289","SARL_v6","SARL_v6oan5qmn9","6400dc9f84ed19aeedc1a2cc","infreq","","","img/blue_2bandit_a2.png","68","","68","test","1","","15","","","","square","circle","15","15","1","1","","","","","","","",""
"null","215517","SARL_v6","SARL_v6oan5qmn9","6400dc9f84ed19aeedc1a2cc","infreq_resp","","","img/blue_2bandit_a.png","68","img/blue_2bandit_a.png","68","test","","","","","","","","","","","1","","","","","","","","",""
"null","215671","SARL_v6","SARL_v6oan5qmn9","6400dc9f84ed19aeedc1a2cc","fixation","","","img/fixation.png","null","","","test","","","","","","","","","","","","","","","","","","","",""
"465.59999990463257","216139","SARL_v6","SARL_v6oan5qmn9","6400dc9f84ed19aeedc1a2cc","freq","","","img/orange_2bandit_a2.png","70","","70","test","1","","16","","","","square","circle","16","16","1","1","","","","","","","",""
"null","216484","SARL_v6","SARL_v6oan5qmn9","6400dc9f84ed19aeedc1a2cc","freq_resp","","","img/orange_2bandit_a.png","70","img/orange_2bandit_a.png","70","test","","","","","","","","","","","1","","","","","","","","",""
"null","216636","SARL_v6","SARL_v6oan5qmn9","6400dc9f84ed19aeedc1a2cc","fixation","","","img/fixation.png","null","","","test","","","","","","","","","","","","","","","","","","","",""
"476.90000009536743","217116","SARL_v6","SARL_v6oan5qmn9","6400dc9f84ed19aeedc1a2cc","freq","","","img/orange_2bandit_a2.png","70","","70","test","1","","17","","","","square","circle","17","17","1","1","","","","","","","",""
"null","217451","SARL_v6","SARL_v6oan5qmn9","6400dc9f84ed19aeedc1a2cc","freq_resp","","","img/orange_2bandit_a.png","70","img/orange_2bandit_a.png","70","test","","","","","","","","","","","1","","","","","","","","",""
"null","217608","SARL_v6","SARL_v6oan5qmn9","6400dc9f84ed19aeedc1a2cc","fixation","","","img/fixation.png","null","","","test","","","","","","","","","","","","","","","","","","","",""
"486.90000009536743","218097","SARL_v6","SARL_v6oan5qmn9","6400dc9f84ed19aeedc1a2cc","freq","","","img/orange_2bandit_a2.png","70","","70","test","1","","18","","","","square","circle","18","18","1","1","","","","","","","",""
"null","218417","SARL_v6","SARL_v6oan5qmn9","6400dc9f84ed19aeedc1a2cc","freq_resp","","","img/orange_2bandit_a.png","70","img/orange_2bandit_a.png","70","test","","","","","","","","","","","1","","","","","","","","",""
"null","218570","SARL_v6","SARL_v6oan5qmn9","6400dc9f84ed19aeedc1a2cc","fixation","","","img/fixation.png","null","","","test","","","","","","","","","","","","","","","","","","","",""
"445.30000019073486","219018","SARL_v6","SARL_v6oan5qmn9","6400dc9f84ed19aeedc1a2cc","freq","","","img/orange_2bandit_a2.png","70","","70","test","1","","19","","","","square","circle","19","19","1","1","","","","","","","",""
"null","219385","SARL_v6","SARL_v6oan5qmn9","6400dc9f84ed19aeedc1a2cc","freq_resp","","","img/orange_2bandit_a.png","70","img/orange_2bandit_a.png","70","test","","","","","","","","","","","1","","","","","","","","",""
"null","219541","SARL_v6","SARL_v6oan5qmn9","6400dc9f84ed19aeedc1a2cc","fixation","","","img/fixation.png","null","","","test","","","","","","","","","","","","","","","","","","","",""
"435.2999999523163","219978","SARL_v6","SARL_v6oan5qmn9","6400dc9f84ed19aeedc1a2cc","freq","","","img/orange_2bandit_a2.png","70","","70","test","1","","20","","","","square","circle","20","20","1","1","","","","","","","",""
"null","220358","SARL_v6","SARL_v6oan5qmn9","6400dc9f84ed19aeedc1a2cc","freq_resp","","","img/orange_2bandit_a.png","70","img/orange_2bandit_a.png","70","test","","","","","","","","","","","1","","","","","","","","",""
"null","220515","SARL_v6","SARL_v6oan5qmn9","6400dc9f84ed19aeedc1a2cc","fixation","","","img/fixation.png","null","","","test","","","","","","","","","","","","","","","","","","","",""
"390.2000000476837","220907","SARL_v6","SARL_v6oan5qmn9","6400dc9f84ed19aeedc1a2cc","freq","","","img/orange_2bandit_a2.png","70","","70","test","1","","21","","","","square","circle","21","21","1","1","","","","","","","",""
"null","221320","SARL_v6","SARL_v6oan5qmn9","6400dc9f84ed19aeedc1a2cc","freq_resp","","","img/orange_2bandit_a.png","70","img/orange_2bandit_a.png","70","test","","","","","","","","","","","1","","","","","","","","",""
"null","221478","SARL_v6","SARL_v6oan5qmn9","6400dc9f84ed19aeedc1a2cc","fixation","","","img/fixation.png","null","","","test","","","","","","","","","","","","","","","","","","","",""
"396.40000009536743","221877","SARL_v6","SARL_v6oan5qmn9","6400dc9f84ed19aeedc1a2cc","freq","","","img/orange_2bandit_a2.png","70","","70","test","1","","22","","","","square","circle","22","22","1","1","","","","","","","",""
"null","222298","SARL_v6","SARL_v6oan5qmn9","6400dc9f84ed19aeedc1a2cc","freq_resp","","","img/orange_2bandit_a.png","70","img/orange_2bandit_a.png","70","test","","","","","","","","","","","1","","","","","","","","",""
"null","222453","SARL_v6","SARL_v6oan5qmn9","6400dc9f84ed19aeedc1a2cc","fixation","","","img/fixation.png","null","","","test","","","","","","","","","","","","","","","","","","","",""
"530","222986","SARL_v6","SARL_v6oan5qmn9","6400dc9f84ed19aeedc1a2cc","rl","","","img/black_2bandit_a2.png","74","","0","test","","","23","","","-3","square","circle","","0","1","","74","-3","-3","-3","-3","square","1","0"
"null","223754","SARL_v6","SARL_v6oan5qmn9","6400dc9f84ed19aeedc1a2cc","feedback","","","<div class=""verylowPoints_sq""> -3 </div>","null","","na","test","","","NaN","","","","","","","","1","","74","","","","","","1",""
"634.6000001430511","224391","SARL_v6","SARL_v6oan5qmn9","6400dc9f84ed19aeedc1a2cc","freq","","","img/orange_2bandit_a2.png","70","","70","test","1","","24","","","","square","circle","23","1","2","1","","","","","","","",""
"null","224564","SARL_v6","SARL_v6oan5qmn9","6400dc9f84ed19aeedc1a2cc","freq_resp","","","img/orange_2bandit_a.png","70","img/orange_2bandit_a.png","70","test","","","","","","","","","","","2","","","","","","","","",""
"null","224719","SARL_v6","SARL_v6oan5qmn9","6400dc9f84ed19aeedc1a2cc","fixation","","","img/fixation.png","null","","","test","","","","","","","","","","","","","","","","","","","",""
"469.90000009536743","225192","SARL_v6","SARL_v6oan5qmn9","6400dc9f84ed19aeedc1a2cc","freq","","","img/orange_2bandit_a2.png","70","","70","test","1","","25","","","","square","circle","24","2","2","1","","","","","","","",""
"null","225529","SARL_v6","SARL_v6oan5qmn9","6400dc9f84ed19aeedc1a2cc","freq_resp","","","img/orange_2bandit_a.png","70","img/orange_2bandit_a.png","70","test","","","","","","","","","","","2","","","","","","","","",""
"null","225685","SARL_v6","SARL_v6oan5qmn9","6400dc9f84ed19aeedc1a2cc","fixation","","","img/fixation.png","null","","","test","","","","","","","","","","","","","","","","","","","",""
"462.89999985694885","226150","SARL_v6","SARL_v6oan5qmn9","6400dc9f84ed19aeedc1a2cc","freq","","","img/orange_2bandit_a2.png","70","","70","test","1","","26","","","","square","circle","25","3","2","1","","","","","","","",""
"null","226498","SARL_v6","SARL_v6oan5qmn9","6400dc9f84ed19aeedc1a2cc","freq_resp","","","img/orange_2bandit_a.png","70","img/orange_2bandit_a.png","70","test","","","","","","","","","","","2","","","","","","","","",""
"null","226653","SARL_v6","SARL_v6oan5qmn9","6400dc9f84ed19aeedc1a2cc","fixation","","","img/fixation.png","null","","","test","","","","","","","","","","","","","","","","","","","",""
"434.2000000476837","227090","SARL_v6","SARL_v6oan5qmn9","6400dc9f84ed19aeedc1a2cc","freq","","","img/orange_2bandit_a2.png","70","","70","test","1","","27","","","","square","circle","26","4","2","1","","","","","","","",""
"null","227469","SARL_v6","SARL_v6oan5qmn9","6400dc9f84ed19aeedc1a2cc","freq_resp","","","img/orange_2bandit_a.png","70","img/orange_2bandit_a.png","70","test","","","","","","","","","","","2","","","","","","","","",""
"null","227629","SARL_v6","SARL_v6oan5qmn9","6400dc9f84ed19aeedc1a2cc","fixation","","","img/fixation.png","null","","","test","","","","","","","","","","","","","","","","","","","",""
"496","228127","SARL_v6","SARL_v6oan5qmn9","6400dc9f84ed19aeedc1a2cc","freq","","","img/orange_2bandit_a2.png","70","","70","test","1","","28","","","","square","circle","27","5","2","1","","","","","","","",""
"null","228442","SARL_v6","SARL_v6oan5qmn9","6400dc9f84ed19aeedc1a2cc","freq_resp","","","img/orange_2bandit_a.png","70","img/orange_2bandit_a.png","70","test","","","","","","","","","","","2","","","","","","","","",""
"null","228600","SARL_v6","SARL_v6oan5qmn9","6400dc9f84ed19aeedc1a2cc","fixation","","","img/fixation.png","null","","","test","","","","","","","","","","","","","","","","","","","",""
"468.90000009536743","229072","SARL_v6","SARL_v6oan5qmn9","6400dc9f84ed19aeedc1a2cc","freq","","","img/orange_2bandit_a2.png","70","","70","test","1","","29","","","","square","circle","28","6","2","1","","","","","","","",""
"null","229417","SARL_v6","SARL_v6oan5qmn9","6400dc9f84ed19aeedc1a2cc","freq_resp","","","img/orange_2bandit_a.png","70","img/orange_2bandit_a.png","70","test","","","","","","","","","","","2","","","","","","","","",""
"null","229573","SARL_v6","SARL_v6oan5qmn9","6400dc9f84ed19aeedc1a2cc","fixation","","","img/fixation.png","null","","","test","","","","","","","","","","","","","","","","","","","",""
"473.7999999523163","230049","SARL_v6","SARL_v6oan5qmn9","6400dc9f84ed19aeedc1a2cc","freq","","","img/orange_2bandit_a2.png","70","","70","test","1","","30","","","","square","circle","29","7","2","1","","","","","","","",""
"null","230384","SARL_v6","SARL_v6oan5qmn9","6400dc9f84ed19aeedc1a2cc","freq_resp","","","img/orange_2bandit_a.png","70","img/orange_2bandit_a.png","70","test","","","","","","","","","","","2","","","","","","","","",""
"null","230540","SARL_v6","SARL_v6oan5qmn9","6400dc9f84ed19aeedc1a2cc","fixation","","","img/fixation.png","null","","","test","","","","","","","","","","","","","","","","","","","",""
"483.30000019073486","231026","SARL_v6","SARL_v6oan5qmn9","6400dc9f84ed19aeedc1a2cc","freq","","","img/orange_2bandit_a2.png","70","","70","test","1","","31","","","","square","circle","30","8","2","1","","","","","","","",""
"null","231356","SARL_v6","SARL_v6oan5qmn9","6400dc9f84ed19aeedc1a2cc","freq_resp","","","img/orange_2bandit_a.png","70","img/orange_2bandit_a.png","70","test","","","","","","","","","","","2","","","","","","","","",""
"null","231512","SARL_v6","SARL_v6oan5qmn9","6400dc9f84ed19aeedc1a2cc","fixation","","","img/fixation.png","null","","","test","","","","","","","","","","","","","","","","","","","",""
"464.80000019073486","231979","SARL_v6","SARL_v6oan5qmn9","6400dc9f84ed19aeedc1a2cc","freq","","","img/orange_2bandit_a2.png","70","","70","test","1","","32","","","","square","circle","31","9","2","1","","","","","","","",""
"null","232326","SARL_v6","SARL_v6oan5qmn9","6400dc9f84ed19aeedc1a2cc","freq_resp","","","img/orange_2bandit_a.png","70","img/orange_2bandit_a.png","70","test","","","","","","","","","","","2","","","","","","","","",""
"null","232483","SARL_v6","SARL_v6oan5qmn9","6400dc9f84ed19aeedc1a2cc","fixation","","","img/fixation.png","null","","","test","","","","","","","","","","","","","","","","","","","",""
"438.59999990463257","232923","SARL_v6","SARL_v6oan5qmn9","6400dc9f84ed19aeedc1a2cc","freq","","","img/orange_2bandit_a2.png","70","","70","test","1","","33","","","","square","circle","32","10","2","1","","","","","","","",""
"null","233299","SARL_v6","SARL_v6oan5qmn9","6400dc9f84ed19aeedc1a2cc","freq_resp","","","img/orange_2bandit_a.png","70","img/orange_2bandit_a.png","70","test","","","","","","","","","","","2","","","","","","","","",""
"null","233455","SARL_v6","SARL_v6oan5qmn9","6400dc9f84ed19aeedc1a2cc","fixation","","","img/fixation.png","null","","","test","","","","","","","","","","","","","","","","","","","",""
"436","233894","SARL_v6","SARL_v6oan5qmn9","6400dc9f84ed19aeedc1a2cc","freq","","","img/orange_2bandit_a2.png","70","","70","test","1","","34","","","","square","circle","33","11","2","1","","","","","","","",""
"null","234270","SARL_v6","SARL_v6oan5qmn9","6400dc9f84ed19aeedc1a2cc","freq_resp","","","img/orange_2bandit_a.png","70","img/orange_2bandit_a.png","70","test","","","","","","","","","","","2","","","","","","","","",""
"null","234426","SARL_v6","SARL_v6oan5qmn9","6400dc9f84ed19aeedc1a2cc","fixation","","","img/fixation.png","null","","","test","","","","","","","","","","","","","","","","","","","",""
"422.7999999523163","234850","SARL_v6","SARL_v6oan5qmn9","6400dc9f84ed19aeedc1a2cc","infreq","","","img/blue_2bandit_a2.png","68","","68","test","1","","35","","","","square","circle","34","12","2","1","","","","","","","",""
"null","235235","SARL_v6","SARL_v6oan5qmn9","6400dc9f84ed19aeedc1a2cc","infreq_resp","","","img/blue_2bandit_a.png","68","img/blue_2bandit_a.png","68","test","","","","","","","","","","","2","","","","","","","","",""
"null","235391","SARL_v6","SARL_v6oan5qmn9","6400dc9f84ed19aeedc1a2cc","fixation","","","img/fixation.png","null","","","test","","","","","","","","","","","","","","","","","","","",""
"490.5","235883","SARL_v6","SARL_v6oan5qmn9","6400dc9f84ed19aeedc1a2cc","freq","","","img/orange_2bandit_a2.png","70","","70","test","1","","36","","","","square","circle","35","13","2","1","","","","","","","",""
"null","236204","SARL_v6","SARL_v6oan5qmn9","6400dc9f84ed19aeedc1a2cc","freq_resp","","","img/orange_2bandit_a.png","70","img/orange_2bandit_a.png","70","test","","","","","","","","","","","2","","","","","","","","",""
"null","236356","SARL_v6","SARL_v6oan5qmn9","6400dc9f84ed19aeedc1a2cc","fixation","","","img/fixation.png","null","","","test","","","","","","","","","","","","","","","","","","","",""
"547.3000001907349","236906","SARL_v6","SARL_v6oan5qmn9","6400dc9f84ed19aeedc1a2cc","freq","","","img/orange_2bandit_a2.png","70","","70","test","1","","37","","","","square","circle","36","14","2","1","","","","","","","",""
"null","237170","SARL_v6","SARL_v6oan5qmn9","6400dc9f84ed19aeedc1a2cc","freq_resp","","","img/orange_2bandit_a.png","70","img/orange_2bandit_a.png","70","test","","","","","","","","","","","2","","","","","","","","",""
"null","237327","SARL_v6","SARL_v6oan5qmn9","6400dc9f84ed19aeedc1a2cc","fixation","","","img/fixation.png","null","","","test","","","","","","","","","","","","","","","","","","","",""
"601.7999999523163","237931","SARL_v6","SARL_v6oan5qmn9","6400dc9f84ed19aeedc1a2cc","freq","","","img/orange_2bandit_a2.png","70","","70","test","1","","38","","","","square","circle","37","15","2","1","","","","","","","",""
"null","238136","SARL_v6","SARL_v6oan5qmn9","6400dc9f84ed19aeedc1a2cc","freq_resp","","","img/orange_2bandit_a.png","70","img/orange_2bandit_a.png","70","test","","","","","","","","","","","2","","","","","","","","",""
"null","238294","SARL_v6","SARL_v6oan5qmn9","6400dc9f84ed19aeedc1a2cc","fixation","","","img/fixation.png","null","","","test","","","","","","","","","","","","","","","","","","","",""
"547.5","238844","SARL_v6","SARL_v6oan5qmn9","6400dc9f84ed19aeedc1a2cc","freq","","","img/orange_2bandit_a2.png","70","","70","test","1","","39","","","","square","circle","38","16","2","1","","","","","","","",""
"null","239109","SARL_v6","SARL_v6oan5qmn9","6400dc9f84ed19aeedc1a2cc","freq_resp","","","img/orange_2bandit_a.png","70","img/orange_2bandit_a.png","70","test","","","","","","","","","","","2","","","","","","","","",""
"null","239266","SARL_v6","SARL_v6oan5qmn9","6400dc9f84ed19aeedc1a2cc","fixation","","","img/fixation.png","null","","","test","","","","","","","","","","","","","","","","","","","",""
"576.4000000953674","239845","SARL_v6","SARL_v6oan5qmn9","6400dc9f84ed19aeedc1a2cc","infreq","","","img/blue_2bandit_a2.png","68","","68","test","1","","40","","","","square","circle","39","17","2","1","","","","","","","",""
"null","240078","SARL_v6","SARL_v6oan5qmn9","6400dc9f84ed19aeedc1a2cc","infreq_resp","","","img/blue_2bandit_a.png","68","img/blue_2bandit_a.png","68","test","","","","","","","","","","","2","","","","","","","","",""
"null","240233","SARL_v6","SARL_v6oan5qmn9","6400dc9f84ed19aeedc1a2cc","fixation","","","img/fixation.png","null","","","test","","","","","","","","","","","","","","","","","","","",""
"563.7999999523163","240799","SARL_v6","SARL_v6oan5qmn9","6400dc9f84ed19aeedc1a2cc","freq","","","img/orange_2bandit_a2.png","70","","70","test","1","","41","","","","square","circle","40","18","2","1","","","","","","","",""
"null","241051","SARL_v6","SARL_v6oan5qmn9","6400dc9f84ed19aeedc1a2cc","freq_resp","","","img/orange_2bandit_a.png","70","img/orange_2bandit_a.png","70","test","","","","","","","","","","","2","","","","","","","","",""
"null","241204","SARL_v6","SARL_v6oan5qmn9","6400dc9f84ed19aeedc1a2cc","fixation","","","img/fixation.png","null","","","test","","","","","","","","","","","","","","","","","","","",""
"417.59999990463257","241624","SARL_v6","SARL_v6oan5qmn9","6400dc9f84ed19aeedc1a2cc","freq","","","img/orange_2bandit_a2.png","70","","70","test","1","","42","","","","square","circle","41","19","2","1","","","","","","","",""
"null","242014","SARL_v6","SARL_v6oan5qmn9","6400dc9f84ed19aeedc1a2cc","freq_resp","","","img/orange_2bandit_a.png","70","img/orange_2bandit_a.png","70","test","","","","","","","","","","","2","","","","","","","","",""
"null","242170","SARL_v6","SARL_v6oan5qmn9","6400dc9f84ed19aeedc1a2cc","fixation","","","img/fixation.png","null","","","test","","","","","","","","","","","","","","","","","","","",""
"265.09999990463257","242437","SARL_v6","SARL_v6oan5qmn9","6400dc9f84ed19aeedc1a2cc","freq","","","img/orange_2bandit_a2.png","70","","70","test","1","","43","","","","square","circle","42","20","2","1","","","","","","","",""
"null","242985","SARL_v6","SARL_v6oan5qmn9","6400dc9f84ed19aeedc1a2cc","freq_resp","","","img/orange_2bandit_a.png","70","img/orange_2bandit_a.png","70","test","","","","","","","","","","","2","","","","","","","","",""
"null","243138","SARL_v6","SARL_v6oan5qmn9","6400dc9f84ed19aeedc1a2cc","fixation","","","img/fixation.png","null","","","test","","","","","","","","","","","","","","","","","","","",""
"569.2999999523163","243709","SARL_v6","SARL_v6oan5qmn9","6400dc9f84ed19aeedc1a2cc","rl","","","img/black_2bandit_a2.png","74","","0","test","","","44","","","-8","square","circle","","0","2","","74","-5","-8","-8","-5","square","2","0"
"null","244465","SARL_v6","SARL_v6oan5qmn9","6400dc9f84ed19aeedc1a2cc","feedback","","","<div class=""verylowPoints_sq""> -8 </div>","null","","na","test","","","NaN","","","","","","","","2","","74","","","","","","2",""
"471","244939","SARL_v6","SARL_v6oan5qmn9","6400dc9f84ed19aeedc1a2cc","freq","","","img/orange_2bandit_a2.png","70","","70","test","1","","45","","","","square","circle","43","1","3","1","","","","","","","",""
"null","245278","SARL_v6","SARL_v6oan5qmn9","6400dc9f84ed19aeedc1a2cc","freq_resp","","","img/orange_2bandit_a.png","70","img/orange_2bandit_a.png","70","test","","","","","","","","","","","3","","","","","","","","",""
"null","245432","SARL_v6","SARL_v6oan5qmn9","6400dc9f84ed19aeedc1a2cc","fixation","","","img/fixation.png","null","","","test","","","","","","","","","","","","","","","","","","","",""
"690.9000000953674","246124","SARL_v6","SARL_v6oan5qmn9","6400dc9f84ed19aeedc1a2cc","freq","","","img/orange_2bandit_a2.png","70","","70","test","1","","46","","","","square","circle","44","2","3","1","","","","","","","",""
"null","246243","SARL_v6","SARL_v6oan5qmn9","6400dc9f84ed19aeedc1a2cc","freq_resp","","","img/orange_2bandit_a.png","70","img/orange_2bandit_a.png","70","test","","","","","","","","","","","3","","","","","","","","",""
"null","246399","SARL_v6","SARL_v6oan5qmn9","6400dc9f84ed19aeedc1a2cc","fixation","","","img/fixation.png","null","","","test","","","","","","","","","","","","","","","","","","","",""
"624.8999998569489","247025","SARL_v6","SARL_v6oan5qmn9","6400dc9f84ed19aeedc1a2cc","freq","","","img/orange_2bandit_a2.png","70","","70","test","1","","47","","","","square","circle","45","3","3","1","","","","","","","",""
"null","247212","SARL_v6","SARL_v6oan5qmn9","6400dc9f84ed19aeedc1a2cc","freq_resp","","","img/orange_2bandit_a.png","70","img/orange_2bandit_a.png","70","test","","","","","","","","","","","3","","","","","","","","",""
"null","247367","SARL_v6","SARL_v6oan5qmn9","6400dc9f84ed19aeedc1a2cc","fixation","","","img/fixation.png","null","","","test","","","","","","","","","","","","","","","","","","","",""
"365.7000000476837","247735","SARL_v6","SARL_v6oan5qmn9","6400dc9f84ed19aeedc1a2cc","freq","","","img/orange_2bandit_a2.png","70","","70","test","1","","48","","","","square","circle","46","4","3","1","","","","","","","",""
"null","248176","SARL_v6","SARL_v6oan5qmn9","6400dc9f84ed19aeedc1a2cc","freq_resp","","","img/orange_2bandit_a.png","70","img/orange_2bandit_a.png","70","test","","","","","","","","","","","3","","","","","","","","",""
"null","248331","SARL_v6","SARL_v6oan5qmn9","6400dc9f84ed19aeedc1a2cc","fixation","","","img/fixation.png","null","","","test","","","","","","","","","","","","","","","","","","","",""
"296.89999985694885","248630","SARL_v6","SARL_v6oan5qmn9","6400dc9f84ed19aeedc1a2cc","freq","","","img/orange_2bandit_a2.png","70","","70","test","1","","49","","","","square","circle","47","5","3","1","","","","","","","",""
"null","249141","SARL_v6","SARL_v6oan5qmn9","6400dc9f84ed19aeedc1a2cc","freq_resp","","","img/orange_2bandit_a.png","70","img/orange_2bandit_a.png","70","test","","","","","","","","","","","3","","","","","","","","",""
"null","249298","SARL_v6","SARL_v6oan5qmn9","6400dc9f84ed19aeedc1a2cc","fixation","","","img/fixation.png","null","","","test","","","","","","","","","","","","","","","","","","","",""
"303.5","249603","SARL_v6","SARL_v6oan5qmn9","6400dc9f84ed19aeedc1a2cc","freq","","","img/orange_2bandit_a2.png","70","","70","test","1","","50","","","","square","circle","48","6","3","1","","","","","","","",""
"null","250116","SARL_v6","SARL_v6oan5qmn9","6400dc9f84ed19aeedc1a2cc","freq_resp","","","img/orange_2bandit_a.png","70","img/orange_2bandit_a.png","70","test","","","","","","","","","","","3","","","","","","","","",""
"null","250268","SARL_v6","SARL_v6oan5qmn9","6400dc9f84ed19aeedc1a2cc","fixation","","","img/fixation.png","null","","","test","","","","","","","","","","","","","","","","","","","",""
"326.60000014305115","250597","SARL_v6","SARL_v6oan5qmn9","6400dc9f84ed19aeedc1a2cc","freq","","","img/orange_2bandit_a2.png","70","","70","test","1","","51","","","","square","circle","49","7","3","1","","","","","","","",""
"null","251084","SARL_v6","SARL_v6oan5qmn9","6400dc9f84ed19aeedc1a2cc","freq_resp","","","img/orange_2bandit_a.png","70","img/orange_2bandit_a.png","70","test","","","","","","","","","","","3","","","","","","","","",""
"null","251241","SARL_v6","SARL_v6oan5qmn9","6400dc9f84ed19aeedc1a2cc","fixation","","","img/fixation.png","null","","","test","","","","","","","","","","","","","","","","","","","",""
"325.89999985694885","251569","SARL_v6","SARL_v6oan5qmn9","6400dc9f84ed19aeedc1a2cc","freq","","","img/orange_2bandit_a2.png","70","","70","test","1","","52","","","","square","circle","50","8","3","1","","","","","","","",""
"null","252048","SARL_v6","SARL_v6oan5qmn9","6400dc9f84ed19aeedc1a2cc","freq_resp","","","img/orange_2bandit_a.png","70","img/orange_2bandit_a.png","70","test","","","","","","","","","","","3","","","","","","","","",""
"null","252201","SARL_v6","SARL_v6oan5qmn9","6400dc9f84ed19aeedc1a2cc","fixation","","","img/fixation.png","null","","","test","","","","","","","","","","","","","","","","","","","",""
"452.7000000476837","252656","SARL_v6","SARL_v6oan5qmn9","6400dc9f84ed19aeedc1a2cc","infreq","","","img/blue_2bandit_a2.png","68","","68","test","1","","53","","","","square","circle","51","9","3","1","","","","","","","",""
"null","253018","SARL_v6","SARL_v6oan5qmn9","6400dc9f84ed19aeedc1a2cc","infreq_resp","","","img/blue_2bandit_a.png","68","img/blue_2bandit_a.png","68","test","","","","","","","","","","","3","","","","","","","","",""
"null","253175","SARL_v6","SARL_v6oan5qmn9","6400dc9f84ed19aeedc1a2cc","fixation","","","img/fixation.png","null","","","test","","","","","","","","","","","","","","","","","","","",""
"399.89999985694885","253576","SARL_v6","SARL_v6oan5qmn9","6400dc9f84ed19aeedc1a2cc","freq","","","img/orange_2bandit_a2.png","70","","70","test","1","","54","","","","square","circle","52","10","3","1","","","","","","","",""
"null","253988","SARL_v6","SARL_v6oan5qmn9","6400dc9f84ed19aeedc1a2cc","freq_resp","","","img/orange_2bandit_a.png","70","img/orange_2bandit_a.png","70","test","","","","","","","","","","","3","","","","","","","","",""
"null","254143","SARL_v6","SARL_v6oan5qmn9","6400dc9f84ed19aeedc1a2cc","fixation","","","img/fixation.png","null","","","test","","","","","","","","","","","","","","","","","","","",""
"448.30000019073486","254593","SARL_v6","SARL_v6oan5qmn9","6400dc9f84ed19aeedc1a2cc","freq","","","img/orange_2bandit_a2.png","70","","70","test","1","","55","","","","square","circle","53","11","3","1","","","","","","","",""
"null","254961","SARL_v6","SARL_v6oan5qmn9","6400dc9f84ed19aeedc1a2cc","freq_resp","","","img/orange_2bandit_a.png","70","img/orange_2bandit_a.png","70","test","","","","","","","","","","","3","","","","","","","","",""
"null","255118","SARL_v6","SARL_v6oan5qmn9","6400dc9f84ed19aeedc1a2cc","fixation","","","img/fixation.png","null","","","test","","","","","","","","","","","","","","","","","","","",""
"686.6999998092651","255807","SARL_v6","SARL_v6oan5qmn9","6400dc9f84ed19aeedc1a2cc","infreq","","","img/blue_2bandit_a2.png","68","","68","test","1","","56","","","","square","circle","54","12","3","1","","","","","","","",""
"null","255933","SARL_v6","SARL_v6oan5qmn9","6400dc9f84ed19aeedc1a2cc","infreq_resp","","","img/blue_2bandit_a.png","68","img/blue_2bandit_a.png","68","test","","","","","","","","","","","3","","","","","","","","",""
"null","256093","SARL_v6","SARL_v6oan5qmn9","6400dc9f84ed19aeedc1a2cc","fixation","","","img/fixation.png","null","","","test","","","","","","","","","","","","","","","","","","","",""
"448","256543","SARL_v6","SARL_v6oan5qmn9","6400dc9f84ed19aeedc1a2cc","freq","","","img/orange_2bandit_a2.png","70","","70","test","1","","57","","","","square","circle","55","13","3","1","","","","","","","",""
"null","256904","SARL_v6","SARL_v6oan5qmn9","6400dc9f84ed19aeedc1a2cc","freq_resp","","","img/orange_2bandit_a.png","70","img/orange_2bandit_a.png","70","test","","","","","","","","","","","3","","","","","","","","",""
"null","257063","SARL_v6","SARL_v6oan5qmn9","6400dc9f84ed19aeedc1a2cc","fixation","","","img/fixation.png","null","","","test","","","","","","","","","","","","","","","","","","","",""
"371.89999985694885","257437","SARL_v6","SARL_v6oan5qmn9","6400dc9f84ed19aeedc1a2cc","freq","","","img/orange_2bandit_a2.png","70","","70","test","1","","58","","","","square","circle","56","14","3","1","","","","","","","",""
"null","257878","SARL_v6","SARL_v6oan5qmn9","6400dc9f84ed19aeedc1a2cc","freq_resp","","","img/orange_2bandit_a.png","70","img/orange_2bandit_a.png","70","test","","","","","","","","","","","3","","","","","","","","",""
"null","258035","SARL_v6","SARL_v6oan5qmn9","6400dc9f84ed19aeedc1a2cc","fixation","","","img/fixation.png","null","","","test","","","","","","","","","","","","","","","","","","","",""
"376.30000019073486","258414","SARL_v6","SARL_v6oan5qmn9","6400dc9f84ed19aeedc1a2cc","freq","","","img/orange_2bandit_a2.png","70","","70","test","1","","59","","","","square","circle","57","15","3","1","","","","","","","",""
"null","258847","SARL_v6","SARL_v6oan5qmn9","6400dc9f84ed19aeedc1a2cc","freq_resp","","","img/orange_2bandit_a.png","70","img/orange_2bandit_a.png","70","test","","","","","","","","","","","3","","","","","","","","",""
"null","259003","SARL_v6","SARL_v6oan5qmn9","6400dc9f84ed19aeedc1a2cc","fixation","","","img/fixation.png","null","","","test","","","","","","","","","","","","","","","","","","","",""
"376.7999999523163","259382","SARL_v6","SARL_v6oan5qmn9","6400dc9f84ed19aeedc1a2cc","freq","","","img/orange_2bandit_a2.png","70","","70","test","1","","60","","","","square","circle","58","16","3","1","","","","","","","",""
"null","259813","SARL_v6","SARL_v6oan5qmn9","6400dc9f84ed19aeedc1a2cc","freq_resp","","","img/orange_2bandit_a.png","70","img/orange_2bandit_a.png","70","test","","","","","","","","","","","3","","","","","","","","",""
"null","259971","SARL_v6","SARL_v6oan5qmn9","6400dc9f84ed19aeedc1a2cc","fixation","","","img/fixation.png","null","","","test","","","","","","","","","","","","","","","","","","","",""
"475.2999999523163","260448","SARL_v6","SARL_v6oan5qmn9","6400dc9f84ed19aeedc1a2cc","freq","","","img/orange_2bandit_a2.png","70","","70","test","1","","61","","","","square","circle","59","17","3","1","","","","","","","",""
"null","260786","SARL_v6","SARL_v6oan5qmn9","6400dc9f84ed19aeedc1a2cc","freq_resp","","","img/orange_2bandit_a.png","70","img/orange_2bandit_a.png","70","test","","","","","","","","","","","3","","","","","","","","",""
"null","260943","SARL_v6","SARL_v6oan5qmn9","6400dc9f84ed19aeedc1a2cc","fixation","","","img/fixation.png","null","","","test","","","","","","","","","","","","","","","","","","","",""
"528.7999999523163","261474","SARL_v6","SARL_v6oan5qmn9","6400dc9f84ed19aeedc1a2cc","freq","","","img/orange_2bandit_a2.png","70","","70","test","1","","62","","","","square","circle","60","18","3","1","","","","","","","",""
"null","261753","SARL_v6","SARL_v6oan5qmn9","6400dc9f84ed19aeedc1a2cc","freq_resp","","","img/orange_2bandit_a.png","70","img/orange_2bandit_a.png","70","test","","","","","","","","","","","3","","","","","","","","",""
"null","261906","SARL_v6","SARL_v6oan5qmn9","6400dc9f84ed19aeedc1a2cc","fixation","","","img/fixation.png","null","","","test","","","","","","","","","","","","","","","","","","","",""
"538.9000000953674","262446","SARL_v6","SARL_v6oan5qmn9","6400dc9f84ed19aeedc1a2cc","freq","","","img/orange_2bandit_a2.png","70","","70","test","1","","63","","","","square","circle","61","19","3","1","","","","","","","",""
"null","262721","SARL_v6","SARL_v6oan5qmn9","6400dc9f84ed19aeedc1a2cc","freq_resp","","","img/orange_2bandit_a.png","70","img/orange_2bandit_a.png","70","test","","","","","","","","","","","3","","","","","","","","",""
"null","262875","SARL_v6","SARL_v6oan5qmn9","6400dc9f84ed19aeedc1a2cc","fixation","","","img/fixation.png","null","","","test","","","","","","","","","","","","","","","","","","","",""
"470.59999990463257","263348","SARL_v6","SARL_v6oan5qmn9","6400dc9f84ed19aeedc1a2cc","freq","","","img/orange_2bandit_a2.png","70","","70","test","1","","64","","","","square","circle","62","20","3","1","","","","","","","",""
"null","263690","SARL_v6","SARL_v6oan5qmn9","6400dc9f84ed19aeedc1a2cc","freq_resp","","","img/orange_2bandit_a.png","70","img/orange_2bandit_a.png","70","test","","","","","","","","","","","3","","","","","","","","",""
"null","263843","SARL_v6","SARL_v6oan5qmn9","6400dc9f84ed19aeedc1a2cc","fixation","","","img/fixation.png","null","","","test","","","","","","","","","","","","","","","","","","","",""
"485.2999999523163","264330","SARL_v6","SARL_v6oan5qmn9","6400dc9f84ed19aeedc1a2cc","freq","","","img/orange_2bandit_a2.png","70","","70","test","1","","65","","","","square","circle","63","21","3","1","","","","","","","",""
"null","264658","SARL_v6","SARL_v6oan5qmn9","6400dc9f84ed19aeedc1a2cc","freq_resp","","","img/orange_2bandit_a.png","70","img/orange_2bandit_a.png","70","test","","","","","","","","","","","3","","","","","","","","",""
"null","264812","SARL_v6","SARL_v6oan5qmn9","6400dc9f84ed19aeedc1a2cc","fixation","","","img/fixation.png","null","","","test","","","","","","","","","","","","","","","","","","","",""
"617.7000000476837","265432","SARL_v6","SARL_v6oan5qmn9","6400dc9f84ed19aeedc1a2cc","freq","","","img/orange_2bandit_a2.png","70","","70","test","1","","66","","","","square","circle","64","22","3","1","","","","","","","",""
"null","265625","SARL_v6","SARL_v6oan5qmn9","6400dc9f84ed19aeedc1a2cc","freq_resp","","","img/orange_2bandit_a.png","70","img/orange_2bandit_a.png","70","test","","","","","","","","","","","3","","","","","","","","",""
"null","265780","SARL_v6","SARL_v6oan5qmn9","6400dc9f84ed19aeedc1a2cc","fixation","","","img/fixation.png","null","","","test","","","","","","","","","","","","","","","","","","","",""
"533.9000000953674","266317","SARL_v6","SARL_v6oan5qmn9","6400dc9f84ed19aeedc1a2cc","freq","","","img/orange_2bandit_a2.png","70","","70","test","1","","67","","","","square","circle","65","23","3","1","","","","","","","",""
"null","266592","SARL_v6","SARL_v6oan5qmn9","6400dc9f84ed19aeedc1a2cc","freq_resp","","","img/orange_2bandit_a.png","70","img/orange_2bandit_a.png","70","test","","","","","","","","","","","3","","","","","","","","",""
"null","266747","SARL_v6","SARL_v6oan5qmn9","6400dc9f84ed19aeedc1a2cc","fixation","","","img/fixation.png","null","","","test","","","","","","","","","","","","","","","","","","","",""
"616.7000000476837","267366","SARL_v6","SARL_v6oan5qmn9","6400dc9f84ed19aeedc1a2cc","rl","","","img/black_2bandit_a2.png","75","","0","test","","","68","","","-4","square","circle","","0","3","","75","-4","-8","-8","-4","circle","3","0"
"null","268122","SARL_v6","SARL_v6oan5qmn9","6400dc9f84ed19aeedc1a2cc","feedback","","","<div class=""verylowPoints""> -4 </div>","null","","na","test","","","NaN","","","","","","","","3","","75","","","","","","3",""
"603.0999999046326","268728","SARL_v6","SARL_v6oan5qmn9","6400dc9f84ed19aeedc1a2cc","freq","","","img/orange_2bandit_a2.png","70","","70","test","1","","69","","","","square","circle","66","1","4","1","","","","","","","",""
"null","268936","SARL_v6","SARL_v6oan5qmn9","6400dc9f84ed19aeedc1a2cc","freq_resp","","","img/orange_2bandit_a.png","70","img/orange_2bandit_a.png","70","test","","","","","","","","","","","4","","","","","","","","",""
"null","269094","SARL_v6","SARL_v6oan5qmn9","6400dc9f84ed19aeedc1a2cc","fixation","","","img/fixation.png","null","","","test","","","","","","","","","","","","","","","","","","","",""
"625.4000000953674","269721","SARL_v6","SARL_v6oan5qmn9","6400dc9f84ed19aeedc1a2cc","freq","","","img/orange_2bandit_a2.png","70","","70","test","1","","70","","","","square","circle","67","2","4","1","","","","","","","",""
"null","269910","SARL_v6","SARL_v6oan5qmn9","6400dc9f84ed19aeedc1a2cc","freq_resp","","","img/orange_2bandit_a.png","70","img/orange_2bandit_a.png","70","test","","","","","","","","","","","4","","","","","","","","",""
"null","270066","SARL_v6","SARL_v6oan5qmn9","6400dc9f84ed19aeedc1a2cc","fixation","","","img/fixation.png","null","","","test","","","","","","","","","","","","","","","","","","","",""
"597.9000000953674","270666","SARL_v6","SARL_v6oan5qmn9","6400dc9f84ed19aeedc1a2cc","freq","","","img/orange_2bandit_a2.png","70","","70","test","1","","71","","","","square","circle","68","3","4","1","","","","","","","",""
"null","270884","SARL_v6","SARL_v6oan5qmn9","6400dc9f84ed19aeedc1a2cc","freq_resp","","","img/orange_2bandit_a.png","70","img/orange_2bandit_a.png","70","test","","","","","","","","","","","4","","","","","","","","",""
"null","271036","SARL_v6","SARL_v6oan5qmn9","6400dc9f84ed19aeedc1a2cc","fixation","","","img/fixation.png","null","","","test","","","","","","","","","","","","","","","","","","","",""
"632.2000000476837","271671","SARL_v6","SARL_v6oan5qmn9","6400dc9f84ed19aeedc1a2cc","infreq","","","img/blue_2bandit_a2.png","68","","68","test","1","","72","","","","square","circle","69","4","4","1","","","","","","","",""
"null","271852","SARL_v6","SARL_v6oan5qmn9","6400dc9f84ed19aeedc1a2cc","infreq_resp","","","img/blue_2bandit_a.png","68","img/blue_2bandit_a.png","68","test","","","","","","","","","","","4","","","","","","","","",""
"null","272008","SARL_v6","SARL_v6oan5qmn9","6400dc9f84ed19aeedc1a2cc","fixation","","","img/fixation.png","null","","","test","","","","","","","","","","","","","","","","","","","",""
"638.2999999523163","272649","SARL_v6","SARL_v6oan5qmn9","6400dc9f84ed19aeedc1a2cc","freq","","","img/orange_2bandit_a2.png","70","","70","test","1","","73","","","","square","circle","70","5","4","1","","","","","","","",""
"null","272820","SARL_v6","SARL_v6oan5qmn9","6400dc9f84ed19aeedc1a2cc","freq_resp","","","img/orange_2bandit_a.png","70","img/orange_2bandit_a.png","70","test","","","","","","","","","","","4","","","","","","","","",""
"null","272973","SARL_v6","SARL_v6oan5qmn9","6400dc9f84ed19aeedc1a2cc","fixation","","","img/fixation.png","null","","","test","","","","","","","","","","","","","","","","","","","",""
"567.0999999046326","273542","SARL_v6","SARL_v6oan5qmn9","6400dc9f84ed19aeedc1a2cc","freq","","","img/orange_2bandit_a2.png","70","","70","test","1","","74","","","","square","circle","71","6","4","1","","","","","","","",""
"null","273780","SARL_v6","SARL_v6oan5qmn9","6400dc9f84ed19aeedc1a2cc","freq_resp","","","img/orange_2bandit_a.png","70","img/orange_2bandit_a.png","70","test","","","","","","","","","","","4","","","","","","","","",""
"null","273933","SARL_v6","SARL_v6oan5qmn9","6400dc9f84ed19aeedc1a2cc","fixation","","","img/fixation.png","null","","","test","","","","","","","","","","","","","","","","","","","",""
"560.5","274495","SARL_v6","SARL_v6oan5qmn9","6400dc9f84ed19aeedc1a2cc","freq","","","img/orange_2bandit_a2.png","70","","70","test","1","","75","","","","square","circle","72","7","4","1","","","","","","","",""
"null","274751","SARL_v6","SARL_v6oan5qmn9","6400dc9f84ed19aeedc1a2cc","freq_resp","","","img/orange_2bandit_a.png","70","img/orange_2bandit_a.png","70","test","","","","","","","","","","","4","","","","","","","","",""
"null","274904","SARL_v6","SARL_v6oan5qmn9","6400dc9f84ed19aeedc1a2cc","fixation","","","img/fixation.png","null","","","test","","","","","","","","","","","","","","","","","","","",""
"546.0999999046326","275452","SARL_v6","SARL_v6oan5qmn9","6400dc9f84ed19aeedc1a2cc","freq","","","img/orange_2bandit_a2.png","70","","70","test","1","","76","","","","square","circle","73","8","4","1","","","","","","","",""
"null","275714","SARL_v6","SARL_v6oan5qmn9","6400dc9f84ed19aeedc1a2cc","freq_resp","","","img/orange_2bandit_a.png","70","img/orange_2bandit_a.png","70","test","","","","","","","","","","","4","","","","","","","","",""
"null","275867","SARL_v6","SARL_v6oan5qmn9","6400dc9f84ed19aeedc1a2cc","fixation","","","img/fixation.png","null","","","test","","","","","","","","","","","","","","","","","","","",""
"601.8000001907349","276471","SARL_v6","SARL_v6oan5qmn9","6400dc9f84ed19aeedc1a2cc","freq","","","img/orange_2bandit_a2.png","70","","70","test","1","","77","","","","square","circle","74","9","4","1","","","","","","","",""
"null","276676","SARL_v6","SARL_v6oan5qmn9","6400dc9f84ed19aeedc1a2cc","freq_resp","","","img/orange_2bandit_a.png","70","img/orange_2bandit_a.png","70","test","","","","","","","","","","","4","","","","","","","","",""
"null","276832","SARL_v6","SARL_v6oan5qmn9","6400dc9f84ed19aeedc1a2cc","fixation","","","img/fixation.png","null","","","test","","","","","","","","","","","","","","","","","","","",""
"590.1999998092651","277424","SARL_v6","SARL_v6oan5qmn9","6400dc9f84ed19aeedc1a2cc","freq","","","img/orange_2bandit_a2.png","70","","70","test","1","","78","","","","square","circle","75","10","4","1","","","","","","","",""
"null","277641","SARL_v6","SARL_v6oan5qmn9","6400dc9f84ed19aeedc1a2cc","freq_resp","","","img/orange_2bandit_a.png","70","img/orange_2bandit_a.png","70","test","","","","","","","","","","","4","","","","","","","","",""
"null","277796","SARL_v6","SARL_v6oan5qmn9","6400dc9f84ed19aeedc1a2cc","fixation","","","img/fixation.png","null","","","test","","","","","","","","","","","","","","","","","","","",""
"451","278249","SARL_v6","SARL_v6oan5qmn9","6400dc9f84ed19aeedc1a2cc","freq","","","img/orange_2bandit_a2.png","70","","70","test","1","","79","","","","square","circle","76","11","4","1","","","","","","","",""
"null","278612","SARL_v6","SARL_v6oan5qmn9","6400dc9f84ed19aeedc1a2cc","freq_resp","","","img/orange_2bandit_a.png","70","img/orange_2bandit_a.png","70","test","","","","","","","","","","","4","","","","","","","","",""
"null","278766","SARL_v6","SARL_v6oan5qmn9","6400dc9f84ed19aeedc1a2cc","fixation","","","img/fixation.png","null","","","test","","","","","","","","","","","","","","","","","","","",""
"380.90000009536743","279149","SARL_v6","SARL_v6oan5qmn9","6400dc9f84ed19aeedc1a2cc","freq","","","img/orange_2bandit_a2.png","70","","70","test","1","","80","","","","square","circle","77","12","4","1","","","","","","","",""
"null","279583","SARL_v6","SARL_v6oan5qmn9","6400dc9f84ed19aeedc1a2cc","freq_resp","","","img/orange_2bandit_a.png","70","img/orange_2bandit_a.png","70","test","","","","","","","","","","","4","","","","","","","","",""
"null","279739","SARL_v6","SARL_v6oan5qmn9","6400dc9f84ed19aeedc1a2cc","fixation","","","img/fixation.png","null","","","test","","","","","","","","","","","","","","","","","","","",""
"382.7999999523163","280124","SARL_v6","SARL_v6oan5qmn9","6400dc9f84ed19aeedc1a2cc","freq","","","img/orange_2bandit_a2.png","70","","70","test","1","","81","","","","square","circle","78","13","4","1","","","","","","","",""
"null","280553","SARL_v6","SARL_v6oan5qmn9","6400dc9f84ed19aeedc1a2cc","freq_resp","","","img/orange_2bandit_a.png","70","img/orange_2bandit_a.png","70","test","","","","","","","","","","","4","","","","","","","","",""
"null","280710","SARL_v6","SARL_v6oan5qmn9","6400dc9f84ed19aeedc1a2cc","fixation","","","img/fixation.png","null","","","test","","","","","","","","","","","","","","","","","","","",""
"400.80000019073486","281113","SARL_v6","SARL_v6oan5qmn9","6400dc9f84ed19aeedc1a2cc","freq","","","img/orange_2bandit_a2.png","70","","70","test","1","","82","","","","square","circle","79","14","4","1","","","","","","","",""
"null","281518","SARL_v6","SARL_v6oan5qmn9","6400dc9f84ed19aeedc1a2cc","freq_resp","","","img/orange_2bandit_a.png","70","img/orange_2bandit_a.png","70","test","","","","","","","","","","","4","","","","","","","","",""
"null","281671","SARL_v6","SARL_v6oan5qmn9","6400dc9f84ed19aeedc1a2cc","fixation","","","img/fixation.png","null","","","test","","","","","","","","","","","","","","","","","","","",""
"440.2000000476837","282114","SARL_v6","SARL_v6oan5qmn9","6400dc9f84ed19aeedc1a2cc","freq","","","img/orange_2bandit_a2.png","70","","70","test","1","","83","","","","square","circle","80","15","4","1","","","","","","","",""
"null","282486","SARL_v6","SARL_v6oan5qmn9","6400dc9f84ed19aeedc1a2cc","freq_resp","","","img/orange_2bandit_a.png","70","img/orange_2bandit_a.png","70","test","","","","","","","","","","","4","","","","","","","","",""
"null","282643","SARL_v6","SARL_v6oan5qmn9","6400dc9f84ed19aeedc1a2cc","fixation","","","img/fixation.png","null","","","test","","","","","","","","","","","","","","","","","","","",""
"537.6999998092651","283183","SARL_v6","SARL_v6oan5qmn9","6400dc9f84ed19aeedc1a2cc","freq","","","img/orange_2bandit_a2.png","70","","70","test","1","","84","","","","square","circle","81","16","4","1","","","","","","","",""
"null","283460","SARL_v6","SARL_v6oan5qmn9","6400dc9f84ed19aeedc1a2cc","freq_resp","","","img/orange_2bandit_a.png","70","img/orange_2bandit_a.png","70","test","","","","","","","","","","","4","","","","","","","","",""
"null","283617","SARL_v6","SARL_v6oan5qmn9","6400dc9f84ed19aeedc1a2cc","fixation","","","img/fixation.png","null","","","test","","","","","","","","","","","","","","","","","","","",""
"573.9000000953674","284193","SARL_v6","SARL_v6oan5qmn9","6400dc9f84ed19aeedc1a2cc","infreq","","","img/blue_2bandit_a2.png","68","","68","test","1","","85","","","","square","circle","82","17","4","1","","","","","","","",""
"null","284431","SARL_v6","SARL_v6oan5qmn9","6400dc9f84ed19aeedc1a2cc","infreq_resp","","","img/blue_2bandit_a.png","68","img/blue_2bandit_a.png","68","test","","","","","","","","","","","4","","","","","","","","",""
"null","284584","SARL_v6","SARL_v6oan5qmn9","6400dc9f84ed19aeedc1a2cc","fixation","","","img/fixation.png","null","","","test","","","","","","","","","","","","","","","","","","","",""
"567.2999999523163","285153","SARL_v6","SARL_v6oan5qmn9","6400dc9f84ed19aeedc1a2cc","freq","","","img/orange_2bandit_a2.png","70","","70","test","1","","86","","","","square","circle","83","18","4","1","","","","","","","",""
"null","285399","SARL_v6","SARL_v6oan5qmn9","6400dc9f84ed19aeedc1a2cc","freq_resp","","","img/orange_2bandit_a.png","70","img/orange_2bandit_a.png","70","test","","","","","","","","","","","4","","","","","","","","",""
"null","285555","SARL_v6","SARL_v6oan5qmn9","6400dc9f84ed19aeedc1a2cc","fixation","","","img/fixation.png","null","","","test","","","","","","","","","","","","","","","","","","","",""
"453","286010","SARL_v6","SARL_v6oan5qmn9","6400dc9f84ed19aeedc1a2cc","freq","","","img/orange_2bandit_a2.png","70","","70","test","1","","87","","","","square","circle","84","19","4","1","","","","","","","",""
"null","286371","SARL_v6","SARL_v6oan5qmn9","6400dc9f84ed19aeedc1a2cc","freq_resp","","","img/orange_2bandit_a.png","70","img/orange_2bandit_a.png","70","test","","","","","","","","","","","4","","","","","","","","",""
"null","286525","SARL_v6","SARL_v6oan5qmn9","6400dc9f84ed19aeedc1a2cc","fixation","","","img/fixation.png","null","","","test","","","","","","","","","","","","","","","","","","","",""
"500","287027","SARL_v6","SARL_v6oan5qmn9","6400dc9f84ed19aeedc1a2cc","freq","","","img/orange_2bandit_a2.png","70","","70","test","1","","88","","","","square","circle","85","20","4","1","","","","","","","",""
"null","287337","SARL_v6","SARL_v6oan5qmn9","6400dc9f84ed19aeedc1a2cc","freq_resp","","","img/orange_2bandit_a.png","70","img/orange_2bandit_a.png","70","test","","","","","","","","","","","4","","","","","","","","",""
"null","287492","SARL_v6","SARL_v6oan5qmn9","6400dc9f84ed19aeedc1a2cc","fixation","","","img/fixation.png","null","","","test","","","","","","","","","","","","","","","","","","","",""
"527","288021","SARL_v6","SARL_v6oan5qmn9","6400dc9f84ed19aeedc1a2cc","freq","","","img/orange_2bandit_a2.png","70","","70","test","1","","89","","","","square","circle","86","21","4","1","","","","","","","",""
"null","288305","SARL_v6","SARL_v6oan5qmn9","6400dc9f84ed19aeedc1a2cc","freq_resp","","","img/orange_2bandit_a.png","70","img/orange_2bandit_a.png","70","test","","","","","","","","","","","4","","","","","","","","",""
"null","288459","SARL_v6","SARL_v6oan5qmn9","6400dc9f84ed19aeedc1a2cc","fixation","","","img/fixation.png","null","","","test","","","","","","","","","","","","","","","","","","","",""
"445.40000009536743","288906","SARL_v6","SARL_v6oan5qmn9","6400dc9f84ed19aeedc1a2cc","freq","","","img/orange_2bandit_a2.png","70","","70","test","1","","90","","","","square","circle","87","22","4","1","","","","","","","",""
"null","289274","SARL_v6","SARL_v6oan5qmn9","6400dc9f84ed19aeedc1a2cc","freq_resp","","","img/orange_2bandit_a.png","70","img/orange_2bandit_a.png","70","test","","","","","","","","","","","4","","","","","","","","",""
"null","289430","SARL_v6","SARL_v6oan5qmn9","6400dc9f84ed19aeedc1a2cc","fixation","","","img/fixation.png","null","","","test","","","","","","","","","","","","","","","","","","","",""
"763.0999999046326","290195","SARL_v6","SARL_v6oan5qmn9","6400dc9f84ed19aeedc1a2cc","rl","","","img/black_2bandit_a2.png","75","","0","test","","","91","","","0","square","circle","","0","4","","75","0","-12","-12","0","circle","4","0"
"null","290960","SARL_v6","SARL_v6oan5qmn9","6400dc9f84ed19aeedc1a2cc","feedback","","","<div class=""verylowPoints""> 0 </div>","null","","na","test","","","NaN","","","","","","","","4","","75","","","","","","4",""
"451.2000000476837","291414","SARL_v6","SARL_v6oan5qmn9","6400dc9f84ed19aeedc1a2cc","freq","","","img/orange_2bandit_a2.png","70","","70","test","1","","92","","","","square","circle","88","1","5","1","","","","","","","",""
"null","291772","SARL_v6","SARL_v6oan5qmn9","6400dc9f84ed19aeedc1a2cc","freq_resp","","","img/orange_2bandit_a.png","70","img/orange_2bandit_a.png","70","test","","","","","","","","","","","5","","","","","","","","",""
"null","291928","SARL_v6","SARL_v6oan5qmn9","6400dc9f84ed19aeedc1a2cc","fixation","","","img/fixation.png","null","","","test","","","","","","","","","","","","","","","","","","","",""
"424.90000009536743","292355","SARL_v6","SARL_v6oan5qmn9","6400dc9f84ed19aeedc1a2cc","freq","","","img/orange_2bandit_a2.png","70","","70","test","1","","93","","","","square","circle","89","2","5","1","","","","","","","",""
"null","292738","SARL_v6","SARL_v6oan5qmn9","6400dc9f84ed19aeedc1a2cc","freq_resp","","","img/orange_2bandit_a.png","70","img/orange_2bandit_a.png","70","test","","","","","","","","","","","5","","","","","","","","",""
"null","292891","SARL_v6","SARL_v6oan5qmn9","6400dc9f84ed19aeedc1a2cc","fixation","","","img/fixation.png","null","","","test","","","","","","","","","","","","","","","","","","","",""
"434.39999985694885","293328","SARL_v6","SARL_v6oan5qmn9","6400dc9f84ed19aeedc1a2cc","freq","","","img/orange_2bandit_a2.png","70","","70","test","1","","94","","","","square","circle","90","3","5","1","","","","","","","",""
"null","293709","SARL_v6","SARL_v6oan5qmn9","6400dc9f84ed19aeedc1a2cc","freq_resp","","","img/orange_2bandit_a.png","70","img/orange_2bandit_a.png","70","test","","","","","","","","","","","5","","","","","","","","",""
"null","293865","SARL_v6","SARL_v6oan5qmn9","6400dc9f84ed19aeedc1a2cc","fixation","","","img/fixation.png","null","","","test","","","","","","","","","","","","","","","","","","","",""
"567","294434","SARL_v6","SARL_v6oan5qmn9","6400dc9f84ed19aeedc1a2cc","freq","","","img/orange_2bandit_a2.png","70","","70","test","1","","95","","","","square","circle","91","4","5","1","","","","","","","",""
"null","294679","SARL_v6","SARL_v6oan5qmn9","6400dc9f84ed19aeedc1a2cc","freq_resp","","","img/orange_2bandit_a.png","70","img/orange_2bandit_a.png","70","test","","","","","","","","","","","5","","","","","","","","",""
"null","294833","SARL_v6","SARL_v6oan5qmn9","6400dc9f84ed19aeedc1a2cc","fixation","","","img/fixation.png","null","","","test","","","","","","","","","","","","","","","","","","","",""
"543.5999999046326","295378","SARL_v6","SARL_v6oan5qmn9","6400dc9f84ed19aeedc1a2cc","freq","","","img/orange_2bandit_a2.png","70","","70","test","1","","96","","","","square","circle","92","5","5","1","","","","","","","",""
"null","295651","SARL_v6","SARL_v6oan5qmn9","6400dc9f84ed19aeedc1a2cc","freq_resp","","","img/orange_2bandit_a.png","70","img/orange_2bandit_a.png","70","test","","","","","","","","","","","5","","","","","","","","",""
"null","295803","SARL_v6","SARL_v6oan5qmn9","6400dc9f84ed19aeedc1a2cc","fixation","","","img/fixation.png","null","","","test","","","","","","","","","","","","","","","","","","","",""
"549.7999999523163","296355","SARL_v6","SARL_v6oan5qmn9","6400dc9f84ed19aeedc1a2cc","freq","","","img/orange_2bandit_a2.png","70","","70","test","1","","97","","","","square","circle","93","6","5","1","","","","","","","",""
"null","296618","SARL_v6","SARL_v6oan5qmn9","6400dc9f84ed19aeedc1a2cc","freq_resp","","","img/orange_2bandit_a.png","70","img/orange_2bandit_a.png","70","test","","","","","","","","","","","5","","","","","","","","",""
"null","296775","SARL_v6","SARL_v6oan5qmn9","6400dc9f84ed19aeedc1a2cc","fixation","","","img/fixation.png","null","","","test","","","","","","","","","","","","","","","","","","","",""
"515.2999999523163","297293","SARL_v6","SARL_v6oan5qmn9","6400dc9f84ed19aeedc1a2cc","freq","","","img/orange_2bandit_a2.png","70","","70","test","1","","98","","","","square","circle","94","7","5","1","","","","","","","",""
"null","297587","SARL_v6","SARL_v6oan5qmn9","6400dc9f84ed19aeedc1a2cc","freq_resp","","","img/orange_2bandit_a.png","70","img/orange_2bandit_a.png","70","test","","","","","","","","","","","5","","","","","","","","",""
"null","297740","SARL_v6","SARL_v6oan5qmn9","6400dc9f84ed19aeedc1a2cc","fixation","","","img/fixation.png","null","","","test","","","","","","","","","","","","","","","","","","","",""
"467.89999985694885","298210","SARL_v6","SARL_v6oan5qmn9","6400dc9f84ed19aeedc1a2cc","freq","","","img/orange_2bandit_a2.png","70","","70","test","1","","99","","","","square","circle","95","8","5","1","","","","","","","",""
"null","298555","SARL_v6","SARL_v6oan5qmn9","6400dc9f84ed19aeedc1a2cc","freq_resp","","","img/orange_2bandit_a.png","70","img/orange_2bandit_a.png","70","test","","","","","","","","","","","5","","","","","","","","",""
"null","298712","SARL_v6","SARL_v6oan5qmn9","6400dc9f84ed19aeedc1a2cc","fixation","","","img/fixation.png","null","","","test","","","","","","","","","","","","","","","","","","","",""
"557.1000001430511","299271","SARL_v6","SARL_v6oan5qmn9","6400dc9f84ed19aeedc1a2cc","freq","","","img/orange_2bandit_a2.png","70","","70","test","1","","100","","","","square","circle","96","9","5","1","","","","","","","",""
"null","299524","SARL_v6","SARL_v6oan5qmn9","6400dc9f84ed19aeedc1a2cc","freq_resp","","","img/orange_2bandit_a.png","70","img/orange_2bandit_a.png","70","test","","","","","","","","","","","5","","","","","","","","",""
"null","299680","SARL_v6","SARL_v6oan5qmn9","6400dc9f84ed19aeedc1a2cc","fixation","","","img/fixation.png","null","","","test","","","","","","","","","","","","","","","","","","","",""
"566.1000001430511","300248","SARL_v6","SARL_v6oan5qmn9","6400dc9f84ed19aeedc1a2cc","freq","","","img/orange_2bandit_a2.png","70","","70","test","1","","101","","","","square","circle","97","10","5","1","","","","","","","",""
"null","300492","SARL_v6","SARL_v6oan5qmn9","6400dc9f84ed19aeedc1a2cc","freq_resp","","","img/orange_2bandit_a.png","70","img/orange_2bandit_a.png","70","test","","","","","","","","","","","5","","","","","","","","",""
"null","300644","SARL_v6","SARL_v6oan5qmn9","6400dc9f84ed19aeedc1a2cc","fixation","","","img/fixation.png","null","","","test","","","","","","","","","","","","","","","","","","","",""
"547.3999998569489","301193","SARL_v6","SARL_v6oan5qmn9","6400dc9f84ed19aeedc1a2cc","freq","","","img/orange_2bandit_a2.png","70","","70","test","1","","102","","","","square","circle","98","11","5","1","","","","","","","",""
"null","301459","SARL_v6","SARL_v6oan5qmn9","6400dc9f84ed19aeedc1a2cc","freq_resp","","","img/orange_2bandit_a.png","70","img/orange_2bandit_a.png","70","test","","","","","","","","","","","5","","","","","","","","",""
"null","301614","SARL_v6","SARL_v6oan5qmn9","6400dc9f84ed19aeedc1a2cc","fixation","","","img/fixation.png","null","","","test","","","","","","","","","","","","","","","","","","","",""
"606.2000000476837","302223","SARL_v6","SARL_v6oan5qmn9","6400dc9f84ed19aeedc1a2cc","freq","","","img/orange_2bandit_a2.png","70","","70","test","1","","103","","","","square","circle","99","12","5","1","","","","","","","",""
"null","302432","SARL_v6","SARL_v6oan5qmn9","6400dc9f84ed19aeedc1a2cc","freq_resp","","","img/orange_2bandit_a.png","70","img/orange_2bandit_a.png","70","test","","","","","","","","","","","5","","","","","","","","",""
"null","302590","SARL_v6","SARL_v6oan5qmn9","6400dc9f84ed19aeedc1a2cc","fixation","","","img/fixation.png","null","","","test","","","","","","","","","","","","","","","","","","","",""
"647.3999998569489","303240","SARL_v6","SARL_v6oan5qmn9","6400dc9f84ed19aeedc1a2cc","freq","","","img/orange_2bandit_a2.png","70","","70","test","1","","104","","","","square","circle","100","13","5","1","","","","","","","",""
"null","303403","SARL_v6","SARL_v6oan5qmn9","6400dc9f84ed19aeedc1a2cc","freq_resp","","","img/orange_2bandit_a.png","70","img/orange_2bandit_a.png","70","test","","","","","","","","","","","5","","","","","","","","",""
"null","303558","SARL_v6","SARL_v6oan5qmn9","6400dc9f84ed19aeedc1a2cc","fixation","","","img/fixation.png","null","","","test","","","","","","","","","","","","","","","","","","","",""
"593.5999999046326","304154","SARL_v6","SARL_v6oan5qmn9","6400dc9f84ed19aeedc1a2cc","freq","","","img/orange_2bandit_a2.png","70","","70","test","1","","105","","","","square","circle","101","14","5","1","","","","","","","",""
"null","304371","SARL_v6","SARL_v6oan5qmn9","6400dc9f84ed19aeedc1a2cc","freq_resp","","","img/orange_2bandit_a.png","70","img/orange_2bandit_a.png","70","test","","","","","","","","","","","5","","","","","","","","",""
"null","304529","SARL_v6","SARL_v6oan5qmn9","6400dc9f84ed19aeedc1a2cc","fixation","","","img/fixation.png","null","","","test","","","","","","","","","","","","","","","","","","","",""
"531.5","305063","SARL_v6","SARL_v6oan5qmn9","6400dc9f84ed19aeedc1a2cc","freq","","","img/orange_2bandit_a2.png","70","","70","test","1","","106","","","","square","circle","102","15","5","1","","","","","","","",""
"null","305337","SARL_v6","SARL_v6oan5qmn9","6400dc9f84ed19aeedc1a2cc","freq_resp","","","img/orange_2bandit_a.png","70","img/orange_2bandit_a.png","70","test","","","","","","","","","","","5","","","","","","","","",""
"null","305490","SARL_v6","SARL_v6oan5qmn9","6400dc9f84ed19aeedc1a2cc","fixation","","","img/fixation.png","null","","","test","","","","","","","","","","","","","","","","","","","",""
"532.6999998092651","306024","SARL_v6","SARL_v6oan5qmn9","6400dc9f84ed19aeedc1a2cc","freq","","","img/orange_2bandit_a2.png","70","","70","test","1","","107","","","","square","circle","103","16","5","1","","","","","","","",""
"null","306302","SARL_v6","SARL_v6oan5qmn9","6400dc9f84ed19aeedc1a2cc","freq_resp","","","img/orange_2bandit_a.png","70","img/orange_2bandit_a.png","70","test","","","","","","","","","","","5","","","","","","","","",""
"null","306456","SARL_v6","SARL_v6oan5qmn9","6400dc9f84ed19aeedc1a2cc","fixation","","","img/fixation.png","null","","","test","","","","","","","","","","","","","","","","","","","",""
"459.2000000476837","306918","SARL_v6","SARL_v6oan5qmn9","6400dc9f84ed19aeedc1a2cc","infreq","","","img/blue_2bandit_a2.png","68","","68","test","1","","108","","","","square","circle","104","17","5","1","","","","","","","",""
"null","307270","SARL_v6","SARL_v6oan5qmn9","6400dc9f84ed19aeedc1a2cc","infreq_resp","","","img/blue_2bandit_a.png","68","img/blue_2bandit_a.png","68","test","","","","","","","","","","","5","","","","","","","","",""
"null","307425","SARL_v6","SARL_v6oan5qmn9","6400dc9f84ed19aeedc1a2cc","fixation","","","img/fixation.png","null","","","test","","","","","","","","","","","","","","","","","","","",""
"390.10000014305115","307817","SARL_v6","SARL_v6oan5qmn9","6400dc9f84ed19aeedc1a2cc","infreq","","","img/blue_2bandit_a2.png","68","","68","test","1","","109","","","","square","circle","105","18","5","1","","","","","","","",""
"null","308233","SARL_v6","SARL_v6oan5qmn9","6400dc9f84ed19aeedc1a2cc","infreq_resp","","","img/blue_2bandit_a.png","68","img/blue_2bandit_a.png","68","test","","","","","","","","","","","5","","","","","","","","",""
"null","308388","SARL_v6","SARL_v6oan5qmn9","6400dc9f84ed19aeedc1a2cc","fixation","","","img/fixation.png","null","","","test","","","","","","","","","","","","","","","","","","","",""
"412.5","308803","SARL_v6","SARL_v6oan5qmn9","6400dc9f84ed19aeedc1a2cc","freq","","","img/orange_2bandit_a2.png","70","","70","test","1","","110","","","","square","circle","106","19","5","1","","","","","","","",""
"null","309207","SARL_v6","SARL_v6oan5qmn9","6400dc9f84ed19aeedc1a2cc","freq_resp","","","img/orange_2bandit_a.png","70","img/orange_2bandit_a.png","70","test","","","","","","","","","","","5","","","","","","","","",""
"null","309363","SARL_v6","SARL_v6oan5qmn9","6400dc9f84ed19aeedc1a2cc","fixation","","","img/fixation.png","null","","","test","","","","","","","","","","","","","","","","","","","",""
"446.30000019073486","309812","SARL_v6","SARL_v6oan5qmn9","6400dc9f84ed19aeedc1a2cc","infreq","","","img/blue_2bandit_a2.png","68","","68","test","1","","111","","","","square","circle","107","20","5","1","","","","","","","",""
"null","310179","SARL_v6","SARL_v6oan5qmn9","6400dc9f84ed19aeedc1a2cc","infreq_resp","","","img/blue_2bandit_a.png","68","img/blue_2bandit_a.png","68","test","","","","","","","","","","","5","","","","","","","","",""
"null","310336","SARL_v6","SARL_v6oan5qmn9","6400dc9f84ed19aeedc1a2cc","fixation","","","img/fixation.png","null","","","test","","","","","","","","","","","","","","","","","","","",""
"398.2000000476837","310736","SARL_v6","SARL_v6oan5qmn9","6400dc9f84ed19aeedc1a2cc","freq","","","img/orange_2bandit_a2.png","70","","70","test","1","","112","","","","square","circle","108","21","5","1","","","","","","","",""
"null","311151","SARL_v6","SARL_v6oan5qmn9","6400dc9f84ed19aeedc1a2cc","freq_resp","","","img/orange_2bandit_a.png","70","img/orange_2bandit_a.png","70","test","","","","","","","","","","","5","","","","","","","","",""
"null","311307","SARL_v6","SARL_v6oan5qmn9","6400dc9f84ed19aeedc1a2cc","fixation","","","img/fixation.png","null","","","test","","","","","","","","","","","","","","","","","","","",""
"361.2000000476837","311670","SARL_v6","SARL_v6oan5qmn9","6400dc9f84ed19aeedc1a2cc","freq","","","img/orange_2bandit_a2.png","70","","70","test","1","","113","","","","square","circle","109","22","5","1","","","","","","","",""
"null","312120","SARL_v6","SARL_v6oan5qmn9","6400dc9f84ed19aeedc1a2cc","freq_resp","","","img/orange_2bandit_a.png","70","img/orange_2bandit_a.png","70","test","","","","","","","","","","","5","","","","","","","","",""
"null","312275","SARL_v6","SARL_v6oan5qmn9","6400dc9f84ed19aeedc1a2cc","fixation","","","img/fixation.png","null","","","test","","","","","","","","","","","","","","","","","","","",""
"350.59999990463257","312628","SARL_v6","SARL_v6oan5qmn9","6400dc9f84ed19aeedc1a2cc","freq","","","img/orange_2bandit_a2.png","70","","70","test","1","","114","","","","square","circle","110","23","5","1","","","","","","","",""
"null","313085","SARL_v6","SARL_v6oan5qmn9","6400dc9f84ed19aeedc1a2cc","freq_resp","","","img/orange_2bandit_a.png","70","img/orange_2bandit_a.png","70","test","","","","","","","","","","","5","","","","","","","","",""
"null","313241","SARL_v6","SARL_v6oan5qmn9","6400dc9f84ed19aeedc1a2cc","fixation","","","img/fixation.png","null","","","test","","","","","","","","","","","","","","","","","","","",""
"341.09999990463257","313586","SARL_v6","SARL_v6oan5qmn9","6400dc9f84ed19aeedc1a2cc","freq","","","img/orange_2bandit_a2.png","70","","70","test","1","","115","","","","square","circle","111","24","5","1","","","","","","","",""
"null","314051","SARL_v6","SARL_v6oan5qmn9","6400dc9f84ed19aeedc1a2cc","freq_resp","","","img/orange_2bandit_a.png","70","img/orange_2bandit_a.png","70","test","","","","","","","","","","","5","","","","","","","","",""
"null","314206","SARL_v6","SARL_v6oan5qmn9","6400dc9f84ed19aeedc1a2cc","fixation","","","img/fixation.png","null","","","test","","","","","","","","","","","","","","","","","","","",""
"313.90000009536743","314522","SARL_v6","SARL_v6oan5qmn9","6400dc9f84ed19aeedc1a2cc","freq","","","img/orange_2bandit_a2.png","70","","70","test","1","","116","","","","square","circle","112","25","5","1","","","","","","","",""
"null","315018","SARL_v6","SARL_v6oan5qmn9","6400dc9f84ed19aeedc1a2cc","freq_resp","","","img/orange_2bandit_a.png","70","img/orange_2bandit_a.png","70","test","","","","","","","","","","","5","","","","","","","","",""
"null","315171","SARL_v6","SARL_v6oan5qmn9","6400dc9f84ed19aeedc1a2cc","fixation","","","img/fixation.png","null","","","test","","","","","","","","","","","","","","","","","","","",""
"566.2999999523163","315740","SARL_v6","SARL_v6oan5qmn9","6400dc9f84ed19aeedc1a2cc","rl","","","img/black_2bandit_a2.png","75","","0","test","","","117","","","4","square","circle","","0","5","","75","4","-7","-7","4","circle","5","0"
"null","316505","SARL_v6","SARL_v6oan5qmn9","6400dc9f84ed19aeedc1a2cc","feedback","","","<div class=""veryhighPoints""> 4 </div>","null","","na","test","","","NaN","","","","","","","","5","","75","","","","","","5",""
"398.2999999523163","316906","SARL_v6","SARL_v6oan5qmn9","6400dc9f84ed19aeedc1a2cc","freq","","","img/orange_2bandit_a2.png","70","","70","test","1","","118","","","","square","circle","113","1","6","1","","","","","","","",""
"null","317317","SARL_v6","SARL_v6oan5qmn9","6400dc9f84ed19aeedc1a2cc","freq_resp","","","img/orange_2bandit_a.png","70","img/orange_2bandit_a.png","70","test","","","","","","","","","","","6","","","","","","","","",""
"null","317475","SARL_v6","SARL_v6oan5qmn9","6400dc9f84ed19aeedc1a2cc","fixation","","","img/fixation.png","null","","","test","","","","","","","","","","","","","","","","","","","",""
"349.89999985694885","317826","SARL_v6","SARL_v6oan5qmn9","6400dc9f84ed19aeedc1a2cc","freq","","","img/orange_2bandit_a2.png","70","","70","test","1","","119","","","","square","circle","114","2","6","1","","","","","","","",""
"null","318288","SARL_v6","SARL_v6oan5qmn9","6400dc9f84ed19aeedc1a2cc","freq_resp","","","img/orange_2bandit_a.png","70","img/orange_2bandit_a.png","70","test","","","","","","","","","","","6","","","","","","","","",""
"null","318443","SARL_v6","SARL_v6oan5qmn9","6400dc9f84ed19aeedc1a2cc","fixation","","","img/fixation.png","null","","","test","","","","","","","","","","","","","","","","","","","",""
"423","318868","SARL_v6","SARL_v6oan5qmn9","6400dc9f84ed19aeedc1a2cc","freq","","","img/orange_2bandit_a2.png","70","","70","test","1","","120","","","","square","circle","115","3","6","1","","","","","","","",""
"null","319258","SARL_v6","SARL_v6oan5qmn9","6400dc9f84ed19aeedc1a2cc","freq_resp","","","img/orange_2bandit_a.png","70","img/orange_2bandit_a.png","70","test","","","","","","","","","","","6","","","","","","","","",""
"null","319416","SARL_v6","SARL_v6oan5qmn9","6400dc9f84ed19aeedc1a2cc","fixation","","","img/fixation.png","null","","","test","","","","","","","","","","","","","","","","","","","",""
"527.6999998092651","319945","SARL_v6","SARL_v6oan5qmn9","6400dc9f84ed19aeedc1a2cc","freq","","","img/orange_2bandit_a2.png","70","","70","test","1","","121","","","","square","circle","116","4","6","1","","","","","","","",""
"null","320223","SARL_v6","SARL_v6oan5qmn9","6400dc9f84ed19aeedc1a2cc","freq_resp","","","img/orange_2bandit_a.png","70","img/orange_2bandit_a.png","70","test","","","","","","","","","","","6","","","","","","","","",""
"null","320375","SARL_v6","SARL_v6oan5qmn9","6400dc9f84ed19aeedc1a2cc","fixation","","","img/fixation.png","null","","","test","","","","","","","","","","","","","","","","","","","",""
"493","320871","SARL_v6","SARL_v6oan5qmn9","6400dc9f84ed19aeedc1a2cc","freq","","","img/orange_2bandit_a2.png","70","","70","test","1","","122","","","","square","circle","117","5","6","1","","","","","","","",""
"null","321182","SARL_v6","SARL_v6oan5qmn9","6400dc9f84ed19aeedc1a2cc","freq_resp","","","img/orange_2bandit_a.png","70","img/orange_2bandit_a.png","70","test","","","","","","","","","","","6","","","","","","","","",""
"null","321334","SARL_v6","SARL_v6oan5qmn9","6400dc9f84ed19aeedc1a2cc","fixation","","","img/fixation.png","null","","","test","","","","","","","","","","","","","","","","","","","",""
"487.59999990463257","321824","SARL_v6","SARL_v6oan5qmn9","6400dc9f84ed19aeedc1a2cc","freq","","","img/orange_2bandit_a2.png","70","","70","test","1","","123","","","","square","circle","118","6","6","1","","","","","","","",""
"null","322149","SARL_v6","SARL_v6oan5qmn9","6400dc9f84ed19aeedc1a2cc","freq_resp","","","img/orange_2bandit_a.png","70","img/orange_2bandit_a.png","70","test","","","","","","","","","","","6","","","","","","","","",""
"null","322306","SARL_v6","SARL_v6oan5qmn9","6400dc9f84ed19aeedc1a2cc","fixation","","","img/fixation.png","null","","","test","","","","","","","","","","","","","","","","","","","",""
"405.40000009536743","322713","SARL_v6","SARL_v6oan5qmn9","6400dc9f84ed19aeedc1a2cc","freq","","","img/orange_2bandit_a2.png","70","","70","test","1","","124","","","","square","circle","119","7","6","1","","","","","","","",""
"null","323116","SARL_v6","SARL_v6oan5qmn9","6400dc9f84ed19aeedc1a2cc","freq_resp","","","img/orange_2bandit_a.png","70","img/orange_2bandit_a.png","70","test","","","","","","","","","","","6","","","","","","","","",""
"null","323271","SARL_v6","SARL_v6oan5qmn9","6400dc9f84ed19aeedc1a2cc","fixation","","","img/fixation.png","null","","","test","","","","","","","","","","","","","","","","","","","",""
"388.89999985694885","323662","SARL_v6","SARL_v6oan5qmn9","6400dc9f84ed19aeedc1a2cc","freq","","","img/orange_2bandit_a2.png","70","","70","test","1","","125","","","","square","circle","120","8","6","1","","","","","","","",""
"null","324084","SARL_v6","SARL_v6oan5qmn9","6400dc9f84ed19aeedc1a2cc","freq_resp","","","img/orange_2bandit_a.png","70","img/orange_2bandit_a.png","70","test","","","","","","","","","","","6","","","","","","","","",""
"null","324239","SARL_v6","SARL_v6oan5qmn9","6400dc9f84ed19aeedc1a2cc","fixation","","","img/fixation.png","null","","","test","","","","","","","","","","","","","","","","","","","",""
"393.7000000476837","324635","SARL_v6","SARL_v6oan5qmn9","6400dc9f84ed19aeedc1a2cc","freq","","","img/orange_2bandit_a2.png","70","","70","test","1","","126","","","","square","circle","121","9","6","1","","","","","","","",""
"null","325049","SARL_v6","SARL_v6oan5qmn9","6400dc9f84ed19aeedc1a2cc","freq_resp","","","img/orange_2bandit_a.png","70","img/orange_2bandit_a.png","70","test","","","","","","","","","","","6","","","","","","","","",""
"null","325205","SARL_v6","SARL_v6oan5qmn9","6400dc9f84ed19aeedc1a2cc","fixation","","","img/fixation.png","null","","","test","","","","","","","","","","","","","","","","","","","",""
"384.39999985694885","325591","SARL_v6","SARL_v6oan5qmn9","6400dc9f84ed19aeedc1a2cc","freq","","","img/orange_2bandit_a2.png","70","","70","test","1","","127","","","","square","circle","122","10","6","1","","","","","","","",""
"null","326018","SARL_v6","SARL_v6oan5qmn9","6400dc9f84ed19aeedc1a2cc","freq_resp","","","img/orange_2bandit_a.png","70","img/orange_2bandit_a.png","70","test","","","","","","","","","","","6","","","","","","","","",""
"null","326175","SARL_v6","SARL_v6oan5qmn9","6400dc9f84ed19aeedc1a2cc","fixation","","","img/fixation.png","null","","","test","","","","","","","","","","","","","","","","","","","",""
"484.7999999523163","326662","SARL_v6","SARL_v6oan5qmn9","6400dc9f84ed19aeedc1a2cc","freq","","","img/orange_2bandit_a2.png","70","","70","test","1","","128","","","","square","circle","123","11","6","1","","","","","","","",""
"null","326986","SARL_v6","SARL_v6oan5qmn9","6400dc9f84ed19aeedc1a2cc","freq_resp","","","img/orange_2bandit_a.png","70","img/orange_2bandit_a.png","70","test","","","","","","","","","","","6","","","","","","","","",""
"null","327142","SARL_v6","SARL_v6oan5qmn9","6400dc9f84ed19aeedc1a2cc","fixation","","","img/fixation.png","null","","","test","","","","","","","","","","","","","","","","","","","",""
"430.69999980926514","327574","SARL_v6","SARL_v6oan5qmn9","6400dc9f84ed19aeedc1a2cc","freq","","","img/orange_2bandit_a2.png","70","","70","test","1","","129","","","","square","circle","124","12","6","1","","","","","","","",""
"null","327953","SARL_v6","SARL_v6oan5qmn9","6400dc9f84ed19aeedc1a2cc","freq_resp","","","img/orange_2bandit_a.png","70","img/orange_2bandit_a.png","70","test","","","","","","","","","","","6","","","","","","","","",""
"null","328110","SARL_v6","SARL_v6oan5qmn9","6400dc9f84ed19aeedc1a2cc","fixation","","","img/fixation.png","null","","","test","","","","","","","","","","","","","","","","","","","",""
"375.40000009536743","328488","SARL_v6","SARL_v6oan5qmn9","6400dc9f84ed19aeedc1a2cc","freq","","","img/orange_2bandit_a2.png","70","","70","test","1","","130","","","","square","circle","125","13","6","1","","","","","","","",""
"null","328922","SARL_v6","SARL_v6oan5qmn9","6400dc9f84ed19aeedc1a2cc","freq_resp","","","img/orange_2bandit_a.png","70","img/orange_2bandit_a.png","70","test","","","","","","","","","","","6","","","","","","","","",""
"null","329080","SARL_v6","SARL_v6oan5qmn9","6400dc9f84ed19aeedc1a2cc","fixation","","","img/fixation.png","null","","","test","","","","","","","","","","","","","","","","","","","",""
"439.40000009536743","329522","SARL_v6","SARL_v6oan5qmn9","6400dc9f84ed19aeedc1a2cc","infreq","","","img/blue_2bandit_a2.png","68","","68","test","1","","131","","","","square","circle","126","14","6","1","","","","","","","",""
"null","329892","SARL_v6","SARL_v6oan5qmn9","6400dc9f84ed19aeedc1a2cc","infreq_resp","","","img/blue_2bandit_a.png","68","img/blue_2bandit_a.png","68","test","","","","","","","","","","","6","","","","","","","","",""
