"rt","time_elapsed","expId","subject","prolificID","trialType","rlType","attType","stimulus","key_press","stim","corrresp","phase","corr","pracCounter","trialNum","rewardOne","rewardTwo","reward","bandOne","bandTwo","attentionNum","attentionRunNum","blockNum","performance","bandChosen","circleVal","squareVal","bandOneVal","bandTwoVal","shapeChosen","rlNum","badFlag"
"2584.2999999523163","2589","SARL_v6","SARL_v6bgfwzdyb","59ff81fd5d06850001afeeab","","","","","","","","","","","","","","","","","","","","","","","","","","","",""
"","793907","SARL_v6","SARL_v6bgfwzdyb","59ff81fd5d06850001afeeab","fullscreen","fullscreen","fullscreen","","","","","","","","","","","","","","","","","","","","","","","","",""
"134970.09999990463","928878","SARL_v6","SARL_v6bgfwzdyb","59ff81fd5d06850001afeeab","","","","","","","","","","","","","","","","","","","","","","","","","","","",""
"null","929682","SARL_v6","SARL_v6bgfwzdyb","59ff81fd5d06850001afeeab","freqPrac","","","img/blue_2bandit_b2.png","null","img/blue_2bandit_b2.png","70","prac","0","1","","","","","","","","","","","","","","","","","",""
"null","930685","SARL_v6","SARL_v6bgfwzdyb","59ff81fd5d06850001afeeab","feedback","","","img/tooSlow.png","null","","na","prac","","","","","","","","","","","","","","","","","","","",""
"null","930838","SARL_v6","SARL_v6bgfwzdyb","59ff81fd5d06850001afeeab","fixation","","","img/fixation.png","null","","","prac","","","","","","","","","","","","","","","","","","","",""
"679.5","931519","SARL_v6","SARL_v6bgfwzdyb","59ff81fd5d06850001afeeab","infreqPrac","","","img/orange_2bandit_b2.png","68","img/orange_2bandit_b2.png","68","prac","1","1","","","","","","","","","","","","","","","","","",""
"679.5","931642","SARL_v6","SARL_v6bgfwzdyb","59ff81fd5d06850001afeeab","infreqPrac_resp","","","img/orange_2bandit_b.png","68","img/orange_2bandit_b.png","68","prac","","","","","","","","","","","","","","","","","","","",""
"null","931795","SARL_v6","SARL_v6bgfwzdyb","59ff81fd5d06850001afeeab","fixation","","","img/fixation.png","null","","","prac","","","","","","","","","","","","","","","","","","","",""
"738.2000000476837","932535","SARL_v6","SARL_v6bgfwzdyb","59ff81fd5d06850001afeeab","freqPrac","","","img/blue_2bandit_b2.png","70","img/blue_2bandit_b2.png","70","prac","1","1","","","","","","","","","","","","","","","","","",""
"738.2000000476837","932598","SARL_v6","SARL_v6bgfwzdyb","59ff81fd5d06850001afeeab","freqPrac_resp","","","img/blue_2bandit_b.png","70","img/blue_2bandit_b.png","70","prac","","","","","","","","","","","","","","","","","","","",""
"null","932751","SARL_v6","SARL_v6bgfwzdyb","59ff81fd5d06850001afeeab","fixation","","","img/fixation.png","null","","","prac","","","","","","","","","","","","","","","","","","","",""
"545.5999999046326","933299","SARL_v6","SARL_v6bgfwzdyb","59ff81fd5d06850001afeeab","infreqPrac","","","img/orange_2bandit_b2.png","68","img/orange_2bandit_b2.png","68","prac","1","1","","","","","","","","","","","","","","","","","",""
"545.5999999046326","933557","SARL_v6","SARL_v6bgfwzdyb","59ff81fd5d06850001afeeab","infreqPrac_resp","","","img/orange_2bandit_b.png","68","img/orange_2bandit_b.png","68","prac","","","","","","","","","","","","","","","","","","","",""
"null","933710","SARL_v6","SARL_v6bgfwzdyb","59ff81fd5d06850001afeeab","fixation","","","img/fixation.png","null","","","prac","","","","","","","","","","","","","","","","","","","",""
"361.40000009536743","934073","SARL_v6","SARL_v6bgfwzdyb","59ff81fd5d06850001afeeab","infreqPrac","","","img/orange_2bandit_b2.png","68","img/orange_2bandit_b2.png","68","prac","1","1","","","","","","","","","","","","","","","","","",""
"361.40000009536743","934513","SARL_v6","SARL_v6bgfwzdyb","59ff81fd5d06850001afeeab","infreqPrac_resp","","","img/orange_2bandit_b.png","68","img/orange_2bandit_b.png","68","prac","","","","","","","","","","","","","","","","","","","",""
"null","934667","SARL_v6","SARL_v6bgfwzdyb","59ff81fd5d06850001afeeab","fixation","","","img/fixation.png","null","","","prac","","","","","","","","","","","","","","","","","","","",""
"547.3000001907349","935216","SARL_v6","SARL_v6bgfwzdyb","59ff81fd5d06850001afeeab","infreqPrac","","","img/orange_2bandit_b2.png","68","img/orange_2bandit_b2.png","68","prac","1","1","","","","","","","","","","","","","","","","","",""
"547.3000001907349","935469","SARL_v6","SARL_v6bgfwzdyb","59ff81fd5d06850001afeeab","infreqPrac_resp","","","img/orange_2bandit_b.png","68","img/orange_2bandit_b.png","68","prac","","","","","","","","","","","","","","","","","","","",""
"null","935621","SARL_v6","SARL_v6bgfwzdyb","59ff81fd5d06850001afeeab","fixation","","","img/fixation.png","null","","","prac","","","","","","","","","","","","","","","","","","","",""
"550.3999998569489","936173","SARL_v6","SARL_v6bgfwzdyb","59ff81fd5d06850001afeeab","freqPrac","","","img/blue_2bandit_b2.png","70","img/blue_2bandit_b2.png","70","prac","1","1","","","","","","","","","","","","","","","","","",""
"550.3999998569489","936424","SARL_v6","SARL_v6bgfwzdyb","59ff81fd5d06850001afeeab","freqPrac_resp","","","img/blue_2bandit_b.png","70","img/blue_2bandit_b.png","70","prac","","","","","","","","","","","","","","","","","","","",""
"null","936577","SARL_v6","SARL_v6bgfwzdyb","59ff81fd5d06850001afeeab","fixation","","","img/fixation.png","null","","","prac","","","","","","","","","","","","","","","","","","","",""
"439.2000000476837","937018","SARL_v6","SARL_v6bgfwzdyb","59ff81fd5d06850001afeeab","infreqPrac","","","img/orange_2bandit_b2.png","70","img/orange_2bandit_b2.png","68","prac","0","2","","","","","","","","","","","","","","","","","",""
"439.2000000476837","937380","SARL_v6","SARL_v6bgfwzdyb","59ff81fd5d06850001afeeab","infreqPrac_resp","","","img/orange_2bandit_b.png","70","img/orange_2bandit_b.png","68","prac","","","","","","","","","","","","","","","","","","","",""
"null","938383","SARL_v6","SARL_v6bgfwzdyb","59ff81fd5d06850001afeeab","feedback","","","img/wrongKey.png","null","","na","prac","","","","","","","","","","","","","","","","","","","",""
"null","938536","SARL_v6","SARL_v6bgfwzdyb","59ff81fd5d06850001afeeab","fixation","","","img/fixation.png","null","","","prac","","","","","","","","","","","","","","","","","","","",""
"492.90000009536743","939031","SARL_v6","SARL_v6bgfwzdyb","59ff81fd5d06850001afeeab","freqPrac","","","img/blue_2bandit_b2.png","70","img/blue_2bandit_b2.png","70","prac","1","2","","","","","","","","","","","","","","","","","",""
"492.90000009536743","939340","SARL_v6","SARL_v6bgfwzdyb","59ff81fd5d06850001afeeab","freqPrac_resp","","","img/blue_2bandit_b.png","70","img/blue_2bandit_b.png","70","prac","","","","","","","","","","","","","","","","","","","",""
"null","939493","SARL_v6","SARL_v6bgfwzdyb","59ff81fd5d06850001afeeab","fixation","","","img/fixation.png","null","","","prac","","","","","","","","","","","","","","","","","","","",""
"320.40000009536743","939815","SARL_v6","SARL_v6bgfwzdyb","59ff81fd5d06850001afeeab","freqPrac","","","img/blue_2bandit_b2.png","70","img/blue_2bandit_b2.png","70","prac","1","2","","","","","","","","","","","","","","","","","",""
"320.40000009536743","940297","SARL_v6","SARL_v6bgfwzdyb","59ff81fd5d06850001afeeab","freqPrac_resp","","","img/blue_2bandit_b.png","70","img/blue_2bandit_b.png","70","prac","","","","","","","","","","","","","","","","","","","",""
"null","940449","SARL_v6","SARL_v6bgfwzdyb","59ff81fd5d06850001afeeab","fixation","","","img/fixation.png","null","","","prac","","","","","","","","","","","","","","","","","","","",""
"80392","1020843","SARL_v6","SARL_v6bgfwzdyb","59ff81fd5d06850001afeeab","","","","","","","","prac","","","","","","","","","","","","","","","","","","","",""
"719.9000000953674","1021565","SARL_v6","SARL_v6bgfwzdyb","59ff81fd5d06850001afeeab","rlPractice","","","img/black_2bandit_b2.png","75","img/black_2bandit_b2.png","","prac","","","0","","","","","","","","","","","","","","","","",""
"null","1022317","SARL_v6","SARL_v6bgfwzdyb","59ff81fd5d06850001afeeab","feedback","","","<div class=""verylowPoints_sq""> -14 </div>","null","","na","prac","","","1","10","-14","10","","","","","","","","","","","","","",""
"null","1022470","SARL_v6","SARL_v6bgfwzdyb","59ff81fd5d06850001afeeab","fixation","","","img/fixation.png","null","","","prac","","","","","","","","","","","","","","","","","","","",""
"436.5","1022909","SARL_v6","SARL_v6bgfwzdyb","59ff81fd5d06850001afeeab","rlPractice","","","img/black_2bandit_b2.png","74","img/black_2bandit_b2.png","","prac","","","1","","","","","","","","","","","","","","","","",""
"null","1023662","SARL_v6","SARL_v6bgfwzdyb","59ff81fd5d06850001afeeab","feedback","","","<div class=""veryhighPoints""> 5 </div>","null","","na","prac","","","2","5","-5","5","","","","","","","","","","","","","",""
"null","1023815","SARL_v6","SARL_v6bgfwzdyb","59ff81fd5d06850001afeeab","fixation","","","img/fixation.png","null","","","prac","","","","","","","","","","","","","","","","","","","",""
"417.2000000476837","1024234","SARL_v6","SARL_v6bgfwzdyb","59ff81fd5d06850001afeeab","rlPractice","","","img/black_2bandit_b2.png","74","img/black_2bandit_b2.png","","prac","","","2","","","","","","","","","","","","","","","","",""
"null","1024987","SARL_v6","SARL_v6bgfwzdyb","59ff81fd5d06850001afeeab","feedback","","","<div class=""veryhighPoints""> 30 </div>","null","","na","prac","","","3","30","2","30","","","","","","","","","","","","","",""
"null","1025139","SARL_v6","SARL_v6bgfwzdyb","59ff81fd5d06850001afeeab","fixation","","","img/fixation.png","null","","","prac","","","","","","","","","","","","","","","","","","","",""
"814","1025957","SARL_v6","SARL_v6bgfwzdyb","59ff81fd5d06850001afeeab","rlPractice","","","img/black_2bandit_b2.png","74","img/black_2bandit_b2.png","","prac","","","3","","","","","","","","","","","","","","","","",""
"null","1026710","SARL_v6","SARL_v6bgfwzdyb","59ff81fd5d06850001afeeab","feedback","","","<div class=""verylowPoints""> -2 </div>","null","","na","prac","","","4","-2","20","-2","","","","","","","","","","","","","",""
"null","1026863","SARL_v6","SARL_v6bgfwzdyb","59ff81fd5d06850001afeeab","fixation","","","img/fixation.png","null","","","prac","","","","","","","","","","","","","","","","","","","",""
"23828","1050693","SARL_v6","SARL_v6bgfwzdyb","59ff81fd5d06850001afeeab","","","","","","","","prac","","","","","","","","","","","","","","","","","","","",""
"698.6000001430511","1051393","SARL_v6","SARL_v6bgfwzdyb","59ff81fd5d06850001afeeab","mixAttFreqPrac","","","img/blue_2bandit_b2.png","68","img/blue_2bandit_b2.png","70","prac","","","1","","","","","","","","","","","","","","","","",""
"698.6000001430511","1051497","SARL_v6","SARL_v6bgfwzdyb","59ff81fd5d06850001afeeab","freqPrac_resp","","","img/blue_2bandit_b.png","68","img/blue_2bandit_b.png","70","prac","","","1","","","","","","","","","","","","","","","","",""
"null","1051650","SARL_v6","SARL_v6bgfwzdyb","59ff81fd5d06850001afeeab","fixation","","","img/fixation.png","null","","","prac","","","","","","","","","","","","","","","","","","","",""
"724","1052375","SARL_v6","SARL_v6bgfwzdyb","59ff81fd5d06850001afeeab","mixAttInfreqPrac","","","img/orange_2bandit_b2.png","70","img/orange_2bandit_b2.png","68","prac","","","2","","","","","","","","","","","","","","","","",""
"724","1052454","SARL_v6","SARL_v6bgfwzdyb","59ff81fd5d06850001afeeab","infreqPrac_resp","","","img/orange_2bandit_b.png","70","img/blue_2bandit_b.png","68","prac","","","2","","","","","","","","","","","","","","","","",""
"null","1052607","SARL_v6","SARL_v6bgfwzdyb","59ff81fd5d06850001afeeab","fixation","","","img/fixation.png","null","","","prac","","","","","","","","","","","","","","","","","","","",""
"null","1053410","SARL_v6","SARL_v6bgfwzdyb","59ff81fd5d06850001afeeab","mixAttInfreqPrac","","","img/orange_2bandit_b2.png","null","img/orange_2bandit_b2.png","68","prac","","","3","","","","","","","","","","","","","","","","",""
"null","1053563","SARL_v6","SARL_v6bgfwzdyb","59ff81fd5d06850001afeeab","fixation","","","img/fixation.png","null","","","prac","","","","","","","","","","","","","","","","","","","",""
"60.09999990463257","1053625","SARL_v6","SARL_v6bgfwzdyb","59ff81fd5d06850001afeeab","mixAttInfreqPrac","","","img/orange_2bandit_b2.png","68","img/orange_2bandit_b2.png","68","prac","","","4","","","","","","","","","","","","","","","","",""
"60.09999990463257","1054366","SARL_v6","SARL_v6bgfwzdyb","59ff81fd5d06850001afeeab","infreqPrac_resp","","","img/orange_2bandit_b.png","68","img/blue_2bandit_b.png","68","prac","","","4","","","","","","","","","","","","","","","","",""
"null","1054520","SARL_v6","SARL_v6bgfwzdyb","59ff81fd5d06850001afeeab","fixation","","","img/fixation.png","null","","","prac","","","","","","","","","","","","","","","","","","","",""
"428.7000000476837","1054950","SARL_v6","SARL_v6bgfwzdyb","59ff81fd5d06850001afeeab","mixAttFreqPrac","","","img/blue_2bandit_b2.png","70","img/blue_2bandit_b2.png","70","prac","","","5","","","","","","","","","","","","","","","","",""
"428.7000000476837","1055323","SARL_v6","SARL_v6bgfwzdyb","59ff81fd5d06850001afeeab","freqPrac_resp","","","img/blue_2bandit_b.png","70","img/blue_2bandit_b.png","70","prac","","","5","","","","","","","","","","","","","","","","",""
"null","1055476","SARL_v6","SARL_v6bgfwzdyb","59ff81fd5d06850001afeeab","fixation","","","img/fixation.png","null","","","prac","","","","","","","","","","","","","","","","","","","",""
"579","1056056","SARL_v6","SARL_v6bgfwzdyb","59ff81fd5d06850001afeeab","mixRLPractice","","","img/black_2bandit_b2.png","75","img/black_2bandit_b2.png","","prac","","","5","","","","","","","","","","","","","","","","",""
"null","1056808","SARL_v6","SARL_v6bgfwzdyb","59ff81fd5d06850001afeeab","feedback","","","<div class=""veryhighPoints_sq""> 10 </div>","null","","na","prac","","","6","-14","10","-14","","","","","","","","","","","","","",""
"null","1056962","SARL_v6","SARL_v6bgfwzdyb","59ff81fd5d06850001afeeab","fixation","","","img/fixation.png","null","","","prac","","","","","","","","","","","","","","","","","","","",""
"541","1057504","SARL_v6","SARL_v6bgfwzdyb","59ff81fd5d06850001afeeab","mixAttFreqPrac","","","img/blue_2bandit_b2.png","68","img/blue_2bandit_b2.png","70","prac","","","7","","","","","","","","","","","","","","","","",""
"541","1057766","SARL_v6","SARL_v6bgfwzdyb","59ff81fd5d06850001afeeab","freqPrac_resp","","","img/blue_2bandit_b.png","68","img/blue_2bandit_b.png","70","prac","","","7","","","","","","","","","","","","","","","","",""
"null","1057919","SARL_v6","SARL_v6bgfwzdyb","59ff81fd5d06850001afeeab","fixation","","","img/fixation.png","null","","","prac","","","","","","","","","","","","","","","","","","","",""
"null","1058723","SARL_v6","SARL_v6bgfwzdyb","59ff81fd5d06850001afeeab","mixAttInfreqPrac","","","img/orange_2bandit_b2.png","null","img/orange_2bandit_b2.png","68","prac","","","8","","","","","","","","","","","","","","","","",""
"38","1058875","SARL_v6","SARL_v6bgfwzdyb","59ff81fd5d06850001afeeab","fixation","","","img/fixation.png","70","","","prac","","","","","","","","","","","","","","","","","","","",""
"701.9000000953674","1059579","SARL_v6","SARL_v6bgfwzdyb","59ff81fd5d06850001afeeab","mixAttFreqPrac","","","img/blue_2bandit_b2.png","68","img/blue_2bandit_b2.png","70","prac","","","9","","","","","","","","","","","","","","","","",""
"701.9000000953674","1059679","SARL_v6","SARL_v6bgfwzdyb","59ff81fd5d06850001afeeab","freqPrac_resp","","","img/blue_2bandit_b.png","68","img/blue_2bandit_b.png","70","prac","","","9","","","","","","","","","","","","","","","","",""
"null","1059832","SARL_v6","SARL_v6bgfwzdyb","59ff81fd5d06850001afeeab","fixation","","","img/fixation.png","null","","","prac","","","","","","","","","","","","","","","","","","","",""
"494.89999985694885","1060328","SARL_v6","SARL_v6bgfwzdyb","59ff81fd5d06850001afeeab","mixAttFreqPrac","","","img/blue_2bandit_b2.png","70","img/blue_2bandit_b2.png","70","prac","","","10","","","","","","","","","","","","","","","","",""
"494.89999985694885","1060636","SARL_v6","SARL_v6bgfwzdyb","59ff81fd5d06850001afeeab","freqPrac_resp","","","img/blue_2bandit_b.png","70","img/blue_2bandit_b.png","70","prac","","","10","","","","","","","","","","","","","","","","",""
"null","1060788","SARL_v6","SARL_v6bgfwzdyb","59ff81fd5d06850001afeeab","fixation","","","img/fixation.png","null","","","prac","","","","","","","","","","","","","","","","","","","",""
"577.5","1061367","SARL_v6","SARL_v6bgfwzdyb","59ff81fd5d06850001afeeab","mixAttInfreqPrac","","","img/orange_2bandit_b2.png","68","img/orange_2bandit_b2.png","68","prac","","","11","","","","","","","","","","","","","","","","",""
"577.5","1061592","SARL_v6","SARL_v6bgfwzdyb","59ff81fd5d06850001afeeab","infreqPrac_resp","","","img/orange_2bandit_b.png","68","img/blue_2bandit_b.png","68","prac","","","11","","","","","","","","","","","","","","","","",""
"null","1061745","SARL_v6","SARL_v6bgfwzdyb","59ff81fd5d06850001afeeab","fixation","","","img/fixation.png","null","","","prac","","","","","","","","","","","","","","","","","","","",""
"654","1062401","SARL_v6","SARL_v6bgfwzdyb","59ff81fd5d06850001afeeab","mixRLPractice","","","img/black_2bandit_b2.png","75","img/black_2bandit_b2.png","","prac","","","11","","","","","","","","","","","","","","","","",""
"null","1063154","SARL_v6","SARL_v6bgfwzdyb","59ff81fd5d06850001afeeab","feedback","","","<div class=""verylowPoints_sq""> -5 </div>","null","","na","prac","","","12","5","-5","5","","","","","","","","","","","","","",""
"null","1063306","SARL_v6","SARL_v6bgfwzdyb","59ff81fd5d06850001afeeab","fixation","","","img/fixation.png","null","","","prac","","","","","","","","","","","","","","","","","","","",""
"4313.400000095367","1067621","SARL_v6","SARL_v6bgfwzdyb","59ff81fd5d06850001afeeab","","","","","","","","prac","","","","","","","","","","","","","","","","","","","",""
"740.7999999523163","1068364","SARL_v6","SARL_v6bgfwzdyb","59ff81fd5d06850001afeeab","freq","","","img/blue_2bandit_b2.png","70","","70","test","1","","1","","","","circle","square","1","1","1","1","","","","","","","",""
"null","1068425","SARL_v6","SARL_v6bgfwzdyb","59ff81fd5d06850001afeeab","freq_resp","","","img/blue_2bandit_b.png","70","img/blue_2bandit_b.png","70","test","","","","","","","","","","","1","","","","","","","","",""
"null","1068578","SARL_v6","SARL_v6bgfwzdyb","59ff81fd5d06850001afeeab","fixation","","","img/fixation.png","null","","","test","","","","","","","","","","","","","","","","","","","",""
"386.5","1068966","SARL_v6","SARL_v6bgfwzdyb","59ff81fd5d06850001afeeab","freq","","","img/blue_2bandit_b2.png","70","","70","test","1","","2","","","","circle","square","2","2","1","1","","","","","","","",""
"null","1069382","SARL_v6","SARL_v6bgfwzdyb","59ff81fd5d06850001afeeab","freq_resp","","","img/blue_2bandit_b.png","70","img/blue_2bandit_b.png","70","test","","","","","","","","","","","1","","","","","","","","",""
"null","1069535","SARL_v6","SARL_v6bgfwzdyb","59ff81fd5d06850001afeeab","fixation","","","img/fixation.png","null","","","test","","","","","","","","","","","","","","","","","","","",""
"277","1069814","SARL_v6","SARL_v6bgfwzdyb","59ff81fd5d06850001afeeab","freq","","","img/blue_2bandit_b2.png","70","","70","test","1","","3","","","","circle","square","3","3","1","1","","","","","","","",""
"null","1070340","SARL_v6","SARL_v6bgfwzdyb","59ff81fd5d06850001afeeab","freq_resp","","","img/blue_2bandit_b.png","70","img/blue_2bandit_b.png","70","test","","","","","","","","","","","1","","","","","","","","",""
"null","1070493","SARL_v6","SARL_v6bgfwzdyb","59ff81fd5d06850001afeeab","fixation","","","img/fixation.png","null","","","test","","","","","","","","","","","","","","","","","","","",""
"298.59999990463257","1070793","SARL_v6","SARL_v6bgfwzdyb","59ff81fd5d06850001afeeab","freq","","","img/blue_2bandit_b2.png","70","","70","test","1","","4","","","","circle","square","4","4","1","1","","","","","","","",""
"null","1071297","SARL_v6","SARL_v6bgfwzdyb","59ff81fd5d06850001afeeab","freq_resp","","","img/blue_2bandit_b.png","70","img/blue_2bandit_b.png","70","test","","","","","","","","","","","1","","","","","","","","",""
"null","1071451","SARL_v6","SARL_v6bgfwzdyb","59ff81fd5d06850001afeeab","fixation","","","img/fixation.png","null","","","test","","","","","","","","","","","","","","","","","","","",""
"359.59999990463257","1071812","SARL_v6","SARL_v6bgfwzdyb","59ff81fd5d06850001afeeab","freq","","","img/blue_2bandit_b2.png","70","","70","test","1","","5","","","","circle","square","5","5","1","1","","","","","","","",""
"null","1072255","SARL_v6","SARL_v6bgfwzdyb","59ff81fd5d06850001afeeab","freq_resp","","","img/blue_2bandit_b.png","70","img/blue_2bandit_b.png","70","test","","","","","","","","","","","1","","","","","","","","",""
"null","1072409","SARL_v6","SARL_v6bgfwzdyb","59ff81fd5d06850001afeeab","fixation","","","img/fixation.png","null","","","test","","","","","","","","","","","","","","","","","","","",""
"327.90000009536743","1072739","SARL_v6","SARL_v6bgfwzdyb","59ff81fd5d06850001afeeab","freq","","","img/blue_2bandit_b2.png","70","","70","test","1","","6","","","","circle","square","6","6","1","1","","","","","","","",""
"null","1073213","SARL_v6","SARL_v6bgfwzdyb","59ff81fd5d06850001afeeab","freq_resp","","","img/blue_2bandit_b.png","70","img/blue_2bandit_b.png","70","test","","","","","","","","","","","1","","","","","","","","",""
"null","1073366","SARL_v6","SARL_v6bgfwzdyb","59ff81fd5d06850001afeeab","fixation","","","img/fixation.png","null","","","test","","","","","","","","","","","","","","","","","","","",""
"373.5","1073741","SARL_v6","SARL_v6bgfwzdyb","59ff81fd5d06850001afeeab","freq","","","img/blue_2bandit_b2.png","70","","70","test","1","","7","","","","circle","square","7","7","1","1","","","","","","","",""
"null","1074171","SARL_v6","SARL_v6bgfwzdyb","59ff81fd5d06850001afeeab","freq_resp","","","img/blue_2bandit_b.png","70","img/blue_2bandit_b.png","70","test","","","","","","","","","","","1","","","","","","","","",""
"null","1074324","SARL_v6","SARL_v6bgfwzdyb","59ff81fd5d06850001afeeab","fixation","","","img/fixation.png","null","","","test","","","","","","","","","","","","","","","","","","","",""
"350.80000019073486","1074676","SARL_v6","SARL_v6bgfwzdyb","59ff81fd5d06850001afeeab","freq","","","img/blue_2bandit_b2.png","70","","70","test","1","","8","","","","circle","square","8","8","1","1","","","","","","","",""
"null","1075128","SARL_v6","SARL_v6bgfwzdyb","59ff81fd5d06850001afeeab","freq_resp","","","img/blue_2bandit_b.png","70","img/blue_2bandit_b.png","70","test","","","","","","","","","","","1","","","","","","","","",""
"null","1075280","SARL_v6","SARL_v6bgfwzdyb","59ff81fd5d06850001afeeab","fixation","","","img/fixation.png","null","","","test","","","","","","","","","","","","","","","","","","","",""
"334.7999999523163","1075617","SARL_v6","SARL_v6bgfwzdyb","59ff81fd5d06850001afeeab","freq","","","img/blue_2bandit_b2.png","70","","70","test","1","","9","","","","circle","square","9","9","1","1","","","","","","","",""
"null","1076085","SARL_v6","SARL_v6bgfwzdyb","59ff81fd5d06850001afeeab","freq_resp","","","img/blue_2bandit_b.png","70","img/blue_2bandit_b.png","70","test","","","","","","","","","","","1","","","","","","","","",""
"null","1076237","SARL_v6","SARL_v6bgfwzdyb","59ff81fd5d06850001afeeab","fixation","","","img/fixation.png","null","","","test","","","","","","","","","","","","","","","","","","","",""
"427.2000000476837","1076666","SARL_v6","SARL_v6bgfwzdyb","59ff81fd5d06850001afeeab","infreq","","","img/orange_2bandit_b2.png","68","","68","test","1","","10","","","","circle","square","10","10","1","1","","","","","","","",""
"null","1077040","SARL_v6","SARL_v6bgfwzdyb","59ff81fd5d06850001afeeab","infreq_resp","","","img/orange_2bandit_b.png","68","img/orange_2bandit_b.png","68","test","","","","","","","","","","","1","","","","","","","","",""
"null","1077193","SARL_v6","SARL_v6bgfwzdyb","59ff81fd5d06850001afeeab","fixation","","","img/fixation.png","null","","","test","","","","","","","","","","","","","","","","","","","",""
"445.10000014305115","1077640","SARL_v6","SARL_v6bgfwzdyb","59ff81fd5d06850001afeeab","freq","","","img/blue_2bandit_b2.png","70","","70","test","1","","11","","","","circle","square","11","11","1","1","","","","","","","",""
"null","1077998","SARL_v6","SARL_v6bgfwzdyb","59ff81fd5d06850001afeeab","freq_resp","","","img/blue_2bandit_b.png","70","img/blue_2bandit_b.png","70","test","","","","","","","","","","","1","","","","","","","","",""
"null","1078151","SARL_v6","SARL_v6bgfwzdyb","59ff81fd5d06850001afeeab","fixation","","","img/fixation.png","null","","","test","","","","","","","","","","","","","","","","","","","",""
"521.1000001430511","1078674","SARL_v6","SARL_v6bgfwzdyb","59ff81fd5d06850001afeeab","freq","","","img/blue_2bandit_b2.png","70","","70","test","1","","12","","","","circle","square","12","12","1","1","","","","","","","",""
"null","1078955","SARL_v6","SARL_v6bgfwzdyb","59ff81fd5d06850001afeeab","freq_resp","","","img/blue_2bandit_b.png","70","img/blue_2bandit_b.png","70","test","","","","","","","","","","","1","","","","","","","","",""
"null","1079107","SARL_v6","SARL_v6bgfwzdyb","59ff81fd5d06850001afeeab","fixation","","","img/fixation.png","null","","","test","","","","","","","","","","","","","","","","","","","",""
"544.5","1079653","SARL_v6","SARL_v6bgfwzdyb","59ff81fd5d06850001afeeab","freq","","","img/blue_2bandit_b2.png","70","","70","test","1","","13","","","","circle","square","13","13","1","1","","","","","","","",""
"null","1079911","SARL_v6","SARL_v6bgfwzdyb","59ff81fd5d06850001afeeab","freq_resp","","","img/blue_2bandit_b.png","70","img/blue_2bandit_b.png","70","test","","","","","","","","","","","1","","","","","","","","",""
"null","1080064","SARL_v6","SARL_v6bgfwzdyb","59ff81fd5d06850001afeeab","fixation","","","img/fixation.png","null","","","test","","","","","","","","","","","","","","","","","","","",""
"469.5","1080535","SARL_v6","SARL_v6bgfwzdyb","59ff81fd5d06850001afeeab","infreq","","","img/orange_2bandit_b2.png","68","","68","test","1","","14","","","","circle","square","14","14","1","1","","","","","","","",""
"null","1080868","SARL_v6","SARL_v6bgfwzdyb","59ff81fd5d06850001afeeab","infreq_resp","","","img/orange_2bandit_b.png","68","img/orange_2bandit_b.png","68","test","","","","","","","","","","","1","","","","","","","","",""
"null","1081021","SARL_v6","SARL_v6bgfwzdyb","59ff81fd5d06850001afeeab","fixation","","","img/fixation.png","null","","","test","","","","","","","","","","","","","","","","","","","",""
"579.8999998569489","1081603","SARL_v6","SARL_v6bgfwzdyb","59ff81fd5d06850001afeeab","freq","","","img/blue_2bandit_b2.png","70","","70","test","1","","15","","","","circle","square","15","15","1","1","","","","","","","",""
"null","1081825","SARL_v6","SARL_v6bgfwzdyb","59ff81fd5d06850001afeeab","freq_resp","","","img/blue_2bandit_b.png","70","img/blue_2bandit_b.png","70","test","","","","","","","","","","","1","","","","","","","","",""
"null","1081977","SARL_v6","SARL_v6bgfwzdyb","59ff81fd5d06850001afeeab","fixation","","","img/fixation.png","null","","","test","","","","","","","","","","","","","","","","","","","",""
"502","1082481","SARL_v6","SARL_v6bgfwzdyb","59ff81fd5d06850001afeeab","freq","","","img/blue_2bandit_b2.png","70","","70","test","1","","16","","","","circle","square","16","16","1","1","","","","","","","",""
"null","1082782","SARL_v6","SARL_v6bgfwzdyb","59ff81fd5d06850001afeeab","freq_resp","","","img/blue_2bandit_b.png","70","img/blue_2bandit_b.png","70","test","","","","","","","","","","","1","","","","","","","","",""
"null","1082934","SARL_v6","SARL_v6bgfwzdyb","59ff81fd5d06850001afeeab","fixation","","","img/fixation.png","null","","","test","","","","","","","","","","","","","","","","","","","",""
"411.2000000476837","1083347","SARL_v6","SARL_v6bgfwzdyb","59ff81fd5d06850001afeeab","freq","","","img/blue_2bandit_b2.png","70","","70","test","1","","17","","","","circle","square","17","17","1","1","","","","","","","",""
"null","1083738","SARL_v6","SARL_v6bgfwzdyb","59ff81fd5d06850001afeeab","freq_resp","","","img/blue_2bandit_b.png","70","img/blue_2bandit_b.png","70","test","","","","","","","","","","","1","","","","","","","","",""
"null","1083890","SARL_v6","SARL_v6bgfwzdyb","59ff81fd5d06850001afeeab","fixation","","","img/fixation.png","null","","","test","","","","","","","","","","","","","","","","","","","",""
"336.7999999523163","1084229","SARL_v6","SARL_v6bgfwzdyb","59ff81fd5d06850001afeeab","freq","","","img/blue_2bandit_b2.png","70","","70","test","1","","18","","","","circle","square","18","18","1","1","","","","","","","",""
"null","1084695","SARL_v6","SARL_v6bgfwzdyb","59ff81fd5d06850001afeeab","freq_resp","","","img/blue_2bandit_b.png","70","img/blue_2bandit_b.png","70","test","","","","","","","","","","","1","","","","","","","","",""
"null","1084848","SARL_v6","SARL_v6bgfwzdyb","59ff81fd5d06850001afeeab","fixation","","","img/fixation.png","null","","","test","","","","","","","","","","","","","","","","","","","",""
"321.5","1085171","SARL_v6","SARL_v6bgfwzdyb","59ff81fd5d06850001afeeab","freq","","","img/blue_2bandit_b2.png","70","","70","test","1","","19","","","","circle","square","19","19","1","1","","","","","","","",""
"null","1085652","SARL_v6","SARL_v6bgfwzdyb","59ff81fd5d06850001afeeab","freq_resp","","","img/blue_2bandit_b.png","70","img/blue_2bandit_b.png","70","test","","","","","","","","","","","1","","","","","","","","",""
"null","1085804","SARL_v6","SARL_v6bgfwzdyb","59ff81fd5d06850001afeeab","fixation","","","img/fixation.png","null","","","test","","","","","","","","","","","","","","","","","","","",""
"305.80000019073486","1086111","SARL_v6","SARL_v6bgfwzdyb","59ff81fd5d06850001afeeab","freq","","","img/blue_2bandit_b2.png","70","","70","test","1","","20","","","","circle","square","20","20","1","1","","","","","","","",""
"null","1086608","SARL_v6","SARL_v6bgfwzdyb","59ff81fd5d06850001afeeab","freq_resp","","","img/blue_2bandit_b.png","70","img/blue_2bandit_b.png","70","test","","","","","","","","","","","1","","","","","","","","",""
"null","1086761","SARL_v6","SARL_v6bgfwzdyb","59ff81fd5d06850001afeeab","fixation","","","img/fixation.png","null","","","test","","","","","","","","","","","","","","","","","","","",""
"228.20000004768372","1086991","SARL_v6","SARL_v6bgfwzdyb","59ff81fd5d06850001afeeab","freq","","","img/blue_2bandit_b2.png","70","","70","test","1","","21","","","","circle","square","21","21","1","1","","","","","","","",""
"null","1087566","SARL_v6","SARL_v6bgfwzdyb","59ff81fd5d06850001afeeab","freq_resp","","","img/blue_2bandit_b.png","70","img/blue_2bandit_b.png","70","test","","","","","","","","","","","1","","","","","","","","",""
"null","1087718","SARL_v6","SARL_v6bgfwzdyb","59ff81fd5d06850001afeeab","fixation","","","img/fixation.png","null","","","test","","","","","","","","","","","","","","","","","","","",""
"255.59999990463257","1087975","SARL_v6","SARL_v6bgfwzdyb","59ff81fd5d06850001afeeab","freq","","","img/blue_2bandit_b2.png","70","","70","test","1","","22","","","","circle","square","22","22","1","1","","","","","","","",""
"null","1088522","SARL_v6","SARL_v6bgfwzdyb","59ff81fd5d06850001afeeab","freq_resp","","","img/blue_2bandit_b.png","70","img/blue_2bandit_b.png","70","test","","","","","","","","","","","1","","","","","","","","",""
"null","1088675","SARL_v6","SARL_v6bgfwzdyb","59ff81fd5d06850001afeeab","fixation","","","img/fixation.png","null","","","test","","","","","","","","","","","","","","","","","","","",""
"486.7999999523163","1089163","SARL_v6","SARL_v6bgfwzdyb","59ff81fd5d06850001afeeab","rl","","","img/black_2bandit_b2.png","74","","0","test","","","23","","","-3","circle","square","","0","1","","74","-3","-3","-3","-3","circle","1","0"
"null","1089915","SARL_v6","SARL_v6bgfwzdyb","59ff81fd5d06850001afeeab","feedback","","","<div class=""verylowPoints""> -3 </div>","null","","na","test","","","NaN","","","","","","","","1","","74","","","","","","1",""
"310.39999985694885","1090227","SARL_v6","SARL_v6bgfwzdyb","59ff81fd5d06850001afeeab","freq","","","img/blue_2bandit_b2.png","70","","70","test","1","","24","","","","circle","square","23","1","2","1","","","","","","","",""
"null","1090719","SARL_v6","SARL_v6bgfwzdyb","59ff81fd5d06850001afeeab","freq_resp","","","img/blue_2bandit_b.png","70","img/blue_2bandit_b.png","70","test","","","","","","","","","","","2","","","","","","","","",""
"null","1090873","SARL_v6","SARL_v6bgfwzdyb","59ff81fd5d06850001afeeab","fixation","","","img/fixation.png","null","","","test","","","","","","","","","","","","","","","","","","","",""
"192.5","1091067","SARL_v6","SARL_v6bgfwzdyb","59ff81fd5d06850001afeeab","freq","","","img/blue_2bandit_b2.png","70","","70","test","1","","25","","","","circle","square","24","2","2","1","","","","","","","",""
"null","1091677","SARL_v6","SARL_v6bgfwzdyb","59ff81fd5d06850001afeeab","freq_resp","","","img/blue_2bandit_b.png","70","img/blue_2bandit_b.png","70","test","","","","","","","","","","","2","","","","","","","","",""
"null","1091831","SARL_v6","SARL_v6bgfwzdyb","59ff81fd5d06850001afeeab","fixation","","","img/fixation.png","null","","","test","","","","","","","","","","","","","","","","","","","",""
"111.90000009536743","1091944","SARL_v6","SARL_v6bgfwzdyb","59ff81fd5d06850001afeeab","infreq","","","img/orange_2bandit_b2.png","70","","68","test","0","","26","","","","circle","square","25","3","2","0.96","","","","","","","",""
"null","1092636","SARL_v6","SARL_v6bgfwzdyb","59ff81fd5d06850001afeeab","infreq_resp","","","img/orange_2bandit_b.png","70","img/orange_2bandit_b.png","68","test","","","","","","","","","","","2","","","","","","","","",""
"null","1092789","SARL_v6","SARL_v6bgfwzdyb","59ff81fd5d06850001afeeab","fixation","","","img/fixation.png","null","","","test","","","","","","","","","","","","","","","","","","","",""
"384.2000000476837","1093175","SARL_v6","SARL_v6bgfwzdyb","59ff81fd5d06850001afeeab","freq","","","img/blue_2bandit_b2.png","70","","70","test","1","","27","","","","circle","square","26","4","2","0.9615384615384616","","","","","","","",""
"null","1093593","SARL_v6","SARL_v6bgfwzdyb","59ff81fd5d06850001afeeab","freq_resp","","","img/blue_2bandit_b.png","70","img/blue_2bandit_b.png","70","test","","","","","","","","","","","2","","","","","","","","",""
"null","1093747","SARL_v6","SARL_v6bgfwzdyb","59ff81fd5d06850001afeeab","fixation","","","img/fixation.png","null","","","test","","","","","","","","","","","","","","","","","","","",""
"258.59999990463257","1094007","SARL_v6","SARL_v6bgfwzdyb","59ff81fd5d06850001afeeab","freq","","","img/blue_2bandit_b2.png","70","","70","test","1","","28","","","","circle","square","27","5","2","0.9629629629629629","","","","","","","",""
"null","1094550","SARL_v6","SARL_v6bgfwzdyb","59ff81fd5d06850001afeeab","freq_resp","","","img/blue_2bandit_b.png","70","img/blue_2bandit_b.png","70","test","","","","","","","","","","","2","","","","","","","","",""
"null","1094703","SARL_v6","SARL_v6bgfwzdyb","59ff81fd5d06850001afeeab","fixation","","","img/fixation.png","null","","","test","","","","","","","","","","","","","","","","","","","",""
"257.40000009536743","1094962","SARL_v6","SARL_v6bgfwzdyb","59ff81fd5d06850001afeeab","freq","","","img/blue_2bandit_b2.png","70","","70","test","1","","29","","","","circle","square","28","6","2","0.9642857142857143","","","","","","","",""
"null","1095507","SARL_v6","SARL_v6bgfwzdyb","59ff81fd5d06850001afeeab","freq_resp","","","img/blue_2bandit_b.png","70","img/blue_2bandit_b.png","70","test","","","","","","","","","","","2","","","","","","","","",""
"null","1095660","SARL_v6","SARL_v6bgfwzdyb","59ff81fd5d06850001afeeab","fixation","","","img/fixation.png","null","","","test","","","","","","","","","","","","","","","","","","","",""
"239.29999995231628","1095901","SARL_v6","SARL_v6bgfwzdyb","59ff81fd5d06850001afeeab","freq","","","img/blue_2bandit_b2.png","70","","70","test","1","","30","","","","circle","square","29","7","2","0.9655172413793104","","","","","","","",""
"null","1096464","SARL_v6","SARL_v6bgfwzdyb","59ff81fd5d06850001afeeab","freq_resp","","","img/blue_2bandit_b.png","70","img/blue_2bandit_b.png","70","test","","","","","","","","","","","2","","","","","","","","",""
"null","1096618","SARL_v6","SARL_v6bgfwzdyb","59ff81fd5d06850001afeeab","fixation","","","img/fixation.png","null","","","test","","","","","","","","","","","","","","","","","","","",""
"243.5","1096863","SARL_v6","SARL_v6bgfwzdyb","59ff81fd5d06850001afeeab","infreq","","","img/orange_2bandit_b2.png","70","","68","test","0","","31","","","","circle","square","30","8","2","0.9333333333333333","","","","","","","",""
"null","1097421","SARL_v6","SARL_v6bgfwzdyb","59ff81fd5d06850001afeeab","infreq_resp","","","img/orange_2bandit_b.png","70","img/orange_2bandit_b.png","68","test","","","","","","","","","","","2","","","","","","","","",""
"null","1097573","SARL_v6","SARL_v6bgfwzdyb","59ff81fd5d06850001afeeab","fixation","","","img/fixation.png","null","","","test","","","","","","","","","","","","","","","","","","","",""
"405","1097980","SARL_v6","SARL_v6bgfwzdyb","59ff81fd5d06850001afeeab","freq","","","img/blue_2bandit_b2.png","70","","70","test","1","","32","","","","circle","square","31","9","2","0.9354838709677419","","","","","","","",""
"null","1098379","SARL_v6","SARL_v6bgfwzdyb","59ff81fd5d06850001afeeab","freq_resp","","","img/blue_2bandit_b.png","70","img/blue_2bandit_b.png","70","test","","","","","","","","","","","2","","","","","","","","",""
"null","1098531","SARL_v6","SARL_v6bgfwzdyb","59ff81fd5d06850001afeeab","fixation","","","img/fixation.png","null","","","test","","","","","","","","","","","","","","","","","","","",""
"269.7999999523163","1098803","SARL_v6","SARL_v6bgfwzdyb","59ff81fd5d06850001afeeab","freq","","","img/blue_2bandit_b2.png","70","","70","test","1","","33","","","","circle","square","32","10","2","0.9375","","","","","","","",""
"null","1099337","SARL_v6","SARL_v6bgfwzdyb","59ff81fd5d06850001afeeab","freq_resp","","","img/blue_2bandit_b.png","70","img/blue_2bandit_b.png","70","test","","","","","","","","","","","2","","","","","","","","",""
"null","1099490","SARL_v6","SARL_v6bgfwzdyb","59ff81fd5d06850001afeeab","fixation","","","img/fixation.png","null","","","test","","","","","","","","","","","","","","","","","","","",""
"238.90000009536743","1099731","SARL_v6","SARL_v6bgfwzdyb","59ff81fd5d06850001afeeab","freq","","","img/blue_2bandit_b2.png","70","","70","test","1","","34","","","","circle","square","33","11","2","0.9393939393939394","","","","","","","",""
"null","1100294","SARL_v6","SARL_v6bgfwzdyb","59ff81fd5d06850001afeeab","freq_resp","","","img/blue_2bandit_b.png","70","img/blue_2bandit_b.png","70","test","","","","","","","","","","","2","","","","","","","","",""
"null","1100446","SARL_v6","SARL_v6bgfwzdyb","59ff81fd5d06850001afeeab","fixation","","","img/fixation.png","null","","","test","","","","","","","","","","","","","","","","","","","",""
"246","1100694","SARL_v6","SARL_v6bgfwzdyb","59ff81fd5d06850001afeeab","freq","","","img/blue_2bandit_b2.png","70","","70","test","1","","35","","","","circle","square","34","12","2","0.9411764705882353","","","","","","","",""
"null","1101251","SARL_v6","SARL_v6bgfwzdyb","59ff81fd5d06850001afeeab","freq_resp","","","img/blue_2bandit_b.png","70","img/blue_2bandit_b.png","70","test","","","","","","","","","","","2","","","","","","","","",""
"null","1101404","SARL_v6","SARL_v6bgfwzdyb","59ff81fd5d06850001afeeab","fixation","","","img/fixation.png","null","","","test","","","","","","","","","","","","","","","","","","","",""
"253.59999990463257","1101659","SARL_v6","SARL_v6bgfwzdyb","59ff81fd5d06850001afeeab","freq","","","img/blue_2bandit_b2.png","70","","70","test","1","","36","","","","circle","square","35","13","2","0.9428571428571428","","","","","","","",""
"null","1102208","SARL_v6","SARL_v6bgfwzdyb","59ff81fd5d06850001afeeab","freq_resp","","","img/blue_2bandit_b.png","70","img/blue_2bandit_b.png","70","test","","","","","","","","","","","2","","","","","","","","",""
"null","1102361","SARL_v6","SARL_v6bgfwzdyb","59ff81fd5d06850001afeeab","fixation","","","img/fixation.png","null","","","test","","","","","","","","","","","","","","","","","","","",""
"249.90000009536743","1102612","SARL_v6","SARL_v6bgfwzdyb","59ff81fd5d06850001afeeab","freq","","","img/blue_2bandit_b2.png","70","","70","test","1","","37","","","","circle","square","36","14","2","0.9444444444444444","","","","","","","",""
"null","1103165","SARL_v6","SARL_v6bgfwzdyb","59ff81fd5d06850001afeeab","freq_resp","","","img/blue_2bandit_b.png","70","img/blue_2bandit_b.png","70","test","","","","","","","","","","","2","","","","","","","","",""
"null","1103317","SARL_v6","SARL_v6bgfwzdyb","59ff81fd5d06850001afeeab","fixation","","","img/fixation.png","null","","","test","","","","","","","","","","","","","","","","","","","",""
"255.09999990463257","1103574","SARL_v6","SARL_v6bgfwzdyb","59ff81fd5d06850001afeeab","freq","","","img/blue_2bandit_b2.png","70","","70","test","1","","38","","","","circle","square","37","15","2","0.9459459459459459","","","","","","","",""
"null","1104121","SARL_v6","SARL_v6bgfwzdyb","59ff81fd5d06850001afeeab","freq_resp","","","img/blue_2bandit_b.png","70","img/blue_2bandit_b.png","70","test","","","","","","","","","","","2","","","","","","","","",""
"null","1104274","SARL_v6","SARL_v6bgfwzdyb","59ff81fd5d06850001afeeab","fixation","","","img/fixation.png","null","","","test","","","","","","","","","","","","","","","","","","","",""
"218.30000019073486","1104494","SARL_v6","SARL_v6bgfwzdyb","59ff81fd5d06850001afeeab","freq","","","img/blue_2bandit_b2.png","70","","70","test","1","","39","","","","circle","square","38","16","2","0.9473684210526315","","","","","","","",""
"null","1105078","SARL_v6","SARL_v6bgfwzdyb","59ff81fd5d06850001afeeab","freq_resp","","","img/blue_2bandit_b.png","70","img/blue_2bandit_b.png","70","test","","","","","","","","","","","2","","","","","","","","",""
"null","1105232","SARL_v6","SARL_v6bgfwzdyb","59ff81fd5d06850001afeeab","fixation","","","img/fixation.png","null","","","test","","","","","","","","","","","","","","","","","","","",""
"237","1105470","SARL_v6","SARL_v6bgfwzdyb","59ff81fd5d06850001afeeab","freq","","","img/blue_2bandit_b2.png","70","","70","test","1","","40","","","","circle","square","39","17","2","0.9487179487179487","","","","","","","",""
"null","1106036","SARL_v6","SARL_v6bgfwzdyb","59ff81fd5d06850001afeeab","freq_resp","","","img/blue_2bandit_b.png","70","img/blue_2bandit_b.png","70","test","","","","","","","","","","","2","","","","","","","","",""
"null","1106189","SARL_v6","SARL_v6bgfwzdyb","59ff81fd5d06850001afeeab","fixation","","","img/fixation.png","null","","","test","","","","","","","","","","","","","","","","","","","",""
"288.2000000476837","1106478","SARL_v6","SARL_v6bgfwzdyb","59ff81fd5d06850001afeeab","freq","","","img/blue_2bandit_b2.png","70","","70","test","1","","41","","","","circle","square","40","18","2","0.95","","","","","","","",""
"null","1106992","SARL_v6","SARL_v6bgfwzdyb","59ff81fd5d06850001afeeab","freq_resp","","","img/blue_2bandit_b.png","70","img/blue_2bandit_b.png","70","test","","","","","","","","","","","2","","","","","","","","",""
"null","1107146","SARL_v6","SARL_v6bgfwzdyb","59ff81fd5d06850001afeeab","fixation","","","img/fixation.png","null","","","test","","","","","","","","","","","","","","","","","","","",""
"267.2999999523163","1107416","SARL_v6","SARL_v6bgfwzdyb","59ff81fd5d06850001afeeab","freq","","","img/blue_2bandit_b2.png","70","","70","test","1","","42","","","","circle","square","41","19","2","0.9512195121951219","","","","","","","",""
"null","1107951","SARL_v6","SARL_v6bgfwzdyb","59ff81fd5d06850001afeeab","freq_resp","","","img/blue_2bandit_b.png","70","img/blue_2bandit_b.png","70","test","","","","","","","","","","","2","","","","","","","","",""
"null","1108104","SARL_v6","SARL_v6bgfwzdyb","59ff81fd5d06850001afeeab","fixation","","","img/fixation.png","null","","","test","","","","","","","","","","","","","","","","","","","",""
"228.40000009536743","1108334","SARL_v6","SARL_v6bgfwzdyb","59ff81fd5d06850001afeeab","freq","","","img/blue_2bandit_b2.png","70","","70","test","1","","43","","","","circle","square","42","20","2","0.9523809523809523","","","","","","","",""
"null","1108908","SARL_v6","SARL_v6bgfwzdyb","59ff81fd5d06850001afeeab","freq_resp","","","img/blue_2bandit_b.png","70","img/blue_2bandit_b.png","70","test","","","","","","","","","","","2","","","","","","","","",""
"null","1109061","SARL_v6","SARL_v6bgfwzdyb","59ff81fd5d06850001afeeab","fixation","","","img/fixation.png","null","","","test","","","","","","","","","","","","","","","","","","","",""
"245.40000009536743","1109308","SARL_v6","SARL_v6bgfwzdyb","59ff81fd5d06850001afeeab","freq","","","img/blue_2bandit_b2.png","70","","70","test","1","","44","","","","circle","square","43","21","2","0.9534883720930233","","","","","","","",""
"null","1109865","SARL_v6","SARL_v6bgfwzdyb","59ff81fd5d06850001afeeab","freq_resp","","","img/blue_2bandit_b.png","70","img/blue_2bandit_b.png","70","test","","","","","","","","","","","2","","","","","","","","",""
"null","1110018","SARL_v6","SARL_v6bgfwzdyb","59ff81fd5d06850001afeeab","fixation","","","img/fixation.png","null","","","test","","","","","","","","","","","","","","","","","","","",""
"536.7000000476837","1110557","SARL_v6","SARL_v6bgfwzdyb","59ff81fd5d06850001afeeab","rl","","","img/black_2bandit_b2.png","74","","0","test","","","45","","","-5","circle","square","","0","2","","74","-5","-8","-5","-8","circle","2","0"
"null","1111310","SARL_v6","SARL_v6bgfwzdyb","59ff81fd5d06850001afeeab","feedback","","","<div class=""verylowPoints""> -5 </div>","null","","na","test","","","NaN","","","","","","","","2","","74","","","","","","2",""
"513","1111825","SARL_v6","SARL_v6bgfwzdyb","59ff81fd5d06850001afeeab","freq","","","img/blue_2bandit_b2.png","70","","70","test","1","","46","","","","circle","square","44","1","3","0.9545454545454546","","","","","","","",""
"null","1112114","SARL_v6","SARL_v6bgfwzdyb","59ff81fd5d06850001afeeab","freq_resp","","","img/blue_2bandit_b.png","70","img/blue_2bandit_b.png","70","test","","","","","","","","","","","3","","","","","","","","",""
"null","1112268","SARL_v6","SARL_v6bgfwzdyb","59ff81fd5d06850001afeeab","fixation","","","img/fixation.png","null","","","test","","","","","","","","","","","","","","","","","","","",""
"278.09999990463257","1112547","SARL_v6","SARL_v6bgfwzdyb","59ff81fd5d06850001afeeab","freq","","","img/blue_2bandit_b2.png","70","","70","test","1","","47","","","","circle","square","45","2","3","0.9555555555555556","","","","","","","",""
"null","1113072","SARL_v6","SARL_v6bgfwzdyb","59ff81fd5d06850001afeeab","freq_resp","","","img/blue_2bandit_b.png","70","img/blue_2bandit_b.png","70","test","","","","","","","","","","","3","","","","","","","","",""
"null","1113225","SARL_v6","SARL_v6bgfwzdyb","59ff81fd5d06850001afeeab","fixation","","","img/fixation.png","null","","","test","","","","","","","","","","","","","","","","","","","",""
"246.79999995231628","1113474","SARL_v6","SARL_v6bgfwzdyb","59ff81fd5d06850001afeeab","freq","","","img/blue_2bandit_b2.png","70","","70","test","1","","48","","","","circle","square","46","3","3","0.9565217391304348","","","","","","","",""
"null","1114029","SARL_v6","SARL_v6bgfwzdyb","59ff81fd5d06850001afeeab","freq_resp","","","img/blue_2bandit_b.png","70","img/blue_2bandit_b.png","70","test","","","","","","","","","","","3","","","","","","","","",""
"null","1114182","SARL_v6","SARL_v6bgfwzdyb","59ff81fd5d06850001afeeab","fixation","","","img/fixation.png","null","","","test","","","","","","","","","","","","","","","","","","","",""
"251.39999985694885","1114435","SARL_v6","SARL_v6bgfwzdyb","59ff81fd5d06850001afeeab","freq","","","img/blue_2bandit_b2.png","70","","70","test","1","","49","","","","circle","square","47","4","3","0.9574468085106383","","","","","","","",""
"null","1114985","SARL_v6","SARL_v6bgfwzdyb","59ff81fd5d06850001afeeab","freq_resp","","","img/blue_2bandit_b.png","70","img/blue_2bandit_b.png","70","test","","","","","","","","","","","3","","","","","","","","",""
"null","1115138","SARL_v6","SARL_v6bgfwzdyb","59ff81fd5d06850001afeeab","fixation","","","img/fixation.png","null","","","test","","","","","","","","","","","","","","","","","","","",""
"527.7999999523163","1115667","SARL_v6","SARL_v6bgfwzdyb","59ff81fd5d06850001afeeab","freq","","","img/blue_2bandit_b2.png","70","","70","test","1","","50","","","","circle","square","48","5","3","0.9583333333333334","","","","","","","",""
"null","1115943","SARL_v6","SARL_v6bgfwzdyb","59ff81fd5d06850001afeeab","freq_resp","","","img/blue_2bandit_b.png","70","img/blue_2bandit_b.png","70","test","","","","","","","","","","","3","","","","","","","","",""
"null","1116095","SARL_v6","SARL_v6bgfwzdyb","59ff81fd5d06850001afeeab","fixation","","","img/fixation.png","null","","","test","","","","","","","","","","","","","","","","","","","",""
"334","1116430","SARL_v6","SARL_v6bgfwzdyb","59ff81fd5d06850001afeeab","freq","","","img/blue_2bandit_b2.png","70","","70","test","1","","51","","","","circle","square","49","6","3","0.9591836734693877","","","","","","","",""
"null","1116899","SARL_v6","SARL_v6bgfwzdyb","59ff81fd5d06850001afeeab","freq_resp","","","img/blue_2bandit_b.png","70","img/blue_2bandit_b.png","70","test","","","","","","","","","","","3","","","","","","","","",""
"null","1117052","SARL_v6","SARL_v6bgfwzdyb","59ff81fd5d06850001afeeab","fixation","","","img/fixation.png","null","","","test","","","","","","","","","","","","","","","","","","","",""
"252.59999990463257","1117306","SARL_v6","SARL_v6bgfwzdyb","59ff81fd5d06850001afeeab","freq","","","img/blue_2bandit_b2.png","70","","70","test","1","","52","","","","circle","square","50","7","3","0.96","","","","","","","",""
"null","1117856","SARL_v6","SARL_v6bgfwzdyb","59ff81fd5d06850001afeeab","freq_resp","","","img/blue_2bandit_b.png","70","img/blue_2bandit_b.png","70","test","","","","","","","","","","","3","","","","","","","","",""
"null","1118008","SARL_v6","SARL_v6bgfwzdyb","59ff81fd5d06850001afeeab","fixation","","","img/fixation.png","null","","","test","","","","","","","","","","","","","","","","","","","",""
"234.29999995231628","1118244","SARL_v6","SARL_v6bgfwzdyb","59ff81fd5d06850001afeeab","freq","","","img/blue_2bandit_b2.png","70","","70","test","1","","53","","","","circle","square","51","8","3","0.9607843137254902","","","","","","","",""
"null","1118812","SARL_v6","SARL_v6bgfwzdyb","59ff81fd5d06850001afeeab","freq_resp","","","img/blue_2bandit_b.png","70","img/blue_2bandit_b.png","70","test","","","","","","","","","","","3","","","","","","","","",""
"null","1118964","SARL_v6","SARL_v6bgfwzdyb","59ff81fd5d06850001afeeab","fixation","","","img/fixation.png","null","","","test","","","","","","","","","","","","","","","","","","","",""
"237.90000009536743","1119204","SARL_v6","SARL_v6bgfwzdyb","59ff81fd5d06850001afeeab","freq","","","img/blue_2bandit_b2.png","70","","70","test","1","","54","","","","circle","square","52","9","3","0.9615384615384616","","","","","","","",""
"null","1119769","SARL_v6","SARL_v6bgfwzdyb","59ff81fd5d06850001afeeab","freq_resp","","","img/blue_2bandit_b.png","70","img/blue_2bandit_b.png","70","test","","","","","","","","","","","3","","","","","","","","",""
"null","1119921","SARL_v6","SARL_v6bgfwzdyb","59ff81fd5d06850001afeeab","fixation","","","img/fixation.png","null","","","test","","","","","","","","","","","","","","","","","","","",""
"231","1120154","SARL_v6","SARL_v6bgfwzdyb","59ff81fd5d06850001afeeab","freq","","","img/blue_2bandit_b2.png","70","","70","test","1","","55","","","","circle","square","53","10","3","0.9622641509433962","","","","","","","",""
"null","1120726","SARL_v6","SARL_v6bgfwzdyb","59ff81fd5d06850001afeeab","freq_resp","","","img/blue_2bandit_b.png","70","img/blue_2bandit_b.png","70","test","","","","","","","","","","","3","","","","","","","","",""
"null","1120878","SARL_v6","SARL_v6bgfwzdyb","59ff81fd5d06850001afeeab","fixation","","","img/fixation.png","null","","","test","","","","","","","","","","","","","","","","","","","",""
"229.5","1121109","SARL_v6","SARL_v6bgfwzdyb","59ff81fd5d06850001afeeab","freq","","","img/blue_2bandit_b2.png","70","","70","test","1","","56","","","","circle","square","54","11","3","0.9629629629629629","","","","","","","",""
"null","1121682","SARL_v6","SARL_v6bgfwzdyb","59ff81fd5d06850001afeeab","freq_resp","","","img/blue_2bandit_b.png","70","img/blue_2bandit_b.png","70","test","","","","","","","","","","","3","","","","","","","","",""
"null","1121834","SARL_v6","SARL_v6bgfwzdyb","59ff81fd5d06850001afeeab","fixation","","","img/fixation.png","null","","","test","","","","","","","","","","","","","","","","","","","",""
"213.70000004768372","1122049","SARL_v6","SARL_v6bgfwzdyb","59ff81fd5d06850001afeeab","freq","","","img/blue_2bandit_b2.png","70","","70","test","1","","57","","","","circle","square","55","12","3","0.9636363636363636","","","","","","","",""
"null","1122638","SARL_v6","SARL_v6bgfwzdyb","59ff81fd5d06850001afeeab","freq_resp","","","img/blue_2bandit_b.png","70","img/blue_2bandit_b.png","70","test","","","","","","","","","","","3","","","","","","","","",""
"null","1122790","SARL_v6","SARL_v6bgfwzdyb","59ff81fd5d06850001afeeab","fixation","","","img/fixation.png","null","","","test","","","","","","","","","","","","","","","","","","","",""
"230","1123022","SARL_v6","SARL_v6bgfwzdyb","59ff81fd5d06850001afeeab","freq","","","img/blue_2bandit_b2.png","70","","70","test","1","","58","","","","circle","square","56","13","3","0.9642857142857143","","","","","","","",""
"null","1123594","SARL_v6","SARL_v6bgfwzdyb","59ff81fd5d06850001afeeab","freq_resp","","","img/blue_2bandit_b.png","70","img/blue_2bandit_b.png","70","test","","","","","","","","","","","3","","","","","","","","",""
"null","1123747","SARL_v6","SARL_v6bgfwzdyb","59ff81fd5d06850001afeeab","fixation","","","img/fixation.png","null","","","test","","","","","","","","","","","","","","","","","","","",""
"375.90000009536743","1124124","SARL_v6","SARL_v6bgfwzdyb","59ff81fd5d06850001afeeab","infreq","","","img/orange_2bandit_b2.png","68","","68","test","1","","59","","","","circle","square","57","14","3","0.9649122807017544","","","","","","","",""
"null","1124550","SARL_v6","SARL_v6bgfwzdyb","59ff81fd5d06850001afeeab","infreq_resp","","","img/orange_2bandit_b.png","68","img/orange_2bandit_b.png","68","test","","","","","","","","","","","3","","","","","","","","",""
"null","1124703","SARL_v6","SARL_v6bgfwzdyb","59ff81fd5d06850001afeeab","fixation","","","img/fixation.png","null","","","test","","","","","","","","","","","","","","","","","","","",""
"374.5","1125079","SARL_v6","SARL_v6bgfwzdyb","59ff81fd5d06850001afeeab","freq","","","img/blue_2bandit_b2.png","70","","70","test","1","","60","","","","circle","square","58","15","3","0.9655172413793104","","","","","","","",""
"null","1125507","SARL_v6","SARL_v6bgfwzdyb","59ff81fd5d06850001afeeab","freq_resp","","","img/blue_2bandit_b.png","70","img/blue_2bandit_b.png","70","test","","","","","","","","","","","3","","","","","","","","",""
"null","1125659","SARL_v6","SARL_v6bgfwzdyb","59ff81fd5d06850001afeeab","fixation","","","img/fixation.png","null","","","test","","","","","","","","","","","","","","","","","","","",""
"332.59999990463257","1125994","SARL_v6","SARL_v6bgfwzdyb","59ff81fd5d06850001afeeab","freq","","","img/blue_2bandit_b2.png","70","","70","test","1","","61","","","","circle","square","59","16","3","0.9661016949152542","","","","","","","",""
"null","1126464","SARL_v6","SARL_v6bgfwzdyb","59ff81fd5d06850001afeeab","freq_resp","","","img/blue_2bandit_b.png","70","img/blue_2bandit_b.png","70","test","","","","","","","","","","","3","","","","","","","","",""
"null","1126616","SARL_v6","SARL_v6bgfwzdyb","59ff81fd5d06850001afeeab","fixation","","","img/fixation.png","null","","","test","","","","","","","","","","","","","","","","","","","",""
"350","1126968","SARL_v6","SARL_v6bgfwzdyb","59ff81fd5d06850001afeeab","freq","","","img/blue_2bandit_b2.png","70","","70","test","1","","62","","","","circle","square","60","17","3","0.9666666666666667","","","","","","","",""
"null","1127420","SARL_v6","SARL_v6bgfwzdyb","59ff81fd5d06850001afeeab","freq_resp","","","img/blue_2bandit_b.png","70","img/blue_2bandit_b.png","70","test","","","","","","","","","","","3","","","","","","","","",""
"null","1127573","SARL_v6","SARL_v6bgfwzdyb","59ff81fd5d06850001afeeab","fixation","","","img/fixation.png","null","","","test","","","","","","","","","","","","","","","","","","","",""
"322.89999985694885","1127898","SARL_v6","SARL_v6bgfwzdyb","59ff81fd5d06850001afeeab","freq","","","img/blue_2bandit_b2.png","70","","70","test","1","","63","","","","circle","square","61","18","3","0.9672131147540983","","","","","","","",""
"null","1128378","SARL_v6","SARL_v6bgfwzdyb","59ff81fd5d06850001afeeab","freq_resp","","","img/blue_2bandit_b.png","70","img/blue_2bandit_b.png","70","test","","","","","","","","","","","3","","","","","","","","",""
"null","1128530","SARL_v6","SARL_v6bgfwzdyb","59ff81fd5d06850001afeeab","fixation","","","img/fixation.png","null","","","test","","","","","","","","","","","","","","","","","","","",""
"335.59999990463257","1128867","SARL_v6","SARL_v6bgfwzdyb","59ff81fd5d06850001afeeab","freq","","","img/blue_2bandit_b2.png","70","","70","test","1","","64","","","","circle","square","62","19","3","0.967741935483871","","","","","","","",""
"null","1129334","SARL_v6","SARL_v6bgfwzdyb","59ff81fd5d06850001afeeab","freq_resp","","","img/blue_2bandit_b.png","70","img/blue_2bandit_b.png","70","test","","","","","","","","","","","3","","","","","","","","",""
"null","1129488","SARL_v6","SARL_v6bgfwzdyb","59ff81fd5d06850001afeeab","fixation","","","img/fixation.png","null","","","test","","","","","","","","","","","","","","","","","","","",""
"346.2999999523163","1129836","SARL_v6","SARL_v6bgfwzdyb","59ff81fd5d06850001afeeab","freq","","","img/blue_2bandit_b2.png","70","","70","test","1","","65","","","","circle","square","63","20","3","0.9682539682539683","","","","","","","",""
"null","1130291","SARL_v6","SARL_v6bgfwzdyb","59ff81fd5d06850001afeeab","freq_resp","","","img/blue_2bandit_b.png","70","img/blue_2bandit_b.png","70","test","","","","","","","","","","","3","","","","","","","","",""
"null","1130444","SARL_v6","SARL_v6bgfwzdyb","59ff81fd5d06850001afeeab","fixation","","","img/fixation.png","null","","","test","","","","","","","","","","","","","","","","","","","",""
"null","1131246","SARL_v6","SARL_v6bgfwzdyb","59ff81fd5d06850001afeeab","infreq","","","img/orange_2bandit_b2.png","null","","68","test","0","","66","","","","circle","square","64","21","3","0.953125","","","","","","","",""
"null","1131399","SARL_v6","SARL_v6bgfwzdyb","59ff81fd5d06850001afeeab","fixation","","","img/fixation.png","null","","","test","","","","","","","","","","","","","","","","","","","",""
"406.2999999523163","1131807","SARL_v6","SARL_v6bgfwzdyb","59ff81fd5d06850001afeeab","freq","","","img/blue_2bandit_b2.png","70","","70","test","1","","67","","","","circle","square","65","22","3","0.9538461538461539","","","","","","","",""
"null","1132202","SARL_v6","SARL_v6bgfwzdyb","59ff81fd5d06850001afeeab","freq_resp","","","img/blue_2bandit_b.png","70","img/blue_2bandit_b.png","70","test","","","","","","","","","","","3","","","","","","","","",""
"null","1132355","SARL_v6","SARL_v6bgfwzdyb","59ff81fd5d06850001afeeab","fixation","","","img/fixation.png","null","","","test","","","","","","","","","","","","","","","","","","","",""
"458.2000000476837","1132815","SARL_v6","SARL_v6bgfwzdyb","59ff81fd5d06850001afeeab","rl","","","img/black_2bandit_b2.png","75","","0","test","","","68","","","-8","circle","square","","0","3","","75","-4","-8","-4","-8","square","3","0"
"null","1133568","SARL_v6","SARL_v6bgfwzdyb","59ff81fd5d06850001afeeab","feedback","","","<div class=""verylowPoints_sq""> -8 </div>","null","","na","test","","","NaN","","","","","","","","3","","75","","","","","","3",""
"439.80000019073486","1134010","SARL_v6","SARL_v6bgfwzdyb","59ff81fd5d06850001afeeab","freq","","","img/blue_2bandit_b2.png","70","","70","test","1","","69","","","","circle","square","66","1","4","0.9545454545454546","","","","","","","",""
"null","1134374","SARL_v6","SARL_v6bgfwzdyb","59ff81fd5d06850001afeeab","freq_resp","","","img/blue_2bandit_b.png","70","img/blue_2bandit_b.png","70","test","","","","","","","","","","","4","","","","","","","","",""
"null","1134526","SARL_v6","SARL_v6bgfwzdyb","59ff81fd5d06850001afeeab","fixation","","","img/fixation.png","null","","","test","","","","","","","","","","","","","","","","","","","",""
"365.7000000476837","1134894","SARL_v6","SARL_v6bgfwzdyb","59ff81fd5d06850001afeeab","freq","","","img/blue_2bandit_b2.png","70","","70","test","1","","70","","","","circle","square","67","2","4","0.9552238805970149","","","","","","","",""
"null","1135331","SARL_v6","SARL_v6bgfwzdyb","59ff81fd5d06850001afeeab","freq_resp","","","img/blue_2bandit_b.png","70","img/blue_2bandit_b.png","70","test","","","","","","","","","","","4","","","","","","","","",""
"null","1135483","SARL_v6","SARL_v6bgfwzdyb","59ff81fd5d06850001afeeab","fixation","","","img/fixation.png","null","","","test","","","","","","","","","","","","","","","","","","","",""
"273.5","1135758","SARL_v6","SARL_v6bgfwzdyb","59ff81fd5d06850001afeeab","freq","","","img/blue_2bandit_b2.png","70","","70","test","1","","71","","","","circle","square","68","3","4","0.9558823529411765","","","","","","","",""
"null","1136286","SARL_v6","SARL_v6bgfwzdyb","59ff81fd5d06850001afeeab","freq_resp","","","img/blue_2bandit_b.png","70","img/blue_2bandit_b.png","70","test","","","","","","","","","","","4","","","","","","","","",""
"null","1136438","SARL_v6","SARL_v6bgfwzdyb","59ff81fd5d06850001afeeab","fixation","","","img/fixation.png","null","","","test","","","","","","","","","","","","","","","","","","","",""
"242.40000009536743","1136682","SARL_v6","SARL_v6bgfwzdyb","59ff81fd5d06850001afeeab","freq","","","img/blue_2bandit_b2.png","70","","70","test","1","","72","","","","circle","square","69","4","4","0.9565217391304348","","","","","","","",""
"null","1137242","SARL_v6","SARL_v6bgfwzdyb","59ff81fd5d06850001afeeab","freq_resp","","","img/blue_2bandit_b.png","70","img/blue_2bandit_b.png","70","test","","","","","","","","","","","4","","","","","","","","",""
"null","1137395","SARL_v6","SARL_v6bgfwzdyb","59ff81fd5d06850001afeeab","fixation","","","img/fixation.png","null","","","test","","","","","","","","","","","","","","","","","","","",""
"231","1137627","SARL_v6","SARL_v6bgfwzdyb","59ff81fd5d06850001afeeab","freq","","","img/blue_2bandit_b2.png","70","","70","test","1","","73","","","","circle","square","70","5","4","0.9571428571428572","","","","","","","",""
"null","1138199","SARL_v6","SARL_v6bgfwzdyb","59ff81fd5d06850001afeeab","freq_resp","","","img/blue_2bandit_b.png","70","img/blue_2bandit_b.png","70","test","","","","","","","","","","","4","","","","","","","","",""
"null","1138352","SARL_v6","SARL_v6bgfwzdyb","59ff81fd5d06850001afeeab","fixation","","","img/fixation.png","null","","","test","","","","","","","","","","","","","","","","","","","",""
"201.5","1138555","SARL_v6","SARL_v6bgfwzdyb","59ff81fd5d06850001afeeab","freq","","","img/blue_2bandit_b2.png","70","","70","test","1","","74","","","","circle","square","71","6","4","0.9577464788732394","","","","","","","",""
"null","1139156","SARL_v6","SARL_v6bgfwzdyb","59ff81fd5d06850001afeeab","freq_resp","","","img/blue_2bandit_b.png","70","img/blue_2bandit_b.png","70","test","","","","","","","","","","","4","","","","","","","","",""
"null","1139309","SARL_v6","SARL_v6bgfwzdyb","59ff81fd5d06850001afeeab","fixation","","","img/fixation.png","null","","","test","","","","","","","","","","","","","","","","","","","",""
"195.79999995231628","1139507","SARL_v6","SARL_v6bgfwzdyb","59ff81fd5d06850001afeeab","freq","","","img/blue_2bandit_b2.png","70","","70","test","1","","75","","","","circle","square","72","7","4","0.9583333333333334","","","","","","","",""
"null","1140114","SARL_v6","SARL_v6bgfwzdyb","59ff81fd5d06850001afeeab","freq_resp","","","img/blue_2bandit_b.png","70","img/blue_2bandit_b.png","70","test","","","","","","","","","","","4","","","","","","","","",""
"null","1140266","SARL_v6","SARL_v6bgfwzdyb","59ff81fd5d06850001afeeab","fixation","","","img/fixation.png","null","","","test","","","","","","","","","","","","","","","","","","","",""
"208.59999990463257","1140477","SARL_v6","SARL_v6bgfwzdyb","59ff81fd5d06850001afeeab","freq","","","img/blue_2bandit_b2.png","70","","70","test","1","","76","","","","circle","square","73","8","4","0.958904109589041","","","","","","","",""
"null","1141070","SARL_v6","SARL_v6bgfwzdyb","59ff81fd5d06850001afeeab","freq_resp","","","img/blue_2bandit_b.png","70","img/blue_2bandit_b.png","70","test","","","","","","","","","","","4","","","","","","","","",""
"null","1141223","SARL_v6","SARL_v6bgfwzdyb","59ff81fd5d06850001afeeab","fixation","","","img/fixation.png","null","","","test","","","","","","","","","","","","","","","","","","","",""
"237.70000004768372","1141462","SARL_v6","SARL_v6bgfwzdyb","59ff81fd5d06850001afeeab","freq","","","img/blue_2bandit_b2.png","70","","70","test","1","","77","","","","circle","square","74","9","4","0.9594594594594594","","","","","","","",""
"null","1142027","SARL_v6","SARL_v6bgfwzdyb","59ff81fd5d06850001afeeab","freq_resp","","","img/blue_2bandit_b.png","70","img/blue_2bandit_b.png","70","test","","","","","","","","","","","4","","","","","","","","",""
"null","1142179","SARL_v6","SARL_v6bgfwzdyb","59ff81fd5d06850001afeeab","fixation","","","img/fixation.png","null","","","test","","","","","","","","","","","","","","","","","","","",""
"227.29999995231628","1142408","SARL_v6","SARL_v6bgfwzdyb","59ff81fd5d06850001afeeab","freq","","","img/blue_2bandit_b2.png","70","","70","test","1","","78","","","","circle","square","75","10","4","0.96","","","","","","","",""
"null","1142982","SARL_v6","SARL_v6bgfwzdyb","59ff81fd5d06850001afeeab","freq_resp","","","img/blue_2bandit_b.png","70","img/blue_2bandit_b.png","70","test","","","","","","","","","","","4","","","","","","","","",""
"null","1143134","SARL_v6","SARL_v6bgfwzdyb","59ff81fd5d06850001afeeab","fixation","","","img/fixation.png","null","","","test","","","","","","","","","","","","","","","","","","","",""
"215.90000009536743","1143351","SARL_v6","SARL_v6bgfwzdyb","59ff81fd5d06850001afeeab","freq","","","img/blue_2bandit_b2.png","70","","70","test","1","","79","","","","circle","square","76","11","4","0.9605263157894737","","","","","","","",""
"null","1143939","SARL_v6","SARL_v6bgfwzdyb","59ff81fd5d06850001afeeab","freq_resp","","","img/blue_2bandit_b.png","70","img/blue_2bandit_b.png","70","test","","","","","","","","","","","4","","","","","","","","",""
"null","1144092","SARL_v6","SARL_v6bgfwzdyb","59ff81fd5d06850001afeeab","fixation","","","img/fixation.png","null","","","test","","","","","","","","","","","","","","","","","","","",""
"213.79999995231628","1144308","SARL_v6","SARL_v6bgfwzdyb","59ff81fd5d06850001afeeab","freq","","","img/blue_2bandit_b2.png","70","","70","test","1","","80","","","","circle","square","77","12","4","0.961038961038961","","","","","","","",""
"null","1144897","SARL_v6","SARL_v6bgfwzdyb","59ff81fd5d06850001afeeab","freq_resp","","","img/blue_2bandit_b.png","70","img/blue_2bandit_b.png","70","test","","","","","","","","","","","4","","","","","","","","",""
"null","1145050","SARL_v6","SARL_v6bgfwzdyb","59ff81fd5d06850001afeeab","fixation","","","img/fixation.png","null","","","test","","","","","","","","","","","","","","","","","","","",""
"205","1145256","SARL_v6","SARL_v6bgfwzdyb","59ff81fd5d06850001afeeab","freq","","","img/blue_2bandit_b2.png","70","","70","test","1","","81","","","","circle","square","78","13","4","0.9615384615384616","","","","","","","",""
"null","1145855","SARL_v6","SARL_v6bgfwzdyb","59ff81fd5d06850001afeeab","freq_resp","","","img/blue_2bandit_b.png","70","img/blue_2bandit_b.png","70","test","","","","","","","","","","","4","","","","","","","","",""
"null","1146008","SARL_v6","SARL_v6bgfwzdyb","59ff81fd5d06850001afeeab","fixation","","","img/fixation.png","null","","","test","","","","","","","","","","","","","","","","","","","",""
"207.5","1146217","SARL_v6","SARL_v6bgfwzdyb","59ff81fd5d06850001afeeab","freq","","","img/blue_2bandit_b2.png","70","","70","test","1","","82","","","","circle","square","79","14","4","0.9620253164556962","","","","","","","",""
"null","1146812","SARL_v6","SARL_v6bgfwzdyb","59ff81fd5d06850001afeeab","freq_resp","","","img/blue_2bandit_b.png","70","img/blue_2bandit_b.png","70","test","","","","","","","","","","","4","","","","","","","","",""
"null","1146965","SARL_v6","SARL_v6bgfwzdyb","59ff81fd5d06850001afeeab","fixation","","","img/fixation.png","null","","","test","","","","","","","","","","","","","","","","","","","",""
"236.40000009536743","1147203","SARL_v6","SARL_v6bgfwzdyb","59ff81fd5d06850001afeeab","freq","","","img/blue_2bandit_b2.png","70","","70","test","1","","83","","","","circle","square","80","15","4","0.9625","","","","","","","",""
"null","1147769","SARL_v6","SARL_v6bgfwzdyb","59ff81fd5d06850001afeeab","freq_resp","","","img/blue_2bandit_b.png","70","img/blue_2bandit_b.png","70","test","","","","","","","","","","","4","","","","","","","","",""
"null","1147921","SARL_v6","SARL_v6bgfwzdyb","59ff81fd5d06850001afeeab","fixation","","","img/fixation.png","null","","","test","","","","","","","","","","","","","","","","","","","",""
"238","1148161","SARL_v6","SARL_v6bgfwzdyb","59ff81fd5d06850001afeeab","freq","","","img/blue_2bandit_b2.png","70","","70","test","1","","84","","","","circle","square","81","16","4","0.9629629629629629","","","","","","","",""
"null","1148725","SARL_v6","SARL_v6bgfwzdyb","59ff81fd5d06850001afeeab","freq_resp","","","img/blue_2bandit_b.png","70","img/blue_2bandit_b.png","70","test","","","","","","","","","","","4","","","","","","","","",""
"null","1148877","SARL_v6","SARL_v6bgfwzdyb","59ff81fd5d06850001afeeab","fixation","","","img/fixation.png","null","","","test","","","","","","","","","","","","","","","","","","","",""
"256.2000000476837","1149135","SARL_v6","SARL_v6bgfwzdyb","59ff81fd5d06850001afeeab","freq","","","img/blue_2bandit_b2.png","70","","70","test","1","","85","","","","circle","square","82","17","4","0.9634146341463414","","","","","","","",""
"null","1149680","SARL_v6","SARL_v6bgfwzdyb","59ff81fd5d06850001afeeab","freq_resp","","","img/blue_2bandit_b.png","70","img/blue_2bandit_b.png","70","test","","","","","","","","","","","4","","","","","","","","",""
"null","1149833","SARL_v6","SARL_v6bgfwzdyb","59ff81fd5d06850001afeeab","fixation","","","img/fixation.png","null","","","test","","","","","","","","","","","","","","","","","","","",""
"235","1150070","SARL_v6","SARL_v6bgfwzdyb","59ff81fd5d06850001afeeab","freq","","","img/blue_2bandit_b2.png","70","","70","test","1","","86","","","","circle","square","83","18","4","0.963855421686747","","","","","","","",""
"null","1150637","SARL_v6","SARL_v6bgfwzdyb","59ff81fd5d06850001afeeab","freq_resp","","","img/blue_2bandit_b.png","70","img/blue_2bandit_b.png","70","test","","","","","","","","","","","4","","","","","","","","",""
"null","1150790","SARL_v6","SARL_v6bgfwzdyb","59ff81fd5d06850001afeeab","fixation","","","img/fixation.png","null","","","test","","","","","","","","","","","","","","","","","","","",""
"261.89999985694885","1151053","SARL_v6","SARL_v6bgfwzdyb","59ff81fd5d06850001afeeab","freq","","","img/blue_2bandit_b2.png","70","","70","test","1","","87","","","","circle","square","84","19","4","0.9642857142857143","","","","","","","",""
"null","1151594","SARL_v6","SARL_v6bgfwzdyb","59ff81fd5d06850001afeeab","freq_resp","","","img/blue_2bandit_b.png","70","img/blue_2bandit_b.png","70","test","","","","","","","","","","","4","","","","","","","","",""
"null","1151747","SARL_v6","SARL_v6bgfwzdyb","59ff81fd5d06850001afeeab","fixation","","","img/fixation.png","null","","","test","","","","","","","","","","","","","","","","","","","",""
"251.90000009536743","1152000","SARL_v6","SARL_v6bgfwzdyb","59ff81fd5d06850001afeeab","freq","","","img/blue_2bandit_b2.png","70","","70","test","1","","88","","","","circle","square","85","20","4","0.9647058823529412","","","","","","","",""
"null","1152550","SARL_v6","SARL_v6bgfwzdyb","59ff81fd5d06850001afeeab","freq_resp","","","img/blue_2bandit_b.png","70","img/blue_2bandit_b.png","70","test","","","","","","","","","","","4","","","","","","","","",""
"null","1152702","SARL_v6","SARL_v6bgfwzdyb","59ff81fd5d06850001afeeab","fixation","","","img/fixation.png","null","","","test","","","","","","","","","","","","","","","","","","","",""
"523.0999999046326","1153227","SARL_v6","SARL_v6bgfwzdyb","59ff81fd5d06850001afeeab","infreq","","","img/orange_2bandit_b2.png","68","","68","test","1","","89","","","","circle","square","86","21","4","0.9651162790697675","","","","","","","",""
"null","1153505","SARL_v6","SARL_v6bgfwzdyb","59ff81fd5d06850001afeeab","infreq_resp","","","img/orange_2bandit_b.png","68","img/orange_2bandit_b.png","68","test","","","","","","","","","","","4","","","","","","","","",""
"null","1153658","SARL_v6","SARL_v6bgfwzdyb","59ff81fd5d06850001afeeab","fixation","","","img/fixation.png","null","","","test","","","","","","","","","","","","","","","","","","","",""
"539.3999998569489","1154199","SARL_v6","SARL_v6bgfwzdyb","59ff81fd5d06850001afeeab","freq","","","img/blue_2bandit_b2.png","70","","70","test","1","","90","","","","circle","square","87","22","4","0.9655172413793104","","","","","","","",""
"null","1154461","SARL_v6","SARL_v6bgfwzdyb","59ff81fd5d06850001afeeab","freq_resp","","","img/blue_2bandit_b.png","70","img/blue_2bandit_b.png","70","test","","","","","","","","","","","4","","","","","","","","",""
"null","1154614","SARL_v6","SARL_v6bgfwzdyb","59ff81fd5d06850001afeeab","fixation","","","img/fixation.png","null","","","test","","","","","","","","","","","","","","","","","","","",""
"419","1155035","SARL_v6","SARL_v6bgfwzdyb","59ff81fd5d06850001afeeab","infreq","","","img/orange_2bandit_b2.png","68","","68","test","1","","91","","","","circle","square","88","23","4","0.9659090909090909","","","","","","","",""
"null","1155418","SARL_v6","SARL_v6bgfwzdyb","59ff81fd5d06850001afeeab","infreq_resp","","","img/orange_2bandit_b.png","68","img/orange_2bandit_b.png","68","test","","","","","","","","","","","4","","","","","","","","",""
"null","1155570","SARL_v6","SARL_v6bgfwzdyb","59ff81fd5d06850001afeeab","fixation","","","img/fixation.png","null","","","test","","","","","","","","","","","","","","","","","","","",""
"274.2000000476837","1155846","SARL_v6","SARL_v6bgfwzdyb","59ff81fd5d06850001afeeab","freq","","","img/blue_2bandit_b2.png","70","","70","test","1","","92","","","","circle","square","89","24","4","0.9662921348314607","","","","","","","",""
"null","1156375","SARL_v6","SARL_v6bgfwzdyb","59ff81fd5d06850001afeeab","freq_resp","","","img/blue_2bandit_b.png","70","img/blue_2bandit_b.png","70","test","","","","","","","","","","","4","","","","","","","","",""
"null","1156528","SARL_v6","SARL_v6bgfwzdyb","59ff81fd5d06850001afeeab","fixation","","","img/fixation.png","null","","","test","","","","","","","","","","","","","","","","","","","",""
"320.60000014305115","1156850","SARL_v6","SARL_v6bgfwzdyb","59ff81fd5d06850001afeeab","freq","","","img/blue_2bandit_b2.png","70","","70","test","1","","93","","","","circle","square","90","25","4","0.9666666666666667","","","","","","","",""
"null","1157332","SARL_v6","SARL_v6bgfwzdyb","59ff81fd5d06850001afeeab","freq_resp","","","img/blue_2bandit_b.png","70","img/blue_2bandit_b.png","70","test","","","","","","","","","","","4","","","","","","","","",""
"null","1157485","SARL_v6","SARL_v6bgfwzdyb","59ff81fd5d06850001afeeab","fixation","","","img/fixation.png","null","","","test","","","","","","","","","","","","","","","","","","","",""
"475.7999999523163","1157963","SARL_v6","SARL_v6bgfwzdyb","59ff81fd5d06850001afeeab","rl","","","img/black_2bandit_b2.png","74","","0","test","","","94","","","0","circle","square","","0","4","","74","0","-12","0","-12","circle","4","0"
"null","1158717","SARL_v6","SARL_v6bgfwzdyb","59ff81fd5d06850001afeeab","feedback","","","<div class=""verylowPoints""> 0 </div>","null","","na","test","","","NaN","","","","","","","","4","","74","","","","","","4",""
"216","1158935","SARL_v6","SARL_v6bgfwzdyb","59ff81fd5d06850001afeeab","freq","","","img/blue_2bandit_b2.png","70","","70","test","1","","95","","","","circle","square","91","1","5","0.967032967032967","","","","","","","",""
"null","1159522","SARL_v6","SARL_v6bgfwzdyb","59ff81fd5d06850001afeeab","freq_resp","","","img/blue_2bandit_b.png","70","img/blue_2bandit_b.png","70","test","","","","","","","","","","","5","","","","","","","","",""
"null","1159675","SARL_v6","SARL_v6bgfwzdyb","59ff81fd5d06850001afeeab","fixation","","","img/fixation.png","null","","","test","","","","","","","","","","","","","","","","","","","",""
"220.09999990463257","1159896","SARL_v6","SARL_v6bgfwzdyb","59ff81fd5d06850001afeeab","freq","","","img/blue_2bandit_b2.png","70","","70","test","1","","96","","","","circle","square","92","2","5","0.967391304347826","","","","","","","",""
"null","1160478","SARL_v6","SARL_v6bgfwzdyb","59ff81fd5d06850001afeeab","freq_resp","","","img/blue_2bandit_b.png","70","img/blue_2bandit_b.png","70","test","","","","","","","","","","","5","","","","","","","","",""
"null","1160631","SARL_v6","SARL_v6bgfwzdyb","59ff81fd5d06850001afeeab","fixation","","","img/fixation.png","null","","","test","","","","","","","","","","","","","","","","","","","",""
"219.10000014305115","1160852","SARL_v6","SARL_v6bgfwzdyb","59ff81fd5d06850001afeeab","freq","","","img/blue_2bandit_b2.png","70","","70","test","1","","97","","","","circle","square","93","3","5","0.967741935483871","","","","","","","",""
"null","1161435","SARL_v6","SARL_v6bgfwzdyb","59ff81fd5d06850001afeeab","freq_resp","","","img/blue_2bandit_b.png","70","img/blue_2bandit_b.png","70","test","","","","","","","","","","","5","","","","","","","","",""
"null","1161588","SARL_v6","SARL_v6bgfwzdyb","59ff81fd5d06850001afeeab","fixation","","","img/fixation.png","null","","","test","","","","","","","","","","","","","","","","","","","",""
"267.19999980926514","1161857","SARL_v6","SARL_v6bgfwzdyb","59ff81fd5d06850001afeeab","freq","","","img/blue_2bandit_b2.png","70","","70","test","1","","98","","","","circle","square","94","4","5","0.9680851063829787","","","","","","","",""
"null","1162391","SARL_v6","SARL_v6bgfwzdyb","59ff81fd5d06850001afeeab","freq_resp","","","img/blue_2bandit_b.png","70","img/blue_2bandit_b.png","70","test","","","","","","","","","","","5","","","","","","","","",""
"null","1162543","SARL_v6","SARL_v6bgfwzdyb","59ff81fd5d06850001afeeab","fixation","","","img/fixation.png","null","","","test","","","","","","","","","","","","","","","","","","","",""
"541.4000000953674","1163086","SARL_v6","SARL_v6bgfwzdyb","59ff81fd5d06850001afeeab","freq","","","img/blue_2bandit_b2.png","68","","70","test","0","","99","","","","circle","square","95","5","5","0.9578947368421052","","","","","","","",""
"null","1163347","SARL_v6","SARL_v6bgfwzdyb","59ff81fd5d06850001afeeab","freq_resp","","","img/blue_2bandit_b.png","68","img/blue_2bandit_b.png","70","test","","","","","","","","","","","5","","","","","","","","",""
"null","1163500","SARL_v6","SARL_v6bgfwzdyb","59ff81fd5d06850001afeeab","fixation","","","img/fixation.png","null","","","test","","","","","","","","","","","","","","","","","","","",""
"582.2000000476837","1164084","SARL_v6","SARL_v6bgfwzdyb","59ff81fd5d06850001afeeab","freq","","","img/blue_2bandit_b2.png","70","","70","test","1","","100","","","","circle","square","96","6","5","0.9583333333333334","","","","","","","",""
"null","1164303","SARL_v6","SARL_v6bgfwzdyb","59ff81fd5d06850001afeeab","freq_resp","","","img/blue_2bandit_b.png","70","img/blue_2bandit_b.png","70","test","","","","","","","","","","","5","","","","","","","","",""
"null","1164456","SARL_v6","SARL_v6bgfwzdyb","59ff81fd5d06850001afeeab","fixation","","","img/fixation.png","null","","","test","","","","","","","","","","","","","","","","","","","",""
"627","1165085","SARL_v6","SARL_v6bgfwzdyb","59ff81fd5d06850001afeeab","freq","","","img/blue_2bandit_b2.png","70","","70","test","1","","101","","","","circle","square","97","7","5","0.9587628865979382","","","","","","","",""
"null","1165260","SARL_v6","SARL_v6bgfwzdyb","59ff81fd5d06850001afeeab","freq_resp","","","img/blue_2bandit_b.png","70","img/blue_2bandit_b.png","70","test","","","","","","","","","","","5","","","","","","","","",""
"null","1165413","SARL_v6","SARL_v6bgfwzdyb","59ff81fd5d06850001afeeab","fixation","","","img/fixation.png","null","","","test","","","","","","","","","","","","","","","","","","","",""
"631.0999999046326","1166046","SARL_v6","SARL_v6bgfwzdyb","59ff81fd5d06850001afeeab","freq","","","img/blue_2bandit_b2.png","70","","70","test","1","","102","","","","circle","square","98","8","5","0.9591836734693877","","","","","","","",""
"null","1166217","SARL_v6","SARL_v6bgfwzdyb","59ff81fd5d06850001afeeab","freq_resp","","","img/blue_2bandit_b.png","70","img/blue_2bandit_b.png","70","test","","","","","","","","","","","5","","","","","","","","",""
"null","1166370","SARL_v6","SARL_v6bgfwzdyb","59ff81fd5d06850001afeeab","fixation","","","img/fixation.png","null","","","test","","","","","","","","","","","","","","","","","","","",""
"624.5999999046326","1166995","SARL_v6","SARL_v6bgfwzdyb","59ff81fd5d06850001afeeab","freq","","","img/blue_2bandit_b2.png","70","","70","test","1","","103","","","","circle","square","99","9","5","0.9595959595959596","","","","","","","",""
"null","1167173","SARL_v6","SARL_v6bgfwzdyb","59ff81fd5d06850001afeeab","freq_resp","","","img/blue_2bandit_b.png","70","img/blue_2bandit_b.png","70","test","","","","","","","","","","","5","","","","","","","","",""
"null","1167325","SARL_v6","SARL_v6bgfwzdyb","59ff81fd5d06850001afeeab","fixation","","","img/fixation.png","null","","","test","","","","","","","","","","","","","","","","","","","",""
"672.2000000476837","1167999","SARL_v6","SARL_v6bgfwzdyb","59ff81fd5d06850001afeeab","freq","","","img/blue_2bandit_b2.png","70","","70","test","1","","104","","","","circle","square","100","10","5","0.96","","","","","","","",""
"null","1168129","SARL_v6","SARL_v6bgfwzdyb","59ff81fd5d06850001afeeab","freq_resp","","","img/blue_2bandit_b.png","70","img/blue_2bandit_b.png","70","test","","","","","","","","","","","5","","","","","","","","",""
"null","1168282","SARL_v6","SARL_v6bgfwzdyb","59ff81fd5d06850001afeeab","fixation","","","img/fixation.png","null","","","test","","","","","","","","","","","","","","","","","","","",""
"709.5","1168994","SARL_v6","SARL_v6bgfwzdyb","59ff81fd5d06850001afeeab","freq","","","img/blue_2bandit_b2.png","70","","70","test","1","","105","","","","circle","square","101","11","5","0.9603960396039604","","","","","","","",""
"null","1169085","SARL_v6","SARL_v6bgfwzdyb","59ff81fd5d06850001afeeab","freq_resp","","","img/blue_2bandit_b.png","70","img/blue_2bandit_b.png","70","test","","","","","","","","","","","5","","","","","","","","",""
"null","1169238","SARL_v6","SARL_v6bgfwzdyb","59ff81fd5d06850001afeeab","fixation","","","img/fixation.png","null","","","test","","","","","","","","","","","","","","","","","","","",""
"716.4000000953674","1169956","SARL_v6","SARL_v6bgfwzdyb","59ff81fd5d06850001afeeab","freq","","","img/blue_2bandit_b2.png","70","","70","test","1","","106","","","","circle","square","102","12","5","0.9607843137254902","","","","","","","",""
"null","1170042","SARL_v6","SARL_v6bgfwzdyb","59ff81fd5d06850001afeeab","freq_resp","","","img/blue_2bandit_b.png","70","img/blue_2bandit_b.png","70","test","","","","","","","","","","","5","","","","","","","","",""
"null","1170195","SARL_v6","SARL_v6bgfwzdyb","59ff81fd5d06850001afeeab","fixation","","","img/fixation.png","null","","","test","","","","","","","","","","","","","","","","","","","",""
"748.2999999523163","1170945","SARL_v6","SARL_v6bgfwzdyb","59ff81fd5d06850001afeeab","freq","","","img/blue_2bandit_b2.png","70","","70","test","1","","107","","","","circle","square","103","13","5","0.9611650485436893","","","","","","","",""
"null","1171000","SARL_v6","SARL_v6bgfwzdyb","59ff81fd5d06850001afeeab","freq_resp","","","img/blue_2bandit_b.png","70","img/blue_2bandit_b.png","70","test","","","","","","","","","","","5","","","","","","","","",""
"null","1171153","SARL_v6","SARL_v6bgfwzdyb","59ff81fd5d06850001afeeab","fixation","","","img/fixation.png","null","","","test","","","","","","","","","","","","","","","","","","","",""
"608.5","1171763","SARL_v6","SARL_v6bgfwzdyb","59ff81fd5d06850001afeeab","freq","","","img/blue_2bandit_b2.png","70","","70","test","1","","108","","","","circle","square","104","14","5","0.9615384615384616","","","","","","","",""
"null","1171957","SARL_v6","SARL_v6bgfwzdyb","59ff81fd5d06850001afeeab","freq_resp","","","img/blue_2bandit_b.png","70","img/blue_2bandit_b.png","70","test","","","","","","","","","","","5","","","","","","","","",""
"null","1172109","SARL_v6","SARL_v6bgfwzdyb","59ff81fd5d06850001afeeab","fixation","","","img/fixation.png","null","","","test","","","","","","","","","","","","","","","","","","","",""
"485.40000009536743","1172596","SARL_v6","SARL_v6bgfwzdyb","59ff81fd5d06850001afeeab","freq","","","img/blue_2bandit_b2.png","70","","70","test","1","","109","","","","circle","square","105","15","5","0.9619047619047619","","","","","","","",""
"null","1172912","SARL_v6","SARL_v6bgfwzdyb","59ff81fd5d06850001afeeab","freq_resp","","","img/blue_2bandit_b.png","70","img/blue_2bandit_b.png","70","test","","","","","","","","","","","5","","","","","","","","",""
"null","1173065","SARL_v6","SARL_v6bgfwzdyb","59ff81fd5d06850001afeeab","fixation","","","img/fixation.png","null","","","test","","","","","","","","","","","","","","","","","","","",""
"277.5","1173344","SARL_v6","SARL_v6bgfwzdyb","59ff81fd5d06850001afeeab","freq","","","img/blue_2bandit_b2.png","70","","70","test","1","","110","","","","circle","square","106","16","5","0.9622641509433962","","","","","","","",""
"null","1173869","SARL_v6","SARL_v6bgfwzdyb","59ff81fd5d06850001afeeab","freq_resp","","","img/blue_2bandit_b.png","70","img/blue_2bandit_b.png","70","test","","","","","","","","","","","5","","","","","","","","",""
"null","1174022","SARL_v6","SARL_v6bgfwzdyb","59ff81fd5d06850001afeeab","fixation","","","img/fixation.png","null","","","test","","","","","","","","","","","","","","","","","","","",""
"265.10000014305115","1174288","SARL_v6","SARL_v6bgfwzdyb","59ff81fd5d06850001afeeab","freq","","","img/blue_2bandit_b2.png","70","","70","test","1","","111","","","","circle","square","107","17","5","0.9626168224299065","","","","","","","",""
"null","1174825","SARL_v6","SARL_v6bgfwzdyb","59ff81fd5d06850001afeeab","freq_resp","","","img/blue_2bandit_b.png","70","img/blue_2bandit_b.png","70","test","","","","","","","","","","","5","","","","","","","","",""
"null","1174977","SARL_v6","SARL_v6bgfwzdyb","59ff81fd5d06850001afeeab","fixation","","","img/fixation.png","null","","","test","","","","","","","","","","","","","","","","","","","",""
"243","1175222","SARL_v6","SARL_v6bgfwzdyb","59ff81fd5d06850001afeeab","freq","","","img/blue_2bandit_b2.png","70","","70","test","1","","112","","","","circle","square","108","18","5","0.9629629629629629","","","","","","","",""
"null","1175782","SARL_v6","SARL_v6bgfwzdyb","59ff81fd5d06850001afeeab","freq_resp","","","img/blue_2bandit_b.png","70","img/blue_2bandit_b.png","70","test","","","","","","","","","","","5","","","","","","","","",""
"null","1175934","SARL_v6","SARL_v6bgfwzdyb","59ff81fd5d06850001afeeab","fixation","","","img/fixation.png","null","","","test","","","","","","","","","","","","","","","","","","","",""
"233.39999985694885","1176169","SARL_v6","SARL_v6bgfwzdyb","59ff81fd5d06850001afeeab","freq","","","img/blue_2bandit_b2.png","70","","70","test","1","","113","","","","circle","square","109","19","5","0.963302752293578","","","","","","","",""
"null","1176738","SARL_v6","SARL_v6bgfwzdyb","59ff81fd5d06850001afeeab","freq_resp","","","img/blue_2bandit_b.png","70","img/blue_2bandit_b.png","70","test","","","","","","","","","","","5","","","","","","","","",""
"null","1176891","SARL_v6","SARL_v6bgfwzdyb","59ff81fd5d06850001afeeab","fixation","","","img/fixation.png","null","","","test","","","","","","","","","","","","","","","","","","","",""
"208.59999990463257","1177101","SARL_v6","SARL_v6bgfwzdyb","59ff81fd5d06850001afeeab","freq","","","img/blue_2bandit_b2.png","70","","70","test","1","","114","","","","circle","square","110","20","5","0.9636363636363636","","","","","","","",""
"null","1177695","SARL_v6","SARL_v6bgfwzdyb","59ff81fd5d06850001afeeab","freq_resp","","","img/blue_2bandit_b.png","70","img/blue_2bandit_b.png","70","test","","","","","","","","","","","5","","","","","","","","",""
"null","1177848","SARL_v6","SARL_v6bgfwzdyb","59ff81fd5d06850001afeeab","fixation","","","img/fixation.png","null","","","test","","","","","","","","","","","","","","","","","","","",""
"327.2000000476837","1178176","SARL_v6","SARL_v6bgfwzdyb","59ff81fd5d06850001afeeab","infreq","","","img/orange_2bandit_b2.png","68","","68","test","1","","115","","","","circle","square","111","21","5","0.963963963963964","","","","","","","",""
"null","1178651","SARL_v6","SARL_v6bgfwzdyb","59ff81fd5d06850001afeeab","infreq_resp","","","img/orange_2bandit_b.png","68","img/orange_2bandit_b.png","68","test","","","","","","","","","","","5","","","","","","","","",""
"null","1178804","SARL_v6","SARL_v6bgfwzdyb","59ff81fd5d06850001afeeab","fixation","","","img/fixation.png","null","","","test","","","","","","","","","","","","","","","","","","","",""
"440.5","1179247","SARL_v6","SARL_v6bgfwzdyb","59ff81fd5d06850001afeeab","infreq","","","img/orange_2bandit_b2.png","68","","68","test","1","","116","","","","circle","square","112","22","5","0.9642857142857143","","","","","","","",""
"null","1179610","SARL_v6","SARL_v6bgfwzdyb","59ff81fd5d06850001afeeab","infreq_resp","","","img/orange_2bandit_b.png","68","img/orange_2bandit_b.png","68","test","","","","","","","","","","","5","","","","","","","","",""
"null","1179762","SARL_v6","SARL_v6bgfwzdyb","59ff81fd5d06850001afeeab","fixation","","","img/fixation.png","null","","","test","","","","","","","","","","","","","","","","","","","",""
"470.7000000476837","1180235","SARL_v6","SARL_v6bgfwzdyb","59ff81fd5d06850001afeeab","freq","","","img/blue_2bandit_b2.png","70","","70","test","1","","117","","","","circle","square","113","23","5","0.9646017699115044","","","","","","","",""
"null","1180567","SARL_v6","SARL_v6bgfwzdyb","59ff81fd5d06850001afeeab","freq_resp","","","img/blue_2bandit_b.png","70","img/blue_2bandit_b.png","70","test","","","","","","","","","","","5","","","","","","","","",""
"null","1180720","SARL_v6","SARL_v6bgfwzdyb","59ff81fd5d06850001afeeab","fixation","","","img/fixation.png","null","","","test","","","","","","","","","","","","","","","","","","","",""
"385.09999990463257","1181106","SARL_v6","SARL_v6bgfwzdyb","59ff81fd5d06850001afeeab","freq","","","img/blue_2bandit_b2.png","70","","70","test","1","","118","","","","circle","square","114","24","5","0.9649122807017544","","","","","","","",""
"null","1181523","SARL_v6","SARL_v6bgfwzdyb","59ff81fd5d06850001afeeab","freq_resp","","","img/blue_2bandit_b.png","70","img/blue_2bandit_b.png","70","test","","","","","","","","","","","5","","","","","","","","",""
"null","1181676","SARL_v6","SARL_v6bgfwzdyb","59ff81fd5d06850001afeeab","fixation","","","img/fixation.png","null","","","test","","","","","","","","","","","","","","","","","","","",""
"610.0999999046326","1182288","SARL_v6","SARL_v6bgfwzdyb","59ff81fd5d06850001afeeab","rl","","","img/black_2bandit_b2.png","75","","0","test","","","119","","","-7","circle","square","","0","5","","75","4","-7","4","-7","square","5","0"
"null","1183040","SARL_v6","SARL_v6bgfwzdyb","59ff81fd5d06850001afeeab","feedback","","","<div class=""verylowPoints_sq""> -7 </div>","null","","na","test","","","NaN","","","","","","","","5","","75","","","","","","5",""
"379.5","1183421","SARL_v6","SARL_v6bgfwzdyb","59ff81fd5d06850001afeeab","freq","","","img/blue_2bandit_b2.png","70","","70","test","1","","120","","","","circle","square","115","1","6","0.9652173913043478","","","","","","","",""
"null","1183844","SARL_v6","SARL_v6bgfwzdyb","59ff81fd5d06850001afeeab","freq_resp","","","img/blue_2bandit_b.png","70","img/blue_2bandit_b.png","70","test","","","","","","","","","","","6","","","","","","","","",""
"null","1183997","SARL_v6","SARL_v6bgfwzdyb","59ff81fd5d06850001afeeab","fixation","","","img/fixation.png","null","","","test","","","","","","","","","","","","","","","","","","","",""
"519.7999999523163","1184518","SARL_v6","SARL_v6bgfwzdyb","59ff81fd5d06850001afeeab","freq","","","img/blue_2bandit_b2.png","70","","70","test","1","","121","","","","circle","square","116","2","6","0.9655172413793104","","","","","","","",""
"null","1184801","SARL_v6","SARL_v6bgfwzdyb","59ff81fd5d06850001afeeab","freq_resp","","","img/blue_2bandit_b.png","70","img/blue_2bandit_b.png","70","test","","","","","","","","","","","6","","","","","","","","",""
"null","1184953","SARL_v6","SARL_v6bgfwzdyb","59ff81fd5d06850001afeeab","fixation","","","img/fixation.png","null","","","test","","","","","","","","","","","","","","","","","","","",""
"559.2000000476837","1185514","SARL_v6","SARL_v6bgfwzdyb","59ff81fd5d06850001afeeab","freq","","","img/blue_2bandit_b2.png","70","","70","test","1","","122","","","","circle","square","117","3","6","0.9658119658119658","","","","","","","",""
"null","1185757","SARL_v6","SARL_v6bgfwzdyb","59ff81fd5d06850001afeeab","freq_resp","","","img/blue_2bandit_b.png","70","img/blue_2bandit_b.png","70","test","","","","","","","","","","","6","","","","","","","","",""
"null","1185909","SARL_v6","SARL_v6bgfwzdyb","59ff81fd5d06850001afeeab","fixation","","","img/fixation.png","null","","","test","","","","","","","","","","","","","","","","","","","",""
"null","1186711","SARL_v6","SARL_v6bgfwzdyb","59ff81fd5d06850001afeeab","infreq","","","img/orange_2bandit_b2.png","null","","68","test","0","","123","","","","circle","square","118","4","6","0.9576271186440678","","","","","","","",""
"null","1186864","SARL_v6","SARL_v6bgfwzdyb","59ff81fd5d06850001afeeab","fixation","","","img/fixation.png","null","","","test","","","","","","","","","","","","","","","","","","","",""
"522.9000000953674","1187389","SARL_v6","SARL_v6bgfwzdyb","59ff81fd5d06850001afeeab","freq","","","img/blue_2bandit_b2.png","70","","70","test","1","","124","","","","circle","square","119","5","6","0.957983193277311","","","","","","","",""
"null","1187669","SARL_v6","SARL_v6bgfwzdyb","59ff81fd5d06850001afeeab","freq_resp","","","img/blue_2bandit_b.png","70","img/blue_2bandit_b.png","70","test","","","","","","","","","","","6","","","","","","","","",""
"null","1187821","SARL_v6","SARL_v6bgfwzdyb","59ff81fd5d06850001afeeab","fixation","","","img/fixation.png","null","","","test","","","","","","","","","","","","","","","","","","","",""
"586.5","1188410","SARL_v6","SARL_v6bgfwzdyb","59ff81fd5d06850001afeeab","freq","","","img/blue_2bandit_b2.png","70","","70","test","1","","125","","","","circle","square","120","6","6","0.9583333333333334","","","","","","","",""
"null","1188625","SARL_v6","SARL_v6bgfwzdyb","59ff81fd5d06850001afeeab","freq_resp","","","img/blue_2bandit_b.png","70","img/blue_2bandit_b.png","70","test","","","","","","","","","","","6","","","","","","","","",""
"null","1188778","SARL_v6","SARL_v6bgfwzdyb","59ff81fd5d06850001afeeab","fixation","","","img/fixation.png","null","","","test","","","","","","","","","","","","","","","","","","","",""
"447.39999985694885","1189227","SARL_v6","SARL_v6bgfwzdyb","59ff81fd5d06850001afeeab","freq","","","img/blue_2bandit_b2.png","70","","70","test","1","","126","","","","circle","square","121","7","6","0.9586776859504132","","","","","","","",""
"null","1189582","SARL_v6","SARL_v6bgfwzdyb","59ff81fd5d06850001afeeab","freq_resp","","","img/blue_2bandit_b.png","70","img/blue_2bandit_b.png","70","test","","","","","","","","","","","6","","","","","","","","",""
"null","1189736","SARL_v6","SARL_v6bgfwzdyb","59ff81fd5d06850001afeeab","fixation","","","img/fixation.png","null","","","test","","","","","","","","","","","","","","","","","","","",""
"454","1190192","SARL_v6","SARL_v6bgfwzdyb","59ff81fd5d06850001afeeab","freq","","","img/blue_2bandit_b2.png","70","","70","test","1","","127","","","","circle","square","122","8","6","0.9590163934426229","","","","","","","",""
"null","1190540","SARL_v6","SARL_v6bgfwzdyb","59ff81fd5d06850001afeeab","freq_resp","","","img/blue_2bandit_b.png","70","img/blue_2bandit_b.png","70","test","","","","","","","","","","","6","","","","","","","","",""
"null","1190693","SARL_v6","SARL_v6bgfwzdyb","59ff81fd5d06850001afeeab","fixation","","","img/fixation.png","null","","","test","","","","","","","","","","","","","","","","","","","",""
"499.39999985694885","1191195","SARL_v6","SARL_v6bgfwzdyb","59ff81fd5d06850001afeeab","infreq","","","img/orange_2bandit_b2.png","68","","68","test","1","","128","","","","circle","square","123","9","6","0.959349593495935","","","","","","","",""
"null","1191497","SARL_v6","SARL_v6bgfwzdyb","59ff81fd5d06850001afeeab","infreq_resp","","","img/orange_2bandit_b.png","68","img/orange_2bandit_b.png","68","test","","","","","","","","","","","6","","","","","","","","",""
"null","1191651","SARL_v6","SARL_v6bgfwzdyb","59ff81fd5d06850001afeeab","fixation","","","img/fixation.png","null","","","test","","","","","","","","","","","","","","","","","","","",""
"506.7000000476837","1192159","SARL_v6","SARL_v6bgfwzdyb","59ff81fd5d06850001afeeab","freq","","","img/blue_2bandit_b2.png","70","","70","test","1","","129","","","","circle","square","124","10","6","0.9596774193548387","","","","","","","",""
"null","1192454","SARL_v6","SARL_v6bgfwzdyb","59ff81fd5d06850001afeeab","freq_resp","","","img/blue_2bandit_b.png","70","img/blue_2bandit_b.png","70","test","","","","","","","","","","","6","","","","","","","","",""
"null","1192607","SARL_v6","SARL_v6bgfwzdyb","59ff81fd5d06850001afeeab","fixation","","","img/fixation.png","null","","","test","","","","","","","","","","","","","","","","","","","",""
"508.7999999523163","1193117","SARL_v6","SARL_v6bgfwzdyb","59ff81fd5d06850001afeeab","freq","","","img/blue_2bandit_b2.png","70","","70","test","1","","130","","","","circle","square","125","11","6","0.96","","","","","","","",""
"null","1193411","SARL_v6","SARL_v6bgfwzdyb","59ff81fd5d06850001afeeab","freq_resp","","","img/blue_2bandit_b.png","70","img/blue_2bandit_b.png","70","test","","","","","","","","","","","6","","","","","","","","",""
"null","1193564","SARL_v6","SARL_v6bgfwzdyb","59ff81fd5d06850001afeeab","fixation","","","img/fixation.png","null","","","test","","","","","","","","","","","","","","","","","","","",""
