"rt","time_elapsed","expId","subject","prolificID","trialType","rlType","attType","stimulus","key_press","stim","corrresp","phase","corr","pracCounter","trialNum","rewardOne","rewardTwo","reward","bandOne","bandTwo","attentionNum","attentionRunNum","blockNum","performance","bandChosen","circleVal","squareVal","bandOneVal","bandTwoVal","shapeChosen","rlNum","badFlag"
"5501.899999991059","5519","SARL_v6","SARL_v6gtrfx0ug","629534afc0924e49e1464589","","","","","","","","","","","","","","","","","","","","","","","","","","","",""
"","8575","SARL_v6","SARL_v6gtrfx0ug","629534afc0924e49e1464589","fullscreen","fullscreen","fullscreen","","","","","","","","","","","","","","","","","","","","","","","","",""
"38317.29999999702","46898","SARL_v6","SARL_v6gtrfx0ug","629534afc0924e49e1464589","","","","","","","","","","","","","","","","","","","","","","","","","","","",""
"null","47717","SARL_v6","SARL_v6gtrfx0ug","629534afc0924e49e1464589","freqPrac","","","img/orange_2bandit_a2.png","null","img/orange_2bandit_a2.png","70","prac","0","1","","","","","","","","","","","","","","","","","",""
"null","48727","SARL_v6","SARL_v6gtrfx0ug","629534afc0924e49e1464589","feedback","","","img/tooSlow.png","null","","na","prac","","","","","","","","","","","","","","","","","","","",""
"null","48900","SARL_v6","SARL_v6gtrfx0ug","629534afc0924e49e1464589","fixation","","","img/fixation.png","null","","","prac","","","","","","","","","","","","","","","","","","","",""
"742.5","49647","SARL_v6","SARL_v6gtrfx0ug","629534afc0924e49e1464589","infreqPrac","","","img/blue_2bandit_a2.png","70","img/blue_2bandit_a2.png","68","prac","0","2","","","","","","","","","","","","","","","","","",""
"742.5","49717","SARL_v6","SARL_v6gtrfx0ug","629534afc0924e49e1464589","infreqPrac_resp","","","img/blue_2bandit_a.png","70","img/blue_2bandit_a.png","68","prac","","","","","","","","","","","","","","","","","","","",""
"null","50723","SARL_v6","SARL_v6gtrfx0ug","629534afc0924e49e1464589","feedback","","","img/wrongKey.png","null","","na","prac","","","","","","","","","","","","","","","","","","","",""
"null","50887","SARL_v6","SARL_v6gtrfx0ug","629534afc0924e49e1464589","fixation","","","img/fixation.png","null","","","prac","","","","","","","","","","","","","","","","","","","",""
"528.8000000119209","51420","SARL_v6","SARL_v6gtrfx0ug","629534afc0924e49e1464589","freqPrac","","","img/orange_2bandit_a2.png","68","img/orange_2bandit_a2.png","70","prac","0","3","","","","","","","","","","","","","","","","","",""
"528.8000000119209","51709","SARL_v6","SARL_v6gtrfx0ug","629534afc0924e49e1464589","freqPrac_resp","","","img/orange_2bandit_a.png","68","img/orange_2bandit_a.png","70","prac","","","","","","","","","","","","","","","","","","","",""
"null","52738","SARL_v6","SARL_v6gtrfx0ug","629534afc0924e49e1464589","feedback","","","img/wrongKey.png","null","","na","prac","","","","","","","","","","","","","","","","","","","",""
"null","52910","SARL_v6","SARL_v6gtrfx0ug","629534afc0924e49e1464589","fixation","","","img/fixation.png","null","","","prac","","","","","","","","","","","","","","","","","","","",""
"null","53738","SARL_v6","SARL_v6gtrfx0ug","629534afc0924e49e1464589","infreqPrac","","","img/blue_2bandit_a2.png","null","img/blue_2bandit_a2.png","68","prac","0","4","","","","","","","","","","","","","","","","","",""
"null","54750","SARL_v6","SARL_v6gtrfx0ug","629534afc0924e49e1464589","feedback","","","img/tooSlow.png","null","","na","prac","","","","","","","","","","","","","","","","","","","",""
"null","54914","SARL_v6","SARL_v6gtrfx0ug","629534afc0924e49e1464589","fixation","","","img/fixation.png","null","","","prac","","","","","","","","","","","","","","","","","","","",""
"null","55729","SARL_v6","SARL_v6gtrfx0ug","629534afc0924e49e1464589","infreqPrac","","","img/blue_2bandit_a2.png","null","img/blue_2bandit_a2.png","68","prac","0","5","","","","","","","","","","","","","","","","","",""
"null","56744","SARL_v6","SARL_v6gtrfx0ug","629534afc0924e49e1464589","feedback","","","img/tooSlow.png","null","","na","prac","","","","","","","","","","","","","","","","","","","",""
"null","56903","SARL_v6","SARL_v6gtrfx0ug","629534afc0924e49e1464589","fixation","","","img/fixation.png","null","","","prac","","","","","","","","","","","","","","","","","","","",""
"null","57723","SARL_v6","SARL_v6gtrfx0ug","629534afc0924e49e1464589","infreqPrac","","","img/blue_2bandit_a2.png","null","img/blue_2bandit_a2.png","68","prac","0","6","","","","","","","","","","","","","","","","","",""
"null","58743","SARL_v6","SARL_v6gtrfx0ug","629534afc0924e49e1464589","feedback","","","img/tooSlow.png","null","","na","prac","","","","","","","","","","","","","","","","","","","",""
"null","58904","SARL_v6","SARL_v6gtrfx0ug","629534afc0924e49e1464589","fixation","","","img/fixation.png","null","","","prac","","","","","","","","","","","","","","","","","","","",""
"315.8999999910593","59224","SARL_v6","SARL_v6gtrfx0ug","629534afc0924e49e1464589","freqPrac","","","img/orange_2bandit_a2.png","68","img/orange_2bandit_a2.png","70","prac","0","7","","","","","","","","","","","","","","","","","",""
"315.8999999910593","59726","SARL_v6","SARL_v6gtrfx0ug","629534afc0924e49e1464589","freqPrac_resp","","","img/orange_2bandit_a.png","68","img/orange_2bandit_a.png","70","prac","","","","","","","","","","","","","","","","","","","",""
"null","60742","SARL_v6","SARL_v6gtrfx0ug","629534afc0924e49e1464589","feedback","","","img/wrongKey.png","null","","na","prac","","","","","","","","","","","","","","","","","","","",""
"null","60906","SARL_v6","SARL_v6gtrfx0ug","629534afc0924e49e1464589","fixation","","","img/fixation.png","null","","","prac","","","","","","","","","","","","","","","","","","","",""
"null","61718","SARL_v6","SARL_v6gtrfx0ug","629534afc0924e49e1464589","infreqPrac","","","img/blue_2bandit_a2.png","null","img/blue_2bandit_a2.png","68","prac","0","8","","","","","","","","","","","","","","","","","",""
"null","62734","SARL_v6","SARL_v6gtrfx0ug","629534afc0924e49e1464589","feedback","","","img/tooSlow.png","null","","na","prac","","","","","","","","","","","","","","","","","","","",""
"null","62893","SARL_v6","SARL_v6gtrfx0ug","629534afc0924e49e1464589","fixation","","","img/fixation.png","null","","","prac","","","","","","","","","","","","","","","","","","","",""
"245.5","63143","SARL_v6","SARL_v6gtrfx0ug","629534afc0924e49e1464589","freqPrac","","","img/orange_2bandit_a2.png","68","img/orange_2bandit_a2.png","70","prac","0","9","","","","","","","","","","","","","","","","","",""
"245.5","63703","SARL_v6","SARL_v6gtrfx0ug","629534afc0924e49e1464589","freqPrac_resp","","","img/orange_2bandit_a.png","68","img/orange_2bandit_a.png","70","prac","","","","","","","","","","","","","","","","","","","",""
"null","64721","SARL_v6","SARL_v6gtrfx0ug","629534afc0924e49e1464589","feedback","","","img/wrongKey.png","null","","na","prac","","","","","","","","","","","","","","","","","","","",""
"null","64886","SARL_v6","SARL_v6gtrfx0ug","629534afc0924e49e1464589","fixation","","","img/fixation.png","null","","","prac","","","","","","","","","","","","","","","","","","","",""
"480.8999999910593","65372","SARL_v6","SARL_v6gtrfx0ug","629534afc0924e49e1464589","freqPrac","","","img/orange_2bandit_a2.png","68","img/orange_2bandit_a2.png","70","prac","0","10","","","","","","","","","","","","","","","","","",""
"480.8999999910593","65698","SARL_v6","SARL_v6gtrfx0ug","629534afc0924e49e1464589","freqPrac_resp","","","img/orange_2bandit_a.png","68","img/orange_2bandit_a.png","70","prac","","","","","","","","","","","","","","","","","","","",""
"null","66718","SARL_v6","SARL_v6gtrfx0ug","629534afc0924e49e1464589","feedback","","","img/wrongKey.png","null","","na","prac","","","","","","","","","","","","","","","","","","","",""
"null","66888","SARL_v6","SARL_v6gtrfx0ug","629534afc0924e49e1464589","fixation","","","img/fixation.png","null","","","prac","","","","","","","","","","","","","","","","","","","",""
"38723.20000000298","105616","SARL_v6","SARL_v6gtrfx0ug","629534afc0924e49e1464589","","","","","","","","prac","","","","","","","","","","","","","","","","","","","",""
"1360.7000000029802","106982","SARL_v6","SARL_v6gtrfx0ug","629534afc0924e49e1464589","rlPractice","","","img/black_2bandit_a2.png","74","img/black_2bandit_a2.png","","prac","","","0","","","","","","","","","","","","","","","","",""
"null","107756","SARL_v6","SARL_v6gtrfx0ug","629534afc0924e49e1464589","feedback","","","<div class=""verylowPoints_sq""> -14 </div>","null","","na","prac","","","1","10","-14","10","","","","","","","","","","","","","",""
"null","107928","SARL_v6","SARL_v6gtrfx0ug","629534afc0924e49e1464589","fixation","","","img/fixation.png","null","","","prac","","","","","","","","","","","","","","","","","","","",""
"1280.2999999970198","109213","SARL_v6","SARL_v6gtrfx0ug","629534afc0924e49e1464589","rlPractice","","","img/black_2bandit_a2.png","75","img/black_2bandit_a2.png","","prac","","","1","","","","","","","","","","","","","","","","",""
"null","109973","SARL_v6","SARL_v6gtrfx0ug","629534afc0924e49e1464589","feedback","","","<div class=""veryhighPoints""> 5 </div>","null","","na","prac","","","2","5","-5","5","","","","","","","","","","","","","",""
"null","110128","SARL_v6","SARL_v6gtrfx0ug","629534afc0924e49e1464589","fixation","","","img/fixation.png","null","","","prac","","","","","","","","","","","","","","","","","","","",""
"955.4000000059605","111087","SARL_v6","SARL_v6gtrfx0ug","629534afc0924e49e1464589","rlPractice","","","img/black_2bandit_a2.png","75","img/black_2bandit_a2.png","","prac","","","2","","","","","","","","","","","","","","","","",""
"null","111853","SARL_v6","SARL_v6gtrfx0ug","629534afc0924e49e1464589","feedback","","","<div class=""veryhighPoints""> 30 </div>","null","","na","prac","","","3","30","2","30","","","","","","","","","","","","","",""
"null","112012","SARL_v6","SARL_v6gtrfx0ug","629534afc0924e49e1464589","fixation","","","img/fixation.png","null","","","prac","","","","","","","","","","","","","","","","","","","",""
"783.7000000029802","112799","SARL_v6","SARL_v6gtrfx0ug","629534afc0924e49e1464589","rlPractice","","","img/black_2bandit_a2.png","75","img/black_2bandit_a2.png","","prac","","","3","","","","","","","","","","","","","","","","",""
"null","113558","SARL_v6","SARL_v6gtrfx0ug","629534afc0924e49e1464589","feedback","","","<div class=""verylowPoints""> -2 </div>","null","","na","prac","","","4","-2","20","-2","","","","","","","","","","","","","",""
"null","113712","SARL_v6","SARL_v6gtrfx0ug","629534afc0924e49e1464589","fixation","","","img/fixation.png","null","","","prac","","","","","","","","","","","","","","","","","","","",""
"54265.20000000298","167980","SARL_v6","SARL_v6gtrfx0ug","629534afc0924e49e1464589","","","","","","","","prac","","","","","","","","","","","","","","","","","","","",""
"null","168792","SARL_v6","SARL_v6gtrfx0ug","629534afc0924e49e1464589","mixAttFreqPrac","","","img/orange_2bandit_a2.png","null","img/orange_2bandit_a2.png","70","prac","","","1","","","","","","","","","","","","","","","","",""
"null","168954","SARL_v6","SARL_v6gtrfx0ug","629534afc0924e49e1464589","fixation","","","img/fixation.png","null","","","prac","","","","","","","","","","","","","","","","","","","",""
"null","169761","SARL_v6","SARL_v6gtrfx0ug","629534afc0924e49e1464589","mixAttInfreqPrac","","","img/blue_2bandit_a2.png","null","img/blue_2bandit_a2.png","68","prac","","","2","","","","","","","","","","","","","","","","",""
"null","169925","SARL_v6","SARL_v6gtrfx0ug","629534afc0924e49e1464589","fixation","","","img/fixation.png","null","","","prac","","","","","","","","","","","","","","","","","","","",""
"414.1000000089407","170344","SARL_v6","SARL_v6gtrfx0ug","629534afc0924e49e1464589","mixAttInfreqPrac","","","img/blue_2bandit_a2.png","68","img/blue_2bandit_a2.png","68","prac","","","3","","","","","","","","","","","","","","","","",""
"414.1000000089407","170750","SARL_v6","SARL_v6gtrfx0ug","629534afc0924e49e1464589","infreqPrac_resp","","","img/blue_2bandit_a.png","68","img/orange_2bandit_a.png","68","prac","","","3","","","","","","","","","","","","","","","","",""
"null","170921","SARL_v6","SARL_v6gtrfx0ug","629534afc0924e49e1464589","fixation","","","img/fixation.png","null","","","prac","","","","","","","","","","","","","","","","","","","",""
"604.5999999940395","171531","SARL_v6","SARL_v6gtrfx0ug","629534afc0924e49e1464589","mixAttInfreqPrac","","","img/blue_2bandit_a2.png","68","img/blue_2bandit_a2.png","68","prac","","","4","","","","","","","","","","","","","","","","",""
"604.5999999940395","171745","SARL_v6","SARL_v6gtrfx0ug","629534afc0924e49e1464589","infreqPrac_resp","","","img/blue_2bandit_a.png","68","img/orange_2bandit_a.png","68","prac","","","4","","","","","","","","","","","","","","","","",""
"null","171909","SARL_v6","SARL_v6gtrfx0ug","629534afc0924e49e1464589","fixation","","","img/fixation.png","null","","","prac","","","","","","","","","","","","","","","","","","","",""
"null","172725","SARL_v6","SARL_v6gtrfx0ug","629534afc0924e49e1464589","mixAttFreqPrac","","","img/orange_2bandit_a2.png","null","img/orange_2bandit_a2.png","70","prac","","","5","","","","","","","","","","","","","","","","",""
"17.400000005960464","172886","SARL_v6","SARL_v6gtrfx0ug","629534afc0924e49e1464589","fixation","","","img/fixation.png","70","","","prac","","","","","","","","","","","","","","","","","","","",""
"902.7999999970198","173794","SARL_v6","SARL_v6gtrfx0ug","629534afc0924e49e1464589","mixRLPractice","","","img/black_2bandit_a2.png","75","img/black_2bandit_a2.png","","prac","","","5","","","","","","","","","","","","","","","","",""
"null","174558","SARL_v6","SARL_v6gtrfx0ug","629534afc0924e49e1464589","feedback","","","<div class=""verylowPoints""> -14 </div>","null","","na","prac","","","6","-14","10","-14","","","","","","","","","","","","","",""
"null","174718","SARL_v6","SARL_v6gtrfx0ug","629534afc0924e49e1464589","fixation","","","img/fixation.png","null","","","prac","","","","","","","","","","","","","","","","","","","",""
"null","175528","SARL_v6","SARL_v6gtrfx0ug","629534afc0924e49e1464589","mixAttFreqPrac","","","img/orange_2bandit_a2.png","null","img/orange_2bandit_a2.png","70","prac","","","7","","","","","","","","","","","","","","","","",""
"24.900000005960464","175692","SARL_v6","SARL_v6gtrfx0ug","629534afc0924e49e1464589","fixation","","","img/fixation.png","68","","","prac","","","","","","","","","","","","","","","","","","","",""
"null","176508","SARL_v6","SARL_v6gtrfx0ug","629534afc0924e49e1464589","mixAttInfreqPrac","","","img/blue_2bandit_a2.png","null","img/blue_2bandit_a2.png","68","prac","","","8","","","","","","","","","","","","","","","","",""
"60.5","176677","SARL_v6","SARL_v6gtrfx0ug","629534afc0924e49e1464589","fixation","","","img/fixation.png","68","","","prac","","","","","","","","","","","","","","","","","","","",""
"386.30000001192093","177068","SARL_v6","SARL_v6gtrfx0ug","629534afc0924e49e1464589","mixAttFreqPrac","","","img/orange_2bandit_a2.png","70","img/orange_2bandit_a2.png","70","prac","","","9","","","","","","","","","","","","","","","","",""
"386.30000001192093","177502","SARL_v6","SARL_v6gtrfx0ug","629534afc0924e49e1464589","freqPrac_resp","","","img/orange_2bandit_a.png","70","img/orange_2bandit_a.png","70","prac","","","9","","","","","","","","","","","","","","","","",""
"null","177659","SARL_v6","SARL_v6gtrfx0ug","629534afc0924e49e1464589","fixation","","","img/fixation.png","null","","","prac","","","","","","","","","","","","","","","","","","","",""
"374.70000000298023","178038","SARL_v6","SARL_v6gtrfx0ug","629534afc0924e49e1464589","mixAttFreqPrac","","","img/orange_2bandit_a2.png","68","img/orange_2bandit_a2.png","70","prac","","","10","","","","","","","","","","","","","","","","",""
"374.70000000298023","178474","SARL_v6","SARL_v6gtrfx0ug","629534afc0924e49e1464589","freqPrac_resp","","","img/orange_2bandit_a.png","68","img/orange_2bandit_a.png","70","prac","","","10","","","","","","","","","","","","","","","","",""
"null","178645","SARL_v6","SARL_v6gtrfx0ug","629534afc0924e49e1464589","fixation","","","img/fixation.png","null","","","prac","","","","","","","","","","","","","","","","","","","",""
"743.5","179392","SARL_v6","SARL_v6gtrfx0ug","629534afc0924e49e1464589","mixAttInfreqPrac","","","img/blue_2bandit_a2.png","68","img/blue_2bandit_a2.png","68","prac","","","11","","","","","","","","","","","","","","","","",""
"743.5","179456","SARL_v6","SARL_v6gtrfx0ug","629534afc0924e49e1464589","infreqPrac_resp","","","img/blue_2bandit_a.png","68","img/orange_2bandit_a.png","68","prac","","","11","","","","","","","","","","","","","","","","",""
"null","179627","SARL_v6","SARL_v6gtrfx0ug","629534afc0924e49e1464589","fixation","","","img/fixation.png","null","","","prac","","","","","","","","","","","","","","","","","","","",""
"737.5","180369","SARL_v6","SARL_v6gtrfx0ug","629534afc0924e49e1464589","mixRLPractice","","","img/black_2bandit_a2.png","75","img/black_2bandit_a2.png","","prac","","","11","","","","","","","","","","","","","","","","",""
"null","181131","SARL_v6","SARL_v6gtrfx0ug","629534afc0924e49e1464589","feedback","","","<div class=""veryhighPoints""> 5 </div>","null","","na","prac","","","12","5","-5","5","","","","","","","","","","","","","",""
"null","181296","SARL_v6","SARL_v6gtrfx0ug","629534afc0924e49e1464589","fixation","","","img/fixation.png","null","","","prac","","","","","","","","","","","","","","","","","","","",""
"37505.79999999702","218805","SARL_v6","SARL_v6gtrfx0ug","629534afc0924e49e1464589","","","","","","","","prac","","","","","","","","","","","","","","","","","","","",""
"585.0999999940395","219395","SARL_v6","SARL_v6gtrfx0ug","629534afc0924e49e1464589","freq","","","img/orange_2bandit_a2.png","70","","70","test","1","","1","","","","square","circle","1","1","1","1","","","","","","","",""
"null","219631","SARL_v6","SARL_v6gtrfx0ug","629534afc0924e49e1464589","freq_resp","","","img/orange_2bandit_a.png","70","img/orange_2bandit_a.png","70","test","","","","","","","","","","","1","","","","","","","","",""
"null","219805","SARL_v6","SARL_v6gtrfx0ug","629534afc0924e49e1464589","fixation","","","img/fixation.png","null","","","test","","","","","","","","","","","","","","","","","","","",""
"642.5","220453","SARL_v6","SARL_v6gtrfx0ug","629534afc0924e49e1464589","freq","","","img/orange_2bandit_a2.png","70","","70","test","1","","2","","","","square","circle","2","2","1","1","","","","","","","",""
"null","220631","SARL_v6","SARL_v6gtrfx0ug","629534afc0924e49e1464589","freq_resp","","","img/orange_2bandit_a.png","70","img/orange_2bandit_a.png","70","test","","","","","","","","","","","1","","","","","","","","",""
"null","220794","SARL_v6","SARL_v6gtrfx0ug","629534afc0924e49e1464589","fixation","","","img/fixation.png","null","","","test","","","","","","","","","","","","","","","","","","","",""
"null","221611","SARL_v6","SARL_v6gtrfx0ug","629534afc0924e49e1464589","freq","","","img/orange_2bandit_a2.png","null","","70","test","0","","3","","","","square","circle","3","3","1","0.6666666666666666","","","","","","","",""
"null","221775","SARL_v6","SARL_v6gtrfx0ug","629534afc0924e49e1464589","fixation","","","img/fixation.png","null","","","test","","","","","","","","","","","","","","","","","","","",""
"null","222591","SARL_v6","SARL_v6gtrfx0ug","629534afc0924e49e1464589","freq","","","img/orange_2bandit_a2.png","null","","70","test","0","","4","","","","square","circle","4","4","1","0.5","","","","","","","",""
"null","222748","SARL_v6","SARL_v6gtrfx0ug","629534afc0924e49e1464589","fixation","","","img/fixation.png","null","","","test","","","","","","","","","","","","","","","","","","","",""
"null","223566","SARL_v6","SARL_v6gtrfx0ug","629534afc0924e49e1464589","freq","","","img/orange_2bandit_a2.png","null","","70","test","0","","5","","","","square","circle","5","5","1","0.4","","","","","","","",""
"null","223734","SARL_v6","SARL_v6gtrfx0ug","629534afc0924e49e1464589","fixation","","","img/fixation.png","null","","","test","","","","","","","","","","","","","","","","","","","",""
"630","224369","SARL_v6","SARL_v6gtrfx0ug","629534afc0924e49e1464589","infreq","","","img/blue_2bandit_a2.png","68","","68","test","1","","6","","","","square","circle","6","6","1","0.5","","","","","","","",""
"null","224545","SARL_v6","SARL_v6gtrfx0ug","629534afc0924e49e1464589","infreq_resp","","","img/blue_2bandit_a.png","68","img/blue_2bandit_a.png","68","test","","","","","","","","","","","1","","","","","","","","",""
"null","224718","SARL_v6","SARL_v6gtrfx0ug","629534afc0924e49e1464589","fixation","","","img/fixation.png","null","","","test","","","","","","","","","","","","","","","","","","","",""
"524","225247","SARL_v6","SARL_v6gtrfx0ug","629534afc0924e49e1464589","freq","","","img/orange_2bandit_a2.png","70","","70","test","1","","7","","","","square","circle","7","7","1","0.5714285714285714","","","","","","","",""
"null","225536","SARL_v6","SARL_v6gtrfx0ug","629534afc0924e49e1464589","freq_resp","","","img/orange_2bandit_a.png","70","img/orange_2bandit_a.png","70","test","","","","","","","","","","","1","","","","","","","","",""
"null","225698","SARL_v6","SARL_v6gtrfx0ug","629534afc0924e49e1464589","fixation","","","img/fixation.png","null","","","test","","","","","","","","","","","","","","","","","","","",""
"444.8999999910593","226147","SARL_v6","SARL_v6gtrfx0ug","629534afc0924e49e1464589","freq","","","img/orange_2bandit_a2.png","70","","70","test","1","","8","","","","square","circle","8","8","1","0.625","","","","","","","",""
"null","226518","SARL_v6","SARL_v6gtrfx0ug","629534afc0924e49e1464589","freq_resp","","","img/orange_2bandit_a.png","70","img/orange_2bandit_a.png","70","test","","","","","","","","","","","1","","","","","","","","",""
"null","226678","SARL_v6","SARL_v6gtrfx0ug","629534afc0924e49e1464589","fixation","","","img/fixation.png","null","","","test","","","","","","","","","","","","","","","","","","","",""
"328.6000000089407","227012","SARL_v6","SARL_v6gtrfx0ug","629534afc0924e49e1464589","freq","","","img/orange_2bandit_a2.png","70","","70","test","1","","9","","","","square","circle","9","9","1","0.6666666666666666","","","","","","","",""
"null","227489","SARL_v6","SARL_v6gtrfx0ug","629534afc0924e49e1464589","freq_resp","","","img/orange_2bandit_a.png","70","img/orange_2bandit_a.png","70","test","","","","","","","","","","","1","","","","","","","","",""
"null","227647","SARL_v6","SARL_v6gtrfx0ug","629534afc0924e49e1464589","fixation","","","img/fixation.png","null","","","test","","","","","","","","","","","","","","","","","","","",""
"371.29999999701977","228023","SARL_v6","SARL_v6gtrfx0ug","629534afc0924e49e1464589","freq","","","img/orange_2bandit_a2.png","70","","70","test","1","","10","","","","square","circle","10","10","1","0.7","","","","","","","",""
"null","228464","SARL_v6","SARL_v6gtrfx0ug","629534afc0924e49e1464589","freq_resp","","","img/orange_2bandit_a.png","70","img/orange_2bandit_a.png","70","test","","","","","","","","","","","1","","","","","","","","",""
"null","228628","SARL_v6","SARL_v6gtrfx0ug","629534afc0924e49e1464589","fixation","","","img/fixation.png","null","","","test","","","","","","","","","","","","","","","","","","","",""
"378.20000000298023","229010","SARL_v6","SARL_v6gtrfx0ug","629534afc0924e49e1464589","freq","","","img/orange_2bandit_a2.png","70","","70","test","1","","11","","","","square","circle","11","11","1","0.7272727272727273","","","","","","","",""
"null","229478","SARL_v6","SARL_v6gtrfx0ug","629534afc0924e49e1464589","freq_resp","","","img/orange_2bandit_a.png","70","img/orange_2bandit_a.png","70","test","","","","","","","","","","","1","","","","","","","","",""
"null","229645","SARL_v6","SARL_v6gtrfx0ug","629534afc0924e49e1464589","fixation","","","img/fixation.png","null","","","test","","","","","","","","","","","","","","","","","","","",""
"381.59999999403954","230032","SARL_v6","SARL_v6gtrfx0ug","629534afc0924e49e1464589","freq","","","img/orange_2bandit_a2.png","70","","70","test","1","","12","","","","square","circle","12","12","1","0.75","","","","","","","",""
"null","230463","SARL_v6","SARL_v6gtrfx0ug","629534afc0924e49e1464589","freq_resp","","","img/orange_2bandit_a.png","70","img/orange_2bandit_a.png","70","test","","","","","","","","","","","1","","","","","","","","",""
"null","230627","SARL_v6","SARL_v6gtrfx0ug","629534afc0924e49e1464589","fixation","","","img/fixation.png","null","","","test","","","","","","","","","","","","","","","","","","","",""
"394.3999999910593","231027","SARL_v6","SARL_v6gtrfx0ug","629534afc0924e49e1464589","freq","","","img/orange_2bandit_a2.png","70","","70","test","1","","13","","","","square","circle","13","13","1","0.7692307692307693","","","","","","","",""
"null","231444","SARL_v6","SARL_v6gtrfx0ug","629534afc0924e49e1464589","freq_resp","","","img/orange_2bandit_a.png","70","img/orange_2bandit_a.png","70","test","","","","","","","","","","","1","","","","","","","","",""
"null","231614","SARL_v6","SARL_v6gtrfx0ug","629534afc0924e49e1464589","fixation","","","img/fixation.png","null","","","test","","","","","","","","","","","","","","","","","","","",""
"381.40000000596046","232000","SARL_v6","SARL_v6gtrfx0ug","629534afc0924e49e1464589","freq","","","img/orange_2bandit_a2.png","70","","70","test","1","","14","","","","square","circle","14","14","1","0.7857142857142857","","","","","","","",""
"null","232424","SARL_v6","SARL_v6gtrfx0ug","629534afc0924e49e1464589","freq_resp","","","img/orange_2bandit_a.png","70","img/orange_2bandit_a.png","70","test","","","","","","","","","","","1","","","","","","","","",""
"null","232596","SARL_v6","SARL_v6gtrfx0ug","629534afc0924e49e1464589","fixation","","","img/fixation.png","null","","","test","","","","","","","","","","","","","","","","","","","",""
"326.5","232927","SARL_v6","SARL_v6gtrfx0ug","629534afc0924e49e1464589","freq","","","img/orange_2bandit_a2.png","70","","70","test","1","","15","","","","square","circle","15","15","1","0.8","","","","","","","",""
"null","233415","SARL_v6","SARL_v6gtrfx0ug","629534afc0924e49e1464589","freq_resp","","","img/orange_2bandit_a.png","70","img/orange_2bandit_a.png","70","test","","","","","","","","","","","1","","","","","","","","",""
"null","233578","SARL_v6","SARL_v6gtrfx0ug","629534afc0924e49e1464589","fixation","","","img/fixation.png","null","","","test","","","","","","","","","","","","","","","","","","","",""
"332.20000000298023","233915","SARL_v6","SARL_v6gtrfx0ug","629534afc0924e49e1464589","freq","","","img/orange_2bandit_a2.png","70","","70","test","1","","16","","","","square","circle","16","16","1","0.8125","","","","","","","",""
"null","234390","SARL_v6","SARL_v6gtrfx0ug","629534afc0924e49e1464589","freq_resp","","","img/orange_2bandit_a.png","70","img/orange_2bandit_a.png","70","test","","","","","","","","","","","1","","","","","","","","",""
"null","234546","SARL_v6","SARL_v6gtrfx0ug","629534afc0924e49e1464589","fixation","","","img/fixation.png","null","","","test","","","","","","","","","","","","","","","","","","","",""
"301.59999999403954","234852","SARL_v6","SARL_v6gtrfx0ug","629534afc0924e49e1464589","freq","","","img/orange_2bandit_a2.png","70","","70","test","1","","17","","","","square","circle","17","17","1","0.8235294117647058","","","","","","","",""
"null","235375","SARL_v6","SARL_v6gtrfx0ug","629534afc0924e49e1464589","freq_resp","","","img/orange_2bandit_a.png","70","img/orange_2bandit_a.png","70","test","","","","","","","","","","","1","","","","","","","","",""
"null","235529","SARL_v6","SARL_v6gtrfx0ug","629534afc0924e49e1464589","fixation","","","img/fixation.png","null","","","test","","","","","","","","","","","","","","","","","","","",""
"279.29999999701977","235814","SARL_v6","SARL_v6gtrfx0ug","629534afc0924e49e1464589","freq","","","img/orange_2bandit_a2.png","70","","70","test","1","","18","","","","square","circle","18","18","1","0.8333333333333334","","","","","","","",""
"null","236357","SARL_v6","SARL_v6gtrfx0ug","629534afc0924e49e1464589","freq_resp","","","img/orange_2bandit_a.png","70","img/orange_2bandit_a.png","70","test","","","","","","","","","","","1","","","","","","","","",""
"null","236523","SARL_v6","SARL_v6gtrfx0ug","629534afc0924e49e1464589","fixation","","","img/fixation.png","null","","","test","","","","","","","","","","","","","","","","","","","",""
"550.2000000029802","237078","SARL_v6","SARL_v6gtrfx0ug","629534afc0924e49e1464589","infreq","","","img/blue_2bandit_a2.png","68","","68","test","1","","19","","","","square","circle","19","19","1","0.8421052631578947","","","","","","","",""
"null","237344","SARL_v6","SARL_v6gtrfx0ug","629534afc0924e49e1464589","infreq_resp","","","img/blue_2bandit_a.png","68","img/blue_2bandit_a.png","68","test","","","","","","","","","","","1","","","","","","","","",""
"null","237498","SARL_v6","SARL_v6gtrfx0ug","629534afc0924e49e1464589","fixation","","","img/fixation.png","null","","","test","","","","","","","","","","","","","","","","","","","",""
"449.40000000596046","237952","SARL_v6","SARL_v6gtrfx0ug","629534afc0924e49e1464589","freq","","","img/orange_2bandit_a2.png","70","","70","test","1","","20","","","","square","circle","20","20","1","0.85","","","","","","","",""
"null","238313","SARL_v6","SARL_v6gtrfx0ug","629534afc0924e49e1464589","freq_resp","","","img/orange_2bandit_a.png","70","img/orange_2bandit_a.png","70","test","","","","","","","","","","","1","","","","","","","","",""
"null","238485","SARL_v6","SARL_v6gtrfx0ug","629534afc0924e49e1464589","fixation","","","img/fixation.png","null","","","test","","","","","","","","","","","","","","","","","","","",""
"384.09999999403954","238872","SARL_v6","SARL_v6gtrfx0ug","629534afc0924e49e1464589","freq","","","img/orange_2bandit_a2.png","70","","70","test","1","","21","","","","square","circle","21","21","1","0.8571428571428571","","","","","","","",""
"null","239306","SARL_v6","SARL_v6gtrfx0ug","629534afc0924e49e1464589","freq_resp","","","img/orange_2bandit_a.png","70","img/orange_2bandit_a.png","70","test","","","","","","","","","","","1","","","","","","","","",""
"null","239467","SARL_v6","SARL_v6gtrfx0ug","629534afc0924e49e1464589","fixation","","","img/fixation.png","null","","","test","","","","","","","","","","","","","","","","","","","",""
"384.20000000298023","239857","SARL_v6","SARL_v6gtrfx0ug","629534afc0924e49e1464589","freq","","","img/orange_2bandit_a2.png","70","","70","test","1","","22","","","","square","circle","22","22","1","0.8636363636363636","","","","","","","",""
"null","240286","SARL_v6","SARL_v6gtrfx0ug","629534afc0924e49e1464589","freq_resp","","","img/orange_2bandit_a.png","70","img/orange_2bandit_a.png","70","test","","","","","","","","","","","1","","","","","","","","",""
"null","240447","SARL_v6","SARL_v6gtrfx0ug","629534afc0924e49e1464589","fixation","","","img/fixation.png","null","","","test","","","","","","","","","","","","","","","","","","","",""
"348","240800","SARL_v6","SARL_v6gtrfx0ug","629534afc0924e49e1464589","freq","","","img/orange_2bandit_a2.png","70","","70","test","1","","23","","","","square","circle","23","23","1","0.8695652173913043","","","","","","","",""
"null","241261","SARL_v6","SARL_v6gtrfx0ug","629534afc0924e49e1464589","freq_resp","","","img/orange_2bandit_a.png","70","img/orange_2bandit_a.png","70","test","","","","","","","","","","","1","","","","","","","","",""
"null","241417","SARL_v6","SARL_v6gtrfx0ug","629534afc0924e49e1464589","fixation","","","img/fixation.png","null","","","test","","","","","","","","","","","","","","","","","","","",""
"315.5","241737","SARL_v6","SARL_v6gtrfx0ug","629534afc0924e49e1464589","freq","","","img/orange_2bandit_a2.png","70","","70","test","1","","24","","","","square","circle","24","24","1","0.875","","","","","","","",""
"null","242237","SARL_v6","SARL_v6gtrfx0ug","629534afc0924e49e1464589","freq_resp","","","img/orange_2bandit_a.png","70","img/orange_2bandit_a.png","70","test","","","","","","","","","","","1","","","","","","","","",""
"null","242402","SARL_v6","SARL_v6gtrfx0ug","629534afc0924e49e1464589","fixation","","","img/fixation.png","null","","","test","","","","","","","","","","","","","","","","","","","",""
"334.20000000298023","242741","SARL_v6","SARL_v6gtrfx0ug","629534afc0924e49e1464589","freq","","","img/orange_2bandit_a2.png","70","","70","test","1","","25","","","","square","circle","25","25","1","0.88","","","","","","","",""
"null","243216","SARL_v6","SARL_v6gtrfx0ug","629534afc0924e49e1464589","freq_resp","","","img/orange_2bandit_a.png","70","img/orange_2bandit_a.png","70","test","","","","","","","","","","","1","","","","","","","","",""
"null","243372","SARL_v6","SARL_v6gtrfx0ug","629534afc0924e49e1464589","fixation","","","img/fixation.png","null","","","test","","","","","","","","","","","","","","","","","","","",""
"300.3999999910593","243677","SARL_v6","SARL_v6gtrfx0ug","629534afc0924e49e1464589","freq","","","img/orange_2bandit_a2.png","70","","70","test","1","","26","","","","square","circle","26","26","1","0.8846153846153846","","","","","","","",""
"null","244197","SARL_v6","SARL_v6gtrfx0ug","629534afc0924e49e1464589","freq_resp","","","img/orange_2bandit_a.png","70","img/orange_2bandit_a.png","70","test","","","","","","","","","","","1","","","","","","","","",""
"null","244364","SARL_v6","SARL_v6gtrfx0ug","629534afc0924e49e1464589","fixation","","","img/fixation.png","null","","","test","","","","","","","","","","","","","","","","","","","",""
"931.7000000029802","245300","SARL_v6","SARL_v6gtrfx0ug","629534afc0924e49e1464589","rl","","","img/black_2bandit_a2.png","75","","0","test","","","27","","","-3","square","circle","","0","1","","75","-3","-3","-3","-3","circle","1","0"
"null","246082","SARL_v6","SARL_v6gtrfx0ug","629534afc0924e49e1464589","feedback","","","<div class=""verylowPoints""> -3 </div>","null","","na","test","","","NaN","","","","","","","","1","","75","","","","","","1",""
"692.5999999940395","246779","SARL_v6","SARL_v6gtrfx0ug","629534afc0924e49e1464589","freq","","","img/orange_2bandit_a2.png","70","","70","test","1","","28","","","","square","circle","27","1","2","0.8888888888888888","","","","","","","",""
"null","246898","SARL_v6","SARL_v6gtrfx0ug","629534afc0924e49e1464589","freq_resp","","","img/orange_2bandit_a.png","70","img/orange_2bandit_a.png","70","test","","","","","","","","","","","2","","","","","","","","",""
"null","247059","SARL_v6","SARL_v6gtrfx0ug","629534afc0924e49e1464589","fixation","","","img/fixation.png","null","","","test","","","","","","","","","","","","","","","","","","","",""
"486.79999999701977","247549","SARL_v6","SARL_v6gtrfx0ug","629534afc0924e49e1464589","freq","","","img/orange_2bandit_a2.png","70","","70","test","1","","29","","","","square","circle","28","2","2","0.8928571428571429","","","","","","","",""
"null","247874","SARL_v6","SARL_v6gtrfx0ug","629534afc0924e49e1464589","freq_resp","","","img/orange_2bandit_a.png","70","img/orange_2bandit_a.png","70","test","","","","","","","","","","","2","","","","","","","","",""
"null","248041","SARL_v6","SARL_v6gtrfx0ug","629534afc0924e49e1464589","fixation","","","img/fixation.png","null","","","test","","","","","","","","","","","","","","","","","","","",""
"388.29999999701977","248434","SARL_v6","SARL_v6gtrfx0ug","629534afc0924e49e1464589","freq","","","img/orange_2bandit_a2.png","70","","70","test","1","","30","","","","square","circle","29","3","2","0.896551724137931","","","","","","","",""
"null","248856","SARL_v6","SARL_v6gtrfx0ug","629534afc0924e49e1464589","freq_resp","","","img/orange_2bandit_a.png","70","img/orange_2bandit_a.png","70","test","","","","","","","","","","","2","","","","","","","","",""
"null","249011","SARL_v6","SARL_v6gtrfx0ug","629534afc0924e49e1464589","fixation","","","img/fixation.png","null","","","test","","","","","","","","","","","","","","","","","","","",""
"356.1000000089407","249372","SARL_v6","SARL_v6gtrfx0ug","629534afc0924e49e1464589","freq","","","img/orange_2bandit_a2.png","70","","70","test","1","","31","","","","square","circle","30","4","2","0.9","","","","","","","",""
"null","249846","SARL_v6","SARL_v6gtrfx0ug","629534afc0924e49e1464589","freq_resp","","","img/orange_2bandit_a.png","70","img/orange_2bandit_a.png","70","test","","","","","","","","","","","2","","","","","","","","",""
"null","250017","SARL_v6","SARL_v6gtrfx0ug","629534afc0924e49e1464589","fixation","","","img/fixation.png","null","","","test","","","","","","","","","","","","","","","","","","","",""
"374.5","250397","SARL_v6","SARL_v6gtrfx0ug","629534afc0924e49e1464589","freq","","","img/orange_2bandit_a2.png","70","","70","test","1","","32","","","","square","circle","31","5","2","0.9032258064516129","","","","","","","",""
"null","250837","SARL_v6","SARL_v6gtrfx0ug","629534afc0924e49e1464589","freq_resp","","","img/orange_2bandit_a.png","70","img/orange_2bandit_a.png","70","test","","","","","","","","","","","2","","","","","","","","",""
"null","250999","SARL_v6","SARL_v6gtrfx0ug","629534afc0924e49e1464589","fixation","","","img/fixation.png","null","","","test","","","","","","","","","","","","","","","","","","","",""
"330.6000000089407","251334","SARL_v6","SARL_v6gtrfx0ug","629534afc0924e49e1464589","freq","","","img/orange_2bandit_a2.png","70","","70","test","1","","33","","","","square","circle","32","6","2","0.90625","","","","","","","",""
"null","251810","SARL_v6","SARL_v6gtrfx0ug","629534afc0924e49e1464589","freq_resp","","","img/orange_2bandit_a.png","70","img/orange_2bandit_a.png","70","test","","","","","","","","","","","2","","","","","","","","",""
"null","252004","SARL_v6","SARL_v6gtrfx0ug","629534afc0924e49e1464589","fixation","","","img/fixation.png","null","","","test","","","","","","","","","","","","","","","","","","","",""
"332.8999999910593","252342","SARL_v6","SARL_v6gtrfx0ug","629534afc0924e49e1464589","freq","","","img/orange_2bandit_a2.png","70","","70","test","1","","34","","","","square","circle","33","7","2","0.9090909090909091","","","","","","","",""
"null","252840","SARL_v6","SARL_v6gtrfx0ug","629534afc0924e49e1464589","freq_resp","","","img/orange_2bandit_a.png","70","img/orange_2bandit_a.png","70","test","","","","","","","","","","","2","","","","","","","","",""
"null","252998","SARL_v6","SARL_v6gtrfx0ug","629534afc0924e49e1464589","fixation","","","img/fixation.png","null","","","test","","","","","","","","","","","","","","","","","","","",""
"314","253317","SARL_v6","SARL_v6gtrfx0ug","629534afc0924e49e1464589","freq","","","img/orange_2bandit_a2.png","70","","70","test","1","","35","","","","square","circle","34","8","2","0.9117647058823529","","","","","","","",""
"null","253811","SARL_v6","SARL_v6gtrfx0ug","629534afc0924e49e1464589","freq_resp","","","img/orange_2bandit_a.png","70","img/orange_2bandit_a.png","70","test","","","","","","","","","","","2","","","","","","","","",""
"null","253977","SARL_v6","SARL_v6gtrfx0ug","629534afc0924e49e1464589","fixation","","","img/fixation.png","null","","","test","","","","","","","","","","","","","","","","","","","",""
"643.2000000029802","254625","SARL_v6","SARL_v6gtrfx0ug","629534afc0924e49e1464589","infreq","","","img/blue_2bandit_a2.png","68","","68","test","1","","36","","","","square","circle","35","9","2","0.9142857142857143","","","","","","","",""
"null","254794","SARL_v6","SARL_v6gtrfx0ug","629534afc0924e49e1464589","infreq_resp","","","img/blue_2bandit_a.png","68","img/blue_2bandit_a.png","68","test","","","","","","","","","","","2","","","","","","","","",""
"null","254966","SARL_v6","SARL_v6gtrfx0ug","629534afc0924e49e1464589","fixation","","","img/fixation.png","null","","","test","","","","","","","","","","","","","","","","","","","",""
"593.5999999940395","255564","SARL_v6","SARL_v6gtrfx0ug","629534afc0924e49e1464589","freq","","","img/orange_2bandit_a2.png","70","","70","test","1","","37","","","","square","circle","36","10","2","0.9166666666666666","","","","","","","",""
"null","255780","SARL_v6","SARL_v6gtrfx0ug","629534afc0924e49e1464589","freq_resp","","","img/orange_2bandit_a.png","70","img/orange_2bandit_a.png","70","test","","","","","","","","","","","2","","","","","","","","",""
"null","255942","SARL_v6","SARL_v6gtrfx0ug","629534afc0924e49e1464589","fixation","","","img/fixation.png","null","","","test","","","","","","","","","","","","","","","","","","","",""
"658.6999999880791","256605","SARL_v6","SARL_v6gtrfx0ug","629534afc0924e49e1464589","freq","","","img/orange_2bandit_a2.png","70","","70","test","1","","38","","","","square","circle","37","11","2","0.918918918918919","","","","","","","",""
"null","256760","SARL_v6","SARL_v6gtrfx0ug","629534afc0924e49e1464589","freq_resp","","","img/orange_2bandit_a.png","70","img/orange_2bandit_a.png","70","test","","","","","","","","","","","2","","","","","","","","",""
"null","256922","SARL_v6","SARL_v6gtrfx0ug","629534afc0924e49e1464589","fixation","","","img/fixation.png","null","","","test","","","","","","","","","","","","","","","","","","","",""
"434","257360","SARL_v6","SARL_v6gtrfx0ug","629534afc0924e49e1464589","freq","","","img/orange_2bandit_a2.png","70","","70","test","1","","39","","","","square","circle","38","12","2","0.9210526315789473","","","","","","","",""
"null","257738","SARL_v6","SARL_v6gtrfx0ug","629534afc0924e49e1464589","freq_resp","","","img/orange_2bandit_a.png","70","img/orange_2bandit_a.png","70","test","","","","","","","","","","","2","","","","","","","","",""
"null","257900","SARL_v6","SARL_v6gtrfx0ug","629534afc0924e49e1464589","fixation","","","img/fixation.png","null","","","test","","","","","","","","","","","","","","","","","","","",""
"514.7000000029802","258420","SARL_v6","SARL_v6gtrfx0ug","629534afc0924e49e1464589","freq","","","img/orange_2bandit_a2.png","70","","70","test","1","","40","","","","square","circle","39","13","2","0.9230769230769231","","","","","","","",""
"null","258721","SARL_v6","SARL_v6gtrfx0ug","629534afc0924e49e1464589","freq_resp","","","img/orange_2bandit_a.png","70","img/orange_2bandit_a.png","70","test","","","","","","","","","","","2","","","","","","","","",""
"null","258885","SARL_v6","SARL_v6gtrfx0ug","629534afc0924e49e1464589","fixation","","","img/fixation.png","null","","","test","","","","","","","","","","","","","","","","","","","",""
"401.5","259291","SARL_v6","SARL_v6gtrfx0ug","629534afc0924e49e1464589","freq","","","img/orange_2bandit_a2.png","70","","70","test","1","","41","","","","square","circle","40","14","2","0.925","","","","","","","",""
"null","259705","SARL_v6","SARL_v6gtrfx0ug","629534afc0924e49e1464589","freq_resp","","","img/orange_2bandit_a.png","70","img/orange_2bandit_a.png","70","test","","","","","","","","","","","2","","","","","","","","",""
"null","259874","SARL_v6","SARL_v6gtrfx0ug","629534afc0924e49e1464589","fixation","","","img/fixation.png","null","","","test","","","","","","","","","","","","","","","","","","","",""
"323.30000001192093","260201","SARL_v6","SARL_v6gtrfx0ug","629534afc0924e49e1464589","freq","","","img/orange_2bandit_a2.png","70","","70","test","1","","42","","","","square","circle","41","15","2","0.926829268292683","","","","","","","",""
"null","260693","SARL_v6","SARL_v6gtrfx0ug","629534afc0924e49e1464589","freq_resp","","","img/orange_2bandit_a.png","70","img/orange_2bandit_a.png","70","test","","","","","","","","","","","2","","","","","","","","",""
"null","260855","SARL_v6","SARL_v6gtrfx0ug","629534afc0924e49e1464589","fixation","","","img/fixation.png","null","","","test","","","","","","","","","","","","","","","","","","","",""
"404.6000000089407","261265","SARL_v6","SARL_v6gtrfx0ug","629534afc0924e49e1464589","freq","","","img/orange_2bandit_a2.png","70","","70","test","1","","43","","","","square","circle","42","16","2","0.9285714285714286","","","","","","","",""
"null","261674","SARL_v6","SARL_v6gtrfx0ug","629534afc0924e49e1464589","freq_resp","","","img/orange_2bandit_a.png","70","img/orange_2bandit_a.png","70","test","","","","","","","","","","","2","","","","","","","","",""
"null","261857","SARL_v6","SARL_v6gtrfx0ug","629534afc0924e49e1464589","fixation","","","img/fixation.png","null","","","test","","","","","","","","","","","","","","","","","","","",""
"440.59999999403954","262302","SARL_v6","SARL_v6gtrfx0ug","629534afc0924e49e1464589","infreq","","","img/blue_2bandit_a2.png","68","","68","test","1","","44","","","","square","circle","43","17","2","0.9302325581395349","","","","","","","",""
"null","262680","SARL_v6","SARL_v6gtrfx0ug","629534afc0924e49e1464589","infreq_resp","","","img/blue_2bandit_a.png","68","img/blue_2bandit_a.png","68","test","","","","","","","","","","","2","","","","","","","","",""
"null","262835","SARL_v6","SARL_v6gtrfx0ug","629534afc0924e49e1464589","fixation","","","img/fixation.png","null","","","test","","","","","","","","","","","","","","","","","","","",""
"423.79999999701977","263263","SARL_v6","SARL_v6gtrfx0ug","629534afc0924e49e1464589","infreq","","","img/blue_2bandit_a2.png","68","","68","test","1","","45","","","","square","circle","44","18","2","0.9318181818181818","","","","","","","",""
"null","263647","SARL_v6","SARL_v6gtrfx0ug","629534afc0924e49e1464589","infreq_resp","","","img/blue_2bandit_a.png","68","img/blue_2bandit_a.png","68","test","","","","","","","","","","","2","","","","","","","","",""
"null","263819","SARL_v6","SARL_v6gtrfx0ug","629534afc0924e49e1464589","fixation","","","img/fixation.png","null","","","test","","","","","","","","","","","","","","","","","","","",""
"519.5999999940395","264343","SARL_v6","SARL_v6gtrfx0ug","629534afc0924e49e1464589","freq","","","img/orange_2bandit_a2.png","70","","70","test","1","","46","","","","square","circle","45","19","2","0.9333333333333333","","","","","","","",""
"null","264631","SARL_v6","SARL_v6gtrfx0ug","629534afc0924e49e1464589","freq_resp","","","img/orange_2bandit_a.png","70","img/orange_2bandit_a.png","70","test","","","","","","","","","","","2","","","","","","","","",""
"null","264800","SARL_v6","SARL_v6gtrfx0ug","629534afc0924e49e1464589","fixation","","","img/fixation.png","null","","","test","","","","","","","","","","","","","","","","","","","",""
"381.90000000596046","265186","SARL_v6","SARL_v6gtrfx0ug","629534afc0924e49e1464589","freq","","","img/orange_2bandit_a2.png","70","","70","test","1","","47","","","","square","circle","46","20","2","0.9347826086956522","","","","","","","",""
"null","265625","SARL_v6","SARL_v6gtrfx0ug","629534afc0924e49e1464589","freq_resp","","","img/orange_2bandit_a.png","70","img/orange_2bandit_a.png","70","test","","","","","","","","","","","2","","","","","","","","",""
"null","265779","SARL_v6","SARL_v6gtrfx0ug","629534afc0924e49e1464589","fixation","","","img/fixation.png","null","","","test","","","","","","","","","","","","","","","","","","","",""
"362.1000000089407","266147","SARL_v6","SARL_v6gtrfx0ug","629534afc0924e49e1464589","freq","","","img/orange_2bandit_a2.png","70","","70","test","1","","48","","","","square","circle","47","21","2","0.9361702127659575","","","","","","","",""
"null","266591","SARL_v6","SARL_v6gtrfx0ug","629534afc0924e49e1464589","freq_resp","","","img/orange_2bandit_a.png","70","img/orange_2bandit_a.png","70","test","","","","","","","","","","","2","","","","","","","","",""
"null","266753","SARL_v6","SARL_v6gtrfx0ug","629534afc0924e49e1464589","fixation","","","img/fixation.png","null","","","test","","","","","","","","","","","","","","","","","","","",""
"712.1999999880791","267471","SARL_v6","SARL_v6gtrfx0ug","629534afc0924e49e1464589","rl","","","img/black_2bandit_a2.png","75","","0","test","","","49","","","-8","square","circle","","0","2","","75","-8","-5","-5","-8","circle","2","0"
"null","268229","SARL_v6","SARL_v6gtrfx0ug","629534afc0924e49e1464589","feedback","","","<div class=""verylowPoints""> -8 </div>","null","","na","test","","","NaN","","","","","","","","2","","75","","","","","","2",""
"null","269049","SARL_v6","SARL_v6gtrfx0ug","629534afc0924e49e1464589","freq","","","img/orange_2bandit_a2.png","null","","70","test","0","","50","","","","square","circle","48","1","3","0.9166666666666666","","","","","","","",""
"null","269207","SARL_v6","SARL_v6gtrfx0ug","629534afc0924e49e1464589","fixation","","","img/fixation.png","null","","","test","","","","","","","","","","","","","","","","","","","",""
"647.6000000089407","269859","SARL_v6","SARL_v6gtrfx0ug","629534afc0924e49e1464589","freq","","","img/orange_2bandit_a2.png","70","","70","test","1","","51","","","","square","circle","49","2","3","0.9183673469387755","","","","","","","",""
"null","270028","SARL_v6","SARL_v6gtrfx0ug","629534afc0924e49e1464589","freq_resp","","","img/orange_2bandit_a.png","70","img/orange_2bandit_a.png","70","test","","","","","","","","","","","3","","","","","","","","",""
"null","270191","SARL_v6","SARL_v6gtrfx0ug","629534afc0924e49e1464589","fixation","","","img/fixation.png","null","","","test","","","","","","","","","","","","","","","","","","","",""
"330.6000000089407","270526","SARL_v6","SARL_v6gtrfx0ug","629534afc0924e49e1464589","freq","","","img/orange_2bandit_a2.png","70","","70","test","1","","52","","","","square","circle","50","3","3","0.92","","","","","","","",""
"null","271010","SARL_v6","SARL_v6gtrfx0ug","629534afc0924e49e1464589","freq_resp","","","img/orange_2bandit_a.png","70","img/orange_2bandit_a.png","70","test","","","","","","","","","","","3","","","","","","","","",""
"null","271178","SARL_v6","SARL_v6gtrfx0ug","629534afc0924e49e1464589","fixation","","","img/fixation.png","null","","","test","","","","","","","","","","","","","","","","","","","",""
"343","271525","SARL_v6","SARL_v6gtrfx0ug","629534afc0924e49e1464589","freq","","","img/orange_2bandit_a2.png","70","","70","test","1","","53","","","","square","circle","51","4","3","0.9215686274509803","","","","","","","",""
"null","271991","SARL_v6","SARL_v6gtrfx0ug","629534afc0924e49e1464589","freq_resp","","","img/orange_2bandit_a.png","70","img/orange_2bandit_a.png","70","test","","","","","","","","","","","3","","","","","","","","",""
"null","272152","SARL_v6","SARL_v6gtrfx0ug","629534afc0924e49e1464589","fixation","","","img/fixation.png","null","","","test","","","","","","","","","","","","","","","","","","","",""
"812.5","272968","SARL_v6","SARL_v6gtrfx0ug","629534afc0924e49e1464589","freq","","","img/orange_2bandit_a2.png","70","","70","test","1","","54","","","","square","circle","52","5","3","0.9230769230769231","","","","","","","",""
"null","273130","SARL_v6","SARL_v6gtrfx0ug","629534afc0924e49e1464589","fixation","","","img/fixation.png","null","","","test","","","","","","","","","","","","","","","","","","","",""
"null","273945","SARL_v6","SARL_v6gtrfx0ug","629534afc0924e49e1464589","freq","","","img/orange_2bandit_a2.png","null","","70","test","0","","55","","","","square","circle","53","6","3","0.9056603773584906","","","","","","","",""
"null","274105","SARL_v6","SARL_v6gtrfx0ug","629534afc0924e49e1464589","fixation","","","img/fixation.png","null","","","test","","","","","","","","","","","","","","","","","","","",""
"null","274913","SARL_v6","SARL_v6gtrfx0ug","629534afc0924e49e1464589","freq","","","img/orange_2bandit_a2.png","null","","70","test","0","","56","","","","square","circle","54","7","3","0.8888888888888888","","","","","","","",""
"null","275078","SARL_v6","SARL_v6gtrfx0ug","629534afc0924e49e1464589","fixation","","","img/fixation.png","null","","","test","","","","","","","","","","","","","","","","","","","",""
"null","275887","SARL_v6","SARL_v6gtrfx0ug","629534afc0924e49e1464589","freq","","","img/orange_2bandit_a2.png","null","","70","test","0","","57","","","","square","circle","55","8","3","0.8727272727272727","","","","","","","",""
"null","276046","SARL_v6","SARL_v6gtrfx0ug","629534afc0924e49e1464589","fixation","","","img/fixation.png","null","","","test","","","","","","","","","","","","","","","","","","","",""
"80.40000000596046","276130","SARL_v6","SARL_v6gtrfx0ug","629534afc0924e49e1464589","freq","","","img/orange_2bandit_a2.png","70","","70","test","1","","58","","","","square","circle","56","9","3","0.875","","","","","","","",""
"null","276856","SARL_v6","SARL_v6gtrfx0ug","629534afc0924e49e1464589","freq_resp","","","img/orange_2bandit_a.png","70","img/orange_2bandit_a.png","70","test","","","","","","","","","","","3","","","","","","","","",""
"null","277014","SARL_v6","SARL_v6gtrfx0ug","629534afc0924e49e1464589","fixation","","","img/fixation.png","null","","","test","","","","","","","","","","","","","","","","","","","",""
"107.5","277125","SARL_v6","SARL_v6gtrfx0ug","629534afc0924e49e1464589","infreq","","","img/blue_2bandit_a2.png","70","","68","test","0","","59","","","","square","circle","57","10","3","0.8596491228070176","","","","","","","",""
"null","277826","SARL_v6","SARL_v6gtrfx0ug","629534afc0924e49e1464589","infreq_resp","","","img/blue_2bandit_a.png","70","img/blue_2bandit_a.png","68","test","","","","","","","","","","","3","","","","","","","","",""
"null","278015","SARL_v6","SARL_v6gtrfx0ug","629534afc0924e49e1464589","fixation","","","img/fixation.png","null","","","test","","","","","","","","","","","","","","","","","","","",""
"null","278822","SARL_v6","SARL_v6gtrfx0ug","629534afc0924e49e1464589","infreq","","","img/blue_2bandit_a2.png","null","","68","test","0","","60","","","","square","circle","58","11","3","0.8448275862068966","","","","","","","",""
"null","278980","SARL_v6","SARL_v6gtrfx0ug","629534afc0924e49e1464589","fixation","","","img/fixation.png","null","","","test","","","","","","","","","","","","","","","","","","","",""
"null","279796","SARL_v6","SARL_v6gtrfx0ug","629534afc0924e49e1464589","freq","","","img/orange_2bandit_a2.png","null","","70","test","0","","61","","","","square","circle","59","12","3","0.8305084745762712","","","","","","","",""
"null","279969","SARL_v6","SARL_v6gtrfx0ug","629534afc0924e49e1464589","fixation","","","img/fixation.png","null","","","test","","","","","","","","","","","","","","","","","","","",""
"541.7000000029802","280515","SARL_v6","SARL_v6gtrfx0ug","629534afc0924e49e1464589","freq","","","img/orange_2bandit_a2.png","70","","70","test","1","","62","","","","square","circle","60","13","3","0.8333333333333334","","","","","","","",""
"null","280781","SARL_v6","SARL_v6gtrfx0ug","629534afc0924e49e1464589","freq_resp","","","img/orange_2bandit_a.png","70","img/orange_2bandit_a.png","70","test","","","","","","","","","","","3","","","","","","","","",""
"null","280945","SARL_v6","SARL_v6gtrfx0ug","629534afc0924e49e1464589","fixation","","","img/fixation.png","null","","","test","","","","","","","","","","","","","","","","","","","",""
"null","281757","SARL_v6","SARL_v6gtrfx0ug","629534afc0924e49e1464589","freq","","","img/orange_2bandit_a2.png","null","","70","test","0","","63","","","","square","circle","61","14","3","0.819672131147541","","","","","","","",""
"null","281929","SARL_v6","SARL_v6gtrfx0ug","629534afc0924e49e1464589","fixation","","","img/fixation.png","null","","","test","","","","","","","","","","","","","","","","","","","",""
"null","282739","SARL_v6","SARL_v6gtrfx0ug","629534afc0924e49e1464589","freq","","","img/orange_2bandit_a2.png","null","","70","test","0","","64","","","","square","circle","62","15","3","0.8064516129032258","","","","","","","",""
"null","282903","SARL_v6","SARL_v6gtrfx0ug","629534afc0924e49e1464589","fixation","","","img/fixation.png","null","","","test","","","","","","","","","","","","","","","","","","","",""
"334","283242","SARL_v6","SARL_v6gtrfx0ug","629534afc0924e49e1464589","freq","","","img/orange_2bandit_a2.png","70","","70","test","1","","65","","","","square","circle","63","16","3","0.8095238095238095","","","","","","","",""
"null","283714","SARL_v6","SARL_v6gtrfx0ug","629534afc0924e49e1464589","freq_resp","","","img/orange_2bandit_a.png","70","img/orange_2bandit_a.png","70","test","","","","","","","","","","","3","","","","","","","","",""
"null","283881","SARL_v6","SARL_v6gtrfx0ug","629534afc0924e49e1464589","fixation","","","img/fixation.png","null","","","test","","","","","","","","","","","","","","","","","","","",""
"612.9000000059605","284499","SARL_v6","SARL_v6gtrfx0ug","629534afc0924e49e1464589","freq","","","img/orange_2bandit_a2.png","70","","70","test","1","","66","","","","square","circle","64","17","3","0.8125","","","","","","","",""
"null","284692","SARL_v6","SARL_v6gtrfx0ug","629534afc0924e49e1464589","freq_resp","","","img/orange_2bandit_a.png","70","img/orange_2bandit_a.png","70","test","","","","","","","","","","","3","","","","","","","","",""
"null","284855","SARL_v6","SARL_v6gtrfx0ug","629534afc0924e49e1464589","fixation","","","img/fixation.png","null","","","test","","","","","","","","","","","","","","","","","","","",""
"785.8999999910593","285644","SARL_v6","SARL_v6gtrfx0ug","629534afc0924e49e1464589","freq","","","img/orange_2bandit_a2.png","70","","70","test","1","","67","","","","square","circle","65","18","3","0.8153846153846154","","","","","","","",""
"null","285672","SARL_v6","SARL_v6gtrfx0ug","629534afc0924e49e1464589","freq_resp","","","img/orange_2bandit_a.png","70","img/orange_2bandit_a.png","70","test","","","","","","","","","","","3","","","","","","","","",""
"null","285842","SARL_v6","SARL_v6gtrfx0ug","629534afc0924e49e1464589","fixation","","","img/fixation.png","null","","","test","","","","","","","","","","","","","","","","","","","",""
"null","286656","SARL_v6","SARL_v6gtrfx0ug","629534afc0924e49e1464589","freq","","","img/orange_2bandit_a2.png","null","","70","test","0","","68","","","","square","circle","66","19","3","0.803030303030303","","","","","","","",""
"null","286818","SARL_v6","SARL_v6gtrfx0ug","629534afc0924e49e1464589","fixation","","","img/fixation.png","null","","","test","","","","","","","","","","","","","","","","","","","",""
"288.40000000596046","287110","SARL_v6","SARL_v6gtrfx0ug","629534afc0924e49e1464589","freq","","","img/orange_2bandit_a2.png","70","","70","test","1","","69","","","","square","circle","67","20","3","0.8059701492537313","","","","","","","",""
"null","287635","SARL_v6","SARL_v6gtrfx0ug","629534afc0924e49e1464589","freq_resp","","","img/orange_2bandit_a.png","70","img/orange_2bandit_a.png","70","test","","","","","","","","","","","3","","","","","","","","",""
"null","287797","SARL_v6","SARL_v6gtrfx0ug","629534afc0924e49e1464589","fixation","","","img/fixation.png","null","","","test","","","","","","","","","","","","","","","","","","","",""
"700.3999999910593","288502","SARL_v6","SARL_v6gtrfx0ug","629534afc0924e49e1464589","freq","","","img/orange_2bandit_a2.png","70","","70","test","1","","70","","","","square","circle","68","21","3","0.8088235294117647","","","","","","","",""
"null","288608","SARL_v6","SARL_v6gtrfx0ug","629534afc0924e49e1464589","freq_resp","","","img/orange_2bandit_a.png","70","img/orange_2bandit_a.png","70","test","","","","","","","","","","","3","","","","","","","","",""
"null","288772","SARL_v6","SARL_v6gtrfx0ug","629534afc0924e49e1464589","fixation","","","img/fixation.png","null","","","test","","","","","","","","","","","","","","","","","","","",""
"759.8999999910593","289536","SARL_v6","SARL_v6gtrfx0ug","629534afc0924e49e1464589","rl","","","img/black_2bandit_a2.png","75","","0","test","","","71","","","-8","square","circle","","0","3","","75","-8","-4","-4","-8","circle","3","0"
"null","290299","SARL_v6","SARL_v6gtrfx0ug","629534afc0924e49e1464589","feedback","","","<div class=""verylowPoints""> -8 </div>","null","","na","test","","","NaN","","","","","","","","3","","75","","","","","","3",""
"630.7000000029802","290935","SARL_v6","SARL_v6gtrfx0ug","629534afc0924e49e1464589","freq","","","img/orange_2bandit_a2.png","70","","70","test","1","","72","","","","square","circle","69","1","4","0.8115942028985508","","","","","","","",""
"null","291111","SARL_v6","SARL_v6gtrfx0ug","629534afc0924e49e1464589","freq_resp","","","img/orange_2bandit_a.png","70","img/orange_2bandit_a.png","70","test","","","","","","","","","","","4","","","","","","","","",""
"null","291270","SARL_v6","SARL_v6gtrfx0ug","629534afc0924e49e1464589","fixation","","","img/fixation.png","null","","","test","","","","","","","","","","","","","","","","","","","",""
"null","292080","SARL_v6","SARL_v6gtrfx0ug","629534afc0924e49e1464589","freq","","","img/orange_2bandit_a2.png","null","","70","test","0","","73","","","","square","circle","70","2","4","0.8","","","","","","","",""
"null","292249","SARL_v6","SARL_v6gtrfx0ug","629534afc0924e49e1464589","fixation","","","img/fixation.png","null","","","test","","","","","","","","","","","","","","","","","","","",""
"null","293056","SARL_v6","SARL_v6gtrfx0ug","629534afc0924e49e1464589","freq","","","img/orange_2bandit_a2.png","null","","70","test","0","","74","","","","square","circle","71","3","4","0.7887323943661971","","","","","","","",""
"null","293225","SARL_v6","SARL_v6gtrfx0ug","629534afc0924e49e1464589","fixation","","","img/fixation.png","null","","","test","","","","","","","","","","","","","","","","","","","",""
"140.09999999403954","293369","SARL_v6","SARL_v6gtrfx0ug","629534afc0924e49e1464589","freq","","","img/orange_2bandit_a2.png","70","","70","test","1","","75","","","","square","circle","72","4","4","0.7916666666666666","","","","","","","",""
"null","294043","SARL_v6","SARL_v6gtrfx0ug","629534afc0924e49e1464589","freq_resp","","","img/orange_2bandit_a.png","70","img/orange_2bandit_a.png","70","test","","","","","","","","","","","4","","","","","","","","",""
"null","294205","SARL_v6","SARL_v6gtrfx0ug","629534afc0924e49e1464589","fixation","","","img/fixation.png","null","","","test","","","","","","","","","","","","","","","","","","","",""
"316.5","294525","SARL_v6","SARL_v6gtrfx0ug","629534afc0924e49e1464589","freq","","","img/orange_2bandit_a2.png","70","","70","test","1","","76","","","","square","circle","73","5","4","0.7945205479452054","","","","","","","",""
"null","295019","SARL_v6","SARL_v6gtrfx0ug","629534afc0924e49e1464589","freq_resp","","","img/orange_2bandit_a.png","70","img/orange_2bandit_a.png","70","test","","","","","","","","","","","4","","","","","","","","",""
"null","295176","SARL_v6","SARL_v6gtrfx0ug","629534afc0924e49e1464589","fixation","","","img/fixation.png","null","","","test","","","","","","","","","","","","","","","","","","","",""
"723.4000000059605","295903","SARL_v6","SARL_v6gtrfx0ug","629534afc0924e49e1464589","freq","","","img/orange_2bandit_a2.png","70","","70","test","1","","77","","","","square","circle","74","6","4","0.7972972972972973","","","","","","","",""
"null","295986","SARL_v6","SARL_v6gtrfx0ug","629534afc0924e49e1464589","freq_resp","","","img/orange_2bandit_a.png","70","img/orange_2bandit_a.png","70","test","","","","","","","","","","","4","","","","","","","","",""
"null","296151","SARL_v6","SARL_v6gtrfx0ug","629534afc0924e49e1464589","fixation","","","img/fixation.png","null","","","test","","","","","","","","","","","","","","","","","","","",""
"704.5","296860","SARL_v6","SARL_v6gtrfx0ug","629534afc0924e49e1464589","infreq","","","img/blue_2bandit_a2.png","68","","68","test","1","","78","","","","square","circle","75","7","4","0.8","","","","","","","",""
"null","296963","SARL_v6","SARL_v6gtrfx0ug","629534afc0924e49e1464589","infreq_resp","","","img/blue_2bandit_a.png","68","img/blue_2bandit_a.png","68","test","","","","","","","","","","","4","","","","","","","","",""
"null","297132","SARL_v6","SARL_v6gtrfx0ug","629534afc0924e49e1464589","fixation","","","img/fixation.png","null","","","test","","","","","","","","","","","","","","","","","","","",""
"551.3999999910593","297687","SARL_v6","SARL_v6gtrfx0ug","629534afc0924e49e1464589","freq","","","img/orange_2bandit_a2.png","70","","70","test","1","","79","","","","square","circle","76","8","4","0.8026315789473685","","","","","","","",""
"null","297943","SARL_v6","SARL_v6gtrfx0ug","629534afc0924e49e1464589","freq_resp","","","img/orange_2bandit_a.png","70","img/orange_2bandit_a.png","70","test","","","","","","","","","","","4","","","","","","","","",""
"null","298101","SARL_v6","SARL_v6gtrfx0ug","629534afc0924e49e1464589","fixation","","","img/fixation.png","null","","","test","","","","","","","","","","","","","","","","","","","",""
"576.0999999940395","298680","SARL_v6","SARL_v6gtrfx0ug","629534afc0924e49e1464589","freq","","","img/orange_2bandit_a2.png","70","","70","test","1","","80","","","","square","circle","77","9","4","0.8051948051948052","","","","","","","",""
"null","298922","SARL_v6","SARL_v6gtrfx0ug","629534afc0924e49e1464589","freq_resp","","","img/orange_2bandit_a.png","70","img/orange_2bandit_a.png","70","test","","","","","","","","","","","4","","","","","","","","",""
"null","299105","SARL_v6","SARL_v6gtrfx0ug","629534afc0924e49e1464589","fixation","","","img/fixation.png","null","","","test","","","","","","","","","","","","","","","","","","","",""
"656.5","299766","SARL_v6","SARL_v6gtrfx0ug","629534afc0924e49e1464589","freq","","","img/orange_2bandit_a2.png","70","","70","test","1","","81","","","","square","circle","78","10","4","0.8076923076923077","","","","","","","",""
"null","299926","SARL_v6","SARL_v6gtrfx0ug","629534afc0924e49e1464589","freq_resp","","","img/orange_2bandit_a.png","70","img/orange_2bandit_a.png","70","test","","","","","","","","","","","4","","","","","","","","",""
"null","300091","SARL_v6","SARL_v6gtrfx0ug","629534afc0924e49e1464589","fixation","","","img/fixation.png","null","","","test","","","","","","","","","","","","","","","","","","","",""
"580.0999999940395","300675","SARL_v6","SARL_v6gtrfx0ug","629534afc0924e49e1464589","freq","","","img/orange_2bandit_a2.png","70","","70","test","1","","82","","","","square","circle","79","11","4","0.810126582278481","","","","","","","",""
"null","300908","SARL_v6","SARL_v6gtrfx0ug","629534afc0924e49e1464589","freq_resp","","","img/orange_2bandit_a.png","70","img/orange_2bandit_a.png","70","test","","","","","","","","","","","4","","","","","","","","",""
"null","301073","SARL_v6","SARL_v6gtrfx0ug","629534afc0924e49e1464589","fixation","","","img/fixation.png","null","","","test","","","","","","","","","","","","","","","","","","","",""
"568.7000000029802","301645","SARL_v6","SARL_v6gtrfx0ug","629534afc0924e49e1464589","freq","","","img/orange_2bandit_a2.png","70","","70","test","1","","83","","","","square","circle","80","12","4","0.8125","","","","","","","",""
"null","301896","SARL_v6","SARL_v6gtrfx0ug","629534afc0924e49e1464589","freq_resp","","","img/orange_2bandit_a.png","70","img/orange_2bandit_a.png","70","test","","","","","","","","","","","4","","","","","","","","",""
"null","302064","SARL_v6","SARL_v6gtrfx0ug","629534afc0924e49e1464589","fixation","","","img/fixation.png","null","","","test","","","","","","","","","","","","","","","","","","","",""
"622","302689","SARL_v6","SARL_v6gtrfx0ug","629534afc0924e49e1464589","freq","","","img/orange_2bandit_a2.png","70","","70","test","1","","84","","","","square","circle","81","13","4","0.8148148148148148","","","","","","","",""
"null","302877","SARL_v6","SARL_v6gtrfx0ug","629534afc0924e49e1464589","freq_resp","","","img/orange_2bandit_a.png","70","img/orange_2bandit_a.png","70","test","","","","","","","","","","","4","","","","","","","","",""
"null","303034","SARL_v6","SARL_v6gtrfx0ug","629534afc0924e49e1464589","fixation","","","img/fixation.png","null","","","test","","","","","","","","","","","","","","","","","","","",""
"572.7999999970198","303610","SARL_v6","SARL_v6gtrfx0ug","629534afc0924e49e1464589","infreq","","","img/blue_2bandit_a2.png","68","","68","test","1","","85","","","","square","circle","82","14","4","0.8170731707317073","","","","","","","",""
"null","303856","SARL_v6","SARL_v6gtrfx0ug","629534afc0924e49e1464589","infreq_resp","","","img/blue_2bandit_a.png","68","img/blue_2bandit_a.png","68","test","","","","","","","","","","","4","","","","","","","","",""
"null","304016","SARL_v6","SARL_v6gtrfx0ug","629534afc0924e49e1464589","fixation","","","img/fixation.png","null","","","test","","","","","","","","","","","","","","","","","","","",""
"504.5","304524","SARL_v6","SARL_v6gtrfx0ug","629534afc0924e49e1464589","freq","","","img/orange_2bandit_a2.png","70","","70","test","1","","86","","","","square","circle","83","15","4","0.8192771084337349","","","","","","","",""
"null","304837","SARL_v6","SARL_v6gtrfx0ug","629534afc0924e49e1464589","freq_resp","","","img/orange_2bandit_a.png","70","img/orange_2bandit_a.png","70","test","","","","","","","","","","","4","","","","","","","","",""
"null","305011","SARL_v6","SARL_v6gtrfx0ug","629534afc0924e49e1464589","fixation","","","img/fixation.png","null","","","test","","","","","","","","","","","","","","","","","","","",""
"531.7999999970198","305546","SARL_v6","SARL_v6gtrfx0ug","629534afc0924e49e1464589","freq","","","img/orange_2bandit_a2.png","70","","70","test","1","","87","","","","square","circle","84","16","4","0.8214285714285714","","","","","","","",""
"null","305820","SARL_v6","SARL_v6gtrfx0ug","629534afc0924e49e1464589","freq_resp","","","img/orange_2bandit_a.png","70","img/orange_2bandit_a.png","70","test","","","","","","","","","","","4","","","","","","","","",""
"null","306001","SARL_v6","SARL_v6gtrfx0ug","629534afc0924e49e1464589","fixation","","","img/fixation.png","null","","","test","","","","","","","","","","","","","","","","","","","",""
"479.3999999910593","306484","SARL_v6","SARL_v6gtrfx0ug","629534afc0924e49e1464589","freq","","","img/orange_2bandit_a2.png","70","","70","test","1","","88","","","","square","circle","85","17","4","0.8235294117647058","","","","","","","",""
"null","306821","SARL_v6","SARL_v6gtrfx0ug","629534afc0924e49e1464589","freq_resp","","","img/orange_2bandit_a.png","70","img/orange_2bandit_a.png","70","test","","","","","","","","","","","4","","","","","","","","",""
"null","306983","SARL_v6","SARL_v6gtrfx0ug","629534afc0924e49e1464589","fixation","","","img/fixation.png","null","","","test","","","","","","","","","","","","","","","","","","","",""
"519.2999999970198","307506","SARL_v6","SARL_v6gtrfx0ug","629534afc0924e49e1464589","freq","","","img/orange_2bandit_a2.png","70","","70","test","1","","89","","","","square","circle","86","18","4","0.8255813953488372","","","","","","","",""
"null","307794","SARL_v6","SARL_v6gtrfx0ug","629534afc0924e49e1464589","freq_resp","","","img/orange_2bandit_a.png","70","img/orange_2bandit_a.png","70","test","","","","","","","","","","","4","","","","","","","","",""
"null","307966","SARL_v6","SARL_v6gtrfx0ug","629534afc0924e49e1464589","fixation","","","img/fixation.png","null","","","test","","","","","","","","","","","","","","","","","","","",""
"462.59999999403954","308434","SARL_v6","SARL_v6gtrfx0ug","629534afc0924e49e1464589","freq","","","img/orange_2bandit_a2.png","70","","70","test","1","","90","","","","square","circle","87","19","4","0.8275862068965517","","","","","","","",""
"null","308776","SARL_v6","SARL_v6gtrfx0ug","629534afc0924e49e1464589","freq_resp","","","img/orange_2bandit_a.png","70","img/orange_2bandit_a.png","70","test","","","","","","","","","","","4","","","","","","","","",""
"null","308946","SARL_v6","SARL_v6gtrfx0ug","629534afc0924e49e1464589","fixation","","","img/fixation.png","null","","","test","","","","","","","","","","","","","","","","","","","",""
"419.69999998807907","309369","SARL_v6","SARL_v6gtrfx0ug","629534afc0924e49e1464589","freq","","","img/orange_2bandit_a2.png","70","","70","test","1","","91","","","","square","circle","88","20","4","0.8295454545454546","","","","","","","",""
"null","309761","SARL_v6","SARL_v6gtrfx0ug","629534afc0924e49e1464589","freq_resp","","","img/orange_2bandit_a.png","70","img/orange_2bandit_a.png","70","test","","","","","","","","","","","4","","","","","","","","",""
"null","309927","SARL_v6","SARL_v6gtrfx0ug","629534afc0924e49e1464589","fixation","","","img/fixation.png","null","","","test","","","","","","","","","","","","","","","","","","","",""
"381.79999999701977","310311","SARL_v6","SARL_v6gtrfx0ug","629534afc0924e49e1464589","freq","","","img/orange_2bandit_a2.png","70","","70","test","1","","92","","","","square","circle","89","21","4","0.8314606741573034","","","","","","","",""
"null","310768","SARL_v6","SARL_v6gtrfx0ug","629534afc0924e49e1464589","freq_resp","","","img/orange_2bandit_a.png","70","img/orange_2bandit_a.png","70","test","","","","","","","","","","","4","","","","","","","","",""
"null","310927","SARL_v6","SARL_v6gtrfx0ug","629534afc0924e49e1464589","fixation","","","img/fixation.png","null","","","test","","","","","","","","","","","","","","","","","","","",""
"654.0999999940395","311584","SARL_v6","SARL_v6gtrfx0ug","629534afc0924e49e1464589","rl","","","img/black_2bandit_a2.png","75","","0","test","","","93","","","-12","square","circle","","0","4","","75","-12","0","0","-12","circle","4","0"
"null","312349","SARL_v6","SARL_v6gtrfx0ug","629534afc0924e49e1464589","feedback","","","<div class=""verylowPoints""> -12 </div>","null","","na","test","","","NaN","","","","","","","","4","","75","","","","","","4",""
"800.5","313153","SARL_v6","SARL_v6gtrfx0ug","629534afc0924e49e1464589","freq","","","img/orange_2bandit_a2.png","70","","70","test","1","","94","","","","square","circle","90","1","5","0.8333333333333334","","","","","","","",""
"null","313313","SARL_v6","SARL_v6gtrfx0ug","629534afc0924e49e1464589","fixation","","","img/fixation.png","null","","","test","","","","","","","","","","","","","","","","","","","",""
"null","314125","SARL_v6","SARL_v6gtrfx0ug","629534afc0924e49e1464589","freq","","","img/orange_2bandit_a2.png","null","","70","test","0","","95","","","","square","circle","91","2","5","0.8241758241758241","","","","","","","",""
"null","314284","SARL_v6","SARL_v6gtrfx0ug","629534afc0924e49e1464589","fixation","","","img/fixation.png","null","","","test","","","","","","","","","","","","","","","","","","","",""
"375.5","314663","SARL_v6","SARL_v6gtrfx0ug","629534afc0924e49e1464589","freq","","","img/orange_2bandit_a2.png","70","","70","test","1","","96","","","","square","circle","92","3","5","0.8260869565217391","","","","","","","",""
"null","315101","SARL_v6","SARL_v6gtrfx0ug","629534afc0924e49e1464589","freq_resp","","","img/orange_2bandit_a.png","70","img/orange_2bandit_a.png","70","test","","","","","","","","","","","5","","","","","","","","",""
"null","315257","SARL_v6","SARL_v6gtrfx0ug","629534afc0924e49e1464589","fixation","","","img/fixation.png","null","","","test","","","","","","","","","","","","","","","","","","","",""
"null","316068","SARL_v6","SARL_v6gtrfx0ug","629534afc0924e49e1464589","freq","","","img/orange_2bandit_a2.png","null","","70","test","0","","97","","","","square","circle","93","4","5","0.8172043010752689","","","","","","","",""
"null","316236","SARL_v6","SARL_v6gtrfx0ug","629534afc0924e49e1464589","fixation","","","img/fixation.png","null","","","test","","","","","","","","","","","","","","","","","","","",""
"826.5","317066","SARL_v6","SARL_v6gtrfx0ug","629534afc0924e49e1464589","infreq","","","img/blue_2bandit_a2.png","68","","68","test","1","","98","","","","square","circle","94","5","5","0.8191489361702128","","","","","","","",""
"null","317236","SARL_v6","SARL_v6gtrfx0ug","629534afc0924e49e1464589","fixation","","","img/fixation.png","null","","","test","","","","","","","","","","","","","","","","","","","",""
"609.0999999940395","317849","SARL_v6","SARL_v6gtrfx0ug","629534afc0924e49e1464589","infreq","","","img/blue_2bandit_a2.png","68","","68","test","1","","99","","","","square","circle","95","6","5","0.8210526315789474","","","","","","","",""
"null","318046","SARL_v6","SARL_v6gtrfx0ug","629534afc0924e49e1464589","infreq_resp","","","img/blue_2bandit_a.png","68","img/blue_2bandit_a.png","68","test","","","","","","","","","","","5","","","","","","","","",""
"null","318221","SARL_v6","SARL_v6gtrfx0ug","629534afc0924e49e1464589","fixation","","","img/fixation.png","null","","","test","","","","","","","","","","","","","","","","","","","",""
"737.5999999940395","318962","SARL_v6","SARL_v6gtrfx0ug","629534afc0924e49e1464589","freq","","","img/orange_2bandit_a2.png","70","","70","test","1","","100","","","","square","circle","96","7","5","0.8229166666666666","","","","","","","",""
"null","319045","SARL_v6","SARL_v6gtrfx0ug","629534afc0924e49e1464589","freq_resp","","","img/orange_2bandit_a.png","70","img/orange_2bandit_a.png","70","test","","","","","","","","","","","5","","","","","","","","",""
"null","319207","SARL_v6","SARL_v6gtrfx0ug","629534afc0924e49e1464589","fixation","","","img/fixation.png","null","","","test","","","","","","","","","","","","","","","","","","","",""
"527.0999999940395","319737","SARL_v6","SARL_v6gtrfx0ug","629534afc0924e49e1464589","freq","","","img/orange_2bandit_a2.png","70","","70","test","1","","101","","","","square","circle","97","8","5","0.8247422680412371","","","","","","","",""
"null","320028","SARL_v6","SARL_v6gtrfx0ug","629534afc0924e49e1464589","freq_resp","","","img/orange_2bandit_a.png","70","img/orange_2bandit_a.png","70","test","","","","","","","","","","","5","","","","","","","","",""
"null","320197","SARL_v6","SARL_v6gtrfx0ug","629534afc0924e49e1464589","fixation","","","img/fixation.png","null","","","test","","","","","","","","","","","","","","","","","","","",""
"393.59999999403954","320594","SARL_v6","SARL_v6gtrfx0ug","629534afc0924e49e1464589","freq","","","img/orange_2bandit_a2.png","70","","70","test","1","","102","","","","square","circle","98","9","5","0.826530612244898","","","","","","","",""
"null","321015","SARL_v6","SARL_v6gtrfx0ug","629534afc0924e49e1464589","freq_resp","","","img/orange_2bandit_a.png","70","img/orange_2bandit_a.png","70","test","","","","","","","","","","","5","","","","","","","","",""
"null","321186","SARL_v6","SARL_v6gtrfx0ug","629534afc0924e49e1464589","fixation","","","img/fixation.png","null","","","test","","","","","","","","","","","","","","","","","","","",""
"359.20000000298023","321549","SARL_v6","SARL_v6gtrfx0ug","629534afc0924e49e1464589","freq","","","img/orange_2bandit_a2.png","70","","70","test","1","","103","","","","square","circle","99","10","5","0.8282828282828283","","","","","","","",""
"null","321996","SARL_v6","SARL_v6gtrfx0ug","629534afc0924e49e1464589","freq_resp","","","img/orange_2bandit_a.png","70","img/orange_2bandit_a.png","70","test","","","","","","","","","","","5","","","","","","","","",""
"null","322175","SARL_v6","SARL_v6gtrfx0ug","629534afc0924e49e1464589","fixation","","","img/fixation.png","null","","","test","","","","","","","","","","","","","","","","","","","",""
"334.70000000298023","322513","SARL_v6","SARL_v6gtrfx0ug","629534afc0924e49e1464589","freq","","","img/orange_2bandit_a2.png","70","","70","test","1","","104","","","","square","circle","100","11","5","0.83","","","","","","","",""
"null","322984","SARL_v6","SARL_v6gtrfx0ug","629534afc0924e49e1464589","freq_resp","","","img/orange_2bandit_a.png","70","img/orange_2bandit_a.png","70","test","","","","","","","","","","","5","","","","","","","","",""
"null","323139","SARL_v6","SARL_v6gtrfx0ug","629534afc0924e49e1464589","fixation","","","img/fixation.png","null","","","test","","","","","","","","","","","","","","","","","","","",""
"340.90000000596046","323484","SARL_v6","SARL_v6gtrfx0ug","629534afc0924e49e1464589","freq","","","img/orange_2bandit_a2.png","70","","70","test","1","","105","","","","square","circle","101","12","5","0.8316831683168316","","","","","","","",""
"null","323962","SARL_v6","SARL_v6gtrfx0ug","629534afc0924e49e1464589","freq_resp","","","img/orange_2bandit_a.png","70","img/orange_2bandit_a.png","70","test","","","","","","","","","","","5","","","","","","","","",""
"null","324134","SARL_v6","SARL_v6gtrfx0ug","629534afc0924e49e1464589","fixation","","","img/fixation.png","null","","","test","","","","","","","","","","","","","","","","","","","",""
"325.8999999910593","324464","SARL_v6","SARL_v6gtrfx0ug","629534afc0924e49e1464589","freq","","","img/orange_2bandit_a2.png","70","","70","test","1","","106","","","","square","circle","102","13","5","0.8333333333333334","","","","","","","",""
"null","324956","SARL_v6","SARL_v6gtrfx0ug","629534afc0924e49e1464589","freq_resp","","","img/orange_2bandit_a.png","70","img/orange_2bandit_a.png","70","test","","","","","","","","","","","5","","","","","","","","",""
"null","325128","SARL_v6","SARL_v6gtrfx0ug","629534afc0924e49e1464589","fixation","","","img/fixation.png","null","","","test","","","","","","","","","","","","","","","","","","","",""
"301.20000000298023","325433","SARL_v6","SARL_v6gtrfx0ug","629534afc0924e49e1464589","freq","","","img/orange_2bandit_a2.png","70","","70","test","1","","107","","","","square","circle","103","14","5","0.8349514563106796","","","","","","","",""
"null","325943","SARL_v6","SARL_v6gtrfx0ug","629534afc0924e49e1464589","freq_resp","","","img/orange_2bandit_a.png","70","img/orange_2bandit_a.png","70","test","","","","","","","","","","","5","","","","","","","","",""
"null","326099","SARL_v6","SARL_v6gtrfx0ug","629534afc0924e49e1464589","fixation","","","img/fixation.png","null","","","test","","","","","","","","","","","","","","","","","","","",""
"621","326725","SARL_v6","SARL_v6gtrfx0ug","629534afc0924e49e1464589","freq","","","img/orange_2bandit_a2.png","70","","70","test","1","","108","","","","square","circle","104","15","5","0.8365384615384616","","","","","","","",""
"null","326916","SARL_v6","SARL_v6gtrfx0ug","629534afc0924e49e1464589","freq_resp","","","img/orange_2bandit_a.png","70","img/orange_2bandit_a.png","70","test","","","","","","","","","","","5","","","","","","","","",""
"null","327081","SARL_v6","SARL_v6gtrfx0ug","629534afc0924e49e1464589","fixation","","","img/fixation.png","null","","","test","","","","","","","","","","","","","","","","","","","",""
"458.19999998807907","327543","SARL_v6","SARL_v6gtrfx0ug","629534afc0924e49e1464589","freq","","","img/orange_2bandit_a2.png","70","","70","test","1","","109","","","","square","circle","105","16","5","0.8380952380952381","","","","","","","",""
"null","327893","SARL_v6","SARL_v6gtrfx0ug","629534afc0924e49e1464589","freq_resp","","","img/orange_2bandit_a.png","70","img/orange_2bandit_a.png","70","test","","","","","","","","","","","5","","","","","","","","",""
"null","328065","SARL_v6","SARL_v6gtrfx0ug","629534afc0924e49e1464589","fixation","","","img/fixation.png","null","","","test","","","","","","","","","","","","","","","","","","","",""
"328.8999999910593","328397","SARL_v6","SARL_v6gtrfx0ug","629534afc0924e49e1464589","freq","","","img/orange_2bandit_a2.png","70","","70","test","1","","110","","","","square","circle","106","17","5","0.839622641509434","","","","","","","",""
"null","328880","SARL_v6","SARL_v6gtrfx0ug","629534afc0924e49e1464589","freq_resp","","","img/orange_2bandit_a.png","70","img/orange_2bandit_a.png","70","test","","","","","","","","","","","5","","","","","","","","",""
"null","329042","SARL_v6","SARL_v6gtrfx0ug","629534afc0924e49e1464589","fixation","","","img/fixation.png","null","","","test","","","","","","","","","","","","","","","","","","","",""
"628.4000000059605","329674","SARL_v6","SARL_v6gtrfx0ug","629534afc0924e49e1464589","freq","","","img/orange_2bandit_a2.png","70","","70","test","1","","111","","","","square","circle","107","18","5","0.8411214953271028","","","","","","","",""
"null","329865","SARL_v6","SARL_v6gtrfx0ug","629534afc0924e49e1464589","freq_resp","","","img/orange_2bandit_a.png","70","img/orange_2bandit_a.png","70","test","","","","","","","","","","","5","","","","","","","","",""
"null","330030","SARL_v6","SARL_v6gtrfx0ug","629534afc0924e49e1464589","fixation","","","img/fixation.png","null","","","test","","","","","","","","","","","","","","","","","","","",""
"592.5999999940395","330627","SARL_v6","SARL_v6gtrfx0ug","629534afc0924e49e1464589","freq","","","img/orange_2bandit_a2.png","70","","70","test","1","","112","","","","square","circle","108","19","5","0.8425925925925926","","","","","","","",""
"null","330844","SARL_v6","SARL_v6gtrfx0ug","629534afc0924e49e1464589","freq_resp","","","img/orange_2bandit_a.png","70","img/orange_2bandit_a.png","70","test","","","","","","","","","","","5","","","","","","","","",""
"null","331015","SARL_v6","SARL_v6gtrfx0ug","629534afc0924e49e1464589","fixation","","","img/fixation.png","null","","","test","","","","","","","","","","","","","","","","","","","",""
"397.29999999701977","331415","SARL_v6","SARL_v6gtrfx0ug","629534afc0924e49e1464589","freq","","","img/orange_2bandit_a2.png","70","","70","test","1","","113","","","","square","circle","109","20","5","0.8440366972477065","","","","","","","",""
"null","331829","SARL_v6","SARL_v6gtrfx0ug","629534afc0924e49e1464589","freq_resp","","","img/orange_2bandit_a.png","70","img/orange_2bandit_a.png","70","test","","","","","","","","","","","5","","","","","","","","",""
"null","331995","SARL_v6","SARL_v6gtrfx0ug","629534afc0924e49e1464589","fixation","","","img/fixation.png","null","","","test","","","","","","","","","","","","","","","","","","","",""
"337.6000000089407","332336","SARL_v6","SARL_v6gtrfx0ug","629534afc0924e49e1464589","freq","","","img/orange_2bandit_a2.png","70","","70","test","1","","114","","","","square","circle","110","21","5","0.8454545454545455","","","","","","","",""
"null","332811","SARL_v6","SARL_v6gtrfx0ug","629534afc0924e49e1464589","freq_resp","","","img/orange_2bandit_a.png","70","img/orange_2bandit_a.png","70","test","","","","","","","","","","","5","","","","","","","","",""
"null","332992","SARL_v6","SARL_v6gtrfx0ug","629534afc0924e49e1464589","fixation","","","img/fixation.png","null","","","test","","","","","","","","","","","","","","","","","","","",""
"334.69999998807907","333330","SARL_v6","SARL_v6gtrfx0ug","629534afc0924e49e1464589","freq","","","img/orange_2bandit_a2.png","70","","70","test","1","","115","","","","square","circle","111","22","5","0.8468468468468469","","","","","","","",""
"null","333799","SARL_v6","SARL_v6gtrfx0ug","629534afc0924e49e1464589","freq_resp","","","img/orange_2bandit_a.png","70","img/orange_2bandit_a.png","70","test","","","","","","","","","","","5","","","","","","","","",""
"null","333969","SARL_v6","SARL_v6gtrfx0ug","629534afc0924e49e1464589","fixation","","","img/fixation.png","null","","","test","","","","","","","","","","","","","","","","","","","",""
"594.5999999940395","334567","SARL_v6","SARL_v6gtrfx0ug","629534afc0924e49e1464589","freq","","","img/orange_2bandit_a2.png","70","","70","test","1","","116","","","","square","circle","112","23","5","0.8482142857142857","","","","","","","",""
"null","334788","SARL_v6","SARL_v6gtrfx0ug","629534afc0924e49e1464589","freq_resp","","","img/orange_2bandit_a.png","70","img/orange_2bandit_a.png","70","test","","","","","","","","","","","5","","","","","","","","",""
"null","334944","SARL_v6","SARL_v6gtrfx0ug","629534afc0924e49e1464589","fixation","","","img/fixation.png","null","","","test","","","","","","","","","","","","","","","","","","","",""
"586.7999999970198","335534","SARL_v6","SARL_v6gtrfx0ug","629534afc0924e49e1464589","infreq","","","img/blue_2bandit_a2.png","68","","68","test","1","","117","","","","square","circle","113","24","5","0.8495575221238938","","","","","","","",""
"null","335755","SARL_v6","SARL_v6gtrfx0ug","629534afc0924e49e1464589","infreq_resp","","","img/blue_2bandit_a.png","68","img/blue_2bandit_a.png","68","test","","","","","","","","","","","5","","","","","","","","",""
"null","335915","SARL_v6","SARL_v6gtrfx0ug","629534afc0924e49e1464589","fixation","","","img/fixation.png","null","","","test","","","","","","","","","","","","","","","","","","","",""
"493.5","336412","SARL_v6","SARL_v6gtrfx0ug","629534afc0924e49e1464589","freq","","","img/orange_2bandit_a2.png","70","","70","test","1","","118","","","","square","circle","114","25","5","0.8508771929824561","","","","","","","",""
"null","336727","SARL_v6","SARL_v6gtrfx0ug","629534afc0924e49e1464589","freq_resp","","","img/orange_2bandit_a.png","70","img/orange_2bandit_a.png","70","test","","","","","","","","","","","5","","","","","","","","",""
"null","336883","SARL_v6","SARL_v6gtrfx0ug","629534afc0924e49e1464589","fixation","","","img/fixation.png","null","","","test","","","","","","","","","","","","","","","","","","","",""
"689.6000000089407","337575","SARL_v6","SARL_v6gtrfx0ug","629534afc0924e49e1464589","rl","","","img/black_2bandit_a2.png","75","","0","test","","","119","","","-7","square","circle","","0","5","","75","-7","4","4","-7","circle","5","0"
"null","338331","SARL_v6","SARL_v6gtrfx0ug","629534afc0924e49e1464589","feedback","","","<div class=""verylowPoints""> -7 </div>","null","","na","test","","","NaN","","","","","","","","5","","75","","","","","","5",""
"667.5","339003","SARL_v6","SARL_v6gtrfx0ug","629534afc0924e49e1464589","freq","","","img/orange_2bandit_a2.png","70","","70","test","1","","120","","","","square","circle","115","1","6","0.8521739130434782","","","","","","","",""
"null","339144","SARL_v6","SARL_v6gtrfx0ug","629534afc0924e49e1464589","freq_resp","","","img/orange_2bandit_a.png","70","img/orange_2bandit_a.png","70","test","","","","","","","","","","","6","","","","","","","","",""
"null","339315","SARL_v6","SARL_v6gtrfx0ug","629534afc0924e49e1464589","fixation","","","img/fixation.png","null","","","test","","","","","","","","","","","","","","","","","","","",""
"521.7999999970198","339842","SARL_v6","SARL_v6gtrfx0ug","629534afc0924e49e1464589","freq","","","img/orange_2bandit_a2.png","70","","70","test","1","","121","","","","square","circle","116","2","6","0.853448275862069","","","","","","","",""
"null","340132","SARL_v6","SARL_v6gtrfx0ug","629534afc0924e49e1464589","freq_resp","","","img/orange_2bandit_a.png","70","img/orange_2bandit_a.png","70","test","","","","","","","","","","","6","","","","","","","","",""
"null","340305","SARL_v6","SARL_v6gtrfx0ug","629534afc0924e49e1464589","fixation","","","img/fixation.png","null","","","test","","","","","","","","","","","","","","","","","","","",""
"773.6000000089407","341082","SARL_v6","SARL_v6gtrfx0ug","629534afc0924e49e1464589","freq","","","img/orange_2bandit_a2.png","70","","70","test","1","","122","","","","square","circle","117","3","6","0.8547008547008547","","","","","","","",""
"null","341124","SARL_v6","SARL_v6gtrfx0ug","629534afc0924e49e1464589","freq_resp","","","img/orange_2bandit_a.png","70","img/orange_2bandit_a.png","70","test","","","","","","","","","","","6","","","","","","","","",""
"null","341295","SARL_v6","SARL_v6gtrfx0ug","629534afc0924e49e1464589","fixation","","","img/fixation.png","null","","","test","","","","","","","","","","","","","","","","","","","",""
"null","342101","SARL_v6","SARL_v6gtrfx0ug","629534afc0924e49e1464589","freq","","","img/orange_2bandit_a2.png","null","","70","test","0","","123","","","","square","circle","118","4","6","0.847457627118644","","","","","","","",""
"null","342263","SARL_v6","SARL_v6gtrfx0ug","629534afc0924e49e1464589","fixation","","","img/fixation.png","null","","","test","","","","","","","","","","","","","","","","","","","",""
"99.79999999701977","342366","SARL_v6","SARL_v6gtrfx0ug","629534afc0924e49e1464589","freq","","","img/orange_2bandit_a2.png","70","","70","test","1","","124","","","","square","circle","119","5","6","0.8487394957983193","","","","","","","",""
"null","343081","SARL_v6","SARL_v6gtrfx0ug","629534afc0924e49e1464589","freq_resp","","","img/orange_2bandit_a.png","70","img/orange_2bandit_a.png","70","test","","","","","","","","","","","6","","","","","","","","",""
"null","343245","SARL_v6","SARL_v6gtrfx0ug","629534afc0924e49e1464589","fixation","","","img/fixation.png","null","","","test","","","","","","","","","","","","","","","","","","","",""
"109.79999999701977","343358","SARL_v6","SARL_v6gtrfx0ug","629534afc0924e49e1464589","freq","","","img/orange_2bandit_a2.png","70","","70","test","1","","125","","","","square","circle","120","6","6","0.85","","","","","","","",""
"null","344067","SARL_v6","SARL_v6gtrfx0ug","629534afc0924e49e1464589","freq_resp","","","img/orange_2bandit_a.png","70","img/orange_2bandit_a.png","70","test","","","","","","","","","","","6","","","","","","","","",""
"null","344236","SARL_v6","SARL_v6gtrfx0ug","629534afc0924e49e1464589","fixation","","","img/fixation.png","null","","","test","","","","","","","","","","","","","","","","","","","",""
"290.79999999701977","344530","SARL_v6","SARL_v6gtrfx0ug","629534afc0924e49e1464589","freq","","","img/orange_2bandit_a2.png","70","","70","test","1","","126","","","","square","circle","121","7","6","0.8512396694214877","","","","","","","",""
"null","345042","SARL_v6","SARL_v6gtrfx0ug","629534afc0924e49e1464589","freq_resp","","","img/orange_2bandit_a.png","70","img/orange_2bandit_a.png","70","test","","","","","","","","","","","6","","","","","","","","",""
"null","345210","SARL_v6","SARL_v6gtrfx0ug","629534afc0924e49e1464589","fixation","","","img/fixation.png","null","","","test","","","","","","","","","","","","","","","","","","","",""
"350.70000000298023","345564","SARL_v6","SARL_v6gtrfx0ug","629534afc0924e49e1464589","freq","","","img/orange_2bandit_a2.png","70","","70","test","1","","127","","","","square","circle","122","8","6","0.8524590163934426","","","","","","","",""
"null","346023","SARL_v6","SARL_v6gtrfx0ug","629534afc0924e49e1464589","freq_resp","","","img/orange_2bandit_a.png","70","img/orange_2bandit_a.png","70","test","","","","","","","","","","","6","","","","","","","","",""
"null","346182","SARL_v6","SARL_v6gtrfx0ug","629534afc0924e49e1464589","fixation","","","img/fixation.png","null","","","test","","","","","","","","","","","","","","","","","","","",""
"577","346762","SARL_v6","SARL_v6gtrfx0ug","629534afc0924e49e1464589","infreq","","","img/blue_2bandit_a2.png","68","","68","test","1","","128","","","","square","circle","123","9","6","0.8536585365853658","","","","","","","",""
"null","347004","SARL_v6","SARL_v6gtrfx0ug","629534afc0924e49e1464589","infreq_resp","","","img/blue_2bandit_a.png","68","img/blue_2bandit_a.png","68","test","","","","","","","","","","","6","","","","","","","","",""
"null","347163","SARL_v6","SARL_v6gtrfx0ug","629534afc0924e49e1464589","fixation","","","img/fixation.png","null","","","test","","","","","","","","","","","","","","","","","","","",""
"699.2000000029802","347866","SARL_v6","SARL_v6gtrfx0ug","629534afc0924e49e1464589","freq","","","img/orange_2bandit_a2.png","70","","70","test","1","","129","","","","square","circle","124","10","6","0.8548387096774194","","","","","","","",""
"null","347982","SARL_v6","SARL_v6gtrfx0ug","629534afc0924e49e1464589","freq_resp","","","img/orange_2bandit_a.png","70","img/orange_2bandit_a.png","70","test","","","","","","","","","","","6","","","","","","","","",""
"null","348142","SARL_v6","SARL_v6gtrfx0ug","629534afc0924e49e1464589","fixation","","","img/fixation.png","null","","","test","","","","","","","","","","","","","","","","","","","",""
"773.3999999910593","348918","SARL_v6","SARL_v6gtrfx0ug","629534afc0924e49e1464589","freq","","","img/orange_2bandit_a2.png","70","","70","test","1","","130","","","","square","circle","125","11","6","0.856","","","","","","","",""
"null","348956","SARL_v6","SARL_v6gtrfx0ug","629534afc0924e49e1464589","freq_resp","","","img/orange_2bandit_a.png","70","img/orange_2bandit_a.png","70","test","","","","","","","","","","","6","","","","","","","","",""
"null","349127","SARL_v6","SARL_v6gtrfx0ug","629534afc0924e49e1464589","fixation","","","img/fixation.png","null","","","test","","","","","","","","","","","","","","","","","","","",""
"606.5","349737","SARL_v6","SARL_v6gtrfx0ug","629534afc0924e49e1464589","freq","","","img/orange_2bandit_a2.png","70","","70","test","1","","131","","","","square","circle","126","12","6","0.8571428571428571","","","","","","","",""
"null","349940","SARL_v6","SARL_v6gtrfx0ug","629534afc0924e49e1464589","freq_resp","","","img/orange_2bandit_a.png","70","img/orange_2bandit_a.png","70","test","","","","","","","","","","","6","","","","","","","","",""
"null","350113","SARL_v6","SARL_v6gtrfx0ug","629534afc0924e49e1464589","fixation","","","img/fixation.png","null","","","test","","","","","","","","","","","","","","","","","","","",""
"489.79999999701977","350607","SARL_v6","SARL_v6gtrfx0ug","629534afc0924e49e1464589","infreq","","","img/blue_2bandit_a2.png","68","","68","test","1","","132","","","","square","circle","127","13","6","0.8582677165354331","","","","","","","",""
"null","350929","SARL_v6","SARL_v6gtrfx0ug","629534afc0924e49e1464589","infreq_resp","","","img/blue_2bandit_a.png","68","img/blue_2bandit_a.png","68","test","","","","","","","","","","","6","","","","","","","","",""
"null","351098","SARL_v6","SARL_v6gtrfx0ug","629534afc0924e49e1464589","fixation","","","img/fixation.png","null","","","test","","","","","","","","","","","","","","","","","","","",""
"431.79999999701977","351533","SARL_v6","SARL_v6gtrfx0ug","629534afc0924e49e1464589","freq","","","img/orange_2bandit_a2.png","70","","70","test","1","","133","","","","square","circle","128","14","6","0.859375","","","","","","","",""
"null","351908","SARL_v6","SARL_v6gtrfx0ug","629534afc0924e49e1464589","freq_resp","","","img/orange_2bandit_a.png","70","img/orange_2bandit_a.png","70","test","","","","","","","","","","","6","","","","","","","","",""
"null","352075","SARL_v6","SARL_v6gtrfx0ug","629534afc0924e49e1464589","fixation","","","img/fixation.png","null","","","test","","","","","","","","","","","","","","","","","","","",""
"392.3999999910593","352471","SARL_v6","SARL_v6gtrfx0ug","629534afc0924e49e1464589","freq","","","img/orange_2bandit_a2.png","70","","70","test","1","","134","","","","square","circle","129","15","6","0.8604651162790697","","","","","","","",""
"null","352895","SARL_v6","SARL_v6gtrfx0ug","629534afc0924e49e1464589","freq_resp","","","img/orange_2bandit_a.png","70","img/orange_2bandit_a.png","70","test","","","","","","","","","","","6","","","","","","","","",""
"null","353057","SARL_v6","SARL_v6gtrfx0ug","629534afc0924e49e1464589","fixation","","","img/fixation.png","null","","","test","","","","","","","","","","","","","","","","","","","",""
"331","353392","SARL_v6","SARL_v6gtrfx0ug","629534afc0924e49e1464589","freq","","","img/orange_2bandit_a2.png","70","","70","test","1","","135","","","","square","circle","130","16","6","0.8615384615384616","","","","","","","",""
"null","353865","SARL_v6","SARL_v6gtrfx0ug","629534afc0924e49e1464589","freq_resp","","","img/orange_2bandit_a.png","70","img/orange_2bandit_a.png","70","test","","","","","","","","","","","6","","","","","","","","",""
"null","354041","SARL_v6","SARL_v6gtrfx0ug","629534afc0924e49e1464589","fixation","","","img/fixation.png","null","","","test","","","","","","","","","","","","","","","","","","","",""
"496.30000001192093","354540","SARL_v6","SARL_v6gtrfx0ug","629534afc0924e49e1464589","infreq","","","img/blue_2bandit_a2.png","68","","68","test","1","","136","","","","square","circle","131","17","6","0.8625954198473282","","","","","","","",""
"null","354864","SARL_v6","SARL_v6gtrfx0ug","629534afc0924e49e1464589","infreq_resp","","","img/blue_2bandit_a.png","68","img/blue_2bandit_a.png","68","test","","","","","","","","","","","6","","","","","","","","",""
