"rt","time_elapsed","expId","subject","prolificID","trialType","rlType","attType","stimulus","key_press","stim","corrresp","phase","corr","pracCounter","trialNum","rewardOne","rewardTwo","reward","bandOne","bandTwo","attentionNum","attentionRunNum","blockNum","performance","bandChosen","circleVal","squareVal","bandOneVal","bandTwoVal","shapeChosen","rlNum","badFlag"
"2516","2531","SARL_v6","SARL_v6tpz1eeap","5f63d462fb4c4713b69d4bb7","","","","","","","","","","","","","","","","","","","","","","","","","","","",""
"","4673","SARL_v6","SARL_v6tpz1eeap","5f63d462fb4c4713b69d4bb7","fullscreen","fullscreen","fullscreen","","","","","","","","","","","","","","","","","","","","","","","","",""
"36393","41072","SARL_v6","SARL_v6tpz1eeap","5f63d462fb4c4713b69d4bb7","","","","","","","","","","","","","","","","","","","","","","","","","","","",""
"null","41890","SARL_v6","SARL_v6tpz1eeap","5f63d462fb4c4713b69d4bb7","freqPrac","","","img/blue_2bandit_b2.png","null","img/blue_2bandit_b2.png","70","prac","0","1","","","","","","","","","","","","","","","","","",""
"null","42898","SARL_v6","SARL_v6tpz1eeap","5f63d462fb4c4713b69d4bb7","feedback","","","img/tooSlow.png","null","","na","prac","","","","","","","","","","","","","","","","","","","",""
"null","43053","SARL_v6","SARL_v6tpz1eeap","5f63d462fb4c4713b69d4bb7","fixation","","","img/fixation.png","null","","","prac","","","","","","","","","","","","","","","","","","","",""
"408","43463","SARL_v6","SARL_v6tpz1eeap","5f63d462fb4c4713b69d4bb7","infreqPrac","","","img/orange_2bandit_b2.png","68","img/orange_2bandit_b2.png","68","prac","1","1","","","","","","","","","","","","","","","","","",""
"408","43866","SARL_v6","SARL_v6tpz1eeap","5f63d462fb4c4713b69d4bb7","infreqPrac_resp","","","img/orange_2bandit_b.png","68","img/orange_2bandit_b.png","68","prac","","","","","","","","","","","","","","","","","","","",""
"null","44023","SARL_v6","SARL_v6tpz1eeap","5f63d462fb4c4713b69d4bb7","fixation","","","img/fixation.png","null","","","prac","","","","","","","","","","","","","","","","","","","",""
"484","44509","SARL_v6","SARL_v6tpz1eeap","5f63d462fb4c4713b69d4bb7","freqPrac","","","img/blue_2bandit_b2.png","70","img/blue_2bandit_b2.png","70","prac","1","1","","","","","","","","","","","","","","","","","",""
"484","44831","SARL_v6","SARL_v6tpz1eeap","5f63d462fb4c4713b69d4bb7","freqPrac_resp","","","img/blue_2bandit_b.png","70","img/blue_2bandit_b.png","70","prac","","","","","","","","","","","","","","","","","","","",""
"null","44988","SARL_v6","SARL_v6tpz1eeap","5f63d462fb4c4713b69d4bb7","fixation","","","img/fixation.png","null","","","prac","","","","","","","","","","","","","","","","","","","",""
"618","45609","SARL_v6","SARL_v6tpz1eeap","5f63d462fb4c4713b69d4bb7","infreqPrac","","","img/orange_2bandit_b2.png","68","img/orange_2bandit_b2.png","68","prac","1","1","","","","","","","","","","","","","","","","","",""
"618","45799","SARL_v6","SARL_v6tpz1eeap","5f63d462fb4c4713b69d4bb7","infreqPrac_resp","","","img/orange_2bandit_b.png","68","img/orange_2bandit_b.png","68","prac","","","","","","","","","","","","","","","","","","","",""
"null","45954","SARL_v6","SARL_v6tpz1eeap","5f63d462fb4c4713b69d4bb7","fixation","","","img/fixation.png","null","","","prac","","","","","","","","","","","","","","","","","","","",""
"720","46676","SARL_v6","SARL_v6tpz1eeap","5f63d462fb4c4713b69d4bb7","infreqPrac","","","img/orange_2bandit_b2.png","68","img/orange_2bandit_b2.png","68","prac","1","1","","","","","","","","","","","","","","","","","",""
"720","46761","SARL_v6","SARL_v6tpz1eeap","5f63d462fb4c4713b69d4bb7","infreqPrac_resp","","","img/orange_2bandit_b.png","68","img/orange_2bandit_b.png","68","prac","","","","","","","","","","","","","","","","","","","",""
"null","46917","SARL_v6","SARL_v6tpz1eeap","5f63d462fb4c4713b69d4bb7","fixation","","","img/fixation.png","null","","","prac","","","","","","","","","","","","","","","","","","","",""
"722","47641","SARL_v6","SARL_v6tpz1eeap","5f63d462fb4c4713b69d4bb7","infreqPrac","","","img/orange_2bandit_b2.png","68","img/orange_2bandit_b2.png","68","prac","1","1","","","","","","","","","","","","","","","","","",""
"722","47727","SARL_v6","SARL_v6tpz1eeap","5f63d462fb4c4713b69d4bb7","infreqPrac_resp","","","img/orange_2bandit_b.png","68","img/orange_2bandit_b.png","68","prac","","","","","","","","","","","","","","","","","","","",""
"null","47881","SARL_v6","SARL_v6tpz1eeap","5f63d462fb4c4713b69d4bb7","fixation","","","img/fixation.png","null","","","prac","","","","","","","","","","","","","","","","","","","",""
"675","48560","SARL_v6","SARL_v6tpz1eeap","5f63d462fb4c4713b69d4bb7","freqPrac","","","img/blue_2bandit_b2.png","70","img/blue_2bandit_b2.png","70","prac","1","1","","","","","","","","","","","","","","","","","",""
"675","48690","SARL_v6","SARL_v6tpz1eeap","5f63d462fb4c4713b69d4bb7","freqPrac_resp","","","img/blue_2bandit_b.png","70","img/blue_2bandit_b.png","70","prac","","","","","","","","","","","","","","","","","","","",""
"null","48844","SARL_v6","SARL_v6tpz1eeap","5f63d462fb4c4713b69d4bb7","fixation","","","img/fixation.png","null","","","prac","","","","","","","","","","","","","","","","","","","",""
"709","49554","SARL_v6","SARL_v6tpz1eeap","5f63d462fb4c4713b69d4bb7","infreqPrac","","","img/orange_2bandit_b2.png","70","img/orange_2bandit_b2.png","68","prac","0","2","","","","","","","","","","","","","","","","","",""
"709","49654","SARL_v6","SARL_v6tpz1eeap","5f63d462fb4c4713b69d4bb7","infreqPrac_resp","","","img/orange_2bandit_b.png","70","img/orange_2bandit_b.png","68","prac","","","","","","","","","","","","","","","","","","","",""
"null","50668","SARL_v6","SARL_v6tpz1eeap","5f63d462fb4c4713b69d4bb7","feedback","","","img/wrongKey.png","null","","na","prac","","","","","","","","","","","","","","","","","","","",""
"null","50823","SARL_v6","SARL_v6tpz1eeap","5f63d462fb4c4713b69d4bb7","fixation","","","img/fixation.png","null","","","prac","","","","","","","","","","","","","","","","","","","",""
"null","51629","SARL_v6","SARL_v6tpz1eeap","5f63d462fb4c4713b69d4bb7","freqPrac","","","img/blue_2bandit_b2.png","null","img/blue_2bandit_b2.png","70","prac","0","3","","","","","","","","","","","","","","","","","",""
"null","52641","SARL_v6","SARL_v6tpz1eeap","5f63d462fb4c4713b69d4bb7","feedback","","","img/tooSlow.png","null","","na","prac","","","","","","","","","","","","","","","","","","","",""
"null","52799","SARL_v6","SARL_v6tpz1eeap","5f63d462fb4c4713b69d4bb7","fixation","","","img/fixation.png","null","","","prac","","","","","","","","","","","","","","","","","","","",""
"343","53144","SARL_v6","SARL_v6tpz1eeap","5f63d462fb4c4713b69d4bb7","freqPrac","","","img/blue_2bandit_b2.png","70","img/blue_2bandit_b2.png","70","prac","1","3","","","","","","","","","","","","","","","","","",""
"343","53607","SARL_v6","SARL_v6tpz1eeap","5f63d462fb4c4713b69d4bb7","freqPrac_resp","","","img/blue_2bandit_b.png","70","img/blue_2bandit_b.png","70","prac","","","","","","","","","","","","","","","","","","","",""
"null","53766","SARL_v6","SARL_v6tpz1eeap","5f63d462fb4c4713b69d4bb7","fixation","","","img/fixation.png","null","","","prac","","","","","","","","","","","","","","","","","","","",""
"143099","196868","SARL_v6","SARL_v6tpz1eeap","5f63d462fb4c4713b69d4bb7","","","","","","","","prac","","","","","","","","","","","","","","","","","","","",""
"666","197538","SARL_v6","SARL_v6tpz1eeap","5f63d462fb4c4713b69d4bb7","rlPractice","","","img/black_2bandit_b2.png","75","img/black_2bandit_b2.png","","prac","","","0","","","","","","","","","","","","","","","","",""
"null","198299","SARL_v6","SARL_v6tpz1eeap","5f63d462fb4c4713b69d4bb7","feedback","","","<div class=""verylowPoints_sq""> -14 </div>","null","","na","prac","","","1","10","-14","10","","","","","","","","","","","","","",""
"null","198455","SARL_v6","SARL_v6tpz1eeap","5f63d462fb4c4713b69d4bb7","fixation","","","img/fixation.png","null","","","prac","","","","","","","","","","","","","","","","","","","",""
"447","198904","SARL_v6","SARL_v6tpz1eeap","5f63d462fb4c4713b69d4bb7","rlPractice","","","img/black_2bandit_b2.png","74","img/black_2bandit_b2.png","","prac","","","1","","","","","","","","","","","","","","","","",""
"null","199671","SARL_v6","SARL_v6tpz1eeap","5f63d462fb4c4713b69d4bb7","feedback","","","<div class=""veryhighPoints""> 5 </div>","null","","na","prac","","","2","5","-5","5","","","","","","","","","","","","","",""
"null","199825","SARL_v6","SARL_v6tpz1eeap","5f63d462fb4c4713b69d4bb7","fixation","","","img/fixation.png","null","","","prac","","","","","","","","","","","","","","","","","","","",""
"479","200307","SARL_v6","SARL_v6tpz1eeap","5f63d462fb4c4713b69d4bb7","rlPractice","","","img/black_2bandit_b2.png","74","img/black_2bandit_b2.png","","prac","","","2","","","","","","","","","","","","","","","","",""
"null","201069","SARL_v6","SARL_v6tpz1eeap","5f63d462fb4c4713b69d4bb7","feedback","","","<div class=""veryhighPoints""> 30 </div>","null","","na","prac","","","3","30","2","30","","","","","","","","","","","","","",""
"null","201225","SARL_v6","SARL_v6tpz1eeap","5f63d462fb4c4713b69d4bb7","fixation","","","img/fixation.png","null","","","prac","","","","","","","","","","","","","","","","","","","",""
"422","201649","SARL_v6","SARL_v6tpz1eeap","5f63d462fb4c4713b69d4bb7","rlPractice","","","img/black_2bandit_b2.png","74","img/black_2bandit_b2.png","","prac","","","3","","","","","","","","","","","","","","","","",""
"null","202407","SARL_v6","SARL_v6tpz1eeap","5f63d462fb4c4713b69d4bb7","feedback","","","<div class=""verylowPoints""> -2 </div>","null","","na","prac","","","4","-2","20","-2","","","","","","","","","","","","","",""
"null","202568","SARL_v6","SARL_v6tpz1eeap","5f63d462fb4c4713b69d4bb7","fixation","","","img/fixation.png","null","","","prac","","","","","","","","","","","","","","","","","","","",""
"40488","243059","SARL_v6","SARL_v6tpz1eeap","5f63d462fb4c4713b69d4bb7","","","","","","","","prac","","","","","","","","","","","","","","","","","","","",""
"null","243878","SARL_v6","SARL_v6tpz1eeap","5f63d462fb4c4713b69d4bb7","mixAttFreqPrac","","","img/blue_2bandit_b2.png","null","img/blue_2bandit_b2.png","70","prac","","","1","","","","","","","","","","","","","","","","",""
"81","244033","SARL_v6","SARL_v6tpz1eeap","5f63d462fb4c4713b69d4bb7","fixation","","","img/fixation.png","70","","","prac","","","","","","","","","","","","","","","","","","","",""
"583","244618","SARL_v6","SARL_v6tpz1eeap","5f63d462fb4c4713b69d4bb7","mixAttInfreqPrac","","","img/orange_2bandit_b2.png","68","img/orange_2bandit_b2.png","68","prac","","","2","","","","","","","","","","","","","","","","",""
"583","244845","SARL_v6","SARL_v6tpz1eeap","5f63d462fb4c4713b69d4bb7","infreqPrac_resp","","","img/orange_2bandit_b.png","68","img/blue_2bandit_b.png","68","prac","","","2","","","","","","","","","","","","","","","","",""
"null","245000","SARL_v6","SARL_v6tpz1eeap","5f63d462fb4c4713b69d4bb7","fixation","","","img/fixation.png","null","","","prac","","","","","","","","","","","","","","","","","","","",""
"315","245317","SARL_v6","SARL_v6tpz1eeap","5f63d462fb4c4713b69d4bb7","mixAttInfreqPrac","","","img/orange_2bandit_b2.png","68","img/orange_2bandit_b2.png","68","prac","","","3","","","","","","","","","","","","","","","","",""
"315","245812","SARL_v6","SARL_v6tpz1eeap","5f63d462fb4c4713b69d4bb7","infreqPrac_resp","","","img/orange_2bandit_b.png","68","img/blue_2bandit_b.png","68","prac","","","3","","","","","","","","","","","","","","","","",""
"null","245970","SARL_v6","SARL_v6tpz1eeap","5f63d462fb4c4713b69d4bb7","fixation","","","img/fixation.png","null","","","prac","","","","","","","","","","","","","","","","","","","",""
"425","246398","SARL_v6","SARL_v6tpz1eeap","5f63d462fb4c4713b69d4bb7","mixAttInfreqPrac","","","img/orange_2bandit_b2.png","68","img/orange_2bandit_b2.png","68","prac","","","4","","","","","","","","","","","","","","","","",""
"425","246777","SARL_v6","SARL_v6tpz1eeap","5f63d462fb4c4713b69d4bb7","infreqPrac_resp","","","img/orange_2bandit_b.png","68","img/blue_2bandit_b.png","68","prac","","","4","","","","","","","","","","","","","","","","",""
"null","246935","SARL_v6","SARL_v6tpz1eeap","5f63d462fb4c4713b69d4bb7","fixation","","","img/fixation.png","null","","","prac","","","","","","","","","","","","","","","","","","","",""
"null","247740","SARL_v6","SARL_v6tpz1eeap","5f63d462fb4c4713b69d4bb7","mixAttFreqPrac","","","img/blue_2bandit_b2.png","null","img/blue_2bandit_b2.png","70","prac","","","5","","","","","","","","","","","","","","","","",""
"6","247895","SARL_v6","SARL_v6tpz1eeap","5f63d462fb4c4713b69d4bb7","fixation","","","img/fixation.png","68","","","prac","","","","","","","","","","","","","","","","","","","",""
"909","248806","SARL_v6","SARL_v6tpz1eeap","5f63d462fb4c4713b69d4bb7","mixRLPractice","","","img/black_2bandit_b2.png","75","img/black_2bandit_b2.png","","prac","","","5","","","","","","","","","","","","","","","","",""
"null","249568","SARL_v6","SARL_v6tpz1eeap","5f63d462fb4c4713b69d4bb7","feedback","","","<div class=""veryhighPoints_sq""> 10 </div>","null","","na","prac","","","6","-14","10","-14","","","","","","","","","","","","","",""
"null","249722","SARL_v6","SARL_v6tpz1eeap","5f63d462fb4c4713b69d4bb7","fixation","","","img/fixation.png","null","","","prac","","","","","","","","","","","","","","","","","","","",""
"675","250400","SARL_v6","SARL_v6tpz1eeap","5f63d462fb4c4713b69d4bb7","mixAttFreqPrac","","","img/blue_2bandit_b2.png","70","img/blue_2bandit_b2.png","70","prac","","","7","","","","","","","","","","","","","","","","",""
"675","250540","SARL_v6","SARL_v6tpz1eeap","5f63d462fb4c4713b69d4bb7","freqPrac_resp","","","img/blue_2bandit_b.png","70","img/blue_2bandit_b.png","70","prac","","","7","","","","","","","","","","","","","","","","",""
"null","250694","SARL_v6","SARL_v6tpz1eeap","5f63d462fb4c4713b69d4bb7","fixation","","","img/fixation.png","null","","","prac","","","","","","","","","","","","","","","","","","","",""
"638","251334","SARL_v6","SARL_v6tpz1eeap","5f63d462fb4c4713b69d4bb7","mixAttInfreqPrac","","","img/orange_2bandit_b2.png","68","img/orange_2bandit_b2.png","68","prac","","","8","","","","","","","","","","","","","","","","",""
"638","251504","SARL_v6","SARL_v6tpz1eeap","5f63d462fb4c4713b69d4bb7","infreqPrac_resp","","","img/orange_2bandit_b.png","68","img/blue_2bandit_b.png","68","prac","","","8","","","","","","","","","","","","","","","","",""
"null","251660","SARL_v6","SARL_v6tpz1eeap","5f63d462fb4c4713b69d4bb7","fixation","","","img/fixation.png","null","","","prac","","","","","","","","","","","","","","","","","","","",""
"614","252277","SARL_v6","SARL_v6tpz1eeap","5f63d462fb4c4713b69d4bb7","mixAttFreqPrac","","","img/blue_2bandit_b2.png","70","img/blue_2bandit_b2.png","70","prac","","","9","","","","","","","","","","","","","","","","",""
"614","252474","SARL_v6","SARL_v6tpz1eeap","5f63d462fb4c4713b69d4bb7","freqPrac_resp","","","img/blue_2bandit_b.png","70","img/blue_2bandit_b.png","70","prac","","","9","","","","","","","","","","","","","","","","",""
"null","252628","SARL_v6","SARL_v6tpz1eeap","5f63d462fb4c4713b69d4bb7","fixation","","","img/fixation.png","null","","","prac","","","","","","","","","","","","","","","","","","","",""
"531","253162","SARL_v6","SARL_v6tpz1eeap","5f63d462fb4c4713b69d4bb7","mixAttFreqPrac","","","img/blue_2bandit_b2.png","70","img/blue_2bandit_b2.png","70","prac","","","10","","","","","","","","","","","","","","","","",""
"531","253436","SARL_v6","SARL_v6tpz1eeap","5f63d462fb4c4713b69d4bb7","freqPrac_resp","","","img/blue_2bandit_b.png","70","img/blue_2bandit_b.png","70","prac","","","10","","","","","","","","","","","","","","","","",""
"null","253590","SARL_v6","SARL_v6tpz1eeap","5f63d462fb4c4713b69d4bb7","fixation","","","img/fixation.png","null","","","prac","","","","","","","","","","","","","","","","","","","",""
"577","254170","SARL_v6","SARL_v6tpz1eeap","5f63d462fb4c4713b69d4bb7","mixAttInfreqPrac","","","img/orange_2bandit_b2.png","68","img/orange_2bandit_b2.png","68","prac","","","11","","","","","","","","","","","","","","","","",""
"577","254403","SARL_v6","SARL_v6tpz1eeap","5f63d462fb4c4713b69d4bb7","infreqPrac_resp","","","img/orange_2bandit_b.png","68","img/blue_2bandit_b.png","68","prac","","","11","","","","","","","","","","","","","","","","",""
"null","254560","SARL_v6","SARL_v6tpz1eeap","5f63d462fb4c4713b69d4bb7","fixation","","","img/fixation.png","null","","","prac","","","","","","","","","","","","","","","","","","","",""
"765","255326","SARL_v6","SARL_v6tpz1eeap","5f63d462fb4c4713b69d4bb7","mixRLPractice","","","img/black_2bandit_b2.png","75","img/black_2bandit_b2.png","","prac","","","11","","","","","","","","","","","","","","","","",""
"null","256091","SARL_v6","SARL_v6tpz1eeap","5f63d462fb4c4713b69d4bb7","feedback","","","<div class=""verylowPoints_sq""> -5 </div>","null","","na","prac","","","12","5","-5","5","","","","","","","","","","","","","",""
"null","256247","SARL_v6","SARL_v6tpz1eeap","5f63d462fb4c4713b69d4bb7","fixation","","","img/fixation.png","null","","","prac","","","","","","","","","","","","","","","","","","","",""
"26323","282572","SARL_v6","SARL_v6tpz1eeap","5f63d462fb4c4713b69d4bb7","","","","","","","","prac","","","","","","","","","","","","","","","","","","","",""
"535","283109","SARL_v6","SARL_v6tpz1eeap","5f63d462fb4c4713b69d4bb7","freq","","","img/blue_2bandit_b2.png","70","","70","test","1","","1","","","","circle","square","1","1","1","1","","","","","","","",""
"null","283381","SARL_v6","SARL_v6tpz1eeap","5f63d462fb4c4713b69d4bb7","freq_resp","","","img/blue_2bandit_b.png","70","img/blue_2bandit_b.png","70","test","","","","","","","","","","","1","","","","","","","","",""
"null","283536","SARL_v6","SARL_v6tpz1eeap","5f63d462fb4c4713b69d4bb7","fixation","","","img/fixation.png","null","","","test","","","","","","","","","","","","","","","","","","","",""
"388","283927","SARL_v6","SARL_v6tpz1eeap","5f63d462fb4c4713b69d4bb7","freq","","","img/blue_2bandit_b2.png","70","","70","test","1","","2","","","","circle","square","2","2","1","1","","","","","","","",""
"null","284347","SARL_v6","SARL_v6tpz1eeap","5f63d462fb4c4713b69d4bb7","freq_resp","","","img/blue_2bandit_b.png","70","img/blue_2bandit_b.png","70","test","","","","","","","","","","","1","","","","","","","","",""
"null","284504","SARL_v6","SARL_v6tpz1eeap","5f63d462fb4c4713b69d4bb7","fixation","","","img/fixation.png","null","","","test","","","","","","","","","","","","","","","","","","","",""
"446","284951","SARL_v6","SARL_v6tpz1eeap","5f63d462fb4c4713b69d4bb7","freq","","","img/blue_2bandit_b2.png","70","","70","test","1","","3","","","","circle","square","3","3","1","1","","","","","","","",""
"null","285313","SARL_v6","SARL_v6tpz1eeap","5f63d462fb4c4713b69d4bb7","freq_resp","","","img/blue_2bandit_b.png","70","img/blue_2bandit_b.png","70","test","","","","","","","","","","","1","","","","","","","","",""
"null","285467","SARL_v6","SARL_v6tpz1eeap","5f63d462fb4c4713b69d4bb7","fixation","","","img/fixation.png","null","","","test","","","","","","","","","","","","","","","","","","","",""
"435","285904","SARL_v6","SARL_v6tpz1eeap","5f63d462fb4c4713b69d4bb7","freq","","","img/blue_2bandit_b2.png","70","","70","test","1","","4","","","","circle","square","4","4","1","1","","","","","","","",""
"null","286286","SARL_v6","SARL_v6tpz1eeap","5f63d462fb4c4713b69d4bb7","freq_resp","","","img/blue_2bandit_b.png","70","img/blue_2bandit_b.png","70","test","","","","","","","","","","","1","","","","","","","","",""
"null","286441","SARL_v6","SARL_v6tpz1eeap","5f63d462fb4c4713b69d4bb7","fixation","","","img/fixation.png","null","","","test","","","","","","","","","","","","","","","","","","","",""
"347","286790","SARL_v6","SARL_v6tpz1eeap","5f63d462fb4c4713b69d4bb7","freq","","","img/blue_2bandit_b2.png","70","","70","test","1","","5","","","","circle","square","5","5","1","1","","","","","","","",""
"null","287257","SARL_v6","SARL_v6tpz1eeap","5f63d462fb4c4713b69d4bb7","freq_resp","","","img/blue_2bandit_b.png","70","img/blue_2bandit_b.png","70","test","","","","","","","","","","","1","","","","","","","","",""
"null","287413","SARL_v6","SARL_v6tpz1eeap","5f63d462fb4c4713b69d4bb7","fixation","","","img/fixation.png","null","","","test","","","","","","","","","","","","","","","","","","","",""
"360","287776","SARL_v6","SARL_v6tpz1eeap","5f63d462fb4c4713b69d4bb7","freq","","","img/blue_2bandit_b2.png","70","","70","test","1","","6","","","","circle","square","6","6","1","1","","","","","","","",""
"null","288225","SARL_v6","SARL_v6tpz1eeap","5f63d462fb4c4713b69d4bb7","freq_resp","","","img/blue_2bandit_b.png","70","img/blue_2bandit_b.png","70","test","","","","","","","","","","","1","","","","","","","","",""
"null","288380","SARL_v6","SARL_v6tpz1eeap","5f63d462fb4c4713b69d4bb7","fixation","","","img/fixation.png","null","","","test","","","","","","","","","","","","","","","","","","","",""
"331","288713","SARL_v6","SARL_v6tpz1eeap","5f63d462fb4c4713b69d4bb7","freq","","","img/blue_2bandit_b2.png","70","","70","test","1","","7","","","","circle","square","7","7","1","1","","","","","","","",""
"null","289190","SARL_v6","SARL_v6tpz1eeap","5f63d462fb4c4713b69d4bb7","freq_resp","","","img/blue_2bandit_b.png","70","img/blue_2bandit_b.png","70","test","","","","","","","","","","","1","","","","","","","","",""
"null","289348","SARL_v6","SARL_v6tpz1eeap","5f63d462fb4c4713b69d4bb7","fixation","","","img/fixation.png","null","","","test","","","","","","","","","","","","","","","","","","","",""
"400","289750","SARL_v6","SARL_v6tpz1eeap","5f63d462fb4c4713b69d4bb7","freq","","","img/blue_2bandit_b2.png","70","","70","test","1","","8","","","","circle","square","8","8","1","1","","","","","","","",""
"null","290156","SARL_v6","SARL_v6tpz1eeap","5f63d462fb4c4713b69d4bb7","freq_resp","","","img/blue_2bandit_b.png","70","img/blue_2bandit_b.png","70","test","","","","","","","","","","","1","","","","","","","","",""
"null","290311","SARL_v6","SARL_v6tpz1eeap","5f63d462fb4c4713b69d4bb7","fixation","","","img/fixation.png","null","","","test","","","","","","","","","","","","","","","","","","","",""
"345","290657","SARL_v6","SARL_v6tpz1eeap","5f63d462fb4c4713b69d4bb7","freq","","","img/blue_2bandit_b2.png","70","","70","test","1","","9","","","","circle","square","9","9","1","1","","","","","","","",""
"null","291121","SARL_v6","SARL_v6tpz1eeap","5f63d462fb4c4713b69d4bb7","freq_resp","","","img/blue_2bandit_b.png","70","img/blue_2bandit_b.png","70","test","","","","","","","","","","","1","","","","","","","","",""
"null","291276","SARL_v6","SARL_v6tpz1eeap","5f63d462fb4c4713b69d4bb7","fixation","","","img/fixation.png","null","","","test","","","","","","","","","","","","","","","","","","","",""
"487","291765","SARL_v6","SARL_v6tpz1eeap","5f63d462fb4c4713b69d4bb7","infreq","","","img/orange_2bandit_b2.png","68","","68","test","1","","10","","","","circle","square","10","10","1","1","","","","","","","",""
"null","292084","SARL_v6","SARL_v6tpz1eeap","5f63d462fb4c4713b69d4bb7","infreq_resp","","","img/orange_2bandit_b.png","68","img/orange_2bandit_b.png","68","test","","","","","","","","","","","1","","","","","","","","",""
"null","292238","SARL_v6","SARL_v6tpz1eeap","5f63d462fb4c4713b69d4bb7","fixation","","","img/fixation.png","null","","","test","","","","","","","","","","","","","","","","","","","",""
"631","292871","SARL_v6","SARL_v6tpz1eeap","5f63d462fb4c4713b69d4bb7","freq","","","img/blue_2bandit_b2.png","70","","70","test","1","","11","","","","circle","square","11","11","1","1","","","","","","","",""
"null","293053","SARL_v6","SARL_v6tpz1eeap","5f63d462fb4c4713b69d4bb7","freq_resp","","","img/blue_2bandit_b.png","70","img/blue_2bandit_b.png","70","test","","","","","","","","","","","1","","","","","","","","",""
"null","293208","SARL_v6","SARL_v6tpz1eeap","5f63d462fb4c4713b69d4bb7","fixation","","","img/fixation.png","null","","","test","","","","","","","","","","","","","","","","","","","",""
"422","293631","SARL_v6","SARL_v6tpz1eeap","5f63d462fb4c4713b69d4bb7","freq","","","img/blue_2bandit_b2.png","70","","70","test","1","","12","","","","circle","square","12","12","1","1","","","","","","","",""
"null","294015","SARL_v6","SARL_v6tpz1eeap","5f63d462fb4c4713b69d4bb7","freq_resp","","","img/blue_2bandit_b.png","70","img/blue_2bandit_b.png","70","test","","","","","","","","","","","1","","","","","","","","",""
"null","294170","SARL_v6","SARL_v6tpz1eeap","5f63d462fb4c4713b69d4bb7","fixation","","","img/fixation.png","null","","","test","","","","","","","","","","","","","","","","","","","",""
"365","294539","SARL_v6","SARL_v6tpz1eeap","5f63d462fb4c4713b69d4bb7","freq","","","img/blue_2bandit_b2.png","70","","70","test","1","","13","","","","circle","square","13","13","1","1","","","","","","","",""
"null","294976","SARL_v6","SARL_v6tpz1eeap","5f63d462fb4c4713b69d4bb7","freq_resp","","","img/blue_2bandit_b.png","70","img/blue_2bandit_b.png","70","test","","","","","","","","","","","1","","","","","","","","",""
"null","295131","SARL_v6","SARL_v6tpz1eeap","5f63d462fb4c4713b69d4bb7","fixation","","","img/fixation.png","null","","","test","","","","","","","","","","","","","","","","","","","",""
"483","295615","SARL_v6","SARL_v6tpz1eeap","5f63d462fb4c4713b69d4bb7","infreq","","","img/orange_2bandit_b2.png","68","","68","test","1","","14","","","","circle","square","14","14","1","1","","","","","","","",""
"null","295941","SARL_v6","SARL_v6tpz1eeap","5f63d462fb4c4713b69d4bb7","infreq_resp","","","img/orange_2bandit_b.png","68","img/orange_2bandit_b.png","68","test","","","","","","","","","","","1","","","","","","","","",""
"null","296096","SARL_v6","SARL_v6tpz1eeap","5f63d462fb4c4713b69d4bb7","fixation","","","img/fixation.png","null","","","test","","","","","","","","","","","","","","","","","","","",""
"446","296544","SARL_v6","SARL_v6tpz1eeap","5f63d462fb4c4713b69d4bb7","freq","","","img/blue_2bandit_b2.png","70","","70","test","1","","15","","","","circle","square","15","15","1","1","","","","","","","",""
"null","296905","SARL_v6","SARL_v6tpz1eeap","5f63d462fb4c4713b69d4bb7","freq_resp","","","img/blue_2bandit_b.png","70","img/blue_2bandit_b.png","70","test","","","","","","","","","","","1","","","","","","","","",""
"null","297061","SARL_v6","SARL_v6tpz1eeap","5f63d462fb4c4713b69d4bb7","fixation","","","img/fixation.png","null","","","test","","","","","","","","","","","","","","","","","","","",""
"340","297403","SARL_v6","SARL_v6tpz1eeap","5f63d462fb4c4713b69d4bb7","freq","","","img/blue_2bandit_b2.png","70","","70","test","1","","16","","","","circle","square","16","16","1","1","","","","","","","",""
"null","297878","SARL_v6","SARL_v6tpz1eeap","5f63d462fb4c4713b69d4bb7","freq_resp","","","img/blue_2bandit_b.png","70","img/blue_2bandit_b.png","70","test","","","","","","","","","","","1","","","","","","","","",""
"null","298035","SARL_v6","SARL_v6tpz1eeap","5f63d462fb4c4713b69d4bb7","fixation","","","img/fixation.png","null","","","test","","","","","","","","","","","","","","","","","","","",""
"337","298374","SARL_v6","SARL_v6tpz1eeap","5f63d462fb4c4713b69d4bb7","freq","","","img/blue_2bandit_b2.png","70","","70","test","1","","17","","","","circle","square","17","17","1","1","","","","","","","",""
"null","298843","SARL_v6","SARL_v6tpz1eeap","5f63d462fb4c4713b69d4bb7","freq_resp","","","img/blue_2bandit_b.png","70","img/blue_2bandit_b.png","70","test","","","","","","","","","","","1","","","","","","","","",""
"null","298999","SARL_v6","SARL_v6tpz1eeap","5f63d462fb4c4713b69d4bb7","fixation","","","img/fixation.png","null","","","test","","","","","","","","","","","","","","","","","","","",""
"356","299358","SARL_v6","SARL_v6tpz1eeap","5f63d462fb4c4713b69d4bb7","freq","","","img/blue_2bandit_b2.png","70","","70","test","1","","18","","","","circle","square","18","18","1","1","","","","","","","",""
"null","299808","SARL_v6","SARL_v6tpz1eeap","5f63d462fb4c4713b69d4bb7","freq_resp","","","img/blue_2bandit_b.png","70","img/blue_2bandit_b.png","70","test","","","","","","","","","","","1","","","","","","","","",""
"null","299963","SARL_v6","SARL_v6tpz1eeap","5f63d462fb4c4713b69d4bb7","fixation","","","img/fixation.png","null","","","test","","","","","","","","","","","","","","","","","","","",""
"340","300305","SARL_v6","SARL_v6tpz1eeap","5f63d462fb4c4713b69d4bb7","freq","","","img/blue_2bandit_b2.png","70","","70","test","1","","19","","","","circle","square","19","19","1","1","","","","","","","",""
"null","300778","SARL_v6","SARL_v6tpz1eeap","5f63d462fb4c4713b69d4bb7","freq_resp","","","img/blue_2bandit_b.png","70","img/blue_2bandit_b.png","70","test","","","","","","","","","","","1","","","","","","","","",""
"null","300933","SARL_v6","SARL_v6tpz1eeap","5f63d462fb4c4713b69d4bb7","fixation","","","img/fixation.png","null","","","test","","","","","","","","","","","","","","","","","","","",""
"419","301354","SARL_v6","SARL_v6tpz1eeap","5f63d462fb4c4713b69d4bb7","freq","","","img/blue_2bandit_b2.png","70","","70","test","1","","20","","","","circle","square","20","20","1","1","","","","","","","",""
"null","301742","SARL_v6","SARL_v6tpz1eeap","5f63d462fb4c4713b69d4bb7","freq_resp","","","img/blue_2bandit_b.png","70","img/blue_2bandit_b.png","70","test","","","","","","","","","","","1","","","","","","","","",""
"null","301897","SARL_v6","SARL_v6tpz1eeap","5f63d462fb4c4713b69d4bb7","fixation","","","img/fixation.png","null","","","test","","","","","","","","","","","","","","","","","","","",""
"408","302307","SARL_v6","SARL_v6tpz1eeap","5f63d462fb4c4713b69d4bb7","freq","","","img/blue_2bandit_b2.png","70","","70","test","1","","21","","","","circle","square","21","21","1","1","","","","","","","",""
"null","302702","SARL_v6","SARL_v6tpz1eeap","5f63d462fb4c4713b69d4bb7","freq_resp","","","img/blue_2bandit_b.png","70","img/blue_2bandit_b.png","70","test","","","","","","","","","","","1","","","","","","","","",""
"null","302858","SARL_v6","SARL_v6tpz1eeap","5f63d462fb4c4713b69d4bb7","fixation","","","img/fixation.png","null","","","test","","","","","","","","","","","","","","","","","","","",""
"377","303238","SARL_v6","SARL_v6tpz1eeap","5f63d462fb4c4713b69d4bb7","freq","","","img/blue_2bandit_b2.png","70","","70","test","1","","22","","","","circle","square","22","22","1","1","","","","","","","",""
"null","303671","SARL_v6","SARL_v6tpz1eeap","5f63d462fb4c4713b69d4bb7","freq_resp","","","img/blue_2bandit_b.png","70","img/blue_2bandit_b.png","70","test","","","","","","","","","","","1","","","","","","","","",""
"null","303828","SARL_v6","SARL_v6tpz1eeap","5f63d462fb4c4713b69d4bb7","fixation","","","img/fixation.png","null","","","test","","","","","","","","","","","","","","","","","","","",""
"581","304411","SARL_v6","SARL_v6tpz1eeap","5f63d462fb4c4713b69d4bb7","rl","","","img/black_2bandit_b2.png","75","","0","test","","","23","","","-3","circle","square","","0","1","","75","-3","-3","-3","-3","square","1","0"
"null","305170","SARL_v6","SARL_v6tpz1eeap","5f63d462fb4c4713b69d4bb7","feedback","","","<div class=""verylowPoints_sq""> -3 </div>","null","","na","test","","","NaN","","","","","","","","1","","75","","","","","","1",""
"703","305876","SARL_v6","SARL_v6tpz1eeap","5f63d462fb4c4713b69d4bb7","freq","","","img/blue_2bandit_b2.png","70","","70","test","1","","24","","","","circle","square","23","1","2","1","","","","","","","",""
"null","305980","SARL_v6","SARL_v6tpz1eeap","5f63d462fb4c4713b69d4bb7","freq_resp","","","img/blue_2bandit_b.png","70","img/blue_2bandit_b.png","70","test","","","","","","","","","","","2","","","","","","","","",""
"null","306135","SARL_v6","SARL_v6tpz1eeap","5f63d462fb4c4713b69d4bb7","fixation","","","img/fixation.png","null","","","test","","","","","","","","","","","","","","","","","","","",""
"463","306600","SARL_v6","SARL_v6tpz1eeap","5f63d462fb4c4713b69d4bb7","freq","","","img/blue_2bandit_b2.png","70","","70","test","1","","25","","","","circle","square","24","2","2","1","","","","","","","",""
"null","306941","SARL_v6","SARL_v6tpz1eeap","5f63d462fb4c4713b69d4bb7","freq_resp","","","img/blue_2bandit_b.png","70","img/blue_2bandit_b.png","70","test","","","","","","","","","","","2","","","","","","","","",""
"null","307095","SARL_v6","SARL_v6tpz1eeap","5f63d462fb4c4713b69d4bb7","fixation","","","img/fixation.png","null","","","test","","","","","","","","","","","","","","","","","","","",""
"695","307792","SARL_v6","SARL_v6tpz1eeap","5f63d462fb4c4713b69d4bb7","infreq","","","img/orange_2bandit_b2.png","68","","68","test","1","","26","","","","circle","square","25","3","2","1","","","","","","","",""
"null","307905","SARL_v6","SARL_v6tpz1eeap","5f63d462fb4c4713b69d4bb7","infreq_resp","","","img/orange_2bandit_b.png","68","img/orange_2bandit_b.png","68","test","","","","","","","","","","","2","","","","","","","","",""
"null","308062","SARL_v6","SARL_v6tpz1eeap","5f63d462fb4c4713b69d4bb7","fixation","","","img/fixation.png","null","","","test","","","","","","","","","","","","","","","","","","","",""
"503","308568","SARL_v6","SARL_v6tpz1eeap","5f63d462fb4c4713b69d4bb7","freq","","","img/blue_2bandit_b2.png","70","","70","test","1","","27","","","","circle","square","26","4","2","1","","","","","","","",""
"null","308868","SARL_v6","SARL_v6tpz1eeap","5f63d462fb4c4713b69d4bb7","freq_resp","","","img/blue_2bandit_b.png","70","img/blue_2bandit_b.png","70","test","","","","","","","","","","","2","","","","","","","","",""
"null","309021","SARL_v6","SARL_v6tpz1eeap","5f63d462fb4c4713b69d4bb7","fixation","","","img/fixation.png","null","","","test","","","","","","","","","","","","","","","","","","","",""
"471","309494","SARL_v6","SARL_v6tpz1eeap","5f63d462fb4c4713b69d4bb7","freq","","","img/blue_2bandit_b2.png","70","","70","test","1","","28","","","","circle","square","27","5","2","1","","","","","","","",""
"null","309831","SARL_v6","SARL_v6tpz1eeap","5f63d462fb4c4713b69d4bb7","freq_resp","","","img/blue_2bandit_b.png","70","img/blue_2bandit_b.png","70","test","","","","","","","","","","","2","","","","","","","","",""
"null","309984","SARL_v6","SARL_v6tpz1eeap","5f63d462fb4c4713b69d4bb7","fixation","","","img/fixation.png","null","","","test","","","","","","","","","","","","","","","","","","","",""
"430","310416","SARL_v6","SARL_v6tpz1eeap","5f63d462fb4c4713b69d4bb7","freq","","","img/blue_2bandit_b2.png","70","","70","test","1","","29","","","","circle","square","28","6","2","1","","","","","","","",""
"null","310793","SARL_v6","SARL_v6tpz1eeap","5f63d462fb4c4713b69d4bb7","freq_resp","","","img/blue_2bandit_b.png","70","img/blue_2bandit_b.png","70","test","","","","","","","","","","","2","","","","","","","","",""
"null","310947","SARL_v6","SARL_v6tpz1eeap","5f63d462fb4c4713b69d4bb7","fixation","","","img/fixation.png","null","","","test","","","","","","","","","","","","","","","","","","","",""
"760","311709","SARL_v6","SARL_v6tpz1eeap","5f63d462fb4c4713b69d4bb7","freq","","","img/blue_2bandit_b2.png","70","","70","test","1","","30","","","","circle","square","29","7","2","1","","","","","","","",""
"null","311758","SARL_v6","SARL_v6tpz1eeap","5f63d462fb4c4713b69d4bb7","freq_resp","","","img/blue_2bandit_b.png","70","img/blue_2bandit_b.png","70","test","","","","","","","","","","","2","","","","","","","","",""
"null","311913","SARL_v6","SARL_v6tpz1eeap","5f63d462fb4c4713b69d4bb7","fixation","","","img/fixation.png","null","","","test","","","","","","","","","","","","","","","","","","","",""
"699","312615","SARL_v6","SARL_v6tpz1eeap","5f63d462fb4c4713b69d4bb7","infreq","","","img/orange_2bandit_b2.png","68","","68","test","1","","31","","","","circle","square","30","8","2","1","","","","","","","",""
"null","312721","SARL_v6","SARL_v6tpz1eeap","5f63d462fb4c4713b69d4bb7","infreq_resp","","","img/orange_2bandit_b.png","68","img/orange_2bandit_b.png","68","test","","","","","","","","","","","2","","","","","","","","",""
"null","312879","SARL_v6","SARL_v6tpz1eeap","5f63d462fb4c4713b69d4bb7","fixation","","","img/fixation.png","null","","","test","","","","","","","","","","","","","","","","","","","",""
"null","313684","SARL_v6","SARL_v6tpz1eeap","5f63d462fb4c4713b69d4bb7","freq","","","img/blue_2bandit_b2.png","null","","70","test","0","","32","","","","circle","square","31","9","2","0.967741935483871","","","","","","","",""
"null","313838","SARL_v6","SARL_v6tpz1eeap","5f63d462fb4c4713b69d4bb7","fixation","","","img/fixation.png","null","","","test","","","","","","","","","","","","","","","","","","","",""
"396","314237","SARL_v6","SARL_v6tpz1eeap","5f63d462fb4c4713b69d4bb7","freq","","","img/blue_2bandit_b2.png","70","","70","test","1","","33","","","","circle","square","32","10","2","0.96875","","","","","","","",""
"null","314652","SARL_v6","SARL_v6tpz1eeap","5f63d462fb4c4713b69d4bb7","freq_resp","","","img/blue_2bandit_b.png","70","img/blue_2bandit_b.png","70","test","","","","","","","","","","","2","","","","","","","","",""
"null","314807","SARL_v6","SARL_v6tpz1eeap","5f63d462fb4c4713b69d4bb7","fixation","","","img/fixation.png","null","","","test","","","","","","","","","","","","","","","","","","","",""
"375","315184","SARL_v6","SARL_v6tpz1eeap","5f63d462fb4c4713b69d4bb7","freq","","","img/blue_2bandit_b2.png","70","","70","test","1","","34","","","","circle","square","33","11","2","0.9696969696969697","","","","","","","",""
"null","315614","SARL_v6","SARL_v6tpz1eeap","5f63d462fb4c4713b69d4bb7","freq_resp","","","img/blue_2bandit_b.png","70","img/blue_2bandit_b.png","70","test","","","","","","","","","","","2","","","","","","","","",""
"null","315768","SARL_v6","SARL_v6tpz1eeap","5f63d462fb4c4713b69d4bb7","fixation","","","img/fixation.png","null","","","test","","","","","","","","","","","","","","","","","","","",""
"315","316085","SARL_v6","SARL_v6tpz1eeap","5f63d462fb4c4713b69d4bb7","freq","","","img/blue_2bandit_b2.png","70","","70","test","1","","35","","","","circle","square","34","12","2","0.9705882352941176","","","","","","","",""
"null","316577","SARL_v6","SARL_v6tpz1eeap","5f63d462fb4c4713b69d4bb7","freq_resp","","","img/blue_2bandit_b.png","70","img/blue_2bandit_b.png","70","test","","","","","","","","","","","2","","","","","","","","",""
"null","316731","SARL_v6","SARL_v6tpz1eeap","5f63d462fb4c4713b69d4bb7","fixation","","","img/fixation.png","null","","","test","","","","","","","","","","","","","","","","","","","",""
"302","317035","SARL_v6","SARL_v6tpz1eeap","5f63d462fb4c4713b69d4bb7","freq","","","img/blue_2bandit_b2.png","70","","70","test","1","","36","","","","circle","square","35","13","2","0.9714285714285714","","","","","","","",""
"null","317542","SARL_v6","SARL_v6tpz1eeap","5f63d462fb4c4713b69d4bb7","freq_resp","","","img/blue_2bandit_b.png","70","img/blue_2bandit_b.png","70","test","","","","","","","","","","","2","","","","","","","","",""
"null","317698","SARL_v6","SARL_v6tpz1eeap","5f63d462fb4c4713b69d4bb7","fixation","","","img/fixation.png","null","","","test","","","","","","","","","","","","","","","","","","","",""
"429","318129","SARL_v6","SARL_v6tpz1eeap","5f63d462fb4c4713b69d4bb7","freq","","","img/blue_2bandit_b2.png","70","","70","test","1","","37","","","","circle","square","36","14","2","0.9722222222222222","","","","","","","",""
"null","318505","SARL_v6","SARL_v6tpz1eeap","5f63d462fb4c4713b69d4bb7","freq_resp","","","img/blue_2bandit_b.png","70","img/blue_2bandit_b.png","70","test","","","","","","","","","","","2","","","","","","","","",""
"null","318661","SARL_v6","SARL_v6tpz1eeap","5f63d462fb4c4713b69d4bb7","fixation","","","img/fixation.png","null","","","test","","","","","","","","","","","","","","","","","","","",""
"645","319307","SARL_v6","SARL_v6tpz1eeap","5f63d462fb4c4713b69d4bb7","freq","","","img/blue_2bandit_b2.png","70","","70","test","1","","38","","","","circle","square","37","15","2","0.972972972972973","","","","","","","",""
"null","319473","SARL_v6","SARL_v6tpz1eeap","5f63d462fb4c4713b69d4bb7","freq_resp","","","img/blue_2bandit_b.png","70","img/blue_2bandit_b.png","70","test","","","","","","","","","","","2","","","","","","","","",""
"null","319627","SARL_v6","SARL_v6tpz1eeap","5f63d462fb4c4713b69d4bb7","fixation","","","img/fixation.png","null","","","test","","","","","","","","","","","","","","","","","","","",""
"598","320227","SARL_v6","SARL_v6tpz1eeap","5f63d462fb4c4713b69d4bb7","freq","","","img/blue_2bandit_b2.png","70","","70","test","1","","39","","","","circle","square","38","16","2","0.9736842105263158","","","","","","","",""
"null","320439","SARL_v6","SARL_v6tpz1eeap","5f63d462fb4c4713b69d4bb7","freq_resp","","","img/blue_2bandit_b.png","70","img/blue_2bandit_b.png","70","test","","","","","","","","","","","2","","","","","","","","",""
"null","320593","SARL_v6","SARL_v6tpz1eeap","5f63d462fb4c4713b69d4bb7","fixation","","","img/fixation.png","null","","","test","","","","","","","","","","","","","","","","","","","",""
"637","321231","SARL_v6","SARL_v6tpz1eeap","5f63d462fb4c4713b69d4bb7","freq","","","img/blue_2bandit_b2.png","70","","70","test","1","","40","","","","circle","square","39","17","2","0.9743589743589743","","","","","","","",""
"null","321406","SARL_v6","SARL_v6tpz1eeap","5f63d462fb4c4713b69d4bb7","freq_resp","","","img/blue_2bandit_b.png","70","img/blue_2bandit_b.png","70","test","","","","","","","","","","","2","","","","","","","","",""
"null","321561","SARL_v6","SARL_v6tpz1eeap","5f63d462fb4c4713b69d4bb7","fixation","","","img/fixation.png","null","","","test","","","","","","","","","","","","","","","","","","","",""
"431","321994","SARL_v6","SARL_v6tpz1eeap","5f63d462fb4c4713b69d4bb7","freq","","","img/blue_2bandit_b2.png","70","","70","test","1","","41","","","","circle","square","40","18","2","0.975","","","","","","","",""
"null","322374","SARL_v6","SARL_v6tpz1eeap","5f63d462fb4c4713b69d4bb7","freq_resp","","","img/blue_2bandit_b.png","70","img/blue_2bandit_b.png","70","test","","","","","","","","","","","2","","","","","","","","",""
"null","322529","SARL_v6","SARL_v6tpz1eeap","5f63d462fb4c4713b69d4bb7","fixation","","","img/fixation.png","null","","","test","","","","","","","","","","","","","","","","","","","",""
"464","322995","SARL_v6","SARL_v6tpz1eeap","5f63d462fb4c4713b69d4bb7","freq","","","img/blue_2bandit_b2.png","70","","70","test","1","","42","","","","circle","square","41","19","2","0.975609756097561","","","","","","","",""
"null","323334","SARL_v6","SARL_v6tpz1eeap","5f63d462fb4c4713b69d4bb7","freq_resp","","","img/blue_2bandit_b.png","70","img/blue_2bandit_b.png","70","test","","","","","","","","","","","2","","","","","","","","",""
"null","323491","SARL_v6","SARL_v6tpz1eeap","5f63d462fb4c4713b69d4bb7","fixation","","","img/fixation.png","null","","","test","","","","","","","","","","","","","","","","","","","",""
"641","324135","SARL_v6","SARL_v6tpz1eeap","5f63d462fb4c4713b69d4bb7","freq","","","img/blue_2bandit_b2.png","70","","70","test","1","","43","","","","circle","square","42","20","2","0.9761904761904762","","","","","","","",""
"null","324298","SARL_v6","SARL_v6tpz1eeap","5f63d462fb4c4713b69d4bb7","freq_resp","","","img/blue_2bandit_b.png","70","img/blue_2bandit_b.png","70","test","","","","","","","","","","","2","","","","","","","","",""
"null","324452","SARL_v6","SARL_v6tpz1eeap","5f63d462fb4c4713b69d4bb7","fixation","","","img/fixation.png","null","","","test","","","","","","","","","","","","","","","","","","","",""
"581","325035","SARL_v6","SARL_v6tpz1eeap","5f63d462fb4c4713b69d4bb7","freq","","","img/blue_2bandit_b2.png","70","","70","test","1","","44","","","","circle","square","43","21","2","0.9767441860465116","","","","","","","",""
"null","325259","SARL_v6","SARL_v6tpz1eeap","5f63d462fb4c4713b69d4bb7","freq_resp","","","img/blue_2bandit_b.png","70","img/blue_2bandit_b.png","70","test","","","","","","","","","","","2","","","","","","","","",""
"null","325416","SARL_v6","SARL_v6tpz1eeap","5f63d462fb4c4713b69d4bb7","fixation","","","img/fixation.png","null","","","test","","","","","","","","","","","","","","","","","","","",""
"700","326118","SARL_v6","SARL_v6tpz1eeap","5f63d462fb4c4713b69d4bb7","rl","","","img/black_2bandit_b2.png","75","","0","test","","","45","","","-5","circle","square","","0","2","","75","-8","-5","-8","-5","square","2","0"
"null","326878","SARL_v6","SARL_v6tpz1eeap","5f63d462fb4c4713b69d4bb7","feedback","","","<div class=""verylowPoints_sq""> -5 </div>","null","","na","test","","","NaN","","","","","","","","2","","75","","","","","","2",""
"null","327690","SARL_v6","SARL_v6tpz1eeap","5f63d462fb4c4713b69d4bb7","freq","","","img/blue_2bandit_b2.png","null","","70","test","0","","46","","","","circle","square","44","1","3","0.9545454545454546","","","","","","","",""
"null","327844","SARL_v6","SARL_v6tpz1eeap","5f63d462fb4c4713b69d4bb7","fixation","","","img/fixation.png","null","","","test","","","","","","","","","","","","","","","","","","","",""
"352","328199","SARL_v6","SARL_v6tpz1eeap","5f63d462fb4c4713b69d4bb7","freq","","","img/blue_2bandit_b2.png","70","","70","test","1","","47","","","","circle","square","45","2","3","0.9555555555555556","","","","","","","",""
"null","328656","SARL_v6","SARL_v6tpz1eeap","5f63d462fb4c4713b69d4bb7","freq_resp","","","img/blue_2bandit_b.png","70","img/blue_2bandit_b.png","70","test","","","","","","","","","","","3","","","","","","","","",""
"null","328824","SARL_v6","SARL_v6tpz1eeap","5f63d462fb4c4713b69d4bb7","fixation","","","img/fixation.png","null","","","test","","","","","","","","","","","","","","","","","","","",""
"733","329559","SARL_v6","SARL_v6tpz1eeap","5f63d462fb4c4713b69d4bb7","freq","","","img/blue_2bandit_b2.png","70","","70","test","1","","48","","","","circle","square","46","3","3","0.9565217391304348","","","","","","","",""
"null","329635","SARL_v6","SARL_v6tpz1eeap","5f63d462fb4c4713b69d4bb7","freq_resp","","","img/blue_2bandit_b.png","70","img/blue_2bandit_b.png","70","test","","","","","","","","","","","3","","","","","","","","",""
"null","329790","SARL_v6","SARL_v6tpz1eeap","5f63d462fb4c4713b69d4bb7","fixation","","","img/fixation.png","null","","","test","","","","","","","","","","","","","","","","","","","",""
"626","330419","SARL_v6","SARL_v6tpz1eeap","5f63d462fb4c4713b69d4bb7","freq","","","img/blue_2bandit_b2.png","70","","70","test","1","","49","","","","circle","square","47","4","3","0.9574468085106383","","","","","","","",""
"null","330609","SARL_v6","SARL_v6tpz1eeap","5f63d462fb4c4713b69d4bb7","freq_resp","","","img/blue_2bandit_b.png","70","img/blue_2bandit_b.png","70","test","","","","","","","","","","","3","","","","","","","","",""
"null","330766","SARL_v6","SARL_v6tpz1eeap","5f63d462fb4c4713b69d4bb7","fixation","","","img/fixation.png","null","","","test","","","","","","","","","","","","","","","","","","","",""
"371","331139","SARL_v6","SARL_v6tpz1eeap","5f63d462fb4c4713b69d4bb7","freq","","","img/blue_2bandit_b2.png","70","","70","test","1","","50","","","","circle","square","48","5","3","0.9583333333333334","","","","","","","",""
"null","331575","SARL_v6","SARL_v6tpz1eeap","5f63d462fb4c4713b69d4bb7","freq_resp","","","img/blue_2bandit_b.png","70","img/blue_2bandit_b.png","70","test","","","","","","","","","","","3","","","","","","","","",""
"null","331728","SARL_v6","SARL_v6tpz1eeap","5f63d462fb4c4713b69d4bb7","fixation","","","img/fixation.png","null","","","test","","","","","","","","","","","","","","","","","","","",""
"326","332056","SARL_v6","SARL_v6tpz1eeap","5f63d462fb4c4713b69d4bb7","freq","","","img/blue_2bandit_b2.png","70","","70","test","1","","51","","","","circle","square","49","6","3","0.9591836734693877","","","","","","","",""
"null","332537","SARL_v6","SARL_v6tpz1eeap","5f63d462fb4c4713b69d4bb7","freq_resp","","","img/blue_2bandit_b.png","70","img/blue_2bandit_b.png","70","test","","","","","","","","","","","3","","","","","","","","",""
"null","332694","SARL_v6","SARL_v6tpz1eeap","5f63d462fb4c4713b69d4bb7","fixation","","","img/fixation.png","null","","","test","","","","","","","","","","","","","","","","","","","",""
"300","332997","SARL_v6","SARL_v6tpz1eeap","5f63d462fb4c4713b69d4bb7","freq","","","img/blue_2bandit_b2.png","70","","70","test","1","","52","","","","circle","square","50","7","3","0.96","","","","","","","",""
"null","333500","SARL_v6","SARL_v6tpz1eeap","5f63d462fb4c4713b69d4bb7","freq_resp","","","img/blue_2bandit_b.png","70","img/blue_2bandit_b.png","70","test","","","","","","","","","","","3","","","","","","","","",""
"null","333654","SARL_v6","SARL_v6tpz1eeap","5f63d462fb4c4713b69d4bb7","fixation","","","img/fixation.png","null","","","test","","","","","","","","","","","","","","","","","","","",""
"384","334041","SARL_v6","SARL_v6tpz1eeap","5f63d462fb4c4713b69d4bb7","freq","","","img/blue_2bandit_b2.png","70","","70","test","1","","53","","","","circle","square","51","8","3","0.9607843137254902","","","","","","","",""
"null","334469","SARL_v6","SARL_v6tpz1eeap","5f63d462fb4c4713b69d4bb7","freq_resp","","","img/blue_2bandit_b.png","70","img/blue_2bandit_b.png","70","test","","","","","","","","","","","3","","","","","","","","",""
"null","334624","SARL_v6","SARL_v6tpz1eeap","5f63d462fb4c4713b69d4bb7","fixation","","","img/fixation.png","null","","","test","","","","","","","","","","","","","","","","","","","",""
"294","334919","SARL_v6","SARL_v6tpz1eeap","5f63d462fb4c4713b69d4bb7","freq","","","img/blue_2bandit_b2.png","70","","70","test","1","","54","","","","circle","square","52","9","3","0.9615384615384616","","","","","","","",""
"null","335434","SARL_v6","SARL_v6tpz1eeap","5f63d462fb4c4713b69d4bb7","freq_resp","","","img/blue_2bandit_b.png","70","img/blue_2bandit_b.png","70","test","","","","","","","","","","","3","","","","","","","","",""
"null","335588","SARL_v6","SARL_v6tpz1eeap","5f63d462fb4c4713b69d4bb7","fixation","","","img/fixation.png","null","","","test","","","","","","","","","","","","","","","","","","","",""
"366","335955","SARL_v6","SARL_v6tpz1eeap","5f63d462fb4c4713b69d4bb7","freq","","","img/blue_2bandit_b2.png","70","","70","test","1","","55","","","","circle","square","53","10","3","0.9622641509433962","","","","","","","",""
"null","336397","SARL_v6","SARL_v6tpz1eeap","5f63d462fb4c4713b69d4bb7","freq_resp","","","img/blue_2bandit_b.png","70","img/blue_2bandit_b.png","70","test","","","","","","","","","","","3","","","","","","","","",""
"null","336551","SARL_v6","SARL_v6tpz1eeap","5f63d462fb4c4713b69d4bb7","fixation","","","img/fixation.png","null","","","test","","","","","","","","","","","","","","","","","","","",""
"402","336956","SARL_v6","SARL_v6tpz1eeap","5f63d462fb4c4713b69d4bb7","freq","","","img/blue_2bandit_b2.png","70","","70","test","1","","56","","","","circle","square","54","11","3","0.9629629629629629","","","","","","","",""
"null","337359","SARL_v6","SARL_v6tpz1eeap","5f63d462fb4c4713b69d4bb7","freq_resp","","","img/blue_2bandit_b.png","70","img/blue_2bandit_b.png","70","test","","","","","","","","","","","3","","","","","","","","",""
"null","337518","SARL_v6","SARL_v6tpz1eeap","5f63d462fb4c4713b69d4bb7","fixation","","","img/fixation.png","null","","","test","","","","","","","","","","","","","","","","","","","",""
"358","337878","SARL_v6","SARL_v6tpz1eeap","5f63d462fb4c4713b69d4bb7","freq","","","img/blue_2bandit_b2.png","70","","70","test","1","","57","","","","circle","square","55","12","3","0.9636363636363636","","","","","","","",""
"null","338325","SARL_v6","SARL_v6tpz1eeap","5f63d462fb4c4713b69d4bb7","freq_resp","","","img/blue_2bandit_b.png","70","img/blue_2bandit_b.png","70","test","","","","","","","","","","","3","","","","","","","","",""
"null","338481","SARL_v6","SARL_v6tpz1eeap","5f63d462fb4c4713b69d4bb7","fixation","","","img/fixation.png","null","","","test","","","","","","","","","","","","","","","","","","","",""
"327","338811","SARL_v6","SARL_v6tpz1eeap","5f63d462fb4c4713b69d4bb7","freq","","","img/blue_2bandit_b2.png","70","","70","test","1","","58","","","","circle","square","56","13","3","0.9642857142857143","","","","","","","",""
"null","339300","SARL_v6","SARL_v6tpz1eeap","5f63d462fb4c4713b69d4bb7","freq_resp","","","img/blue_2bandit_b.png","70","img/blue_2bandit_b.png","70","test","","","","","","","","","","","3","","","","","","","","",""
"null","339457","SARL_v6","SARL_v6tpz1eeap","5f63d462fb4c4713b69d4bb7","fixation","","","img/fixation.png","null","","","test","","","","","","","","","","","","","","","","","","","",""
"569","340029","SARL_v6","SARL_v6tpz1eeap","5f63d462fb4c4713b69d4bb7","infreq","","","img/orange_2bandit_b2.png","68","","68","test","1","","59","","","","circle","square","57","14","3","0.9649122807017544","","","","","","","",""
"null","340266","SARL_v6","SARL_v6tpz1eeap","5f63d462fb4c4713b69d4bb7","infreq_resp","","","img/orange_2bandit_b.png","68","img/orange_2bandit_b.png","68","test","","","","","","","","","","","3","","","","","","","","",""
"null","340422","SARL_v6","SARL_v6tpz1eeap","5f63d462fb4c4713b69d4bb7","fixation","","","img/fixation.png","null","","","test","","","","","","","","","","","","","","","","","","","",""
"561","340986","SARL_v6","SARL_v6tpz1eeap","5f63d462fb4c4713b69d4bb7","freq","","","img/blue_2bandit_b2.png","70","","70","test","1","","60","","","","circle","square","58","15","3","0.9655172413793104","","","","","","","",""
"null","341231","SARL_v6","SARL_v6tpz1eeap","5f63d462fb4c4713b69d4bb7","freq_resp","","","img/blue_2bandit_b.png","70","img/blue_2bandit_b.png","70","test","","","","","","","","","","","3","","","","","","","","",""
"null","341386","SARL_v6","SARL_v6tpz1eeap","5f63d462fb4c4713b69d4bb7","fixation","","","img/fixation.png","null","","","test","","","","","","","","","","","","","","","","","","","",""
"430","341818","SARL_v6","SARL_v6tpz1eeap","5f63d462fb4c4713b69d4bb7","freq","","","img/blue_2bandit_b2.png","70","","70","test","1","","61","","","","circle","square","59","16","3","0.9661016949152542","","","","","","","",""
"null","342201","SARL_v6","SARL_v6tpz1eeap","5f63d462fb4c4713b69d4bb7","freq_resp","","","img/blue_2bandit_b.png","70","img/blue_2bandit_b.png","70","test","","","","","","","","","","","3","","","","","","","","",""
"null","342356","SARL_v6","SARL_v6tpz1eeap","5f63d462fb4c4713b69d4bb7","fixation","","","img/fixation.png","null","","","test","","","","","","","","","","","","","","","","","","","",""
"411","342771","SARL_v6","SARL_v6tpz1eeap","5f63d462fb4c4713b69d4bb7","freq","","","img/blue_2bandit_b2.png","70","","70","test","1","","62","","","","circle","square","60","17","3","0.9666666666666667","","","","","","","",""
"null","343172","SARL_v6","SARL_v6tpz1eeap","5f63d462fb4c4713b69d4bb7","freq_resp","","","img/blue_2bandit_b.png","70","img/blue_2bandit_b.png","70","test","","","","","","","","","","","3","","","","","","","","",""
"null","343327","SARL_v6","SARL_v6tpz1eeap","5f63d462fb4c4713b69d4bb7","fixation","","","img/fixation.png","null","","","test","","","","","","","","","","","","","","","","","","","",""
"583","343913","SARL_v6","SARL_v6tpz1eeap","5f63d462fb4c4713b69d4bb7","freq","","","img/blue_2bandit_b2.png","70","","70","test","1","","63","","","","circle","square","61","18","3","0.9672131147540983","","","","","","","",""
"null","344135","SARL_v6","SARL_v6tpz1eeap","5f63d462fb4c4713b69d4bb7","freq_resp","","","img/blue_2bandit_b.png","70","img/blue_2bandit_b.png","70","test","","","","","","","","","","","3","","","","","","","","",""
"null","344293","SARL_v6","SARL_v6tpz1eeap","5f63d462fb4c4713b69d4bb7","fixation","","","img/fixation.png","null","","","test","","","","","","","","","","","","","","","","","","","",""
"681","344978","SARL_v6","SARL_v6tpz1eeap","5f63d462fb4c4713b69d4bb7","freq","","","img/blue_2bandit_b2.png","70","","70","test","1","","64","","","","circle","square","62","19","3","0.967741935483871","","","","","","","",""
"null","345101","SARL_v6","SARL_v6tpz1eeap","5f63d462fb4c4713b69d4bb7","freq_resp","","","img/blue_2bandit_b.png","70","img/blue_2bandit_b.png","70","test","","","","","","","","","","","3","","","","","","","","",""
"null","345259","SARL_v6","SARL_v6tpz1eeap","5f63d462fb4c4713b69d4bb7","fixation","","","img/fixation.png","null","","","test","","","","","","","","","","","","","","","","","","","",""
"677","345937","SARL_v6","SARL_v6tpz1eeap","5f63d462fb4c4713b69d4bb7","freq","","","img/blue_2bandit_b2.png","70","","70","test","1","","65","","","","circle","square","63","20","3","0.9682539682539683","","","","","","","",""
"null","346070","SARL_v6","SARL_v6tpz1eeap","5f63d462fb4c4713b69d4bb7","freq_resp","","","img/blue_2bandit_b.png","70","img/blue_2bandit_b.png","70","test","","","","","","","","","","","3","","","","","","","","",""
"null","346228","SARL_v6","SARL_v6tpz1eeap","5f63d462fb4c4713b69d4bb7","fixation","","","img/fixation.png","null","","","test","","","","","","","","","","","","","","","","","","","",""
"493","346723","SARL_v6","SARL_v6tpz1eeap","5f63d462fb4c4713b69d4bb7","infreq","","","img/orange_2bandit_b2.png","68","","68","test","1","","66","","","","circle","square","64","21","3","0.96875","","","","","","","",""
"null","347041","SARL_v6","SARL_v6tpz1eeap","5f63d462fb4c4713b69d4bb7","infreq_resp","","","img/orange_2bandit_b.png","68","img/orange_2bandit_b.png","68","test","","","","","","","","","","","3","","","","","","","","",""
"null","347197","SARL_v6","SARL_v6tpz1eeap","5f63d462fb4c4713b69d4bb7","fixation","","","img/fixation.png","null","","","test","","","","","","","","","","","","","","","","","","","",""
"485","347685","SARL_v6","SARL_v6tpz1eeap","5f63d462fb4c4713b69d4bb7","freq","","","img/blue_2bandit_b2.png","70","","70","test","1","","67","","","","circle","square","65","22","3","0.9692307692307692","","","","","","","",""
"null","348005","SARL_v6","SARL_v6tpz1eeap","5f63d462fb4c4713b69d4bb7","freq_resp","","","img/blue_2bandit_b.png","70","img/blue_2bandit_b.png","70","test","","","","","","","","","","","3","","","","","","","","",""
"null","348161","SARL_v6","SARL_v6tpz1eeap","5f63d462fb4c4713b69d4bb7","fixation","","","img/fixation.png","null","","","test","","","","","","","","","","","","","","","","","","","",""
"610","348774","SARL_v6","SARL_v6tpz1eeap","5f63d462fb4c4713b69d4bb7","rl","","","img/black_2bandit_b2.png","74","","0","test","","","68","","","-8","circle","square","","0","3","","74","-8","-4","-8","-4","circle","3","0"
"null","349540","SARL_v6","SARL_v6tpz1eeap","5f63d462fb4c4713b69d4bb7","feedback","","","<div class=""verylowPoints""> -8 </div>","null","","na","test","","","NaN","","","","","","","","3","","74","","","","","","3",""
"705","350247","SARL_v6","SARL_v6tpz1eeap","5f63d462fb4c4713b69d4bb7","freq","","","img/blue_2bandit_b2.png","70","","70","test","1","","69","","","","circle","square","66","1","4","0.9696969696969697","","","","","","","",""
"null","350350","SARL_v6","SARL_v6tpz1eeap","5f63d462fb4c4713b69d4bb7","freq_resp","","","img/blue_2bandit_b.png","70","img/blue_2bandit_b.png","70","test","","","","","","","","","","","4","","","","","","","","",""
"null","350503","SARL_v6","SARL_v6tpz1eeap","5f63d462fb4c4713b69d4bb7","fixation","","","img/fixation.png","null","","","test","","","","","","","","","","","","","","","","","","","",""
"397","350903","SARL_v6","SARL_v6tpz1eeap","5f63d462fb4c4713b69d4bb7","freq","","","img/blue_2bandit_b2.png","70","","70","test","1","","70","","","","circle","square","67","2","4","0.9701492537313433","","","","","","","",""
"null","351313","SARL_v6","SARL_v6tpz1eeap","5f63d462fb4c4713b69d4bb7","freq_resp","","","img/blue_2bandit_b.png","70","img/blue_2bandit_b.png","70","test","","","","","","","","","","","4","","","","","","","","",""
"null","351468","SARL_v6","SARL_v6tpz1eeap","5f63d462fb4c4713b69d4bb7","fixation","","","img/fixation.png","null","","","test","","","","","","","","","","","","","","","","","","","",""
"349","351820","SARL_v6","SARL_v6tpz1eeap","5f63d462fb4c4713b69d4bb7","freq","","","img/blue_2bandit_b2.png","70","","70","test","1","","71","","","","circle","square","68","3","4","0.9705882352941176","","","","","","","",""
"null","352282","SARL_v6","SARL_v6tpz1eeap","5f63d462fb4c4713b69d4bb7","freq_resp","","","img/blue_2bandit_b.png","70","img/blue_2bandit_b.png","70","test","","","","","","","","","","","4","","","","","","","","",""
"null","352438","SARL_v6","SARL_v6tpz1eeap","5f63d462fb4c4713b69d4bb7","fixation","","","img/fixation.png","null","","","test","","","","","","","","","","","","","","","","","","","",""
"351","352792","SARL_v6","SARL_v6tpz1eeap","5f63d462fb4c4713b69d4bb7","freq","","","img/blue_2bandit_b2.png","70","","70","test","1","","72","","","","circle","square","69","4","4","0.9710144927536232","","","","","","","",""
"null","353247","SARL_v6","SARL_v6tpz1eeap","5f63d462fb4c4713b69d4bb7","freq_resp","","","img/blue_2bandit_b.png","70","img/blue_2bandit_b.png","70","test","","","","","","","","","","","4","","","","","","","","",""
"null","353404","SARL_v6","SARL_v6tpz1eeap","5f63d462fb4c4713b69d4bb7","fixation","","","img/fixation.png","null","","","test","","","","","","","","","","","","","","","","","","","",""
"326","353731","SARL_v6","SARL_v6tpz1eeap","5f63d462fb4c4713b69d4bb7","freq","","","img/blue_2bandit_b2.png","70","","70","test","1","","73","","","","circle","square","70","5","4","0.9714285714285714","","","","","","","",""
"null","354212","SARL_v6","SARL_v6tpz1eeap","5f63d462fb4c4713b69d4bb7","freq_resp","","","img/blue_2bandit_b.png","70","img/blue_2bandit_b.png","70","test","","","","","","","","","","","4","","","","","","","","",""
"null","354366","SARL_v6","SARL_v6tpz1eeap","5f63d462fb4c4713b69d4bb7","fixation","","","img/fixation.png","null","","","test","","","","","","","","","","","","","","","","","","","",""
"332","354699","SARL_v6","SARL_v6tpz1eeap","5f63d462fb4c4713b69d4bb7","freq","","","img/blue_2bandit_b2.png","70","","70","test","1","","74","","","","circle","square","71","6","4","0.971830985915493","","","","","","","",""
"null","355173","SARL_v6","SARL_v6tpz1eeap","5f63d462fb4c4713b69d4bb7","freq_resp","","","img/blue_2bandit_b.png","70","img/blue_2bandit_b.png","70","test","","","","","","","","","","","4","","","","","","","","",""
"null","355331","SARL_v6","SARL_v6tpz1eeap","5f63d462fb4c4713b69d4bb7","fixation","","","img/fixation.png","null","","","test","","","","","","","","","","","","","","","","","","","",""
"343","355675","SARL_v6","SARL_v6tpz1eeap","5f63d462fb4c4713b69d4bb7","freq","","","img/blue_2bandit_b2.png","70","","70","test","1","","75","","","","circle","square","72","7","4","0.9722222222222222","","","","","","","",""
"null","356139","SARL_v6","SARL_v6tpz1eeap","5f63d462fb4c4713b69d4bb7","freq_resp","","","img/blue_2bandit_b.png","70","img/blue_2bandit_b.png","70","test","","","","","","","","","","","4","","","","","","","","",""
"null","356296","SARL_v6","SARL_v6tpz1eeap","5f63d462fb4c4713b69d4bb7","fixation","","","img/fixation.png","null","","","test","","","","","","","","","","","","","","","","","","","",""
"416","356715","SARL_v6","SARL_v6tpz1eeap","5f63d462fb4c4713b69d4bb7","freq","","","img/blue_2bandit_b2.png","70","","70","test","1","","76","","","","circle","square","73","8","4","0.9726027397260274","","","","","","","",""
"null","357102","SARL_v6","SARL_v6tpz1eeap","5f63d462fb4c4713b69d4bb7","freq_resp","","","img/blue_2bandit_b.png","70","img/blue_2bandit_b.png","70","test","","","","","","","","","","","4","","","","","","","","",""
"null","357257","SARL_v6","SARL_v6tpz1eeap","5f63d462fb4c4713b69d4bb7","fixation","","","img/fixation.png","null","","","test","","","","","","","","","","","","","","","","","","","",""
"388","357647","SARL_v6","SARL_v6tpz1eeap","5f63d462fb4c4713b69d4bb7","freq","","","img/blue_2bandit_b2.png","70","","70","test","1","","77","","","","circle","square","74","9","4","0.972972972972973","","","","","","","",""
"null","358075","SARL_v6","SARL_v6tpz1eeap","5f63d462fb4c4713b69d4bb7","freq_resp","","","img/blue_2bandit_b.png","70","img/blue_2bandit_b.png","70","test","","","","","","","","","","","4","","","","","","","","",""
"null","358230","SARL_v6","SARL_v6tpz1eeap","5f63d462fb4c4713b69d4bb7","fixation","","","img/fixation.png","null","","","test","","","","","","","","","","","","","","","","","","","",""
"625","358858","SARL_v6","SARL_v6tpz1eeap","5f63d462fb4c4713b69d4bb7","freq","","","img/blue_2bandit_b2.png","70","","70","test","1","","78","","","","circle","square","75","10","4","0.9733333333333334","","","","","","","",""
"null","359039","SARL_v6","SARL_v6tpz1eeap","5f63d462fb4c4713b69d4bb7","freq_resp","","","img/blue_2bandit_b.png","70","img/blue_2bandit_b.png","70","test","","","","","","","","","","","4","","","","","","","","",""
"null","359194","SARL_v6","SARL_v6tpz1eeap","5f63d462fb4c4713b69d4bb7","fixation","","","img/fixation.png","null","","","test","","","","","","","","","","","","","","","","","","","",""
"374","359571","SARL_v6","SARL_v6tpz1eeap","5f63d462fb4c4713b69d4bb7","freq","","","img/blue_2bandit_b2.png","70","","70","test","1","","79","","","","circle","square","76","11","4","0.9736842105263158","","","","","","","",""
"null","360001","SARL_v6","SARL_v6tpz1eeap","5f63d462fb4c4713b69d4bb7","freq_resp","","","img/blue_2bandit_b.png","70","img/blue_2bandit_b.png","70","test","","","","","","","","","","","4","","","","","","","","",""
"null","360155","SARL_v6","SARL_v6tpz1eeap","5f63d462fb4c4713b69d4bb7","fixation","","","img/fixation.png","null","","","test","","","","","","","","","","","","","","","","","","","",""
"274","360431","SARL_v6","SARL_v6tpz1eeap","5f63d462fb4c4713b69d4bb7","freq","","","img/blue_2bandit_b2.png","70","","70","test","1","","80","","","","circle","square","77","12","4","0.974025974025974","","","","","","","",""
"null","360962","SARL_v6","SARL_v6tpz1eeap","5f63d462fb4c4713b69d4bb7","freq_resp","","","img/blue_2bandit_b.png","70","img/blue_2bandit_b.png","70","test","","","","","","","","","","","4","","","","","","","","",""
"null","361122","SARL_v6","SARL_v6tpz1eeap","5f63d462fb4c4713b69d4bb7","fixation","","","img/fixation.png","null","","","test","","","","","","","","","","","","","","","","","","","",""
"419","361544","SARL_v6","SARL_v6tpz1eeap","5f63d462fb4c4713b69d4bb7","freq","","","img/blue_2bandit_b2.png","70","","70","test","1","","81","","","","circle","square","78","13","4","0.9743589743589743","","","","","","","",""
"null","361930","SARL_v6","SARL_v6tpz1eeap","5f63d462fb4c4713b69d4bb7","freq_resp","","","img/blue_2bandit_b.png","70","img/blue_2bandit_b.png","70","test","","","","","","","","","","","4","","","","","","","","",""
"null","362084","SARL_v6","SARL_v6tpz1eeap","5f63d462fb4c4713b69d4bb7","fixation","","","img/fixation.png","null","","","test","","","","","","","","","","","","","","","","","","","",""
"454","362541","SARL_v6","SARL_v6tpz1eeap","5f63d462fb4c4713b69d4bb7","freq","","","img/blue_2bandit_b2.png","70","","70","test","1","","82","","","","circle","square","79","14","4","0.9746835443037974","","","","","","","",""
"null","362892","SARL_v6","SARL_v6tpz1eeap","5f63d462fb4c4713b69d4bb7","freq_resp","","","img/blue_2bandit_b.png","70","img/blue_2bandit_b.png","70","test","","","","","","","","","","","4","","","","","","","","",""
"null","363047","SARL_v6","SARL_v6tpz1eeap","5f63d462fb4c4713b69d4bb7","fixation","","","img/fixation.png","null","","","test","","","","","","","","","","","","","","","","","","","",""
"507","363557","SARL_v6","SARL_v6tpz1eeap","5f63d462fb4c4713b69d4bb7","freq","","","img/blue_2bandit_b2.png","70","","70","test","1","","83","","","","circle","square","80","15","4","0.975","","","","","","","",""
"null","363855","SARL_v6","SARL_v6tpz1eeap","5f63d462fb4c4713b69d4bb7","freq_resp","","","img/blue_2bandit_b.png","70","img/blue_2bandit_b.png","70","test","","","","","","","","","","","4","","","","","","","","",""
"null","364010","SARL_v6","SARL_v6tpz1eeap","5f63d462fb4c4713b69d4bb7","fixation","","","img/fixation.png","null","","","test","","","","","","","","","","","","","","","","","","","",""
"726","364739","SARL_v6","SARL_v6tpz1eeap","5f63d462fb4c4713b69d4bb7","freq","","","img/blue_2bandit_b2.png","70","","70","test","1","","84","","","","circle","square","81","16","4","0.9753086419753086","","","","","","","",""
"null","364820","SARL_v6","SARL_v6tpz1eeap","5f63d462fb4c4713b69d4bb7","freq_resp","","","img/blue_2bandit_b.png","70","img/blue_2bandit_b.png","70","test","","","","","","","","","","","4","","","","","","","","",""
"null","364977","SARL_v6","SARL_v6tpz1eeap","5f63d462fb4c4713b69d4bb7","fixation","","","img/fixation.png","null","","","test","","","","","","","","","","","","","","","","","","","",""
"717","365697","SARL_v6","SARL_v6tpz1eeap","5f63d462fb4c4713b69d4bb7","freq","","","img/blue_2bandit_b2.png","70","","70","test","1","","85","","","","circle","square","82","17","4","0.975609756097561","","","","","","","",""
"null","365787","SARL_v6","SARL_v6tpz1eeap","5f63d462fb4c4713b69d4bb7","freq_resp","","","img/blue_2bandit_b.png","70","img/blue_2bandit_b.png","70","test","","","","","","","","","","","4","","","","","","","","",""
"null","365942","SARL_v6","SARL_v6tpz1eeap","5f63d462fb4c4713b69d4bb7","fixation","","","img/fixation.png","null","","","test","","","","","","","","","","","","","","","","","","","",""
"412","366356","SARL_v6","SARL_v6tpz1eeap","5f63d462fb4c4713b69d4bb7","freq","","","img/blue_2bandit_b2.png","70","","70","test","1","","86","","","","circle","square","83","18","4","0.9759036144578314","","","","","","","",""
"null","366759","SARL_v6","SARL_v6tpz1eeap","5f63d462fb4c4713b69d4bb7","freq_resp","","","img/blue_2bandit_b.png","70","img/blue_2bandit_b.png","70","test","","","","","","","","","","","4","","","","","","","","",""
"null","366913","SARL_v6","SARL_v6tpz1eeap","5f63d462fb4c4713b69d4bb7","fixation","","","img/fixation.png","null","","","test","","","","","","","","","","","","","","","","","","","",""
"340","367255","SARL_v6","SARL_v6tpz1eeap","5f63d462fb4c4713b69d4bb7","freq","","","img/blue_2bandit_b2.png","70","","70","test","1","","87","","","","circle","square","84","19","4","0.9761904761904762","","","","","","","",""
"null","367721","SARL_v6","SARL_v6tpz1eeap","5f63d462fb4c4713b69d4bb7","freq_resp","","","img/blue_2bandit_b.png","70","img/blue_2bandit_b.png","70","test","","","","","","","","","","","4","","","","","","","","",""
"null","367877","SARL_v6","SARL_v6tpz1eeap","5f63d462fb4c4713b69d4bb7","fixation","","","img/fixation.png","null","","","test","","","","","","","","","","","","","","","","","","","",""
"336","368216","SARL_v6","SARL_v6tpz1eeap","5f63d462fb4c4713b69d4bb7","freq","","","img/blue_2bandit_b2.png","70","","70","test","1","","88","","","","circle","square","85","20","4","0.9764705882352941","","","","","","","",""
"null","368686","SARL_v6","SARL_v6tpz1eeap","5f63d462fb4c4713b69d4bb7","freq_resp","","","img/blue_2bandit_b.png","70","img/blue_2bandit_b.png","70","test","","","","","","","","","","","4","","","","","","","","",""
"null","368841","SARL_v6","SARL_v6tpz1eeap","5f63d462fb4c4713b69d4bb7","fixation","","","img/fixation.png","null","","","test","","","","","","","","","","","","","","","","","","","",""
"476","369319","SARL_v6","SARL_v6tpz1eeap","5f63d462fb4c4713b69d4bb7","infreq","","","img/orange_2bandit_b2.png","68","","68","test","1","","89","","","","circle","square","86","21","4","0.9767441860465116","","","","","","","",""
"null","369648","SARL_v6","SARL_v6tpz1eeap","5f63d462fb4c4713b69d4bb7","infreq_resp","","","img/orange_2bandit_b.png","68","img/orange_2bandit_b.png","68","test","","","","","","","","","","","4","","","","","","","","",""
"null","369802","SARL_v6","SARL_v6tpz1eeap","5f63d462fb4c4713b69d4bb7","fixation","","","img/fixation.png","null","","","test","","","","","","","","","","","","","","","","","","","",""
"545","370350","SARL_v6","SARL_v6tpz1eeap","5f63d462fb4c4713b69d4bb7","freq","","","img/blue_2bandit_b2.png","70","","70","test","1","","90","","","","circle","square","87","22","4","0.9770114942528736","","","","","","","",""
"null","370611","SARL_v6","SARL_v6tpz1eeap","5f63d462fb4c4713b69d4bb7","freq_resp","","","img/blue_2bandit_b.png","70","img/blue_2bandit_b.png","70","test","","","","","","","","","","","4","","","","","","","","",""
"null","370764","SARL_v6","SARL_v6tpz1eeap","5f63d462fb4c4713b69d4bb7","fixation","","","img/fixation.png","null","","","test","","","","","","","","","","","","","","","","","","","",""
"502","371269","SARL_v6","SARL_v6tpz1eeap","5f63d462fb4c4713b69d4bb7","infreq","","","img/orange_2bandit_b2.png","68","","68","test","1","","91","","","","circle","square","88","23","4","0.9772727272727273","","","","","","","",""
"null","371570","SARL_v6","SARL_v6tpz1eeap","5f63d462fb4c4713b69d4bb7","infreq_resp","","","img/orange_2bandit_b.png","68","img/orange_2bandit_b.png","68","test","","","","","","","","","","","4","","","","","","","","",""
"null","371725","SARL_v6","SARL_v6tpz1eeap","5f63d462fb4c4713b69d4bb7","fixation","","","img/fixation.png","null","","","test","","","","","","","","","","","","","","","","","","","",""
"481","372208","SARL_v6","SARL_v6tpz1eeap","5f63d462fb4c4713b69d4bb7","freq","","","img/blue_2bandit_b2.png","70","","70","test","1","","92","","","","circle","square","89","24","4","0.9775280898876404","","","","","","","",""
"null","372530","SARL_v6","SARL_v6tpz1eeap","5f63d462fb4c4713b69d4bb7","freq_resp","","","img/blue_2bandit_b.png","70","img/blue_2bandit_b.png","70","test","","","","","","","","","","","4","","","","","","","","",""
"null","372685","SARL_v6","SARL_v6tpz1eeap","5f63d462fb4c4713b69d4bb7","fixation","","","img/fixation.png","null","","","test","","","","","","","","","","","","","","","","","","","",""
"353","373039","SARL_v6","SARL_v6tpz1eeap","5f63d462fb4c4713b69d4bb7","freq","","","img/blue_2bandit_b2.png","70","","70","test","1","","93","","","","circle","square","90","25","4","0.9777777777777777","","","","","","","",""
"null","373492","SARL_v6","SARL_v6tpz1eeap","5f63d462fb4c4713b69d4bb7","freq_resp","","","img/blue_2bandit_b.png","70","img/blue_2bandit_b.png","70","test","","","","","","","","","","","4","","","","","","","","",""
"null","373647","SARL_v6","SARL_v6tpz1eeap","5f63d462fb4c4713b69d4bb7","fixation","","","img/fixation.png","null","","","test","","","","","","","","","","","","","","","","","","","",""
"821","374470","SARL_v6","SARL_v6tpz1eeap","5f63d462fb4c4713b69d4bb7","rl","","","img/black_2bandit_b2.png","74","","0","test","","","94","","","-12","circle","square","","0","4","","74","-12","0","-12","0","circle","4","0"
"null","375234","SARL_v6","SARL_v6tpz1eeap","5f63d462fb4c4713b69d4bb7","feedback","","","<div class=""verylowPoints""> -12 </div>","null","","na","test","","","NaN","","","","","","","","4","","74","","","","","","4",""
"582","375818","SARL_v6","SARL_v6tpz1eeap","5f63d462fb4c4713b69d4bb7","freq","","","img/blue_2bandit_b2.png","70","","70","test","1","","95","","","","circle","square","91","1","5","0.978021978021978","","","","","","","",""
"null","376045","SARL_v6","SARL_v6tpz1eeap","5f63d462fb4c4713b69d4bb7","freq_resp","","","img/blue_2bandit_b.png","70","img/blue_2bandit_b.png","70","test","","","","","","","","","","","5","","","","","","","","",""
"null","376199","SARL_v6","SARL_v6tpz1eeap","5f63d462fb4c4713b69d4bb7","fixation","","","img/fixation.png","null","","","test","","","","","","","","","","","","","","","","","","","",""
"452","376653","SARL_v6","SARL_v6tpz1eeap","5f63d462fb4c4713b69d4bb7","freq","","","img/blue_2bandit_b2.png","70","","70","test","1","","96","","","","circle","square","92","2","5","0.9782608695652174","","","","","","","",""
"null","377008","SARL_v6","SARL_v6tpz1eeap","5f63d462fb4c4713b69d4bb7","freq_resp","","","img/blue_2bandit_b.png","70","img/blue_2bandit_b.png","70","test","","","","","","","","","","","5","","","","","","","","",""
"null","377163","SARL_v6","SARL_v6tpz1eeap","5f63d462fb4c4713b69d4bb7","fixation","","","img/fixation.png","null","","","test","","","","","","","","","","","","","","","","","","","",""
"370","377535","SARL_v6","SARL_v6tpz1eeap","5f63d462fb4c4713b69d4bb7","freq","","","img/blue_2bandit_b2.png","70","","70","test","1","","97","","","","circle","square","93","3","5","0.978494623655914","","","","","","","",""
"null","377973","SARL_v6","SARL_v6tpz1eeap","5f63d462fb4c4713b69d4bb7","freq_resp","","","img/blue_2bandit_b.png","70","img/blue_2bandit_b.png","70","test","","","","","","","","","","","5","","","","","","","","",""
"null","378129","SARL_v6","SARL_v6tpz1eeap","5f63d462fb4c4713b69d4bb7","fixation","","","img/fixation.png","null","","","test","","","","","","","","","","","","","","","","","","","",""
"445","378576","SARL_v6","SARL_v6tpz1eeap","5f63d462fb4c4713b69d4bb7","freq","","","img/blue_2bandit_b2.png","70","","70","test","1","","98","","","","circle","square","94","4","5","0.9787234042553191","","","","","","","",""
"null","378947","SARL_v6","SARL_v6tpz1eeap","5f63d462fb4c4713b69d4bb7","freq_resp","","","img/blue_2bandit_b.png","70","img/blue_2bandit_b.png","70","test","","","","","","","","","","","5","","","","","","","","",""
"null","379100","SARL_v6","SARL_v6tpz1eeap","5f63d462fb4c4713b69d4bb7","fixation","","","img/fixation.png","null","","","test","","","","","","","","","","","","","","","","","","","",""
"422","379525","SARL_v6","SARL_v6tpz1eeap","5f63d462fb4c4713b69d4bb7","freq","","","img/blue_2bandit_b2.png","70","","70","test","1","","99","","","","circle","square","95","5","5","0.9789473684210527","","","","","","","",""
"null","379908","SARL_v6","SARL_v6tpz1eeap","5f63d462fb4c4713b69d4bb7","freq_resp","","","img/blue_2bandit_b.png","70","img/blue_2bandit_b.png","70","test","","","","","","","","","","","5","","","","","","","","",""
"null","380062","SARL_v6","SARL_v6tpz1eeap","5f63d462fb4c4713b69d4bb7","fixation","","","img/fixation.png","null","","","test","","","","","","","","","","","","","","","","","","","",""
"460","380525","SARL_v6","SARL_v6tpz1eeap","5f63d462fb4c4713b69d4bb7","freq","","","img/blue_2bandit_b2.png","70","","70","test","1","","100","","","","circle","square","96","6","5","0.9791666666666666","","","","","","","",""
"null","380872","SARL_v6","SARL_v6tpz1eeap","5f63d462fb4c4713b69d4bb7","freq_resp","","","img/blue_2bandit_b.png","70","img/blue_2bandit_b.png","70","test","","","","","","","","","","","5","","","","","","","","",""
"null","381028","SARL_v6","SARL_v6tpz1eeap","5f63d462fb4c4713b69d4bb7","fixation","","","img/fixation.png","null","","","test","","","","","","","","","","","","","","","","","","","",""
"385","381414","SARL_v6","SARL_v6tpz1eeap","5f63d462fb4c4713b69d4bb7","freq","","","img/blue_2bandit_b2.png","70","","70","test","1","","101","","","","circle","square","97","7","5","0.979381443298969","","","","","","","",""
"null","381837","SARL_v6","SARL_v6tpz1eeap","5f63d462fb4c4713b69d4bb7","freq_resp","","","img/blue_2bandit_b.png","70","img/blue_2bandit_b.png","70","test","","","","","","","","","","","5","","","","","","","","",""
"null","381993","SARL_v6","SARL_v6tpz1eeap","5f63d462fb4c4713b69d4bb7","fixation","","","img/fixation.png","null","","","test","","","","","","","","","","","","","","","","","","","",""
"526","382521","SARL_v6","SARL_v6tpz1eeap","5f63d462fb4c4713b69d4bb7","freq","","","img/blue_2bandit_b2.png","70","","70","test","1","","102","","","","circle","square","98","8","5","0.9795918367346939","","","","","","","",""
"null","382811","SARL_v6","SARL_v6tpz1eeap","5f63d462fb4c4713b69d4bb7","freq_resp","","","img/blue_2bandit_b.png","70","img/blue_2bandit_b.png","70","test","","","","","","","","","","","5","","","","","","","","",""
"null","382967","SARL_v6","SARL_v6tpz1eeap","5f63d462fb4c4713b69d4bb7","fixation","","","img/fixation.png","null","","","test","","","","","","","","","","","","","","","","","","","",""
"526","383496","SARL_v6","SARL_v6tpz1eeap","5f63d462fb4c4713b69d4bb7","freq","","","img/blue_2bandit_b2.png","70","","70","test","1","","103","","","","circle","square","99","9","5","0.9797979797979798","","","","","","","",""
"null","383779","SARL_v6","SARL_v6tpz1eeap","5f63d462fb4c4713b69d4bb7","freq_resp","","","img/blue_2bandit_b.png","70","img/blue_2bandit_b.png","70","test","","","","","","","","","","","5","","","","","","","","",""
"null","383937","SARL_v6","SARL_v6tpz1eeap","5f63d462fb4c4713b69d4bb7","fixation","","","img/fixation.png","null","","","test","","","","","","","","","","","","","","","","","","","",""
"504","384443","SARL_v6","SARL_v6tpz1eeap","5f63d462fb4c4713b69d4bb7","freq","","","img/blue_2bandit_b2.png","70","","70","test","1","","104","","","","circle","square","100","10","5","0.98","","","","","","","",""
"null","384743","SARL_v6","SARL_v6tpz1eeap","5f63d462fb4c4713b69d4bb7","freq_resp","","","img/blue_2bandit_b.png","70","img/blue_2bandit_b.png","70","test","","","","","","","","","","","5","","","","","","","","",""
"null","384903","SARL_v6","SARL_v6tpz1eeap","5f63d462fb4c4713b69d4bb7","fixation","","","img/fixation.png","null","","","test","","","","","","","","","","","","","","","","","","","",""
"609","385515","SARL_v6","SARL_v6tpz1eeap","5f63d462fb4c4713b69d4bb7","freq","","","img/blue_2bandit_b2.png","70","","70","test","1","","105","","","","circle","square","101","11","5","0.9801980198019802","","","","","","","",""
"null","385716","SARL_v6","SARL_v6tpz1eeap","5f63d462fb4c4713b69d4bb7","freq_resp","","","img/blue_2bandit_b.png","70","img/blue_2bandit_b.png","70","test","","","","","","","","","","","5","","","","","","","","",""
"null","385871","SARL_v6","SARL_v6tpz1eeap","5f63d462fb4c4713b69d4bb7","fixation","","","img/fixation.png","null","","","test","","","","","","","","","","","","","","","","","","","",""
"null","386678","SARL_v6","SARL_v6tpz1eeap","5f63d462fb4c4713b69d4bb7","freq","","","img/blue_2bandit_b2.png","null","","70","test","0","","106","","","","circle","square","102","12","5","0.9705882352941176","","","","","","","",""
"null","386832","SARL_v6","SARL_v6tpz1eeap","5f63d462fb4c4713b69d4bb7","fixation","","","img/fixation.png","null","","","test","","","","","","","","","","","","","","","","","","","",""
"361","387195","SARL_v6","SARL_v6tpz1eeap","5f63d462fb4c4713b69d4bb7","freq","","","img/blue_2bandit_b2.png","70","","70","test","1","","107","","","","circle","square","103","13","5","0.970873786407767","","","","","","","",""
"null","387642","SARL_v6","SARL_v6tpz1eeap","5f63d462fb4c4713b69d4bb7","freq_resp","","","img/blue_2bandit_b.png","70","img/blue_2bandit_b.png","70","test","","","","","","","","","","","5","","","","","","","","",""
"null","387797","SARL_v6","SARL_v6tpz1eeap","5f63d462fb4c4713b69d4bb7","fixation","","","img/fixation.png","null","","","test","","","","","","","","","","","","","","","","","","","",""
"451","388248","SARL_v6","SARL_v6tpz1eeap","5f63d462fb4c4713b69d4bb7","freq","","","img/blue_2bandit_b2.png","70","","70","test","1","","108","","","","circle","square","104","14","5","0.9711538461538461","","","","","","","",""
"null","388604","SARL_v6","SARL_v6tpz1eeap","5f63d462fb4c4713b69d4bb7","freq_resp","","","img/blue_2bandit_b.png","70","img/blue_2bandit_b.png","70","test","","","","","","","","","","","5","","","","","","","","",""
"null","388760","SARL_v6","SARL_v6tpz1eeap","5f63d462fb4c4713b69d4bb7","fixation","","","img/fixation.png","null","","","test","","","","","","","","","","","","","","","","","","","",""
"458","389222","SARL_v6","SARL_v6tpz1eeap","5f63d462fb4c4713b69d4bb7","freq","","","img/blue_2bandit_b2.png","70","","70","test","1","","109","","","","circle","square","105","15","5","0.9714285714285714","","","","","","","",""
"null","389581","SARL_v6","SARL_v6tpz1eeap","5f63d462fb4c4713b69d4bb7","freq_resp","","","img/blue_2bandit_b.png","70","img/blue_2bandit_b.png","70","test","","","","","","","","","","","5","","","","","","","","",""
"null","389735","SARL_v6","SARL_v6tpz1eeap","5f63d462fb4c4713b69d4bb7","fixation","","","img/fixation.png","null","","","test","","","","","","","","","","","","","","","","","","","",""
"398","390134","SARL_v6","SARL_v6tpz1eeap","5f63d462fb4c4713b69d4bb7","freq","","","img/blue_2bandit_b2.png","70","","70","test","1","","110","","","","circle","square","106","16","5","0.9716981132075472","","","","","","","",""
"null","390541","SARL_v6","SARL_v6tpz1eeap","5f63d462fb4c4713b69d4bb7","freq_resp","","","img/blue_2bandit_b.png","70","img/blue_2bandit_b.png","70","test","","","","","","","","","","","5","","","","","","","","",""
"null","390695","SARL_v6","SARL_v6tpz1eeap","5f63d462fb4c4713b69d4bb7","fixation","","","img/fixation.png","null","","","test","","","","","","","","","","","","","","","","","","","",""
"432","391129","SARL_v6","SARL_v6tpz1eeap","5f63d462fb4c4713b69d4bb7","freq","","","img/blue_2bandit_b2.png","70","","70","test","1","","111","","","","circle","square","107","17","5","0.9719626168224299","","","","","","","",""
"null","391502","SARL_v6","SARL_v6tpz1eeap","5f63d462fb4c4713b69d4bb7","freq_resp","","","img/blue_2bandit_b.png","70","img/blue_2bandit_b.png","70","test","","","","","","","","","","","5","","","","","","","","",""
"null","391657","SARL_v6","SARL_v6tpz1eeap","5f63d462fb4c4713b69d4bb7","fixation","","","img/fixation.png","null","","","test","","","","","","","","","","","","","","","","","","","",""
"274","391935","SARL_v6","SARL_v6tpz1eeap","5f63d462fb4c4713b69d4bb7","freq","","","img/blue_2bandit_b2.png","70","","70","test","1","","112","","","","circle","square","108","18","5","0.9722222222222222","","","","","","","",""
"null","392472","SARL_v6","SARL_v6tpz1eeap","5f63d462fb4c4713b69d4bb7","freq_resp","","","img/blue_2bandit_b.png","70","img/blue_2bandit_b.png","70","test","","","","","","","","","","","5","","","","","","","","",""
"null","392631","SARL_v6","SARL_v6tpz1eeap","5f63d462fb4c4713b69d4bb7","fixation","","","img/fixation.png","null","","","test","","","","","","","","","","","","","","","","","","","",""
"382","393015","SARL_v6","SARL_v6tpz1eeap","5f63d462fb4c4713b69d4bb7","freq","","","img/blue_2bandit_b2.png","70","","70","test","1","","113","","","","circle","square","109","19","5","0.9724770642201835","","","","","","","",""
"null","393450","SARL_v6","SARL_v6tpz1eeap","5f63d462fb4c4713b69d4bb7","freq_resp","","","img/blue_2bandit_b.png","70","img/blue_2bandit_b.png","70","test","","","","","","","","","","","5","","","","","","","","",""
"null","393607","SARL_v6","SARL_v6tpz1eeap","5f63d462fb4c4713b69d4bb7","fixation","","","img/fixation.png","null","","","test","","","","","","","","","","","","","","","","","","","",""
"298","393907","SARL_v6","SARL_v6tpz1eeap","5f63d462fb4c4713b69d4bb7","freq","","","img/blue_2bandit_b2.png","70","","70","test","1","","114","","","","circle","square","110","20","5","0.9727272727272728","","","","","","","",""
"null","394423","SARL_v6","SARL_v6tpz1eeap","5f63d462fb4c4713b69d4bb7","freq_resp","","","img/blue_2bandit_b.png","70","img/blue_2bandit_b.png","70","test","","","","","","","","","","","5","","","","","","","","",""
"null","394578","SARL_v6","SARL_v6tpz1eeap","5f63d462fb4c4713b69d4bb7","fixation","","","img/fixation.png","null","","","test","","","","","","","","","","","","","","","","","","","",""
"541","395122","SARL_v6","SARL_v6tpz1eeap","5f63d462fb4c4713b69d4bb7","infreq","","","img/orange_2bandit_b2.png","68","","68","test","1","","115","","","","circle","square","111","21","5","0.972972972972973","","","","","","","",""
"null","395391","SARL_v6","SARL_v6tpz1eeap","5f63d462fb4c4713b69d4bb7","infreq_resp","","","img/orange_2bandit_b.png","68","img/orange_2bandit_b.png","68","test","","","","","","","","","","","5","","","","","","","","",""
"null","395547","SARL_v6","SARL_v6tpz1eeap","5f63d462fb4c4713b69d4bb7","fixation","","","img/fixation.png","null","","","test","","","","","","","","","","","","","","","","","","","",""
"457","396007","SARL_v6","SARL_v6tpz1eeap","5f63d462fb4c4713b69d4bb7","infreq","","","img/orange_2bandit_b2.png","68","","68","test","1","","116","","","","circle","square","112","22","5","0.9732142857142857","","","","","","","",""
"null","396357","SARL_v6","SARL_v6tpz1eeap","5f63d462fb4c4713b69d4bb7","infreq_resp","","","img/orange_2bandit_b.png","68","img/orange_2bandit_b.png","68","test","","","","","","","","","","","5","","","","","","","","",""
"null","396513","SARL_v6","SARL_v6tpz1eeap","5f63d462fb4c4713b69d4bb7","fixation","","","img/fixation.png","null","","","test","","","","","","","","","","","","","","","","","","","",""
"513","397028","SARL_v6","SARL_v6tpz1eeap","5f63d462fb4c4713b69d4bb7","freq","","","img/blue_2bandit_b2.png","70","","70","test","1","","117","","","","circle","square","113","23","5","0.9734513274336283","","","","","","","",""
"null","397321","SARL_v6","SARL_v6tpz1eeap","5f63d462fb4c4713b69d4bb7","freq_resp","","","img/blue_2bandit_b.png","70","img/blue_2bandit_b.png","70","test","","","","","","","","","","","5","","","","","","","","",""
"null","397477","SARL_v6","SARL_v6tpz1eeap","5f63d462fb4c4713b69d4bb7","fixation","","","img/fixation.png","null","","","test","","","","","","","","","","","","","","","","","","","",""
"580","398059","SARL_v6","SARL_v6tpz1eeap","5f63d462fb4c4713b69d4bb7","freq","","","img/blue_2bandit_b2.png","70","","70","test","1","","118","","","","circle","square","114","24","5","0.9736842105263158","","","","","","","",""
"null","398284","SARL_v6","SARL_v6tpz1eeap","5f63d462fb4c4713b69d4bb7","freq_resp","","","img/blue_2bandit_b.png","70","img/blue_2bandit_b.png","70","test","","","","","","","","","","","5","","","","","","","","",""
"null","398440","SARL_v6","SARL_v6tpz1eeap","5f63d462fb4c4713b69d4bb7","fixation","","","img/fixation.png","null","","","test","","","","","","","","","","","","","","","","","","","",""
"601","399042","SARL_v6","SARL_v6tpz1eeap","5f63d462fb4c4713b69d4bb7","rl","","","img/black_2bandit_b2.png","74","","0","test","","","119","","","-7","circle","square","","0","5","","74","-7","4","-7","4","circle","5","0"
"null","399808","SARL_v6","SARL_v6tpz1eeap","5f63d462fb4c4713b69d4bb7","feedback","","","<div class=""verylowPoints""> -7 </div>","null","","na","test","","","NaN","","","","","","","","5","","74","","","","","","5",""
"423","400232","SARL_v6","SARL_v6tpz1eeap","5f63d462fb4c4713b69d4bb7","freq","","","img/blue_2bandit_b2.png","70","","70","test","1","","120","","","","circle","square","115","1","6","0.9739130434782609","","","","","","","",""
"null","400615","SARL_v6","SARL_v6tpz1eeap","5f63d462fb4c4713b69d4bb7","freq_resp","","","img/blue_2bandit_b.png","70","img/blue_2bandit_b.png","70","test","","","","","","","","","","","6","","","","","","","","",""
"null","400772","SARL_v6","SARL_v6tpz1eeap","5f63d462fb4c4713b69d4bb7","fixation","","","img/fixation.png","null","","","test","","","","","","","","","","","","","","","","","","","",""
"326","401101","SARL_v6","SARL_v6tpz1eeap","5f63d462fb4c4713b69d4bb7","freq","","","img/blue_2bandit_b2.png","70","","70","test","1","","121","","","","circle","square","116","2","6","0.9741379310344828","","","","","","","",""
"null","401581","SARL_v6","SARL_v6tpz1eeap","5f63d462fb4c4713b69d4bb7","freq_resp","","","img/blue_2bandit_b.png","70","img/blue_2bandit_b.png","70","test","","","","","","","","","","","6","","","","","","","","",""
"null","401735","SARL_v6","SARL_v6tpz1eeap","5f63d462fb4c4713b69d4bb7","fixation","","","img/fixation.png","null","","","test","","","","","","","","","","","","","","","","","","","",""
"349","402086","SARL_v6","SARL_v6tpz1eeap","5f63d462fb4c4713b69d4bb7","freq","","","img/blue_2bandit_b2.png","70","","70","test","1","","122","","","","circle","square","117","3","6","0.9743589743589743","","","","","","","",""
"null","402545","SARL_v6","SARL_v6tpz1eeap","5f63d462fb4c4713b69d4bb7","freq_resp","","","img/blue_2bandit_b.png","70","img/blue_2bandit_b.png","70","test","","","","","","","","","","","6","","","","","","","","",""
"null","402701","SARL_v6","SARL_v6tpz1eeap","5f63d462fb4c4713b69d4bb7","fixation","","","img/fixation.png","null","","","test","","","","","","","","","","","","","","","","","","","",""
"520","403224","SARL_v6","SARL_v6tpz1eeap","5f63d462fb4c4713b69d4bb7","infreq","","","img/orange_2bandit_b2.png","68","","68","test","1","","123","","","","circle","square","118","4","6","0.9745762711864406","","","","","","","",""
"null","403515","SARL_v6","SARL_v6tpz1eeap","5f63d462fb4c4713b69d4bb7","infreq_resp","","","img/orange_2bandit_b.png","68","img/orange_2bandit_b.png","68","test","","","","","","","","","","","6","","","","","","","","",""
"null","403668","SARL_v6","SARL_v6tpz1eeap","5f63d462fb4c4713b69d4bb7","fixation","","","img/fixation.png","null","","","test","","","","","","","","","","","","","","","","","","","",""
"623","404293","SARL_v6","SARL_v6tpz1eeap","5f63d462fb4c4713b69d4bb7","freq","","","img/blue_2bandit_b2.png","70","","70","test","1","","124","","","","circle","square","119","5","6","0.9747899159663865","","","","","","","",""
"null","404477","SARL_v6","SARL_v6tpz1eeap","5f63d462fb4c4713b69d4bb7","freq_resp","","","img/blue_2bandit_b.png","70","img/blue_2bandit_b.png","70","test","","","","","","","","","","","6","","","","","","","","",""
"null","404632","SARL_v6","SARL_v6tpz1eeap","5f63d462fb4c4713b69d4bb7","fixation","","","img/fixation.png","null","","","test","","","","","","","","","","","","","","","","","","","",""
"612","405246","SARL_v6","SARL_v6tpz1eeap","5f63d462fb4c4713b69d4bb7","freq","","","img/blue_2bandit_b2.png","70","","70","test","1","","125","","","","circle","square","120","6","6","0.975","","","","","","","",""
"null","405441","SARL_v6","SARL_v6tpz1eeap","5f63d462fb4c4713b69d4bb7","freq_resp","","","img/blue_2bandit_b.png","70","img/blue_2bandit_b.png","70","test","","","","","","","","","","","6","","","","","","","","",""
"null","405595","SARL_v6","SARL_v6tpz1eeap","5f63d462fb4c4713b69d4bb7","fixation","","","img/fixation.png","null","","","test","","","","","","","","","","","","","","","","","","","",""
"568","406167","SARL_v6","SARL_v6tpz1eeap","5f63d462fb4c4713b69d4bb7","freq","","","img/blue_2bandit_b2.png","70","","70","test","1","","126","","","","circle","square","121","7","6","0.9752066115702479","","","","","","","",""
"null","406408","SARL_v6","SARL_v6tpz1eeap","5f63d462fb4c4713b69d4bb7","freq_resp","","","img/blue_2bandit_b.png","70","img/blue_2bandit_b.png","70","test","","","","","","","","","","","6","","","","","","","","",""
"null","406563","SARL_v6","SARL_v6tpz1eeap","5f63d462fb4c4713b69d4bb7","fixation","","","img/fixation.png","null","","","test","","","","","","","","","","","","","","","","","","","",""
"518","407083","SARL_v6","SARL_v6tpz1eeap","5f63d462fb4c4713b69d4bb7","freq","","","img/blue_2bandit_b2.png","70","","70","test","1","","127","","","","circle","square","122","8","6","0.9754098360655737","","","","","","","",""
"null","407376","SARL_v6","SARL_v6tpz1eeap","5f63d462fb4c4713b69d4bb7","freq_resp","","","img/blue_2bandit_b.png","70","img/blue_2bandit_b.png","70","test","","","","","","","","","","","6","","","","","","","","",""
"null","407534","SARL_v6","SARL_v6tpz1eeap","5f63d462fb4c4713b69d4bb7","fixation","","","img/fixation.png","null","","","test","","","","","","","","","","","","","","","","","","","",""
"547","408082","SARL_v6","SARL_v6tpz1eeap","5f63d462fb4c4713b69d4bb7","infreq","","","img/orange_2bandit_b2.png","68","","68","test","1","","128","","","","circle","square","123","9","6","0.975609756097561","","","","","","","",""
"null","408340","SARL_v6","SARL_v6tpz1eeap","5f63d462fb4c4713b69d4bb7","infreq_resp","","","img/orange_2bandit_b.png","68","img/orange_2bandit_b.png","68","test","","","","","","","","","","","6","","","","","","","","",""
"null","408495","SARL_v6","SARL_v6tpz1eeap","5f63d462fb4c4713b69d4bb7","fixation","","","img/fixation.png","null","","","test","","","","","","","","","","","","","","","","","","","",""
"524","409021","SARL_v6","SARL_v6tpz1eeap","5f63d462fb4c4713b69d4bb7","freq","","","img/blue_2bandit_b2.png","70","","70","test","1","","129","","","","circle","square","124","10","6","0.9758064516129032","","","","","","","",""
"null","409306","SARL_v6","SARL_v6tpz1eeap","5f63d462fb4c4713b69d4bb7","freq_resp","","","img/blue_2bandit_b.png","70","img/blue_2bandit_b.png","70","test","","","","","","","","","","","6","","","","","","","","",""
"null","409460","SARL_v6","SARL_v6tpz1eeap","5f63d462fb4c4713b69d4bb7","fixation","","","img/fixation.png","null","","","test","","","","","","","","","","","","","","","","","","","",""
"614","410076","SARL_v6","SARL_v6tpz1eeap","5f63d462fb4c4713b69d4bb7","freq","","","img/blue_2bandit_b2.png","70","","70","test","1","","130","","","","circle","square","125","11","6","0.976","","","","","","","",""
"null","410269","SARL_v6","SARL_v6tpz1eeap","5f63d462fb4c4713b69d4bb7","freq_resp","","","img/blue_2bandit_b.png","70","img/blue_2bandit_b.png","70","test","","","","","","","","","","","6","","","","","","","","",""
"null","410426","SARL_v6","SARL_v6tpz1eeap","5f63d462fb4c4713b69d4bb7","fixation","","","img/fixation.png","null","","","test","","","","","","","","","","","","","","","","","","","",""
"477","410906","SARL_v6","SARL_v6tpz1eeap","5f63d462fb4c4713b69d4bb7","freq","","","img/blue_2bandit_b2.png","70","","70","test","1","","131","","","","circle","square","126","12","6","0.9761904761904762","","","","","","","",""
"null","411233","SARL_v6","SARL_v6tpz1eeap","5f63d462fb4c4713b69d4bb7","freq_resp","","","img/blue_2bandit_b.png","70","img/blue_2bandit_b.png","70","test","","","","","","","","","","","6","","","","","","","","",""
"null","411387","SARL_v6","SARL_v6tpz1eeap","5f63d462fb4c4713b69d4bb7","fixation","","","img/fixation.png","null","","","test","","","","","","","","","","","","","","","","","","","",""
"493","411882","SARL_v6","SARL_v6tpz1eeap","5f63d462fb4c4713b69d4bb7","freq","","","img/blue_2bandit_b2.png","70","","70","test","1","","132","","","","circle","square","127","13","6","0.9763779527559056","","","","","","","",""
"null","412192","SARL_v6","SARL_v6tpz1eeap","5f63d462fb4c4713b69d4bb7","freq_resp","","","img/blue_2bandit_b.png","70","img/blue_2bandit_b.png","70","test","","","","","","","","","","","6","","","","","","","","",""
"null","412347","SARL_v6","SARL_v6tpz1eeap","5f63d462fb4c4713b69d4bb7","fixation","","","img/fixation.png","null","","","test","","","","","","","","","","","","","","","","","","","",""
"489","412839","SARL_v6","SARL_v6tpz1eeap","5f63d462fb4c4713b69d4bb7","freq","","","img/blue_2bandit_b2.png","70","","70","test","1","","133","","","","circle","square","128","14","6","0.9765625","","","","","","","",""
"null","413159","SARL_v6","SARL_v6tpz1eeap","5f63d462fb4c4713b69d4bb7","freq_resp","","","img/blue_2bandit_b.png","70","img/blue_2bandit_b.png","70","test","","","","","","","","","","","6","","","","","","","","",""
"null","413314","SARL_v6","SARL_v6tpz1eeap","5f63d462fb4c4713b69d4bb7","fixation","","","img/fixation.png","null","","","test","","","","","","","","","","","","","","","","","","","",""
"483","413799","SARL_v6","SARL_v6tpz1eeap","5f63d462fb4c4713b69d4bb7","freq","","","img/blue_2bandit_b2.png","70","","70","test","1","","134","","","","circle","square","129","15","6","0.9767441860465116","","","","","","","",""
"null","414122","SARL_v6","SARL_v6tpz1eeap","5f63d462fb4c4713b69d4bb7","freq_resp","","","img/blue_2bandit_b.png","70","img/blue_2bandit_b.png","70","test","","","","","","","","","","","6","","","","","","","","",""
"null","414275","SARL_v6","SARL_v6tpz1eeap","5f63d462fb4c4713b69d4bb7","fixation","","","img/fixation.png","null","","","test","","","","","","","","","","","","","","","","","","","",""
