"rt","time_elapsed","expId","subject","prolificID","trialType","rlType","attType","stimulus","key_press","stim","corrresp","phase","corr","pracCounter","trialNum","rewardOne","rewardTwo","reward","bandOne","bandTwo","attentionNum","attentionRunNum","blockNum","performance","bandChosen","circleVal","squareVal","bandOneVal","bandTwoVal","shapeChosen","rlNum","badFlag"
"8515.899999976158","8518","SARL_v6","SARL_v6qxdokw8x","5f07707fb5dc861477ffc395","","","","","","","","","","","","","","","","","","","","","","","","","","","",""
"","12221","SARL_v6","SARL_v6qxdokw8x","5f07707fb5dc861477ffc395","fullscreen","fullscreen","fullscreen","","","","","","","","","","","","","","","","","","","","","","","","",""
"46036.09999996424","58261","SARL_v6","SARL_v6qxdokw8x","5f07707fb5dc861477ffc395","","","","","","","","","","","","","","","","","","","","","","","","","","","",""
"null","59078","SARL_v6","SARL_v6qxdokw8x","5f07707fb5dc861477ffc395","freqPrac","","","img/blue_2bandit_b2.png","null","img/blue_2bandit_b2.png","70","prac","0","1","","","","","","","","","","","","","","","","","",""
"null","60091","SARL_v6","SARL_v6qxdokw8x","5f07707fb5dc861477ffc395","feedback","","","img/tooSlow.png","null","","na","prac","","","","","","","","","","","","","","","","","","","",""
"null","60245","SARL_v6","SARL_v6qxdokw8x","5f07707fb5dc861477ffc395","fixation","","","img/fixation.png","null","","","prac","","","","","","","","","","","","","","","","","","","",""
"570.8999999761581","60819","SARL_v6","SARL_v6qxdokw8x","5f07707fb5dc861477ffc395","infreqPrac","","","img/orange_2bandit_b2.png","68","img/orange_2bandit_b2.png","68","prac","1","1","","","","","","","","","","","","","","","","","",""
"570.8999999761581","61062","SARL_v6","SARL_v6qxdokw8x","5f07707fb5dc861477ffc395","infreqPrac_resp","","","img/orange_2bandit_b.png","68","img/orange_2bandit_b.png","68","prac","","","","","","","","","","","","","","","","","","","",""
"null","61225","SARL_v6","SARL_v6qxdokw8x","5f07707fb5dc861477ffc395","fixation","","","img/fixation.png","null","","","prac","","","","","","","","","","","","","","","","","","","",""
"439.30000001192093","61668","SARL_v6","SARL_v6qxdokw8x","5f07707fb5dc861477ffc395","freqPrac","","","img/blue_2bandit_b2.png","70","img/blue_2bandit_b2.png","70","prac","1","1","","","","","","","","","","","","","","","","","",""
"439.30000001192093","62048","SARL_v6","SARL_v6qxdokw8x","5f07707fb5dc861477ffc395","freqPrac_resp","","","img/blue_2bandit_b.png","70","img/blue_2bandit_b.png","70","prac","","","","","","","","","","","","","","","","","","","",""
"null","62211","SARL_v6","SARL_v6qxdokw8x","5f07707fb5dc861477ffc395","fixation","","","img/fixation.png","null","","","prac","","","","","","","","","","","","","","","","","","","",""
"429","62643","SARL_v6","SARL_v6qxdokw8x","5f07707fb5dc861477ffc395","infreqPrac","","","img/orange_2bandit_b2.png","68","img/orange_2bandit_b2.png","68","prac","1","1","","","","","","","","","","","","","","","","","",""
"429","63029","SARL_v6","SARL_v6qxdokw8x","5f07707fb5dc861477ffc395","infreqPrac_resp","","","img/orange_2bandit_b.png","68","img/orange_2bandit_b.png","68","prac","","","","","","","","","","","","","","","","","","","",""
"null","63182","SARL_v6","SARL_v6qxdokw8x","5f07707fb5dc861477ffc395","fixation","","","img/fixation.png","null","","","prac","","","","","","","","","","","","","","","","","","","",""
"449.69999998807907","63635","SARL_v6","SARL_v6qxdokw8x","5f07707fb5dc861477ffc395","infreqPrac","","","img/orange_2bandit_b2.png","68","img/orange_2bandit_b2.png","68","prac","1","1","","","","","","","","","","","","","","","","","",""
"449.69999998807907","64000","SARL_v6","SARL_v6qxdokw8x","5f07707fb5dc861477ffc395","infreqPrac_resp","","","img/orange_2bandit_b.png","68","img/orange_2bandit_b.png","68","prac","","","","","","","","","","","","","","","","","","","",""
"null","64153","SARL_v6","SARL_v6qxdokw8x","5f07707fb5dc861477ffc395","fixation","","","img/fixation.png","null","","","prac","","","","","","","","","","","","","","","","","","","",""
"391.39999997615814","64547","SARL_v6","SARL_v6qxdokw8x","5f07707fb5dc861477ffc395","infreqPrac","","","img/orange_2bandit_b2.png","68","img/orange_2bandit_b2.png","68","prac","1","1","","","","","","","","","","","","","","","","","",""
"391.39999997615814","64971","SARL_v6","SARL_v6qxdokw8x","5f07707fb5dc861477ffc395","infreqPrac_resp","","","img/orange_2bandit_b.png","68","img/orange_2bandit_b.png","68","prac","","","","","","","","","","","","","","","","","","","",""
"null","65133","SARL_v6","SARL_v6qxdokw8x","5f07707fb5dc861477ffc395","fixation","","","img/fixation.png","null","","","prac","","","","","","","","","","","","","","","","","","","",""
"371.30000001192093","65507","SARL_v6","SARL_v6qxdokw8x","5f07707fb5dc861477ffc395","freqPrac","","","img/blue_2bandit_b2.png","68","img/blue_2bandit_b2.png","70","prac","0","2","","","","","","","","","","","","","","","","","",""
"371.30000001192093","65957","SARL_v6","SARL_v6qxdokw8x","5f07707fb5dc861477ffc395","freqPrac_resp","","","img/blue_2bandit_b.png","68","img/blue_2bandit_b.png","70","prac","","","","","","","","","","","","","","","","","","","",""
"null","66960","SARL_v6","SARL_v6qxdokw8x","5f07707fb5dc861477ffc395","feedback","","","img/wrongKey.png","null","","na","prac","","","","","","","","","","","","","","","","","","","",""
"null","67114","SARL_v6","SARL_v6qxdokw8x","5f07707fb5dc861477ffc395","fixation","","","img/fixation.png","null","","","prac","","","","","","","","","","","","","","","","","","","",""
"678.2999999523163","67795","SARL_v6","SARL_v6qxdokw8x","5f07707fb5dc861477ffc395","infreqPrac","","","img/orange_2bandit_b2.png","68","img/orange_2bandit_b2.png","68","prac","1","2","","","","","","","","","","","","","","","","","",""
"678.2999999523163","67920","SARL_v6","SARL_v6qxdokw8x","5f07707fb5dc861477ffc395","infreqPrac_resp","","","img/orange_2bandit_b.png","68","img/orange_2bandit_b.png","68","prac","","","","","","","","","","","","","","","","","","","",""
"null","68079","SARL_v6","SARL_v6qxdokw8x","5f07707fb5dc861477ffc395","fixation","","","img/fixation.png","null","","","prac","","","","","","","","","","","","","","","","","","","",""
"417.30000001192093","68500","SARL_v6","SARL_v6qxdokw8x","5f07707fb5dc861477ffc395","freqPrac","","","img/blue_2bandit_b2.png","70","img/blue_2bandit_b2.png","70","prac","1","2","","","","","","","","","","","","","","","","","",""
"417.30000001192093","68897","SARL_v6","SARL_v6qxdokw8x","5f07707fb5dc861477ffc395","freqPrac_resp","","","img/blue_2bandit_b.png","70","img/blue_2bandit_b.png","70","prac","","","","","","","","","","","","","","","","","","","",""
"null","69067","SARL_v6","SARL_v6qxdokw8x","5f07707fb5dc861477ffc395","fixation","","","img/fixation.png","null","","","prac","","","","","","","","","","","","","","","","","","","",""
"438","69507","SARL_v6","SARL_v6qxdokw8x","5f07707fb5dc861477ffc395","freqPrac","","","img/blue_2bandit_b2.png","70","img/blue_2bandit_b2.png","70","prac","1","2","","","","","","","","","","","","","","","","","",""
"438","69884","SARL_v6","SARL_v6qxdokw8x","5f07707fb5dc861477ffc395","freqPrac_resp","","","img/blue_2bandit_b.png","70","img/blue_2bandit_b.png","70","prac","","","","","","","","","","","","","","","","","","","",""
"null","70046","SARL_v6","SARL_v6qxdokw8x","5f07707fb5dc861477ffc395","fixation","","","img/fixation.png","null","","","prac","","","","","","","","","","","","","","","","","","","",""
"23862.5","93910","SARL_v6","SARL_v6qxdokw8x","5f07707fb5dc861477ffc395","","","","","","","","prac","","","","","","","","","","","","","","","","","","","",""
"969.8000000119209","94883","SARL_v6","SARL_v6qxdokw8x","5f07707fb5dc861477ffc395","rlPractice","","","img/black_2bandit_b2.png","75","img/black_2bandit_b2.png","","prac","","","0","","","","","","","","","","","","","","","","",""
"null","95649","SARL_v6","SARL_v6qxdokw8x","5f07707fb5dc861477ffc395","feedback","","","<div class=""verylowPoints_sq""> -14 </div>","null","","na","prac","","","1","10","-14","10","","","","","","","","","","","","","",""
"null","95812","SARL_v6","SARL_v6qxdokw8x","5f07707fb5dc861477ffc395","fixation","","","img/fixation.png","null","","","prac","","","","","","","","","","","","","","","","","","","",""
"348.89999997615814","96163","SARL_v6","SARL_v6qxdokw8x","5f07707fb5dc861477ffc395","rlPractice","","","img/black_2bandit_b2.png","74","img/black_2bandit_b2.png","","prac","","","1","","","","","","","","","","","","","","","","",""
"null","96936","SARL_v6","SARL_v6qxdokw8x","5f07707fb5dc861477ffc395","feedback","","","<div class=""veryhighPoints""> 5 </div>","null","","na","prac","","","2","5","-5","5","","","","","","","","","","","","","",""
"null","97099","SARL_v6","SARL_v6qxdokw8x","5f07707fb5dc861477ffc395","fixation","","","img/fixation.png","null","","","prac","","","","","","","","","","","","","","","","","","","",""
"277.5","97379","SARL_v6","SARL_v6qxdokw8x","5f07707fb5dc861477ffc395","rlPractice","","","img/black_2bandit_b2.png","75","img/black_2bandit_b2.png","","prac","","","2","","","","","","","","","","","","","","","","",""
"null","98139","SARL_v6","SARL_v6qxdokw8x","5f07707fb5dc861477ffc395","feedback","","","<div class=""veryhighPoints_sq""> 2 </div>","null","","na","prac","","","3","30","2","30","","","","","","","","","","","","","",""
"null","98301","SARL_v6","SARL_v6qxdokw8x","5f07707fb5dc861477ffc395","fixation","","","img/fixation.png","null","","","prac","","","","","","","","","","","","","","","","","","","",""
"355","98659","SARL_v6","SARL_v6qxdokw8x","5f07707fb5dc861477ffc395","rlPractice","","","img/black_2bandit_b2.png","74","img/black_2bandit_b2.png","","prac","","","3","","","","","","","","","","","","","","","","",""
"null","99419","SARL_v6","SARL_v6qxdokw8x","5f07707fb5dc861477ffc395","feedback","","","<div class=""verylowPoints""> -2 </div>","null","","na","prac","","","4","-2","20","-2","","","","","","","","","","","","","",""
"null","99588","SARL_v6","SARL_v6qxdokw8x","5f07707fb5dc861477ffc395","fixation","","","img/fixation.png","null","","","prac","","","","","","","","","","","","","","","","","","","",""
"11356.199999988079","110946","SARL_v6","SARL_v6qxdokw8x","5f07707fb5dc861477ffc395","","","","","","","","prac","","","","","","","","","","","","","","","","","","","",""
"null","111764","SARL_v6","SARL_v6qxdokw8x","5f07707fb5dc861477ffc395","mixAttFreqPrac","","","img/blue_2bandit_b2.png","null","img/blue_2bandit_b2.png","70","prac","","","1","","","","","","","","","","","","","","","","",""
"null","111925","SARL_v6","SARL_v6qxdokw8x","5f07707fb5dc861477ffc395","fixation","","","img/fixation.png","null","","","prac","","","","","","","","","","","","","","","","","","","",""
"75.19999998807907","112002","SARL_v6","SARL_v6qxdokw8x","5f07707fb5dc861477ffc395","mixAttInfreqPrac","","","img/orange_2bandit_b2.png","70","img/orange_2bandit_b2.png","68","prac","","","2","","","","","","","","","","","","","","","","",""
"75.19999998807907","112744","SARL_v6","SARL_v6qxdokw8x","5f07707fb5dc861477ffc395","infreqPrac_resp","","","img/orange_2bandit_b.png","70","img/blue_2bandit_b.png","68","prac","","","2","","","","","","","","","","","","","","","","",""
"null","112914","SARL_v6","SARL_v6qxdokw8x","5f07707fb5dc861477ffc395","fixation","","","img/fixation.png","null","","","prac","","","","","","","","","","","","","","","","","","","",""
"574.0999999642372","113490","SARL_v6","SARL_v6qxdokw8x","5f07707fb5dc861477ffc395","mixAttInfreqPrac","","","img/orange_2bandit_b2.png","68","img/orange_2bandit_b2.png","68","prac","","","3","","","","","","","","","","","","","","","","",""
"574.0999999642372","113735","SARL_v6","SARL_v6qxdokw8x","5f07707fb5dc861477ffc395","infreqPrac_resp","","","img/orange_2bandit_b.png","68","img/blue_2bandit_b.png","68","prac","","","3","","","","","","","","","","","","","","","","",""
"null","113894","SARL_v6","SARL_v6qxdokw8x","5f07707fb5dc861477ffc395","fixation","","","img/fixation.png","null","","","prac","","","","","","","","","","","","","","","","","","","",""
"394.19999998807907","114290","SARL_v6","SARL_v6qxdokw8x","5f07707fb5dc861477ffc395","mixAttInfreqPrac","","","img/orange_2bandit_b2.png","68","img/orange_2bandit_b2.png","68","prac","","","4","","","","","","","","","","","","","","","","",""
"394.19999998807907","114709","SARL_v6","SARL_v6qxdokw8x","5f07707fb5dc861477ffc395","infreqPrac_resp","","","img/orange_2bandit_b.png","68","img/blue_2bandit_b.png","68","prac","","","4","","","","","","","","","","","","","","","","",""
"null","114869","SARL_v6","SARL_v6qxdokw8x","5f07707fb5dc861477ffc395","fixation","","","img/fixation.png","null","","","prac","","","","","","","","","","","","","","","","","","","",""
"667.2000000476837","115539","SARL_v6","SARL_v6qxdokw8x","5f07707fb5dc861477ffc395","mixAttFreqPrac","","","img/blue_2bandit_b2.png","70","img/blue_2bandit_b2.png","70","prac","","","5","","","","","","","","","","","","","","","","",""
"667.2000000476837","115674","SARL_v6","SARL_v6qxdokw8x","5f07707fb5dc861477ffc395","freqPrac_resp","","","img/blue_2bandit_b.png","70","img/blue_2bandit_b.png","70","prac","","","5","","","","","","","","","","","","","","","","",""
"null","115844","SARL_v6","SARL_v6qxdokw8x","5f07707fb5dc861477ffc395","fixation","","","img/fixation.png","null","","","prac","","","","","","","","","","","","","","","","","","","",""
"699.6999999880791","116547","SARL_v6","SARL_v6qxdokw8x","5f07707fb5dc861477ffc395","mixRLPractice","","","img/black_2bandit_b2.png","75","img/black_2bandit_b2.png","","prac","","","5","","","","","","","","","","","","","","","","",""
"null","117318","SARL_v6","SARL_v6qxdokw8x","5f07707fb5dc861477ffc395","feedback","","","<div class=""veryhighPoints_sq""> 10 </div>","null","","na","prac","","","6","-14","10","-14","","","","","","","","","","","","","",""
"null","117485","SARL_v6","SARL_v6qxdokw8x","5f07707fb5dc861477ffc395","fixation","","","img/fixation.png","null","","","prac","","","","","","","","","","","","","","","","","","","",""
"739.4000000357628","118227","SARL_v6","SARL_v6qxdokw8x","5f07707fb5dc861477ffc395","mixAttFreqPrac","","","img/blue_2bandit_b2.png","68","img/blue_2bandit_b2.png","70","prac","","","7","","","","","","","","","","","","","","","","",""
"739.4000000357628","118290","SARL_v6","SARL_v6qxdokw8x","5f07707fb5dc861477ffc395","freqPrac_resp","","","img/blue_2bandit_b.png","68","img/blue_2bandit_b.png","70","prac","","","7","","","","","","","","","","","","","","","","",""
"null","118451","SARL_v6","SARL_v6qxdokw8x","5f07707fb5dc861477ffc395","fixation","","","img/fixation.png","null","","","prac","","","","","","","","","","","","","","","","","","","",""
"604.6000000238419","119059","SARL_v6","SARL_v6qxdokw8x","5f07707fb5dc861477ffc395","mixAttInfreqPrac","","","img/orange_2bandit_b2.png","68","img/orange_2bandit_b2.png","68","prac","","","8","","","","","","","","","","","","","","","","",""
"604.6000000238419","119267","SARL_v6","SARL_v6qxdokw8x","5f07707fb5dc861477ffc395","infreqPrac_resp","","","img/orange_2bandit_b.png","68","img/blue_2bandit_b.png","68","prac","","","8","","","","","","","","","","","","","","","","",""
"null","119420","SARL_v6","SARL_v6qxdokw8x","5f07707fb5dc861477ffc395","fixation","","","img/fixation.png","null","","","prac","","","","","","","","","","","","","","","","","","","",""
"452.0999999642372","119875","SARL_v6","SARL_v6qxdokw8x","5f07707fb5dc861477ffc395","mixAttFreqPrac","","","img/blue_2bandit_b2.png","70","img/blue_2bandit_b2.png","70","prac","","","9","","","","","","","","","","","","","","","","",""
"452.0999999642372","120232","SARL_v6","SARL_v6qxdokw8x","5f07707fb5dc861477ffc395","freqPrac_resp","","","img/blue_2bandit_b.png","70","img/blue_2bandit_b.png","70","prac","","","9","","","","","","","","","","","","","","","","",""
"null","120401","SARL_v6","SARL_v6qxdokw8x","5f07707fb5dc861477ffc395","fixation","","","img/fixation.png","null","","","prac","","","","","","","","","","","","","","","","","","","",""
"398.60000002384186","120802","SARL_v6","SARL_v6qxdokw8x","5f07707fb5dc861477ffc395","mixAttFreqPrac","","","img/blue_2bandit_b2.png","70","img/blue_2bandit_b2.png","70","prac","","","10","","","","","","","","","","","","","","","","",""
"398.60000002384186","121222","SARL_v6","SARL_v6qxdokw8x","5f07707fb5dc861477ffc395","freqPrac_resp","","","img/blue_2bandit_b.png","70","img/blue_2bandit_b.png","70","prac","","","10","","","","","","","","","","","","","","","","",""
"null","121383","SARL_v6","SARL_v6qxdokw8x","5f07707fb5dc861477ffc395","fixation","","","img/fixation.png","null","","","prac","","","","","","","","","","","","","","","","","","","",""
"569.1000000238419","121954","SARL_v6","SARL_v6qxdokw8x","5f07707fb5dc861477ffc395","mixAttInfreqPrac","","","img/orange_2bandit_b2.png","68","img/orange_2bandit_b2.png","68","prac","","","11","","","","","","","","","","","","","","","","",""
"569.1000000238419","122201","SARL_v6","SARL_v6qxdokw8x","5f07707fb5dc861477ffc395","infreqPrac_resp","","","img/orange_2bandit_b.png","68","img/blue_2bandit_b.png","68","prac","","","11","","","","","","","","","","","","","","","","",""
"null","122355","SARL_v6","SARL_v6qxdokw8x","5f07707fb5dc861477ffc395","fixation","","","img/fixation.png","null","","","prac","","","","","","","","","","","","","","","","","","","",""
"669.5","123027","SARL_v6","SARL_v6qxdokw8x","5f07707fb5dc861477ffc395","mixRLPractice","","","img/black_2bandit_b2.png","75","img/black_2bandit_b2.png","","prac","","","11","","","","","","","","","","","","","","","","",""
"null","123790","SARL_v6","SARL_v6qxdokw8x","5f07707fb5dc861477ffc395","feedback","","","<div class=""verylowPoints_sq""> -5 </div>","null","","na","prac","","","12","5","-5","5","","","","","","","","","","","","","",""
"null","123944","SARL_v6","SARL_v6qxdokw8x","5f07707fb5dc861477ffc395","fixation","","","img/fixation.png","null","","","prac","","","","","","","","","","","","","","","","","","","",""
"6682.100000023842","130628","SARL_v6","SARL_v6qxdokw8x","5f07707fb5dc861477ffc395","","","","","","","","prac","","","","","","","","","","","","","","","","","","","",""
"null","131432","SARL_v6","SARL_v6qxdokw8x","5f07707fb5dc861477ffc395","freq","","","img/blue_2bandit_b2.png","null","","70","test","0","","1","","","","circle","square","1","1","1","0","","","","","","","",""
"null","131586","SARL_v6","SARL_v6qxdokw8x","5f07707fb5dc861477ffc395","fixation","","","img/fixation.png","null","","","test","","","","","","","","","","","","","","","","","","","",""
"445.39999997615814","132034","SARL_v6","SARL_v6qxdokw8x","5f07707fb5dc861477ffc395","freq","","","img/blue_2bandit_b2.png","70","","70","test","1","","2","","","","circle","square","2","2","1","0.5","","","","","","","",""
"null","132391","SARL_v6","SARL_v6qxdokw8x","5f07707fb5dc861477ffc395","freq_resp","","","img/blue_2bandit_b.png","70","img/blue_2bandit_b.png","70","test","","","","","","","","","","","1","","","","","","","","",""
"null","132544","SARL_v6","SARL_v6qxdokw8x","5f07707fb5dc861477ffc395","fixation","","","img/fixation.png","null","","","test","","","","","","","","","","","","","","","","","","","",""
"463.69999998807907","133009","SARL_v6","SARL_v6qxdokw8x","5f07707fb5dc861477ffc395","freq","","","img/blue_2bandit_b2.png","70","","70","test","1","","3","","","","circle","square","3","3","1","0.6666666666666666","","","","","","","",""
"null","133366","SARL_v6","SARL_v6qxdokw8x","5f07707fb5dc861477ffc395","freq_resp","","","img/blue_2bandit_b.png","70","img/blue_2bandit_b.png","70","test","","","","","","","","","","","1","","","","","","","","",""
"null","133526","SARL_v6","SARL_v6qxdokw8x","5f07707fb5dc861477ffc395","fixation","","","img/fixation.png","null","","","test","","","","","","","","","","","","","","","","","","","",""
"569.2999999523163","134098","SARL_v6","SARL_v6qxdokw8x","5f07707fb5dc861477ffc395","freq","","","img/blue_2bandit_b2.png","70","","70","test","1","","4","","","","circle","square","4","4","1","0.75","","","","","","","",""
"null","134336","SARL_v6","SARL_v6qxdokw8x","5f07707fb5dc861477ffc395","freq_resp","","","img/blue_2bandit_b.png","70","img/blue_2bandit_b.png","70","test","","","","","","","","","","","1","","","","","","","","",""
"null","134496","SARL_v6","SARL_v6qxdokw8x","5f07707fb5dc861477ffc395","fixation","","","img/fixation.png","null","","","test","","","","","","","","","","","","","","","","","","","",""
"479.10000002384186","134978","SARL_v6","SARL_v6qxdokw8x","5f07707fb5dc861477ffc395","freq","","","img/blue_2bandit_b2.png","70","","70","test","1","","5","","","","circle","square","5","5","1","0.8","","","","","","","",""
"null","135307","SARL_v6","SARL_v6qxdokw8x","5f07707fb5dc861477ffc395","freq_resp","","","img/blue_2bandit_b.png","70","img/blue_2bandit_b.png","70","test","","","","","","","","","","","1","","","","","","","","",""
"null","135459","SARL_v6","SARL_v6qxdokw8x","5f07707fb5dc861477ffc395","fixation","","","img/fixation.png","null","","","test","","","","","","","","","","","","","","","","","","","",""
"412.4000000357628","135875","SARL_v6","SARL_v6qxdokw8x","5f07707fb5dc861477ffc395","freq","","","img/blue_2bandit_b2.png","70","","70","test","1","","6","","","","circle","square","6","6","1","0.8333333333333334","","","","","","","",""
"null","136266","SARL_v6","SARL_v6qxdokw8x","5f07707fb5dc861477ffc395","freq_resp","","","img/blue_2bandit_b.png","70","img/blue_2bandit_b.png","70","test","","","","","","","","","","","1","","","","","","","","",""
"null","136426","SARL_v6","SARL_v6qxdokw8x","5f07707fb5dc861477ffc395","fixation","","","img/fixation.png","null","","","test","","","","","","","","","","","","","","","","","","","",""
"390.30000001192093","136819","SARL_v6","SARL_v6qxdokw8x","5f07707fb5dc861477ffc395","freq","","","img/blue_2bandit_b2.png","70","","70","test","1","","7","","","","circle","square","7","7","1","0.8571428571428571","","","","","","","",""
"null","137236","SARL_v6","SARL_v6qxdokw8x","5f07707fb5dc861477ffc395","freq_resp","","","img/blue_2bandit_b.png","70","img/blue_2bandit_b.png","70","test","","","","","","","","","","","1","","","","","","","","",""
"null","137397","SARL_v6","SARL_v6qxdokw8x","5f07707fb5dc861477ffc395","fixation","","","img/fixation.png","null","","","test","","","","","","","","","","","","","","","","","","","",""
"475","137875","SARL_v6","SARL_v6qxdokw8x","5f07707fb5dc861477ffc395","infreq","","","img/orange_2bandit_b2.png","68","","68","test","1","","8","","","","circle","square","8","8","1","0.875","","","","","","","",""
"null","138227","SARL_v6","SARL_v6qxdokw8x","5f07707fb5dc861477ffc395","infreq_resp","","","img/orange_2bandit_b.png","68","img/orange_2bandit_b.png","68","test","","","","","","","","","","","1","","","","","","","","",""
"null","138396","SARL_v6","SARL_v6qxdokw8x","5f07707fb5dc861477ffc395","fixation","","","img/fixation.png","null","","","test","","","","","","","","","","","","","","","","","","","",""
"419.39999997615814","138819","SARL_v6","SARL_v6qxdokw8x","5f07707fb5dc861477ffc395","freq","","","img/blue_2bandit_b2.png","70","","70","test","1","","9","","","","circle","square","9","9","1","0.8888888888888888","","","","","","","",""
"null","139216","SARL_v6","SARL_v6qxdokw8x","5f07707fb5dc861477ffc395","freq_resp","","","img/blue_2bandit_b.png","70","img/blue_2bandit_b.png","70","test","","","","","","","","","","","1","","","","","","","","",""
"null","139376","SARL_v6","SARL_v6qxdokw8x","5f07707fb5dc861477ffc395","fixation","","","img/fixation.png","null","","","test","","","","","","","","","","","","","","","","","","","",""
"415.19999998807907","139796","SARL_v6","SARL_v6qxdokw8x","5f07707fb5dc861477ffc395","freq","","","img/blue_2bandit_b2.png","70","","70","test","1","","10","","","","circle","square","10","10","1","0.9","","","","","","","",""
"null","140196","SARL_v6","SARL_v6qxdokw8x","5f07707fb5dc861477ffc395","freq_resp","","","img/blue_2bandit_b.png","70","img/blue_2bandit_b.png","70","test","","","","","","","","","","","1","","","","","","","","",""
"null","140366","SARL_v6","SARL_v6qxdokw8x","5f07707fb5dc861477ffc395","fixation","","","img/fixation.png","null","","","test","","","","","","","","","","","","","","","","","","","",""
"401.39999997615814","140771","SARL_v6","SARL_v6qxdokw8x","5f07707fb5dc861477ffc395","freq","","","img/blue_2bandit_b2.png","70","","70","test","1","","11","","","","circle","square","11","11","1","0.9090909090909091","","","","","","","",""
"null","141186","SARL_v6","SARL_v6qxdokw8x","5f07707fb5dc861477ffc395","freq_resp","","","img/blue_2bandit_b.png","70","img/blue_2bandit_b.png","70","test","","","","","","","","","","","1","","","","","","","","",""
"null","141353","SARL_v6","SARL_v6qxdokw8x","5f07707fb5dc861477ffc395","fixation","","","img/fixation.png","null","","","test","","","","","","","","","","","","","","","","","","","",""
"343.0999999642372","141699","SARL_v6","SARL_v6qxdokw8x","5f07707fb5dc861477ffc395","freq","","","img/blue_2bandit_b2.png","70","","70","test","1","","12","","","","circle","square","12","12","1","0.9166666666666666","","","","","","","",""
"null","142169","SARL_v6","SARL_v6qxdokw8x","5f07707fb5dc861477ffc395","freq_resp","","","img/blue_2bandit_b.png","70","img/blue_2bandit_b.png","70","test","","","","","","","","","","","1","","","","","","","","",""
"null","142338","SARL_v6","SARL_v6qxdokw8x","5f07707fb5dc861477ffc395","fixation","","","img/fixation.png","null","","","test","","","","","","","","","","","","","","","","","","","",""
"364.5","142707","SARL_v6","SARL_v6qxdokw8x","5f07707fb5dc861477ffc395","freq","","","img/blue_2bandit_b2.png","70","","70","test","1","","13","","","","circle","square","13","13","1","0.9230769230769231","","","","","","","",""
"null","143155","SARL_v6","SARL_v6qxdokw8x","5f07707fb5dc861477ffc395","freq_resp","","","img/blue_2bandit_b.png","70","img/blue_2bandit_b.png","70","test","","","","","","","","","","","1","","","","","","","","",""
"null","143325","SARL_v6","SARL_v6qxdokw8x","5f07707fb5dc861477ffc395","fixation","","","img/fixation.png","null","","","test","","","","","","","","","","","","","","","","","","","",""
"420","143747","SARL_v6","SARL_v6qxdokw8x","5f07707fb5dc861477ffc395","freq","","","img/blue_2bandit_b2.png","70","","70","test","1","","14","","","","circle","square","14","14","1","0.9285714285714286","","","","","","","",""
"null","144142","SARL_v6","SARL_v6qxdokw8x","5f07707fb5dc861477ffc395","freq_resp","","","img/blue_2bandit_b.png","70","img/blue_2bandit_b.png","70","test","","","","","","","","","","","1","","","","","","","","",""
"null","144305","SARL_v6","SARL_v6qxdokw8x","5f07707fb5dc861477ffc395","fixation","","","img/fixation.png","null","","","test","","","","","","","","","","","","","","","","","","","",""
"527","144835","SARL_v6","SARL_v6qxdokw8x","5f07707fb5dc861477ffc395","infreq","","","img/orange_2bandit_b2.png","68","","68","test","1","","15","","","","circle","square","15","15","1","0.9333333333333333","","","","","","","",""
"null","145129","SARL_v6","SARL_v6qxdokw8x","5f07707fb5dc861477ffc395","infreq_resp","","","img/orange_2bandit_b.png","68","img/orange_2bandit_b.png","68","test","","","","","","","","","","","1","","","","","","","","",""
"null","145291","SARL_v6","SARL_v6qxdokw8x","5f07707fb5dc861477ffc395","fixation","","","img/fixation.png","null","","","test","","","","","","","","","","","","","","","","","","","",""
"501.4000000357628","145796","SARL_v6","SARL_v6qxdokw8x","5f07707fb5dc861477ffc395","freq","","","img/blue_2bandit_b2.png","70","","70","test","1","","16","","","","circle","square","16","16","1","0.9375","","","","","","","",""
"null","146109","SARL_v6","SARL_v6qxdokw8x","5f07707fb5dc861477ffc395","freq_resp","","","img/blue_2bandit_b.png","70","img/blue_2bandit_b.png","70","test","","","","","","","","","","","1","","","","","","","","",""
"null","146262","SARL_v6","SARL_v6qxdokw8x","5f07707fb5dc861477ffc395","fixation","","","img/fixation.png","null","","","test","","","","","","","","","","","","","","","","","","","",""
"425.5","146691","SARL_v6","SARL_v6qxdokw8x","5f07707fb5dc861477ffc395","freq","","","img/blue_2bandit_b2.png","70","","70","test","1","","17","","","","circle","square","17","17","1","0.9411764705882353","","","","","","","",""
"null","147080","SARL_v6","SARL_v6qxdokw8x","5f07707fb5dc861477ffc395","freq_resp","","","img/blue_2bandit_b.png","70","img/blue_2bandit_b.png","70","test","","","","","","","","","","","1","","","","","","","","",""
"null","147233","SARL_v6","SARL_v6qxdokw8x","5f07707fb5dc861477ffc395","fixation","","","img/fixation.png","null","","","test","","","","","","","","","","","","","","","","","","","",""
"398.30000001192093","147635","SARL_v6","SARL_v6qxdokw8x","5f07707fb5dc861477ffc395","freq","","","img/blue_2bandit_b2.png","70","","70","test","1","","18","","","","circle","square","18","18","1","0.9444444444444444","","","","","","","",""
"null","148051","SARL_v6","SARL_v6qxdokw8x","5f07707fb5dc861477ffc395","freq_resp","","","img/blue_2bandit_b.png","70","img/blue_2bandit_b.png","70","test","","","","","","","","","","","1","","","","","","","","",""
"null","148213","SARL_v6","SARL_v6qxdokw8x","5f07707fb5dc861477ffc395","fixation","","","img/fixation.png","null","","","test","","","","","","","","","","","","","","","","","","","",""
"362.39999997615814","148579","SARL_v6","SARL_v6qxdokw8x","5f07707fb5dc861477ffc395","freq","","","img/blue_2bandit_b2.png","70","","70","test","1","","19","","","","circle","square","19","19","1","0.9473684210526315","","","","","","","",""
"null","149037","SARL_v6","SARL_v6qxdokw8x","5f07707fb5dc861477ffc395","freq_resp","","","img/blue_2bandit_b.png","70","img/blue_2bandit_b.png","70","test","","","","","","","","","","","1","","","","","","","","",""
"null","149199","SARL_v6","SARL_v6qxdokw8x","5f07707fb5dc861477ffc395","fixation","","","img/fixation.png","null","","","test","","","","","","","","","","","","","","","","","","","",""
"352.60000002384186","149555","SARL_v6","SARL_v6qxdokw8x","5f07707fb5dc861477ffc395","freq","","","img/blue_2bandit_b2.png","70","","70","test","1","","20","","","","circle","square","20","20","1","0.95","","","","","","","",""
"null","150016","SARL_v6","SARL_v6qxdokw8x","5f07707fb5dc861477ffc395","freq_resp","","","img/blue_2bandit_b.png","70","img/blue_2bandit_b.png","70","test","","","","","","","","","","","1","","","","","","","","",""
"null","150170","SARL_v6","SARL_v6qxdokw8x","5f07707fb5dc861477ffc395","fixation","","","img/fixation.png","null","","","test","","","","","","","","","","","","","","","","","","","",""
"390.19999998807907","150563","SARL_v6","SARL_v6qxdokw8x","5f07707fb5dc861477ffc395","freq","","","img/blue_2bandit_b2.png","70","","70","test","1","","21","","","","circle","square","21","21","1","0.9523809523809523","","","","","","","",""
"null","150987","SARL_v6","SARL_v6qxdokw8x","5f07707fb5dc861477ffc395","freq_resp","","","img/blue_2bandit_b.png","70","img/blue_2bandit_b.png","70","test","","","","","","","","","","","1","","","","","","","","",""
"null","151140","SARL_v6","SARL_v6qxdokw8x","5f07707fb5dc861477ffc395","fixation","","","img/fixation.png","null","","","test","","","","","","","","","","","","","","","","","","","",""
"363.69999998807907","151506","SARL_v6","SARL_v6qxdokw8x","5f07707fb5dc861477ffc395","freq","","","img/blue_2bandit_b2.png","70","","70","test","1","","22","","","","circle","square","22","22","1","0.9545454545454546","","","","","","","",""
"null","151958","SARL_v6","SARL_v6qxdokw8x","5f07707fb5dc861477ffc395","freq_resp","","","img/blue_2bandit_b.png","70","img/blue_2bandit_b.png","70","test","","","","","","","","","","","1","","","","","","","","",""
"null","152121","SARL_v6","SARL_v6qxdokw8x","5f07707fb5dc861477ffc395","fixation","","","img/fixation.png","null","","","test","","","","","","","","","","","","","","","","","","","",""
"918.8000000119209","153043","SARL_v6","SARL_v6qxdokw8x","5f07707fb5dc861477ffc395","rl","","","img/black_2bandit_b2.png","75","","0","test","","","23","","","-3","circle","square","","0","1","","75","-3","-3","-3","-3","square","1","0"
"null","153809","SARL_v6","SARL_v6qxdokw8x","5f07707fb5dc861477ffc395","feedback","","","<div class=""verylowPoints_sq""> -3 </div>","null","","na","test","","","NaN","","","","","","","","1","","75","","","","","","1",""
"638.2999999523163","154451","SARL_v6","SARL_v6qxdokw8x","5f07707fb5dc861477ffc395","freq","","","img/blue_2bandit_b2.png","70","","70","test","1","","24","","","","circle","square","23","1","2","0.9565217391304348","","","","","","","",""
"null","154627","SARL_v6","SARL_v6qxdokw8x","5f07707fb5dc861477ffc395","freq_resp","","","img/blue_2bandit_b.png","70","img/blue_2bandit_b.png","70","test","","","","","","","","","","","2","","","","","","","","",""
"null","154780","SARL_v6","SARL_v6qxdokw8x","5f07707fb5dc861477ffc395","fixation","","","img/fixation.png","null","","","test","","","","","","","","","","","","","","","","","","","",""
"435.39999997615814","155218","SARL_v6","SARL_v6qxdokw8x","5f07707fb5dc861477ffc395","freq","","","img/blue_2bandit_b2.png","70","","70","test","1","","25","","","","circle","square","24","2","2","0.9583333333333334","","","","","","","",""
"null","155598","SARL_v6","SARL_v6qxdokw8x","5f07707fb5dc861477ffc395","freq_resp","","","img/blue_2bandit_b.png","70","img/blue_2bandit_b.png","70","test","","","","","","","","","","","2","","","","","","","","",""
"null","155752","SARL_v6","SARL_v6qxdokw8x","5f07707fb5dc861477ffc395","fixation","","","img/fixation.png","null","","","test","","","","","","","","","","","","","","","","","","","",""
"375.9000000357628","156131","SARL_v6","SARL_v6qxdokw8x","5f07707fb5dc861477ffc395","freq","","","img/blue_2bandit_b2.png","70","","70","test","1","","26","","","","circle","square","25","3","2","0.96","","","","","","","",""
"null","156559","SARL_v6","SARL_v6qxdokw8x","5f07707fb5dc861477ffc395","freq_resp","","","img/blue_2bandit_b.png","70","img/blue_2bandit_b.png","70","test","","","","","","","","","","","2","","","","","","","","",""
"null","156716","SARL_v6","SARL_v6qxdokw8x","5f07707fb5dc861477ffc395","fixation","","","img/fixation.png","null","","","test","","","","","","","","","","","","","","","","","","","",""
"371.39999997615814","157091","SARL_v6","SARL_v6qxdokw8x","5f07707fb5dc861477ffc395","freq","","","img/blue_2bandit_b2.png","70","","70","test","1","","27","","","","circle","square","26","4","2","0.9615384615384616","","","","","","","",""
"null","157524","SARL_v6","SARL_v6qxdokw8x","5f07707fb5dc861477ffc395","freq_resp","","","img/blue_2bandit_b.png","70","img/blue_2bandit_b.png","70","test","","","","","","","","","","","2","","","","","","","","",""
"null","157688","SARL_v6","SARL_v6qxdokw8x","5f07707fb5dc861477ffc395","fixation","","","img/fixation.png","null","","","test","","","","","","","","","","","","","","","","","","","",""
"391.80000001192093","158083","SARL_v6","SARL_v6qxdokw8x","5f07707fb5dc861477ffc395","freq","","","img/blue_2bandit_b2.png","70","","70","test","1","","28","","","","circle","square","27","5","2","0.9629629629629629","","","","","","","",""
"null","158505","SARL_v6","SARL_v6qxdokw8x","5f07707fb5dc861477ffc395","freq_resp","","","img/blue_2bandit_b.png","70","img/blue_2bandit_b.png","70","test","","","","","","","","","","","2","","","","","","","","",""
"null","158659","SARL_v6","SARL_v6qxdokw8x","5f07707fb5dc861477ffc395","fixation","","","img/fixation.png","null","","","test","","","","","","","","","","","","","","","","","","","",""
"380.89999997615814","159043","SARL_v6","SARL_v6qxdokw8x","5f07707fb5dc861477ffc395","freq","","","img/blue_2bandit_b2.png","70","","70","test","1","","29","","","","circle","square","28","6","2","0.9642857142857143","","","","","","","",""
"null","159481","SARL_v6","SARL_v6qxdokw8x","5f07707fb5dc861477ffc395","freq_resp","","","img/blue_2bandit_b.png","70","img/blue_2bandit_b.png","70","test","","","","","","","","","","","2","","","","","","","","",""
"null","159639","SARL_v6","SARL_v6qxdokw8x","5f07707fb5dc861477ffc395","fixation","","","img/fixation.png","null","","","test","","","","","","","","","","","","","","","","","","","",""
"393.10000002384186","160035","SARL_v6","SARL_v6qxdokw8x","5f07707fb5dc861477ffc395","freq","","","img/blue_2bandit_b2.png","70","","70","test","1","","30","","","","circle","square","29","7","2","0.9655172413793104","","","","","","","",""
"null","160463","SARL_v6","SARL_v6qxdokw8x","5f07707fb5dc861477ffc395","freq_resp","","","img/blue_2bandit_b.png","70","img/blue_2bandit_b.png","70","test","","","","","","","","","","","2","","","","","","","","",""
"null","160625","SARL_v6","SARL_v6qxdokw8x","5f07707fb5dc861477ffc395","fixation","","","img/fixation.png","null","","","test","","","","","","","","","","","","","","","","","","","",""
"367.2000000476837","160994","SARL_v6","SARL_v6qxdokw8x","5f07707fb5dc861477ffc395","freq","","","img/blue_2bandit_b2.png","70","","70","test","1","","31","","","","circle","square","30","8","2","0.9666666666666667","","","","","","","",""
"null","161443","SARL_v6","SARL_v6qxdokw8x","5f07707fb5dc861477ffc395","freq_resp","","","img/blue_2bandit_b.png","70","img/blue_2bandit_b.png","70","test","","","","","","","","","","","2","","","","","","","","",""
"null","161595","SARL_v6","SARL_v6qxdokw8x","5f07707fb5dc861477ffc395","fixation","","","img/fixation.png","null","","","test","","","","","","","","","","","","","","","","","","","",""
"324.69999998807907","161922","SARL_v6","SARL_v6qxdokw8x","5f07707fb5dc861477ffc395","freq","","","img/blue_2bandit_b2.png","70","","70","test","1","","32","","","","circle","square","31","9","2","0.967741935483871","","","","","","","",""
"null","162413","SARL_v6","SARL_v6qxdokw8x","5f07707fb5dc861477ffc395","freq_resp","","","img/blue_2bandit_b.png","70","img/blue_2bandit_b.png","70","test","","","","","","","","","","","2","","","","","","","","",""
"null","162567","SARL_v6","SARL_v6qxdokw8x","5f07707fb5dc861477ffc395","fixation","","","img/fixation.png","null","","","test","","","","","","","","","","","","","","","","","","","",""
"null","163384","SARL_v6","SARL_v6qxdokw8x","5f07707fb5dc861477ffc395","freq","","","img/blue_2bandit_b2.png","null","","70","test","0","","33","","","","circle","square","32","10","2","0.9375","","","","","","","",""
"null","163537","SARL_v6","SARL_v6qxdokw8x","5f07707fb5dc861477ffc395","fixation","","","img/fixation.png","null","","","test","","","","","","","","","","","","","","","","","","","",""
"47.5","163586","SARL_v6","SARL_v6qxdokw8x","5f07707fb5dc861477ffc395","freq","","","img/blue_2bandit_b2.png","70","","70","test","1","","34","","","","circle","square","33","11","2","0.9393939393939394","","","","","","","",""
"null","164348","SARL_v6","SARL_v6qxdokw8x","5f07707fb5dc861477ffc395","freq_resp","","","img/blue_2bandit_b.png","70","img/blue_2bandit_b.png","70","test","","","","","","","","","","","2","","","","","","","","",""
"null","164501","SARL_v6","SARL_v6qxdokw8x","5f07707fb5dc861477ffc395","fixation","","","img/fixation.png","null","","","test","","","","","","","","","","","","","","","","","","","",""
"714.8999999761581","165218","SARL_v6","SARL_v6qxdokw8x","5f07707fb5dc861477ffc395","infreq","","","img/orange_2bandit_b2.png","68","","68","test","1","","35","","","","circle","square","34","12","2","0.9411764705882353","","","","","","","",""
"null","165307","SARL_v6","SARL_v6qxdokw8x","5f07707fb5dc861477ffc395","infreq_resp","","","img/orange_2bandit_b.png","68","img/orange_2bandit_b.png","68","test","","","","","","","","","","","2","","","","","","","","",""
"null","165459","SARL_v6","SARL_v6qxdokw8x","5f07707fb5dc861477ffc395","fixation","","","img/fixation.png","null","","","test","","","","","","","","","","","","","","","","","","","",""
"684.5","166145","SARL_v6","SARL_v6qxdokw8x","5f07707fb5dc861477ffc395","freq","","","img/blue_2bandit_b2.png","70","","70","test","1","","36","","","","circle","square","35","13","2","0.9428571428571428","","","","","","","",""
"null","166274","SARL_v6","SARL_v6qxdokw8x","5f07707fb5dc861477ffc395","freq_resp","","","img/blue_2bandit_b.png","70","img/blue_2bandit_b.png","70","test","","","","","","","","","","","2","","","","","","","","",""
"null","166428","SARL_v6","SARL_v6qxdokw8x","5f07707fb5dc861477ffc395","fixation","","","img/fixation.png","null","","","test","","","","","","","","","","","","","","","","","","","",""
"516.0999999642372","166947","SARL_v6","SARL_v6qxdokw8x","5f07707fb5dc861477ffc395","freq","","","img/blue_2bandit_b2.png","70","","70","test","1","","37","","","","circle","square","36","14","2","0.9444444444444444","","","","","","","",""
"null","167248","SARL_v6","SARL_v6qxdokw8x","5f07707fb5dc861477ffc395","freq_resp","","","img/blue_2bandit_b.png","70","img/blue_2bandit_b.png","70","test","","","","","","","","","","","2","","","","","","","","",""
"null","167406","SARL_v6","SARL_v6qxdokw8x","5f07707fb5dc861477ffc395","fixation","","","img/fixation.png","null","","","test","","","","","","","","","","","","","","","","","","","",""
"449.30000001192093","167858","SARL_v6","SARL_v6qxdokw8x","5f07707fb5dc861477ffc395","freq","","","img/blue_2bandit_b2.png","70","","70","test","1","","38","","","","circle","square","37","15","2","0.9459459459459459","","","","","","","",""
"null","168224","SARL_v6","SARL_v6qxdokw8x","5f07707fb5dc861477ffc395","freq_resp","","","img/blue_2bandit_b.png","70","img/blue_2bandit_b.png","70","test","","","","","","","","","","","2","","","","","","","","",""
"null","168377","SARL_v6","SARL_v6qxdokw8x","5f07707fb5dc861477ffc395","fixation","","","img/fixation.png","null","","","test","","","","","","","","","","","","","","","","","","","",""
"389.9000000357628","168770","SARL_v6","SARL_v6qxdokw8x","5f07707fb5dc861477ffc395","freq","","","img/blue_2bandit_b2.png","70","","70","test","1","","39","","","","circle","square","38","16","2","0.9473684210526315","","","","","","","",""
"null","169195","SARL_v6","SARL_v6qxdokw8x","5f07707fb5dc861477ffc395","freq_resp","","","img/blue_2bandit_b.png","70","img/blue_2bandit_b.png","70","test","","","","","","","","","","","2","","","","","","","","",""
"null","169358","SARL_v6","SARL_v6qxdokw8x","5f07707fb5dc861477ffc395","fixation","","","img/fixation.png","null","","","test","","","","","","","","","","","","","","","","","","","",""
"449.7999999523163","169811","SARL_v6","SARL_v6qxdokw8x","5f07707fb5dc861477ffc395","infreq","","","img/orange_2bandit_b2.png","68","","68","test","1","","40","","","","circle","square","39","17","2","0.9487179487179487","","","","","","","",""
"null","170182","SARL_v6","SARL_v6qxdokw8x","5f07707fb5dc861477ffc395","infreq_resp","","","img/orange_2bandit_b.png","68","img/orange_2bandit_b.png","68","test","","","","","","","","","","","2","","","","","","","","",""
"null","170345","SARL_v6","SARL_v6qxdokw8x","5f07707fb5dc861477ffc395","fixation","","","img/fixation.png","null","","","test","","","","","","","","","","","","","","","","","","","",""
"390.9000000357628","170738","SARL_v6","SARL_v6qxdokw8x","5f07707fb5dc861477ffc395","freq","","","img/blue_2bandit_b2.png","70","","70","test","1","","41","","","","circle","square","40","18","2","0.95","","","","","","","",""
"null","171151","SARL_v6","SARL_v6qxdokw8x","5f07707fb5dc861477ffc395","freq_resp","","","img/blue_2bandit_b.png","70","img/blue_2bandit_b.png","70","test","","","","","","","","","","","2","","","","","","","","",""
"null","171312","SARL_v6","SARL_v6qxdokw8x","5f07707fb5dc861477ffc395","fixation","","","img/fixation.png","null","","","test","","","","","","","","","","","","","","","","","","","",""
"350.7999999523163","171666","SARL_v6","SARL_v6qxdokw8x","5f07707fb5dc861477ffc395","freq","","","img/blue_2bandit_b2.png","70","","70","test","1","","42","","","","circle","square","41","19","2","0.9512195121951219","","","","","","","",""
"null","172133","SARL_v6","SARL_v6qxdokw8x","5f07707fb5dc861477ffc395","freq_resp","","","img/blue_2bandit_b.png","70","img/blue_2bandit_b.png","70","test","","","","","","","","","","","2","","","","","","","","",""
"null","172302","SARL_v6","SARL_v6qxdokw8x","5f07707fb5dc861477ffc395","fixation","","","img/fixation.png","null","","","test","","","","","","","","","","","","","","","","","","","",""
"321.30000001192093","172626","SARL_v6","SARL_v6qxdokw8x","5f07707fb5dc861477ffc395","freq","","","img/blue_2bandit_b2.png","70","","70","test","1","","43","","","","circle","square","42","20","2","0.9523809523809523","","","","","","","",""
"null","173120","SARL_v6","SARL_v6qxdokw8x","5f07707fb5dc861477ffc395","freq_resp","","","img/blue_2bandit_b.png","70","img/blue_2bandit_b.png","70","test","","","","","","","","","","","2","","","","","","","","",""
"null","173289","SARL_v6","SARL_v6qxdokw8x","5f07707fb5dc861477ffc395","fixation","","","img/fixation.png","null","","","test","","","","","","","","","","","","","","","","","","","",""
"678.3000000119209","173970","SARL_v6","SARL_v6qxdokw8x","5f07707fb5dc861477ffc395","rl","","","img/black_2bandit_b2.png","75","","0","test","","","44","","","-8","circle","square","","0","2","","75","-5","-8","-5","-8","square","2","0"
"null","174739","SARL_v6","SARL_v6qxdokw8x","5f07707fb5dc861477ffc395","feedback","","","<div class=""verylowPoints_sq""> -8 </div>","null","","na","test","","","NaN","","","","","","","","2","","75","","","","","","2",""
"476.10000002384186","175218","SARL_v6","SARL_v6qxdokw8x","5f07707fb5dc861477ffc395","freq","","","img/blue_2bandit_b2.png","70","","70","test","1","","45","","","","circle","square","43","1","3","0.9534883720930233","","","","","","","",""
"null","175556","SARL_v6","SARL_v6qxdokw8x","5f07707fb5dc861477ffc395","freq_resp","","","img/blue_2bandit_b.png","70","img/blue_2bandit_b.png","70","test","","","","","","","","","","","3","","","","","","","","",""
"null","175710","SARL_v6","SARL_v6qxdokw8x","5f07707fb5dc861477ffc395","fixation","","","img/fixation.png","null","","","test","","","","","","","","","","","","","","","","","","","",""
"401.4000000357628","176114","SARL_v6","SARL_v6qxdokw8x","5f07707fb5dc861477ffc395","freq","","","img/blue_2bandit_b2.png","70","","70","test","1","","46","","","","circle","square","44","2","3","0.9545454545454546","","","","","","","",""
"null","176526","SARL_v6","SARL_v6qxdokw8x","5f07707fb5dc861477ffc395","freq_resp","","","img/blue_2bandit_b.png","70","img/blue_2bandit_b.png","70","test","","","","","","","","","","","3","","","","","","","","",""
"null","176696","SARL_v6","SARL_v6qxdokw8x","5f07707fb5dc861477ffc395","fixation","","","img/fixation.png","null","","","test","","","","","","","","","","","","","","","","","","","",""
"359.39999997615814","177058","SARL_v6","SARL_v6qxdokw8x","5f07707fb5dc861477ffc395","freq","","","img/blue_2bandit_b2.png","70","","70","test","1","","47","","","","circle","square","45","3","3","0.9555555555555556","","","","","","","",""
"null","177514","SARL_v6","SARL_v6qxdokw8x","5f07707fb5dc861477ffc395","freq_resp","","","img/blue_2bandit_b.png","70","img/blue_2bandit_b.png","70","test","","","","","","","","","","","3","","","","","","","","",""
"null","177676","SARL_v6","SARL_v6qxdokw8x","5f07707fb5dc861477ffc395","fixation","","","img/fixation.png","null","","","test","","","","","","","","","","","","","","","","","","","",""
"371.0999999642372","178050","SARL_v6","SARL_v6qxdokw8x","5f07707fb5dc861477ffc395","freq","","","img/blue_2bandit_b2.png","70","","70","test","1","","48","","","","circle","square","46","4","3","0.9565217391304348","","","","","","","",""
"null","178501","SARL_v6","SARL_v6qxdokw8x","5f07707fb5dc861477ffc395","freq_resp","","","img/blue_2bandit_b.png","70","img/blue_2bandit_b.png","70","test","","","","","","","","","","","3","","","","","","","","",""
"null","178663","SARL_v6","SARL_v6qxdokw8x","5f07707fb5dc861477ffc395","fixation","","","img/fixation.png","null","","","test","","","","","","","","","","","","","","","","","","","",""
"391.80000001192093","179057","SARL_v6","SARL_v6qxdokw8x","5f07707fb5dc861477ffc395","freq","","","img/blue_2bandit_b2.png","70","","70","test","1","","49","","","","circle","square","47","5","3","0.9574468085106383","","","","","","","",""
"null","179468","SARL_v6","SARL_v6qxdokw8x","5f07707fb5dc861477ffc395","freq_resp","","","img/blue_2bandit_b.png","70","img/blue_2bandit_b.png","70","test","","","","","","","","","","","3","","","","","","","","",""
"null","179633","SARL_v6","SARL_v6qxdokw8x","5f07707fb5dc861477ffc395","fixation","","","img/fixation.png","null","","","test","","","","","","","","","","","","","","","","","","","",""
"366.60000002384186","180002","SARL_v6","SARL_v6qxdokw8x","5f07707fb5dc861477ffc395","freq","","","img/blue_2bandit_b2.png","70","","70","test","1","","50","","","","circle","square","48","6","3","0.9583333333333334","","","","","","","",""
"null","180450","SARL_v6","SARL_v6qxdokw8x","5f07707fb5dc861477ffc395","freq_resp","","","img/blue_2bandit_b.png","70","img/blue_2bandit_b.png","70","test","","","","","","","","","","","3","","","","","","","","",""
"null","180603","SARL_v6","SARL_v6qxdokw8x","5f07707fb5dc861477ffc395","fixation","","","img/fixation.png","null","","","test","","","","","","","","","","","","","","","","","","","",""
"388","180994","SARL_v6","SARL_v6qxdokw8x","5f07707fb5dc861477ffc395","freq","","","img/blue_2bandit_b2.png","70","","70","test","1","","51","","","","circle","square","49","7","3","0.9591836734693877","","","","","","","",""
"null","181421","SARL_v6","SARL_v6qxdokw8x","5f07707fb5dc861477ffc395","freq_resp","","","img/blue_2bandit_b.png","70","img/blue_2bandit_b.png","70","test","","","","","","","","","","","3","","","","","","","","",""
"null","181583","SARL_v6","SARL_v6qxdokw8x","5f07707fb5dc861477ffc395","fixation","","","img/fixation.png","null","","","test","","","","","","","","","","","","","","","","","","","",""
"369.19999998807907","181955","SARL_v6","SARL_v6qxdokw8x","5f07707fb5dc861477ffc395","freq","","","img/blue_2bandit_b2.png","70","","70","test","1","","52","","","","circle","square","50","8","3","0.96","","","","","","","",""
"null","182407","SARL_v6","SARL_v6qxdokw8x","5f07707fb5dc861477ffc395","freq_resp","","","img/blue_2bandit_b.png","70","img/blue_2bandit_b.png","70","test","","","","","","","","","","","3","","","","","","","","",""
"null","182570","SARL_v6","SARL_v6qxdokw8x","5f07707fb5dc861477ffc395","fixation","","","img/fixation.png","null","","","test","","","","","","","","","","","","","","","","","","","",""
"453.5","183026","SARL_v6","SARL_v6qxdokw8x","5f07707fb5dc861477ffc395","infreq","","","img/orange_2bandit_b2.png","68","","68","test","1","","53","","","","circle","square","51","9","3","0.9607843137254902","","","","","","","",""
"null","183387","SARL_v6","SARL_v6qxdokw8x","5f07707fb5dc861477ffc395","infreq_resp","","","img/orange_2bandit_b.png","68","img/orange_2bandit_b.png","68","test","","","","","","","","","","","3","","","","","","","","",""
"null","183541","SARL_v6","SARL_v6qxdokw8x","5f07707fb5dc861477ffc395","fixation","","","img/fixation.png","null","","","test","","","","","","","","","","","","","","","","","","","",""
"378.19999998807907","183922","SARL_v6","SARL_v6qxdokw8x","5f07707fb5dc861477ffc395","freq","","","img/blue_2bandit_b2.png","70","","70","test","1","","54","","","","circle","square","52","10","3","0.9615384615384616","","","","","","","",""
"null","184358","SARL_v6","SARL_v6qxdokw8x","5f07707fb5dc861477ffc395","freq_resp","","","img/blue_2bandit_b.png","70","img/blue_2bandit_b.png","70","test","","","","","","","","","","","3","","","","","","","","",""
"null","184517","SARL_v6","SARL_v6qxdokw8x","5f07707fb5dc861477ffc395","fixation","","","img/fixation.png","null","","","test","","","","","","","","","","","","","","","","","","","",""
"394.5","184914","SARL_v6","SARL_v6qxdokw8x","5f07707fb5dc861477ffc395","freq","","","img/blue_2bandit_b2.png","70","","70","test","1","","55","","","","circle","square","53","11","3","0.9622641509433962","","","","","","","",""
"null","185329","SARL_v6","SARL_v6qxdokw8x","5f07707fb5dc861477ffc395","freq_resp","","","img/blue_2bandit_b.png","70","img/blue_2bandit_b.png","70","test","","","","","","","","","","","3","","","","","","","","",""
"null","185496","SARL_v6","SARL_v6qxdokw8x","5f07707fb5dc861477ffc395","fixation","","","img/fixation.png","null","","","test","","","","","","","","","","","","","","","","","","","",""
"359.5999999642372","185858","SARL_v6","SARL_v6qxdokw8x","5f07707fb5dc861477ffc395","infreq","","","img/orange_2bandit_b2.png","70","","68","test","0","","56","","","","circle","square","54","12","3","0.9444444444444444","","","","","","","",""
"null","186304","SARL_v6","SARL_v6qxdokw8x","5f07707fb5dc861477ffc395","infreq_resp","","","img/orange_2bandit_b.png","70","img/orange_2bandit_b.png","68","test","","","","","","","","","","","3","","","","","","","","",""
"null","186471","SARL_v6","SARL_v6qxdokw8x","5f07707fb5dc861477ffc395","fixation","","","img/fixation.png","null","","","test","","","","","","","","","","","","","","","","","","","",""
"392.5","186866","SARL_v6","SARL_v6qxdokw8x","5f07707fb5dc861477ffc395","freq","","","img/blue_2bandit_b2.png","70","","70","test","1","","57","","","","circle","square","55","13","3","0.9454545454545454","","","","","","","",""
"null","187281","SARL_v6","SARL_v6qxdokw8x","5f07707fb5dc861477ffc395","freq_resp","","","img/blue_2bandit_b.png","70","img/blue_2bandit_b.png","70","test","","","","","","","","","","","3","","","","","","","","",""
"null","187435","SARL_v6","SARL_v6qxdokw8x","5f07707fb5dc861477ffc395","fixation","","","img/fixation.png","null","","","test","","","","","","","","","","","","","","","","","","","",""
"404.19999998807907","187842","SARL_v6","SARL_v6qxdokw8x","5f07707fb5dc861477ffc395","freq","","","img/blue_2bandit_b2.png","70","","70","test","1","","58","","","","circle","square","56","14","3","0.9464285714285714","","","","","","","",""
"null","188253","SARL_v6","SARL_v6qxdokw8x","5f07707fb5dc861477ffc395","freq_resp","","","img/blue_2bandit_b.png","70","img/blue_2bandit_b.png","70","test","","","","","","","","","","","3","","","","","","","","",""
"null","188423","SARL_v6","SARL_v6qxdokw8x","5f07707fb5dc861477ffc395","fixation","","","img/fixation.png","null","","","test","","","","","","","","","","","","","","","","","","","",""
"376.39999997615814","188802","SARL_v6","SARL_v6qxdokw8x","5f07707fb5dc861477ffc395","freq","","","img/blue_2bandit_b2.png","70","","70","test","1","","59","","","","circle","square","57","15","3","0.9473684210526315","","","","","","","",""
"null","189241","SARL_v6","SARL_v6qxdokw8x","5f07707fb5dc861477ffc395","freq_resp","","","img/blue_2bandit_b.png","70","img/blue_2bandit_b.png","70","test","","","","","","","","","","","3","","","","","","","","",""
"null","189403","SARL_v6","SARL_v6qxdokw8x","5f07707fb5dc861477ffc395","fixation","","","img/fixation.png","null","","","test","","","","","","","","","","","","","","","","","","","",""
"371.39999997615814","189777","SARL_v6","SARL_v6qxdokw8x","5f07707fb5dc861477ffc395","freq","","","img/blue_2bandit_b2.png","70","","70","test","1","","60","","","","circle","square","58","16","3","0.9482758620689655","","","","","","","",""
"null","190227","SARL_v6","SARL_v6qxdokw8x","5f07707fb5dc861477ffc395","freq_resp","","","img/blue_2bandit_b.png","70","img/blue_2bandit_b.png","70","test","","","","","","","","","","","3","","","","","","","","",""
"null","190390","SARL_v6","SARL_v6qxdokw8x","5f07707fb5dc861477ffc395","fixation","","","img/fixation.png","null","","","test","","","","","","","","","","","","","","","","","","","",""
"360.69999998807907","190754","SARL_v6","SARL_v6qxdokw8x","5f07707fb5dc861477ffc395","freq","","","img/blue_2bandit_b2.png","70","","70","test","1","","61","","","","circle","square","59","17","3","0.9491525423728814","","","","","","","",""
"null","191208","SARL_v6","SARL_v6qxdokw8x","5f07707fb5dc861477ffc395","freq_resp","","","img/blue_2bandit_b.png","70","img/blue_2bandit_b.png","70","test","","","","","","","","","","","3","","","","","","","","",""
"null","191376","SARL_v6","SARL_v6qxdokw8x","5f07707fb5dc861477ffc395","fixation","","","img/fixation.png","null","","","test","","","","","","","","","","","","","","","","","","","",""
"350.7000000476837","191729","SARL_v6","SARL_v6qxdokw8x","5f07707fb5dc861477ffc395","freq","","","img/blue_2bandit_b2.png","70","","70","test","1","","62","","","","circle","square","60","18","3","0.95","","","","","","","",""
"null","192193","SARL_v6","SARL_v6qxdokw8x","5f07707fb5dc861477ffc395","freq_resp","","","img/blue_2bandit_b.png","70","img/blue_2bandit_b.png","70","test","","","","","","","","","","","3","","","","","","","","",""
"null","192347","SARL_v6","SARL_v6qxdokw8x","5f07707fb5dc861477ffc395","fixation","","","img/fixation.png","null","","","test","","","","","","","","","","","","","","","","","","","",""
"356","192705","SARL_v6","SARL_v6qxdokw8x","5f07707fb5dc861477ffc395","freq","","","img/blue_2bandit_b2.png","70","","70","test","1","","63","","","","circle","square","61","19","3","0.9508196721311475","","","","","","","",""
"null","193165","SARL_v6","SARL_v6qxdokw8x","5f07707fb5dc861477ffc395","freq_resp","","","img/blue_2bandit_b.png","70","img/blue_2bandit_b.png","70","test","","","","","","","","","","","3","","","","","","","","",""
"null","193333","SARL_v6","SARL_v6qxdokw8x","5f07707fb5dc861477ffc395","fixation","","","img/fixation.png","null","","","test","","","","","","","","","","","","","","","","","","","",""
"377.69999998807907","193713","SARL_v6","SARL_v6qxdokw8x","5f07707fb5dc861477ffc395","freq","","","img/blue_2bandit_b2.png","70","","70","test","1","","64","","","","circle","square","62","20","3","0.9516129032258065","","","","","","","",""
"null","194151","SARL_v6","SARL_v6qxdokw8x","5f07707fb5dc861477ffc395","freq_resp","","","img/blue_2bandit_b.png","70","img/blue_2bandit_b.png","70","test","","","","","","","","","","","3","","","","","","","","",""
"null","194314","SARL_v6","SARL_v6qxdokw8x","5f07707fb5dc861477ffc395","fixation","","","img/fixation.png","null","","","test","","","","","","","","","","","","","","","","","","","",""
"373.4000000357628","194690","SARL_v6","SARL_v6qxdokw8x","5f07707fb5dc861477ffc395","freq","","","img/blue_2bandit_b2.png","70","","70","test","1","","65","","","","circle","square","63","21","3","0.9523809523809523","","","","","","","",""
"null","195137","SARL_v6","SARL_v6qxdokw8x","5f07707fb5dc861477ffc395","freq_resp","","","img/blue_2bandit_b.png","70","img/blue_2bandit_b.png","70","test","","","","","","","","","","","3","","","","","","","","",""
"null","195299","SARL_v6","SARL_v6qxdokw8x","5f07707fb5dc861477ffc395","fixation","","","img/fixation.png","null","","","test","","","","","","","","","","","","","","","","","","","",""
"396.10000002384186","195699","SARL_v6","SARL_v6qxdokw8x","5f07707fb5dc861477ffc395","freq","","","img/blue_2bandit_b2.png","70","","70","test","1","","66","","","","circle","square","64","22","3","0.953125","","","","","","","",""
"null","196117","SARL_v6","SARL_v6qxdokw8x","5f07707fb5dc861477ffc395","freq_resp","","","img/blue_2bandit_b.png","70","img/blue_2bandit_b.png","70","test","","","","","","","","","","","3","","","","","","","","",""
"null","196270","SARL_v6","SARL_v6qxdokw8x","5f07707fb5dc861477ffc395","fixation","","","img/fixation.png","null","","","test","","","","","","","","","","","","","","","","","","","",""
"385.10000002384186","196659","SARL_v6","SARL_v6qxdokw8x","5f07707fb5dc861477ffc395","freq","","","img/blue_2bandit_b2.png","70","","70","test","1","","67","","","","circle","square","65","23","3","0.9538461538461539","","","","","","","",""
"null","197088","SARL_v6","SARL_v6qxdokw8x","5f07707fb5dc861477ffc395","freq_resp","","","img/blue_2bandit_b.png","70","img/blue_2bandit_b.png","70","test","","","","","","","","","","","3","","","","","","","","",""
"null","197241","SARL_v6","SARL_v6qxdokw8x","5f07707fb5dc861477ffc395","fixation","","","img/fixation.png","null","","","test","","","","","","","","","","","","","","","","","","","",""
"645.6999999880791","197890","SARL_v6","SARL_v6qxdokw8x","5f07707fb5dc861477ffc395","rl","","","img/black_2bandit_b2.png","75","","0","test","","","68","","","-8","circle","square","","0","3","","75","-4","-8","-4","-8","square","3","0"
"null","198645","SARL_v6","SARL_v6qxdokw8x","5f07707fb5dc861477ffc395","feedback","","","<div class=""verylowPoints_sq""> -8 </div>","null","","na","test","","","NaN","","","","","","","","3","","75","","","","","","3",""
"474.2000000476837","199123","SARL_v6","SARL_v6qxdokw8x","5f07707fb5dc861477ffc395","freq","","","img/blue_2bandit_b2.png","70","","70","test","1","","69","","","","circle","square","66","1","4","0.9545454545454546","","","","","","","",""
"null","199451","SARL_v6","SARL_v6qxdokw8x","5f07707fb5dc861477ffc395","freq_resp","","","img/blue_2bandit_b.png","70","img/blue_2bandit_b.png","70","test","","","","","","","","","","","4","","","","","","","","",""
"null","199608","SARL_v6","SARL_v6qxdokw8x","5f07707fb5dc861477ffc395","fixation","","","img/fixation.png","null","","","test","","","","","","","","","","","","","","","","","","","",""
"439.19999998807907","200050","SARL_v6","SARL_v6qxdokw8x","5f07707fb5dc861477ffc395","freq","","","img/blue_2bandit_b2.png","70","","70","test","1","","70","","","","circle","square","67","2","4","0.9552238805970149","","","","","","","",""
"null","200426","SARL_v6","SARL_v6qxdokw8x","5f07707fb5dc861477ffc395","freq_resp","","","img/blue_2bandit_b.png","70","img/blue_2bandit_b.png","70","test","","","","","","","","","","","4","","","","","","","","",""
"null","200580","SARL_v6","SARL_v6qxdokw8x","5f07707fb5dc861477ffc395","fixation","","","img/fixation.png","null","","","test","","","","","","","","","","","","","","","","","","","",""
"395","200978","SARL_v6","SARL_v6qxdokw8x","5f07707fb5dc861477ffc395","freq","","","img/blue_2bandit_b2.png","70","","70","test","1","","71","","","","circle","square","68","3","4","0.9558823529411765","","","","","","","",""
"null","201397","SARL_v6","SARL_v6qxdokw8x","5f07707fb5dc861477ffc395","freq_resp","","","img/blue_2bandit_b.png","70","img/blue_2bandit_b.png","70","test","","","","","","","","","","","4","","","","","","","","",""
"null","201551","SARL_v6","SARL_v6qxdokw8x","5f07707fb5dc861477ffc395","fixation","","","img/fixation.png","null","","","test","","","","","","","","","","","","","","","","","","","",""
"351.9000000357628","201906","SARL_v6","SARL_v6qxdokw8x","5f07707fb5dc861477ffc395","infreq","","","img/orange_2bandit_b2.png","70","","68","test","0","","72","","","","circle","square","69","4","4","0.9420289855072463","","","","","","","",""
"null","202367","SARL_v6","SARL_v6qxdokw8x","5f07707fb5dc861477ffc395","infreq_resp","","","img/orange_2bandit_b.png","70","img/orange_2bandit_b.png","68","test","","","","","","","","","","","4","","","","","","","","",""
"null","202530","SARL_v6","SARL_v6qxdokw8x","5f07707fb5dc861477ffc395","fixation","","","img/fixation.png","null","","","test","","","","","","","","","","","","","","","","","","","",""
"365.0999999642372","202898","SARL_v6","SARL_v6qxdokw8x","5f07707fb5dc861477ffc395","freq","","","img/blue_2bandit_b2.png","70","","70","test","1","","73","","","","circle","square","70","5","4","0.9428571428571428","","","","","","","",""
"null","203354","SARL_v6","SARL_v6qxdokw8x","5f07707fb5dc861477ffc395","freq_resp","","","img/blue_2bandit_b.png","70","img/blue_2bandit_b.png","70","test","","","","","","","","","","","4","","","","","","","","",""
"null","203522","SARL_v6","SARL_v6qxdokw8x","5f07707fb5dc861477ffc395","fixation","","","img/fixation.png","null","","","test","","","","","","","","","","","","","","","","","","","",""
"349","203874","SARL_v6","SARL_v6qxdokw8x","5f07707fb5dc861477ffc395","freq","","","img/blue_2bandit_b2.png","70","","70","test","1","","74","","","","circle","square","71","6","4","0.9436619718309859","","","","","","","",""
"null","204334","SARL_v6","SARL_v6qxdokw8x","5f07707fb5dc861477ffc395","freq_resp","","","img/blue_2bandit_b.png","70","img/blue_2bandit_b.png","70","test","","","","","","","","","","","4","","","","","","","","",""
"null","204503","SARL_v6","SARL_v6qxdokw8x","5f07707fb5dc861477ffc395","fixation","","","img/fixation.png","null","","","test","","","","","","","","","","","","","","","","","","","",""
"360.39999997615814","204866","SARL_v6","SARL_v6qxdokw8x","5f07707fb5dc861477ffc395","freq","","","img/blue_2bandit_b2.png","70","","70","test","1","","75","","","","circle","square","72","7","4","0.9444444444444444","","","","","","","",""
"null","205320","SARL_v6","SARL_v6qxdokw8x","5f07707fb5dc861477ffc395","freq_resp","","","img/blue_2bandit_b.png","70","img/blue_2bandit_b.png","70","test","","","","","","","","","","","4","","","","","","","","",""
"null","205479","SARL_v6","SARL_v6qxdokw8x","5f07707fb5dc861477ffc395","fixation","","","img/fixation.png","null","","","test","","","","","","","","","","","","","","","","","","","",""
"360.69999998807907","205842","SARL_v6","SARL_v6qxdokw8x","5f07707fb5dc861477ffc395","freq","","","img/blue_2bandit_b2.png","70","","70","test","1","","76","","","","circle","square","73","8","4","0.9452054794520548","","","","","","","",""
"null","206291","SARL_v6","SARL_v6qxdokw8x","5f07707fb5dc861477ffc395","freq_resp","","","img/blue_2bandit_b.png","70","img/blue_2bandit_b.png","70","test","","","","","","","","","","","4","","","","","","","","",""
"null","206461","SARL_v6","SARL_v6qxdokw8x","5f07707fb5dc861477ffc395","fixation","","","img/fixation.png","null","","","test","","","","","","","","","","","","","","","","","","","",""
"355","206818","SARL_v6","SARL_v6qxdokw8x","5f07707fb5dc861477ffc395","freq","","","img/blue_2bandit_b2.png","70","","70","test","1","","77","","","","circle","square","74","9","4","0.9459459459459459","","","","","","","",""
"null","207278","SARL_v6","SARL_v6qxdokw8x","5f07707fb5dc861477ffc395","freq_resp","","","img/blue_2bandit_b.png","70","img/blue_2bandit_b.png","70","test","","","","","","","","","","","4","","","","","","","","",""
"null","207440","SARL_v6","SARL_v6qxdokw8x","5f07707fb5dc861477ffc395","fixation","","","img/fixation.png","null","","","test","","","","","","","","","","","","","","","","","","","",""
"350.60000002384186","207793","SARL_v6","SARL_v6qxdokw8x","5f07707fb5dc861477ffc395","freq","","","img/blue_2bandit_b2.png","70","","70","test","1","","78","","","","circle","square","75","10","4","0.9466666666666667","","","","","","","",""
"null","208264","SARL_v6","SARL_v6qxdokw8x","5f07707fb5dc861477ffc395","freq_resp","","","img/blue_2bandit_b.png","70","img/blue_2bandit_b.png","70","test","","","","","","","","","","","4","","","","","","","","",""
"null","208427","SARL_v6","SARL_v6qxdokw8x","5f07707fb5dc861477ffc395","fixation","","","img/fixation.png","null","","","test","","","","","","","","","","","","","","","","","","","",""
"372.10000002384186","208802","SARL_v6","SARL_v6qxdokw8x","5f07707fb5dc861477ffc395","freq","","","img/blue_2bandit_b2.png","70","","70","test","1","","79","","","","circle","square","76","11","4","0.9473684210526315","","","","","","","",""
"null","209245","SARL_v6","SARL_v6qxdokw8x","5f07707fb5dc861477ffc395","freq_resp","","","img/blue_2bandit_b.png","70","img/blue_2bandit_b.png","70","test","","","","","","","","","","","4","","","","","","","","",""
"null","209414","SARL_v6","SARL_v6qxdokw8x","5f07707fb5dc861477ffc395","fixation","","","img/fixation.png","null","","","test","","","","","","","","","","","","","","","","","","","",""
"361","209778","SARL_v6","SARL_v6qxdokw8x","5f07707fb5dc861477ffc395","freq","","","img/blue_2bandit_b2.png","70","","70","test","1","","80","","","","circle","square","77","12","4","0.948051948051948","","","","","","","",""
"null","210231","SARL_v6","SARL_v6qxdokw8x","5f07707fb5dc861477ffc395","freq_resp","","","img/blue_2bandit_b.png","70","img/blue_2bandit_b.png","70","test","","","","","","","","","","","4","","","","","","","","",""
"null","210385","SARL_v6","SARL_v6qxdokw8x","5f07707fb5dc861477ffc395","fixation","","","img/fixation.png","null","","","test","","","","","","","","","","","","","","","","","","","",""
"381.5999999642372","210769","SARL_v6","SARL_v6qxdokw8x","5f07707fb5dc861477ffc395","freq","","","img/blue_2bandit_b2.png","70","","70","test","1","","81","","","","circle","square","78","13","4","0.9487179487179487","","","","","","","",""
"null","211202","SARL_v6","SARL_v6qxdokw8x","5f07707fb5dc861477ffc395","freq_resp","","","img/blue_2bandit_b.png","70","img/blue_2bandit_b.png","70","test","","","","","","","","","","","4","","","","","","","","",""
"null","211372","SARL_v6","SARL_v6qxdokw8x","5f07707fb5dc861477ffc395","fixation","","","img/fixation.png","null","","","test","","","","","","","","","","","","","","","","","","","",""
"355","211730","SARL_v6","SARL_v6qxdokw8x","5f07707fb5dc861477ffc395","freq","","","img/blue_2bandit_b2.png","70","","70","test","1","","82","","","","circle","square","79","14","4","0.9493670886075949","","","","","","","",""
"null","212190","SARL_v6","SARL_v6qxdokw8x","5f07707fb5dc861477ffc395","freq_resp","","","img/blue_2bandit_b.png","70","img/blue_2bandit_b.png","70","test","","","","","","","","","","","4","","","","","","","","",""
"null","212353","SARL_v6","SARL_v6qxdokw8x","5f07707fb5dc861477ffc395","fixation","","","img/fixation.png","null","","","test","","","","","","","","","","","","","","","","","","","",""
"350.5999999642372","212706","SARL_v6","SARL_v6qxdokw8x","5f07707fb5dc861477ffc395","freq","","","img/blue_2bandit_b2.png","70","","70","test","1","","83","","","","circle","square","80","15","4","0.95","","","","","","","",""
"null","213176","SARL_v6","SARL_v6qxdokw8x","5f07707fb5dc861477ffc395","freq_resp","","","img/blue_2bandit_b.png","70","img/blue_2bandit_b.png","70","test","","","","","","","","","","","4","","","","","","","","",""
"null","213338","SARL_v6","SARL_v6qxdokw8x","5f07707fb5dc861477ffc395","fixation","","","img/fixation.png","null","","","test","","","","","","","","","","","","","","","","","","","",""
"420.2999999523163","213761","SARL_v6","SARL_v6qxdokw8x","5f07707fb5dc861477ffc395","freq","","","img/blue_2bandit_b2.png","70","","70","test","1","","84","","","","circle","square","81","16","4","0.9506172839506173","","","","","","","",""
"null","214156","SARL_v6","SARL_v6qxdokw8x","5f07707fb5dc861477ffc395","freq_resp","","","img/blue_2bandit_b.png","70","img/blue_2bandit_b.png","70","test","","","","","","","","","","","4","","","","","","","","",""
"null","214309","SARL_v6","SARL_v6qxdokw8x","5f07707fb5dc861477ffc395","fixation","","","img/fixation.png","null","","","test","","","","","","","","","","","","","","","","","","","",""
"554","214866","SARL_v6","SARL_v6qxdokw8x","5f07707fb5dc861477ffc395","infreq","","","img/orange_2bandit_b2.png","68","","68","test","1","","85","","","","circle","square","82","17","4","0.9512195121951219","","","","","","","",""
"null","215127","SARL_v6","SARL_v6qxdokw8x","5f07707fb5dc861477ffc395","infreq_resp","","","img/orange_2bandit_b.png","68","img/orange_2bandit_b.png","68","test","","","","","","","","","","","4","","","","","","","","",""
"null","215280","SARL_v6","SARL_v6qxdokw8x","5f07707fb5dc861477ffc395","fixation","","","img/fixation.png","null","","","test","","","","","","","","","","","","","","","","","","","",""
"382.89999997615814","215666","SARL_v6","SARL_v6qxdokw8x","5f07707fb5dc861477ffc395","freq","","","img/blue_2bandit_b2.png","70","","70","test","1","","86","","","","circle","square","83","18","4","0.9518072289156626","","","","","","","",""
"null","216097","SARL_v6","SARL_v6qxdokw8x","5f07707fb5dc861477ffc395","freq_resp","","","img/blue_2bandit_b.png","70","img/blue_2bandit_b.png","70","test","","","","","","","","","","","4","","","","","","","","",""
"null","216260","SARL_v6","SARL_v6qxdokw8x","5f07707fb5dc861477ffc395","fixation","","","img/fixation.png","null","","","test","","","","","","","","","","","","","","","","","","","",""
"347.19999998807907","216610","SARL_v6","SARL_v6qxdokw8x","5f07707fb5dc861477ffc395","freq","","","img/blue_2bandit_b2.png","70","","70","test","1","","87","","","","circle","square","84","19","4","0.9523809523809523","","","","","","","",""
"null","217086","SARL_v6","SARL_v6qxdokw8x","5f07707fb5dc861477ffc395","freq_resp","","","img/blue_2bandit_b.png","70","img/blue_2bandit_b.png","70","test","","","","","","","","","","","4","","","","","","","","",""
"null","217247","SARL_v6","SARL_v6qxdokw8x","5f07707fb5dc861477ffc395","fixation","","","img/fixation.png","null","","","test","","","","","","","","","","","","","","","","","","","",""
"352","217602","SARL_v6","SARL_v6qxdokw8x","5f07707fb5dc861477ffc395","freq","","","img/blue_2bandit_b2.png","70","","70","test","1","","88","","","","circle","square","85","20","4","0.9529411764705882","","","","","","","",""
"null","218065","SARL_v6","SARL_v6qxdokw8x","5f07707fb5dc861477ffc395","freq_resp","","","img/blue_2bandit_b.png","70","img/blue_2bandit_b.png","70","test","","","","","","","","","","","4","","","","","","","","",""
"null","218219","SARL_v6","SARL_v6qxdokw8x","5f07707fb5dc861477ffc395","fixation","","","img/fixation.png","null","","","test","","","","","","","","","","","","","","","","","","","",""
"404.19999998807907","218626","SARL_v6","SARL_v6qxdokw8x","5f07707fb5dc861477ffc395","freq","","","img/blue_2bandit_b2.png","70","","70","test","1","","89","","","","circle","square","86","21","4","0.9534883720930233","","","","","","","",""
"null","219036","SARL_v6","SARL_v6qxdokw8x","5f07707fb5dc861477ffc395","freq_resp","","","img/blue_2bandit_b.png","70","img/blue_2bandit_b.png","70","test","","","","","","","","","","","4","","","","","","","","",""
"null","219205","SARL_v6","SARL_v6qxdokw8x","5f07707fb5dc861477ffc395","fixation","","","img/fixation.png","null","","","test","","","","","","","","","","","","","","","","","","","",""
"393.5","219602","SARL_v6","SARL_v6qxdokw8x","5f07707fb5dc861477ffc395","freq","","","img/blue_2bandit_b2.png","70","","70","test","1","","90","","","","circle","square","87","22","4","0.9540229885057471","","","","","","","",""
"null","220024","SARL_v6","SARL_v6qxdokw8x","5f07707fb5dc861477ffc395","freq_resp","","","img/blue_2bandit_b.png","70","img/blue_2bandit_b.png","70","test","","","","","","","","","","","4","","","","","","","","",""
"null","220193","SARL_v6","SARL_v6qxdokw8x","5f07707fb5dc861477ffc395","fixation","","","img/fixation.png","null","","","test","","","","","","","","","","","","","","","","","","","",""
"525.8000000119209","220722","SARL_v6","SARL_v6qxdokw8x","5f07707fb5dc861477ffc395","rl","","","img/black_2bandit_b2.png","75","","0","test","","","91","","","-12","circle","square","","0","4","","75","0","-12","0","-12","square","4","0"
"null","221478","SARL_v6","SARL_v6qxdokw8x","5f07707fb5dc861477ffc395","feedback","","","<div class=""verylowPoints_sq""> -12 </div>","null","","na","test","","","NaN","","","","","","","","4","","75","","","","","","4",""
"456.39999997615814","221938","SARL_v6","SARL_v6qxdokw8x","5f07707fb5dc861477ffc395","freq","","","img/blue_2bandit_b2.png","70","","70","test","1","","92","","","","circle","square","88","1","5","0.9545454545454546","","","","","","","",""
"null","222298","SARL_v6","SARL_v6qxdokw8x","5f07707fb5dc861477ffc395","freq_resp","","","img/blue_2bandit_b.png","70","img/blue_2bandit_b.png","70","test","","","","","","","","","","","5","","","","","","","","",""
"null","222461","SARL_v6","SARL_v6qxdokw8x","5f07707fb5dc861477ffc395","fixation","","","img/fixation.png","null","","","test","","","","","","","","","","","","","","","","","","","",""
"386","222850","SARL_v6","SARL_v6qxdokw8x","5f07707fb5dc861477ffc395","freq","","","img/blue_2bandit_b2.png","70","","70","test","1","","93","","","","circle","square","89","2","5","0.9550561797752809","","","","","","","",""
"null","223279","SARL_v6","SARL_v6qxdokw8x","5f07707fb5dc861477ffc395","freq_resp","","","img/blue_2bandit_b.png","70","img/blue_2bandit_b.png","70","test","","","","","","","","","","","5","","","","","","","","",""
"null","223432","SARL_v6","SARL_v6qxdokw8x","5f07707fb5dc861477ffc395","fixation","","","img/fixation.png","null","","","test","","","","","","","","","","","","","","","","","","","",""
"390.9000000357628","223826","SARL_v6","SARL_v6qxdokw8x","5f07707fb5dc861477ffc395","freq","","","img/blue_2bandit_b2.png","70","","70","test","1","","94","","","","circle","square","90","3","5","0.9555555555555556","","","","","","","",""
"null","224251","SARL_v6","SARL_v6qxdokw8x","5f07707fb5dc861477ffc395","freq_resp","","","img/blue_2bandit_b.png","70","img/blue_2bandit_b.png","70","test","","","","","","","","","","","5","","","","","","","","",""
"null","224404","SARL_v6","SARL_v6qxdokw8x","5f07707fb5dc861477ffc395","fixation","","","img/fixation.png","null","","","test","","","","","","","","","","","","","","","","","","","",""
"394.80000001192093","224802","SARL_v6","SARL_v6qxdokw8x","5f07707fb5dc861477ffc395","freq","","","img/blue_2bandit_b2.png","70","","70","test","1","","95","","","","circle","square","91","4","5","0.9560439560439561","","","","","","","",""
"null","225222","SARL_v6","SARL_v6qxdokw8x","5f07707fb5dc861477ffc395","freq_resp","","","img/blue_2bandit_b.png","70","img/blue_2bandit_b.png","70","test","","","","","","","","","","","5","","","","","","","","",""
"null","225384","SARL_v6","SARL_v6qxdokw8x","5f07707fb5dc861477ffc395","fixation","","","img/fixation.png","null","","","test","","","","","","","","","","","","","","","","","","","",""
"390.60000002384186","225778","SARL_v6","SARL_v6qxdokw8x","5f07707fb5dc861477ffc395","freq","","","img/blue_2bandit_b2.png","70","","70","test","1","","96","","","","circle","square","92","5","5","0.9565217391304348","","","","","","","",""
"null","226208","SARL_v6","SARL_v6qxdokw8x","5f07707fb5dc861477ffc395","freq_resp","","","img/blue_2bandit_b.png","70","img/blue_2bandit_b.png","70","test","","","","","","","","","","","5","","","","","","","","",""
"null","226370","SARL_v6","SARL_v6qxdokw8x","5f07707fb5dc861477ffc395","fixation","","","img/fixation.png","null","","","test","","","","","","","","","","","","","","","","","","","",""
"365.19999998807907","226738","SARL_v6","SARL_v6qxdokw8x","5f07707fb5dc861477ffc395","freq","","","img/blue_2bandit_b2.png","70","","70","test","1","","97","","","","circle","square","93","6","5","0.956989247311828","","","","","","","",""
"null","227188","SARL_v6","SARL_v6qxdokw8x","5f07707fb5dc861477ffc395","freq_resp","","","img/blue_2bandit_b.png","70","img/blue_2bandit_b.png","70","test","","","","","","","","","","","5","","","","","","","","",""
"null","227341","SARL_v6","SARL_v6qxdokw8x","5f07707fb5dc861477ffc395","fixation","","","img/fixation.png","null","","","test","","","","","","","","","","","","","","","","","","","",""
"417.39999997615814","227762","SARL_v6","SARL_v6qxdokw8x","5f07707fb5dc861477ffc395","freq","","","img/blue_2bandit_b2.png","70","","70","test","1","","98","","","","circle","square","94","7","5","0.9574468085106383","","","","","","","",""
"null","228159","SARL_v6","SARL_v6qxdokw8x","5f07707fb5dc861477ffc395","freq_resp","","","img/blue_2bandit_b.png","70","img/blue_2bandit_b.png","70","test","","","","","","","","","","","5","","","","","","","","",""
"null","228328","SARL_v6","SARL_v6qxdokw8x","5f07707fb5dc861477ffc395","fixation","","","img/fixation.png","null","","","test","","","","","","","","","","","","","","","","","","","",""
"358.5","228690","SARL_v6","SARL_v6qxdokw8x","5f07707fb5dc861477ffc395","freq","","","img/blue_2bandit_b2.png","70","","70","test","1","","99","","","","circle","square","95","8","5","0.9578947368421052","","","","","","","",""
"null","229146","SARL_v6","SARL_v6qxdokw8x","5f07707fb5dc861477ffc395","freq_resp","","","img/blue_2bandit_b.png","70","img/blue_2bandit_b.png","70","test","","","","","","","","","","","5","","","","","","","","",""
"null","229315","SARL_v6","SARL_v6qxdokw8x","5f07707fb5dc861477ffc395","fixation","","","img/fixation.png","null","","","test","","","","","","","","","","","","","","","","","","","",""
"347.80000001192093","229666","SARL_v6","SARL_v6qxdokw8x","5f07707fb5dc861477ffc395","freq","","","img/blue_2bandit_b2.png","70","","70","test","1","","100","","","","circle","square","96","9","5","0.9583333333333334","","","","","","","",""
"null","230132","SARL_v6","SARL_v6qxdokw8x","5f07707fb5dc861477ffc395","freq_resp","","","img/blue_2bandit_b.png","70","img/blue_2bandit_b.png","70","test","","","","","","","","","","","5","","","","","","","","",""
"null","230295","SARL_v6","SARL_v6qxdokw8x","5f07707fb5dc861477ffc395","fixation","","","img/fixation.png","null","","","test","","","","","","","","","","","","","","","","","","","",""
"343.60000002384186","230642","SARL_v6","SARL_v6qxdokw8x","5f07707fb5dc861477ffc395","freq","","","img/blue_2bandit_b2.png","70","","70","test","1","","101","","","","circle","square","97","10","5","0.9587628865979382","","","","","","","",""
"null","231120","SARL_v6","SARL_v6qxdokw8x","5f07707fb5dc861477ffc395","freq_resp","","","img/blue_2bandit_b.png","70","img/blue_2bandit_b.png","70","test","","","","","","","","","","","5","","","","","","","","",""
"null","231283","SARL_v6","SARL_v6qxdokw8x","5f07707fb5dc861477ffc395","fixation","","","img/fixation.png","null","","","test","","","","","","","","","","","","","","","","","","","",""
"380.4000000357628","231666","SARL_v6","SARL_v6qxdokw8x","5f07707fb5dc861477ffc395","freq","","","img/blue_2bandit_b2.png","70","","70","test","1","","102","","","","circle","square","98","11","5","0.9591836734693877","","","","","","","",""
"null","232101","SARL_v6","SARL_v6qxdokw8x","5f07707fb5dc861477ffc395","freq_resp","","","img/blue_2bandit_b.png","70","img/blue_2bandit_b.png","70","test","","","","","","","","","","","5","","","","","","","","",""
"null","232255","SARL_v6","SARL_v6qxdokw8x","5f07707fb5dc861477ffc395","fixation","","","img/fixation.png","null","","","test","","","","","","","","","","","","","","","","","","","",""
"368.5","232626","SARL_v6","SARL_v6qxdokw8x","5f07707fb5dc861477ffc395","freq","","","img/blue_2bandit_b2.png","70","","70","test","1","","103","","","","circle","square","99","12","5","0.9595959595959596","","","","","","","",""
"null","233072","SARL_v6","SARL_v6qxdokw8x","5f07707fb5dc861477ffc395","freq_resp","","","img/blue_2bandit_b.png","70","img/blue_2bandit_b.png","70","test","","","","","","","","","","","5","","","","","","","","",""
"null","233226","SARL_v6","SARL_v6qxdokw8x","5f07707fb5dc861477ffc395","fixation","","","img/fixation.png","null","","","test","","","","","","","","","","","","","","","","","","","",""
"357","233586","SARL_v6","SARL_v6qxdokw8x","5f07707fb5dc861477ffc395","freq","","","img/blue_2bandit_b2.png","70","","70","test","1","","104","","","","circle","square","100","13","5","0.96","","","","","","","",""
"null","234042","SARL_v6","SARL_v6qxdokw8x","5f07707fb5dc861477ffc395","freq_resp","","","img/blue_2bandit_b.png","70","img/blue_2bandit_b.png","70","test","","","","","","","","","","","5","","","","","","","","",""
"null","234205","SARL_v6","SARL_v6qxdokw8x","5f07707fb5dc861477ffc395","fixation","","","img/fixation.png","null","","","test","","","","","","","","","","","","","","","","","","","",""
"370.30000001192093","234578","SARL_v6","SARL_v6qxdokw8x","5f07707fb5dc861477ffc395","freq","","","img/blue_2bandit_b2.png","70","","70","test","1","","105","","","","circle","square","101","14","5","0.9603960396039604","","","","","","","",""
"null","235028","SARL_v6","SARL_v6qxdokw8x","5f07707fb5dc861477ffc395","freq_resp","","","img/blue_2bandit_b.png","70","img/blue_2bandit_b.png","70","test","","","","","","","","","","","5","","","","","","","","",""
"null","235191","SARL_v6","SARL_v6qxdokw8x","5f07707fb5dc861477ffc395","fixation","","","img/fixation.png","null","","","test","","","","","","","","","","","","","","","","","","","",""
"360.60000002384186","235553","SARL_v6","SARL_v6qxdokw8x","5f07707fb5dc861477ffc395","freq","","","img/blue_2bandit_b2.png","70","","70","test","1","","106","","","","circle","square","102","15","5","0.9607843137254902","","","","","","","",""
"null","236008","SARL_v6","SARL_v6qxdokw8x","5f07707fb5dc861477ffc395","freq_resp","","","img/blue_2bandit_b.png","70","img/blue_2bandit_b.png","70","test","","","","","","","","","","","5","","","","","","","","",""
"null","236161","SARL_v6","SARL_v6qxdokw8x","5f07707fb5dc861477ffc395","fixation","","","img/fixation.png","null","","","test","","","","","","","","","","","","","","","","","","","",""
"350.19999998807907","236513","SARL_v6","SARL_v6qxdokw8x","5f07707fb5dc861477ffc395","freq","","","img/blue_2bandit_b2.png","70","","70","test","1","","107","","","","circle","square","103","16","5","0.9611650485436893","","","","","","","",""
"null","236975","SARL_v6","SARL_v6qxdokw8x","5f07707fb5dc861477ffc395","freq_resp","","","img/blue_2bandit_b.png","70","img/blue_2bandit_b.png","70","test","","","","","","","","","","","5","","","","","","","","",""
"null","237144","SARL_v6","SARL_v6qxdokw8x","5f07707fb5dc861477ffc395","fixation","","","img/fixation.png","null","","","test","","","","","","","","","","","","","","","","","","","",""
"504","237651","SARL_v6","SARL_v6qxdokw8x","5f07707fb5dc861477ffc395","infreq","","","img/orange_2bandit_b2.png","68","","68","test","1","","108","","","","circle","square","104","17","5","0.9615384615384616","","","","","","","",""
"null","237962","SARL_v6","SARL_v6qxdokw8x","5f07707fb5dc861477ffc395","infreq_resp","","","img/orange_2bandit_b.png","68","img/orange_2bandit_b.png","68","test","","","","","","","","","","","5","","","","","","","","",""
"null","238125","SARL_v6","SARL_v6qxdokw8x","5f07707fb5dc861477ffc395","fixation","","","img/fixation.png","null","","","test","","","","","","","","","","","","","","","","","","","",""
"402.89999997615814","238530","SARL_v6","SARL_v6qxdokw8x","5f07707fb5dc861477ffc395","infreq","","","img/orange_2bandit_b2.png","70","","68","test","0","","109","","","","circle","square","105","18","5","0.9523809523809523","","","","","","","",""
"null","238948","SARL_v6","SARL_v6qxdokw8x","5f07707fb5dc861477ffc395","infreq_resp","","","img/orange_2bandit_b.png","70","img/orange_2bandit_b.png","68","test","","","","","","","","","","","5","","","","","","","","",""
"null","239110","SARL_v6","SARL_v6qxdokw8x","5f07707fb5dc861477ffc395","fixation","","","img/fixation.png","null","","","test","","","","","","","","","","","","","","","","","","","",""
"345.7000000476837","239458","SARL_v6","SARL_v6qxdokw8x","5f07707fb5dc861477ffc395","freq","","","img/blue_2bandit_b2.png","70","","70","test","1","","110","","","","circle","square","106","19","5","0.9528301886792453","","","","","","","",""
"null","239928","SARL_v6","SARL_v6qxdokw8x","5f07707fb5dc861477ffc395","freq_resp","","","img/blue_2bandit_b.png","70","img/blue_2bandit_b.png","70","test","","","","","","","","","","","5","","","","","","","","",""
"null","240097","SARL_v6","SARL_v6qxdokw8x","5f07707fb5dc861477ffc395","fixation","","","img/fixation.png","null","","","test","","","","","","","","","","","","","","","","","","","",""
"318","240418","SARL_v6","SARL_v6qxdokw8x","5f07707fb5dc861477ffc395","infreq","","","img/orange_2bandit_b2.png","70","","68","test","0","","111","","","","circle","square","107","20","5","0.9439252336448598","","","","","","","",""
"null","240915","SARL_v6","SARL_v6qxdokw8x","5f07707fb5dc861477ffc395","infreq_resp","","","img/orange_2bandit_b.png","70","img/orange_2bandit_b.png","68","test","","","","","","","","","","","5","","","","","","","","",""
"null","241069","SARL_v6","SARL_v6qxdokw8x","5f07707fb5dc861477ffc395","fixation","","","img/fixation.png","null","","","test","","","","","","","","","","","","","","","","","","","",""
"370.80000001192093","241442","SARL_v6","SARL_v6qxdokw8x","5f07707fb5dc861477ffc395","freq","","","img/blue_2bandit_b2.png","70","","70","test","1","","112","","","","circle","square","108","21","5","0.9444444444444444","","","","","","","",""
"null","241886","SARL_v6","SARL_v6qxdokw8x","5f07707fb5dc861477ffc395","freq_resp","","","img/blue_2bandit_b.png","70","img/blue_2bandit_b.png","70","test","","","","","","","","","","","5","","","","","","","","",""
"null","242056","SARL_v6","SARL_v6qxdokw8x","5f07707fb5dc861477ffc395","fixation","","","img/fixation.png","null","","","test","","","","","","","","","","","","","","","","","","","",""
"439.39999997615814","242498","SARL_v6","SARL_v6qxdokw8x","5f07707fb5dc861477ffc395","freq","","","img/blue_2bandit_b2.png","70","","70","test","1","","113","","","","circle","square","109","22","5","0.944954128440367","","","","","","","",""
"null","242873","SARL_v6","SARL_v6qxdokw8x","5f07707fb5dc861477ffc395","freq_resp","","","img/blue_2bandit_b.png","70","img/blue_2bandit_b.png","70","test","","","","","","","","","","","5","","","","","","","","",""
"null","243029","SARL_v6","SARL_v6qxdokw8x","5f07707fb5dc861477ffc395","fixation","","","img/fixation.png","null","","","test","","","","","","","","","","","","","","","","","","","",""
"394.5999999642372","243426","SARL_v6","SARL_v6qxdokw8x","5f07707fb5dc861477ffc395","freq","","","img/blue_2bandit_b2.png","70","","70","test","1","","114","","","","circle","square","110","23","5","0.9454545454545454","","","","","","","",""
"null","243838","SARL_v6","SARL_v6qxdokw8x","5f07707fb5dc861477ffc395","freq_resp","","","img/blue_2bandit_b.png","70","img/blue_2bandit_b.png","70","test","","","","","","","","","","","5","","","","","","","","",""
"null","243991","SARL_v6","SARL_v6qxdokw8x","5f07707fb5dc861477ffc395","fixation","","","img/fixation.png","null","","","test","","","","","","","","","","","","","","","","","","","",""
"392.30000001192093","244386","SARL_v6","SARL_v6qxdokw8x","5f07707fb5dc861477ffc395","freq","","","img/blue_2bandit_b2.png","70","","70","test","1","","115","","","","circle","square","111","24","5","0.9459459459459459","","","","","","","",""
"null","244809","SARL_v6","SARL_v6qxdokw8x","5f07707fb5dc861477ffc395","freq_resp","","","img/blue_2bandit_b.png","70","img/blue_2bandit_b.png","70","test","","","","","","","","","","","5","","","","","","","","",""
"null","244962","SARL_v6","SARL_v6qxdokw8x","5f07707fb5dc861477ffc395","fixation","","","img/fixation.png","null","","","test","","","","","","","","","","","","","","","","","","","",""
"397.10000002384186","245362","SARL_v6","SARL_v6qxdokw8x","5f07707fb5dc861477ffc395","freq","","","img/blue_2bandit_b2.png","70","","70","test","1","","116","","","","circle","square","112","25","5","0.9464285714285714","","","","","","","",""
"null","245779","SARL_v6","SARL_v6qxdokw8x","5f07707fb5dc861477ffc395","freq_resp","","","img/blue_2bandit_b.png","70","img/blue_2bandit_b.png","70","test","","","","","","","","","","","5","","","","","","","","",""
"null","245943","SARL_v6","SARL_v6qxdokw8x","5f07707fb5dc861477ffc395","fixation","","","img/fixation.png","null","","","test","","","","","","","","","","","","","","","","","","","",""
"616.9000000357628","246562","SARL_v6","SARL_v6qxdokw8x","5f07707fb5dc861477ffc395","rl","","","img/black_2bandit_b2.png","75","","0","test","","","117","","","-7","circle","square","","0","5","","75","4","-7","4","-7","square","5","0"
"null","247330","SARL_v6","SARL_v6qxdokw8x","5f07707fb5dc861477ffc395","feedback","","","<div class=""verylowPoints_sq""> -7 </div>","null","","na","test","","","NaN","","","","","","","","5","","75","","","","","","5",""
"429","247763","SARL_v6","SARL_v6qxdokw8x","5f07707fb5dc861477ffc395","freq","","","img/blue_2bandit_b2.png","70","","70","test","1","","118","","","","circle","square","113","1","6","0.9469026548672567","","","","","","","",""
"null","248148","SARL_v6","SARL_v6qxdokw8x","5f07707fb5dc861477ffc395","freq_resp","","","img/blue_2bandit_b.png","70","img/blue_2bandit_b.png","70","test","","","","","","","","","","","6","","","","","","","","",""
"null","248302","SARL_v6","SARL_v6qxdokw8x","5f07707fb5dc861477ffc395","fixation","","","img/fixation.png","null","","","test","","","","","","","","","","","","","","","","","","","",""
"385.5999999642372","248690","SARL_v6","SARL_v6qxdokw8x","5f07707fb5dc861477ffc395","freq","","","img/blue_2bandit_b2.png","70","","70","test","1","","119","","","","circle","square","114","2","6","0.9473684210526315","","","","","","","",""
"null","249119","SARL_v6","SARL_v6qxdokw8x","5f07707fb5dc861477ffc395","freq_resp","","","img/blue_2bandit_b.png","70","img/blue_2bandit_b.png","70","test","","","","","","","","","","","6","","","","","","","","",""
"null","249273","SARL_v6","SARL_v6qxdokw8x","5f07707fb5dc861477ffc395","fixation","","","img/fixation.png","null","","","test","","","","","","","","","","","","","","","","","","","",""
"406.89999997615814","249682","SARL_v6","SARL_v6qxdokw8x","5f07707fb5dc861477ffc395","freq","","","img/blue_2bandit_b2.png","70","","70","test","1","","120","","","","circle","square","115","3","6","0.9478260869565217","","","","","","","",""
"null","250090","SARL_v6","SARL_v6qxdokw8x","5f07707fb5dc861477ffc395","freq_resp","","","img/blue_2bandit_b.png","70","img/blue_2bandit_b.png","70","test","","","","","","","","","","","6","","","","","","","","",""
"null","250254","SARL_v6","SARL_v6qxdokw8x","5f07707fb5dc861477ffc395","fixation","","","img/fixation.png","null","","","test","","","","","","","","","","","","","","","","","","","",""
"449.2000000476837","250706","SARL_v6","SARL_v6qxdokw8x","5f07707fb5dc861477ffc395","freq","","","img/blue_2bandit_b2.png","70","","70","test","1","","121","","","","circle","square","116","4","6","0.9482758620689655","","","","","","","",""
"null","251078","SARL_v6","SARL_v6qxdokw8x","5f07707fb5dc861477ffc395","freq_resp","","","img/blue_2bandit_b.png","70","img/blue_2bandit_b.png","70","test","","","","","","","","","","","6","","","","","","","","",""
"null","251241","SARL_v6","SARL_v6qxdokw8x","5f07707fb5dc861477ffc395","fixation","","","img/fixation.png","null","","","test","","","","","","","","","","","","","","","","","","","",""
"390.69999998807907","251634","SARL_v6","SARL_v6qxdokw8x","5f07707fb5dc861477ffc395","freq","","","img/blue_2bandit_b2.png","70","","70","test","1","","122","","","","circle","square","117","5","6","0.9487179487179487","","","","","","","",""
"null","252058","SARL_v6","SARL_v6qxdokw8x","5f07707fb5dc861477ffc395","freq_resp","","","img/blue_2bandit_b.png","70","img/blue_2bandit_b.png","70","test","","","","","","","","","","","6","","","","","","","","",""
"null","252211","SARL_v6","SARL_v6qxdokw8x","5f07707fb5dc861477ffc395","fixation","","","img/fixation.png","null","","","test","","","","","","","","","","","","","","","","","","","",""
"347.89999997615814","252562","SARL_v6","SARL_v6qxdokw8x","5f07707fb5dc861477ffc395","freq","","","img/blue_2bandit_b2.png","70","","70","test","1","","123","","","","circle","square","118","6","6","0.9491525423728814","","","","","","","",""
"null","253029","SARL_v6","SARL_v6qxdokw8x","5f07707fb5dc861477ffc395","freq_resp","","","img/blue_2bandit_b.png","70","img/blue_2bandit_b.png","70","test","","","","","","","","","","","6","","","","","","","","",""
"null","253198","SARL_v6","SARL_v6qxdokw8x","5f07707fb5dc861477ffc395","fixation","","","img/fixation.png","null","","","test","","","","","","","","","","","","","","","","","","","",""
"353.19999998807907","253554","SARL_v6","SARL_v6qxdokw8x","5f07707fb5dc861477ffc395","freq","","","img/blue_2bandit_b2.png","70","","70","test","1","","124","","","","circle","square","119","7","6","0.9495798319327731","","","","","","","",""
"null","254015","SARL_v6","SARL_v6qxdokw8x","5f07707fb5dc861477ffc395","freq_resp","","","img/blue_2bandit_b.png","70","img/blue_2bandit_b.png","70","test","","","","","","","","","","","6","","","","","","","","",""
"null","254185","SARL_v6","SARL_v6qxdokw8x","5f07707fb5dc861477ffc395","fixation","","","img/fixation.png","null","","","test","","","","","","","","","","","","","","","","","","","",""
"390.5","254579","SARL_v6","SARL_v6qxdokw8x","5f07707fb5dc861477ffc395","freq","","","img/blue_2bandit_b2.png","70","","70","test","1","","125","","","","circle","square","120","8","6","0.95","","","","","","","",""
"null","255001","SARL_v6","SARL_v6qxdokw8x","5f07707fb5dc861477ffc395","freq_resp","","","img/blue_2bandit_b.png","70","img/blue_2bandit_b.png","70","test","","","","","","","","","","","6","","","","","","","","",""
"null","255162","SARL_v6","SARL_v6qxdokw8x","5f07707fb5dc861477ffc395","fixation","","","img/fixation.png","null","","","test","","","","","","","","","","","","","","","","","","","",""
"405.19999998807907","255570","SARL_v6","SARL_v6qxdokw8x","5f07707fb5dc861477ffc395","freq","","","img/blue_2bandit_b2.png","70","","70","test","1","","126","","","","circle","square","121","9","6","0.9504132231404959","","","","","","","",""
"null","255978","SARL_v6","SARL_v6qxdokw8x","5f07707fb5dc861477ffc395","freq_resp","","","img/blue_2bandit_b.png","70","img/blue_2bandit_b.png","70","test","","","","","","","","","","","6","","","","","","","","",""
"null","256131","SARL_v6","SARL_v6qxdokw8x","5f07707fb5dc861477ffc395","fixation","","","img/fixation.png","null","","","test","","","","","","","","","","","","","","","","","","","",""
"395.80000001192093","256530","SARL_v6","SARL_v6qxdokw8x","5f07707fb5dc861477ffc395","freq","","","img/blue_2bandit_b2.png","70","","70","test","1","","127","","","","circle","square","122","10","6","0.9508196721311475","","","","","","","",""
"null","256948","SARL_v6","SARL_v6qxdokw8x","5f07707fb5dc861477ffc395","freq_resp","","","img/blue_2bandit_b.png","70","img/blue_2bandit_b.png","70","test","","","","","","","","","","","6","","","","","","","","",""
"null","257101","SARL_v6","SARL_v6qxdokw8x","5f07707fb5dc861477ffc395","fixation","","","img/fixation.png","null","","","test","","","","","","","","","","","","","","","","","","","",""
"370.5","257474","SARL_v6","SARL_v6qxdokw8x","5f07707fb5dc861477ffc395","freq","","","img/blue_2bandit_b2.png","70","","70","test","1","","128","","","","circle","square","123","11","6","0.9512195121951219","","","","","","","",""
"null","257919","SARL_v6","SARL_v6qxdokw8x","5f07707fb5dc861477ffc395","freq_resp","","","img/blue_2bandit_b.png","70","img/blue_2bandit_b.png","70","test","","","","","","","","","","","6","","","","","","","","",""
"null","258081","SARL_v6","SARL_v6qxdokw8x","5f07707fb5dc861477ffc395","fixation","","","img/fixation.png","null","","","test","","","","","","","","","","","","","","","","","","","",""
"317.9000000357628","258402","SARL_v6","SARL_v6qxdokw8x","5f07707fb5dc861477ffc395","freq","","","img/blue_2bandit_b2.png","70","","70","test","1","","129","","","","circle","square","124","12","6","0.9516129032258065","","","","","","","",""
"null","258905","SARL_v6","SARL_v6qxdokw8x","5f07707fb5dc861477ffc395","freq_resp","","","img/blue_2bandit_b.png","70","img/blue_2bandit_b.png","70","test","","","","","","","","","","","6","","","","","","","","",""
"null","259068","SARL_v6","SARL_v6qxdokw8x","5f07707fb5dc861477ffc395","fixation","","","img/fixation.png","null","","","test","","","","","","","","","","","","","","","","","","","",""
"339.89999997615814","259410","SARL_v6","SARL_v6qxdokw8x","5f07707fb5dc861477ffc395","freq","","","img/blue_2bandit_b2.png","70","","70","test","1","","130","","","","circle","square","125","13","6","0.952","","","","","","","",""
