"rt","time_elapsed","expId","subject","prolificID","trialType","rlType","attType","stimulus","key_press","stim","corrresp","phase","corr","pracCounter","trialNum","rewardOne","rewardTwo","reward","bandOne","bandTwo","attentionNum","attentionRunNum","blockNum","performance","bandChosen","circleVal","squareVal","bandOneVal","bandTwoVal","shapeChosen","rlNum","badFlag"
"8569","8598","SARL_v6","SARL_v61u7sptge","5fc3d41149c0c8728f07b95b","","","","","","","","","","","","","","","","","","","","","","","","","","","",""
"","19336","SARL_v6","SARL_v61u7sptge","5fc3d41149c0c8728f07b95b","fullscreen","fullscreen","fullscreen","","","","","","","","","","","","","","","","","","","","","","","","",""
"98576","117920","SARL_v6","SARL_v61u7sptge","5fc3d41149c0c8728f07b95b","","","","","","","","","","","","","","","","","","","","","","","","","","","",""
"543","118471","SARL_v6","SARL_v61u7sptge","5fc3d41149c0c8728f07b95b","freqPrac","","","img/blue_2bandit_b2.png","70","img/blue_2bandit_b2.png","70","prac","1","0","","","","","","","","","","","","","","","","","",""
"543","118741","SARL_v6","SARL_v61u7sptge","5fc3d41149c0c8728f07b95b","freqPrac_resp","","","img/blue_2bandit_b.png","70","img/blue_2bandit_b.png","70","prac","","","","","","","","","","","","","","","","","","","",""
"null","118905","SARL_v6","SARL_v61u7sptge","5fc3d41149c0c8728f07b95b","fixation","","","img/fixation.png","null","","","prac","","","","","","","","","","","","","","","","","","","",""
"457","119367","SARL_v6","SARL_v61u7sptge","5fc3d41149c0c8728f07b95b","infreqPrac","","","img/orange_2bandit_b2.png","68","img/orange_2bandit_b2.png","68","prac","1","0","","","","","","","","","","","","","","","","","",""
"457","119718","SARL_v6","SARL_v61u7sptge","5fc3d41149c0c8728f07b95b","infreqPrac_resp","","","img/orange_2bandit_b.png","68","img/orange_2bandit_b.png","68","prac","","","","","","","","","","","","","","","","","","","",""
"null","119878","SARL_v6","SARL_v61u7sptge","5fc3d41149c0c8728f07b95b","fixation","","","img/fixation.png","null","","","prac","","","","","","","","","","","","","","","","","","","",""
"631","120513","SARL_v6","SARL_v61u7sptge","5fc3d41149c0c8728f07b95b","freqPrac","","","img/blue_2bandit_b2.png","70","img/blue_2bandit_b2.png","70","prac","1","0","","","","","","","","","","","","","","","","","",""
"631","120701","SARL_v6","SARL_v61u7sptge","5fc3d41149c0c8728f07b95b","freqPrac_resp","","","img/blue_2bandit_b.png","70","img/blue_2bandit_b.png","70","prac","","","","","","","","","","","","","","","","","","","",""
"null","120859","SARL_v6","SARL_v61u7sptge","5fc3d41149c0c8728f07b95b","fixation","","","img/fixation.png","null","","","prac","","","","","","","","","","","","","","","","","","","",""
"436","121299","SARL_v6","SARL_v61u7sptge","5fc3d41149c0c8728f07b95b","infreqPrac","","","img/orange_2bandit_b2.png","70","img/orange_2bandit_b2.png","68","prac","0","1","","","","","","","","","","","","","","","","","",""
"436","121672","SARL_v6","SARL_v61u7sptge","5fc3d41149c0c8728f07b95b","infreqPrac_resp","","","img/orange_2bandit_b.png","70","img/orange_2bandit_b.png","68","prac","","","","","","","","","","","","","","","","","","","",""
"null","122678","SARL_v6","SARL_v61u7sptge","5fc3d41149c0c8728f07b95b","feedback","","","img/wrongKey.png","null","","na","prac","","","","","","","","","","","","","","","","","","","",""
"null","122837","SARL_v6","SARL_v61u7sptge","5fc3d41149c0c8728f07b95b","fixation","","","img/fixation.png","null","","","prac","","","","","","","","","","","","","","","","","","","",""
"678","123517","SARL_v6","SARL_v61u7sptge","5fc3d41149c0c8728f07b95b","infreqPrac","","","img/orange_2bandit_b2.png","68","img/orange_2bandit_b2.png","68","prac","1","1","","","","","","","","","","","","","","","","","",""
"678","123651","SARL_v6","SARL_v61u7sptge","5fc3d41149c0c8728f07b95b","infreqPrac_resp","","","img/orange_2bandit_b.png","68","img/orange_2bandit_b.png","68","prac","","","","","","","","","","","","","","","","","","","",""
"null","123811","SARL_v6","SARL_v61u7sptge","5fc3d41149c0c8728f07b95b","fixation","","","img/fixation.png","null","","","prac","","","","","","","","","","","","","","","","","","","",""
"400","124214","SARL_v6","SARL_v61u7sptge","5fc3d41149c0c8728f07b95b","infreqPrac","","","img/orange_2bandit_b2.png","68","img/orange_2bandit_b2.png","68","prac","1","1","","","","","","","","","","","","","","","","","",""
"400","124622","SARL_v6","SARL_v61u7sptge","5fc3d41149c0c8728f07b95b","infreqPrac_resp","","","img/orange_2bandit_b.png","68","img/orange_2bandit_b.png","68","prac","","","","","","","","","","","","","","","","","","","",""
"null","124782","SARL_v6","SARL_v61u7sptge","5fc3d41149c0c8728f07b95b","fixation","","","img/fixation.png","null","","","prac","","","","","","","","","","","","","","","","","","","",""
"447","125232","SARL_v6","SARL_v61u7sptge","5fc3d41149c0c8728f07b95b","freqPrac","","","img/blue_2bandit_b2.png","70","img/blue_2bandit_b2.png","70","prac","1","1","","","","","","","","","","","","","","","","","",""
"447","125596","SARL_v6","SARL_v61u7sptge","5fc3d41149c0c8728f07b95b","freqPrac_resp","","","img/blue_2bandit_b.png","70","img/blue_2bandit_b.png","70","prac","","","","","","","","","","","","","","","","","","","",""
"null","125755","SARL_v6","SARL_v61u7sptge","5fc3d41149c0c8728f07b95b","fixation","","","img/fixation.png","null","","","prac","","","","","","","","","","","","","","","","","","","",""
"412","126172","SARL_v6","SARL_v61u7sptge","5fc3d41149c0c8728f07b95b","infreqPrac","","","img/orange_2bandit_b2.png","68","img/orange_2bandit_b2.png","68","prac","1","1","","","","","","","","","","","","","","","","","",""
"412","126569","SARL_v6","SARL_v61u7sptge","5fc3d41149c0c8728f07b95b","infreqPrac_resp","","","img/orange_2bandit_b.png","68","img/orange_2bandit_b.png","68","prac","","","","","","","","","","","","","","","","","","","",""
"null","126728","SARL_v6","SARL_v61u7sptge","5fc3d41149c0c8728f07b95b","fixation","","","img/fixation.png","null","","","prac","","","","","","","","","","","","","","","","","","","",""
"478","127209","SARL_v6","SARL_v61u7sptge","5fc3d41149c0c8728f07b95b","freqPrac","","","img/blue_2bandit_b2.png","70","img/blue_2bandit_b2.png","70","prac","1","1","","","","","","","","","","","","","","","","","",""
"478","127540","SARL_v6","SARL_v61u7sptge","5fc3d41149c0c8728f07b95b","freqPrac_resp","","","img/blue_2bandit_b.png","70","img/blue_2bandit_b.png","70","prac","","","","","","","","","","","","","","","","","","","",""
"null","127699","SARL_v6","SARL_v61u7sptge","5fc3d41149c0c8728f07b95b","fixation","","","img/fixation.png","null","","","prac","","","","","","","","","","","","","","","","","","","",""
"342","128045","SARL_v6","SARL_v61u7sptge","5fc3d41149c0c8728f07b95b","freqPrac","","","img/blue_2bandit_b2.png","70","img/blue_2bandit_b2.png","70","prac","1","1","","","","","","","","","","","","","","","","","",""
"342","128512","SARL_v6","SARL_v61u7sptge","5fc3d41149c0c8728f07b95b","freqPrac_resp","","","img/blue_2bandit_b.png","70","img/blue_2bandit_b.png","70","prac","","","","","","","","","","","","","","","","","","","",""
"null","128673","SARL_v6","SARL_v61u7sptge","5fc3d41149c0c8728f07b95b","fixation","","","img/fixation.png","null","","","prac","","","","","","","","","","","","","","","","","","","",""
"24886","153563","SARL_v6","SARL_v61u7sptge","5fc3d41149c0c8728f07b95b","","","","","","","","prac","","","","","","","","","","","","","","","","","","","",""
"1028","154594","SARL_v6","SARL_v61u7sptge","5fc3d41149c0c8728f07b95b","rlPractice","","","img/black_2bandit_b2.png","74","img/black_2bandit_b2.png","","prac","","","0","","","","","","","","","","","","","","","","",""
"null","155352","SARL_v6","SARL_v61u7sptge","5fc3d41149c0c8728f07b95b","feedback","","","<div class=""veryhighPoints""> 10 </div>","null","","na","prac","","","1","10","-14","10","","","","","","","","","","","","","",""
"null","155511","SARL_v6","SARL_v61u7sptge","5fc3d41149c0c8728f07b95b","fixation","","","img/fixation.png","null","","","prac","","","","","","","","","","","","","","","","","","","",""
"706","156220","SARL_v6","SARL_v61u7sptge","5fc3d41149c0c8728f07b95b","rlPractice","","","img/black_2bandit_b2.png","74","img/black_2bandit_b2.png","","prac","","","1","","","","","","","","","","","","","","","","",""
"null","156979","SARL_v6","SARL_v61u7sptge","5fc3d41149c0c8728f07b95b","feedback","","","<div class=""veryhighPoints""> 5 </div>","null","","na","prac","","","2","5","-5","5","","","","","","","","","","","","","",""
"null","157139","SARL_v6","SARL_v61u7sptge","5fc3d41149c0c8728f07b95b","fixation","","","img/fixation.png","null","","","prac","","","","","","","","","","","","","","","","","","","",""
"430","157574","SARL_v6","SARL_v61u7sptge","5fc3d41149c0c8728f07b95b","rlPractice","","","img/black_2bandit_b2.png","74","img/black_2bandit_b2.png","","prac","","","2","","","","","","","","","","","","","","","","",""
"null","158337","SARL_v6","SARL_v61u7sptge","5fc3d41149c0c8728f07b95b","feedback","","","<div class=""veryhighPoints""> 30 </div>","null","","na","prac","","","3","30","2","30","","","","","","","","","","","","","",""
"null","158496","SARL_v6","SARL_v61u7sptge","5fc3d41149c0c8728f07b95b","fixation","","","img/fixation.png","null","","","prac","","","","","","","","","","","","","","","","","","","",""
"434","158936","SARL_v6","SARL_v61u7sptge","5fc3d41149c0c8728f07b95b","rlPractice","","","img/black_2bandit_b2.png","75","img/black_2bandit_b2.png","","prac","","","3","","","","","","","","","","","","","","","","",""
"null","159692","SARL_v6","SARL_v61u7sptge","5fc3d41149c0c8728f07b95b","feedback","","","<div class=""veryhighPoints_sq""> 20 </div>","null","","na","prac","","","4","-2","20","-2","","","","","","","","","","","","","",""
"null","159852","SARL_v6","SARL_v61u7sptge","5fc3d41149c0c8728f07b95b","fixation","","","img/fixation.png","null","","","prac","","","","","","","","","","","","","","","","","","","",""
"12760","172615","SARL_v6","SARL_v61u7sptge","5fc3d41149c0c8728f07b95b","","","","","","","","prac","","","","","","","","","","","","","","","","","","","",""
"null","173423","SARL_v6","SARL_v61u7sptge","5fc3d41149c0c8728f07b95b","mixAttFreqPrac","","","img/blue_2bandit_b2.png","null","img/blue_2bandit_b2.png","70","prac","","","1","","","","","","","","","","","","","","","","",""
"39","173581","SARL_v6","SARL_v61u7sptge","5fc3d41149c0c8728f07b95b","fixation","","","img/fixation.png","70","","","prac","","","","","","","","","","","","","","","","","","","",""
"591","174175","SARL_v6","SARL_v61u7sptge","5fc3d41149c0c8728f07b95b","mixAttInfreqPrac","","","img/orange_2bandit_b2.png","68","img/orange_2bandit_b2.png","68","prac","","","2","","","","","","","","","","","","","","","","",""
"591","174394","SARL_v6","SARL_v61u7sptge","5fc3d41149c0c8728f07b95b","infreqPrac_resp","","","img/orange_2bandit_b.png","68","img/blue_2bandit_b.png","68","prac","","","2","","","","","","","","","","","","","","","","",""
"null","174554","SARL_v6","SARL_v61u7sptge","5fc3d41149c0c8728f07b95b","fixation","","","img/fixation.png","null","","","prac","","","","","","","","","","","","","","","","","","","",""
"430","174987","SARL_v6","SARL_v61u7sptge","5fc3d41149c0c8728f07b95b","mixAttInfreqPrac","","","img/orange_2bandit_b2.png","68","img/orange_2bandit_b2.png","68","prac","","","3","","","","","","","","","","","","","","","","",""
"430","175366","SARL_v6","SARL_v61u7sptge","5fc3d41149c0c8728f07b95b","infreqPrac_resp","","","img/orange_2bandit_b.png","68","img/blue_2bandit_b.png","68","prac","","","3","","","","","","","","","","","","","","","","",""
"null","175524","SARL_v6","SARL_v61u7sptge","5fc3d41149c0c8728f07b95b","fixation","","","img/fixation.png","null","","","prac","","","","","","","","","","","","","","","","","","","",""
"362","175887","SARL_v6","SARL_v61u7sptge","5fc3d41149c0c8728f07b95b","mixAttInfreqPrac","","","img/orange_2bandit_b2.png","68","img/orange_2bandit_b2.png","68","prac","","","4","","","","","","","","","","","","","","","","",""
"362","176337","SARL_v6","SARL_v61u7sptge","5fc3d41149c0c8728f07b95b","infreqPrac_resp","","","img/orange_2bandit_b.png","68","img/blue_2bandit_b.png","68","prac","","","4","","","","","","","","","","","","","","","","",""
"null","176497","SARL_v6","SARL_v61u7sptge","5fc3d41149c0c8728f07b95b","fixation","","","img/fixation.png","null","","","prac","","","","","","","","","","","","","","","","","","","",""
"463","176964","SARL_v6","SARL_v61u7sptge","5fc3d41149c0c8728f07b95b","mixAttFreqPrac","","","img/blue_2bandit_b2.png","70","img/blue_2bandit_b2.png","70","prac","","","5","","","","","","","","","","","","","","","","",""
"463","177311","SARL_v6","SARL_v61u7sptge","5fc3d41149c0c8728f07b95b","freqPrac_resp","","","img/blue_2bandit_b.png","70","img/blue_2bandit_b.png","70","prac","","","5","","","","","","","","","","","","","","","","",""
"null","177472","SARL_v6","SARL_v61u7sptge","5fc3d41149c0c8728f07b95b","fixation","","","img/fixation.png","null","","","prac","","","","","","","","","","","","","","","","","","","",""
"492","177966","SARL_v6","SARL_v61u7sptge","5fc3d41149c0c8728f07b95b","mixRLPractice","","","img/black_2bandit_b2.png","74","img/black_2bandit_b2.png","","prac","","","5","","","","","","","","","","","","","","","","",""
"null","178733","SARL_v6","SARL_v61u7sptge","5fc3d41149c0c8728f07b95b","feedback","","","<div class=""verylowPoints""> -14 </div>","null","","na","prac","","","6","-14","10","-14","","","","","","","","","","","","","",""
"null","178894","SARL_v6","SARL_v61u7sptge","5fc3d41149c0c8728f07b95b","fixation","","","img/fixation.png","null","","","prac","","","","","","","","","","","","","","","","","","","",""
"null","179708","SARL_v6","SARL_v61u7sptge","5fc3d41149c0c8728f07b95b","mixAttFreqPrac","","","img/blue_2bandit_b2.png","null","img/blue_2bandit_b2.png","70","prac","","","7","","","","","","","","","","","","","","","","",""
"null","179866","SARL_v6","SARL_v61u7sptge","5fc3d41149c0c8728f07b95b","fixation","","","img/fixation.png","null","","","prac","","","","","","","","","","","","","","","","","","","",""
"21","179891","SARL_v6","SARL_v61u7sptge","5fc3d41149c0c8728f07b95b","mixAttInfreqPrac","","","img/orange_2bandit_b2.png","68","img/orange_2bandit_b2.png","68","prac","","","8","","","","","","","","","","","","","","","","",""
"21","180679","SARL_v6","SARL_v61u7sptge","5fc3d41149c0c8728f07b95b","infreqPrac_resp","","","img/orange_2bandit_b.png","68","img/blue_2bandit_b.png","68","prac","","","8","","","","","","","","","","","","","","","","",""
"null","180839","SARL_v6","SARL_v61u7sptge","5fc3d41149c0c8728f07b95b","fixation","","","img/fixation.png","null","","","prac","","","","","","","","","","","","","","","","","","","",""
"499","181341","SARL_v6","SARL_v61u7sptge","5fc3d41149c0c8728f07b95b","mixAttFreqPrac","","","img/blue_2bandit_b2.png","70","img/blue_2bandit_b2.png","70","prac","","","9","","","","","","","","","","","","","","","","",""
"499","181651","SARL_v6","SARL_v61u7sptge","5fc3d41149c0c8728f07b95b","freqPrac_resp","","","img/blue_2bandit_b.png","70","img/blue_2bandit_b.png","70","prac","","","9","","","","","","","","","","","","","","","","",""
"null","181811","SARL_v6","SARL_v61u7sptge","5fc3d41149c0c8728f07b95b","fixation","","","img/fixation.png","null","","","prac","","","","","","","","","","","","","","","","","","","",""
"598","182414","SARL_v6","SARL_v61u7sptge","5fc3d41149c0c8728f07b95b","mixAttFreqPrac","","","img/blue_2bandit_b2.png","70","img/blue_2bandit_b2.png","70","prac","","","10","","","","","","","","","","","","","","","","",""
"598","182625","SARL_v6","SARL_v61u7sptge","5fc3d41149c0c8728f07b95b","freqPrac_resp","","","img/blue_2bandit_b.png","70","img/blue_2bandit_b.png","70","prac","","","10","","","","","","","","","","","","","","","","",""
"null","182785","SARL_v6","SARL_v61u7sptge","5fc3d41149c0c8728f07b95b","fixation","","","img/fixation.png","null","","","prac","","","","","","","","","","","","","","","","","","","",""
"444","183231","SARL_v6","SARL_v61u7sptge","5fc3d41149c0c8728f07b95b","mixAttInfreqPrac","","","img/orange_2bandit_b2.png","68","img/orange_2bandit_b2.png","68","prac","","","11","","","","","","","","","","","","","","","","",""
"444","183598","SARL_v6","SARL_v61u7sptge","5fc3d41149c0c8728f07b95b","infreqPrac_resp","","","img/orange_2bandit_b.png","68","img/blue_2bandit_b.png","68","prac","","","11","","","","","","","","","","","","","","","","",""
"null","183757","SARL_v6","SARL_v61u7sptge","5fc3d41149c0c8728f07b95b","fixation","","","img/fixation.png","null","","","prac","","","","","","","","","","","","","","","","","","","",""
"582","184343","SARL_v6","SARL_v61u7sptge","5fc3d41149c0c8728f07b95b","mixRLPractice","","","img/black_2bandit_b2.png","75","img/black_2bandit_b2.png","","prac","","","11","","","","","","","","","","","","","","","","",""
"null","185110","SARL_v6","SARL_v61u7sptge","5fc3d41149c0c8728f07b95b","feedback","","","<div class=""verylowPoints_sq""> -5 </div>","null","","na","prac","","","12","5","-5","5","","","","","","","","","","","","","",""
"null","185271","SARL_v6","SARL_v61u7sptge","5fc3d41149c0c8728f07b95b","fixation","","","img/fixation.png","null","","","prac","","","","","","","","","","","","","","","","","","","",""
"8149","193424","SARL_v6","SARL_v61u7sptge","5fc3d41149c0c8728f07b95b","","","","","","","","prac","","","","","","","","","","","","","","","","","","","",""
"681","194108","SARL_v6","SARL_v61u7sptge","5fc3d41149c0c8728f07b95b","freq","","","img/blue_2bandit_b2.png","70","","70","test","1","","1","","","","circle","square","1","1","1","1","","","","","","","",""
"null","194239","SARL_v6","SARL_v61u7sptge","5fc3d41149c0c8728f07b95b","freq_resp","","","img/blue_2bandit_b.png","70","img/blue_2bandit_b.png","70","test","","","","","","","","","","","1","","","","","","","","",""
"null","194399","SARL_v6","SARL_v61u7sptge","5fc3d41149c0c8728f07b95b","fixation","","","img/fixation.png","null","","","test","","","","","","","","","","","","","","","","","","","",""
"363","194764","SARL_v6","SARL_v61u7sptge","5fc3d41149c0c8728f07b95b","freq","","","img/blue_2bandit_b2.png","70","","70","test","1","","2","","","","circle","square","2","2","1","1","","","","","","","",""
"null","195214","SARL_v6","SARL_v61u7sptge","5fc3d41149c0c8728f07b95b","freq_resp","","","img/blue_2bandit_b.png","70","img/blue_2bandit_b.png","70","test","","","","","","","","","","","1","","","","","","","","",""
"null","195374","SARL_v6","SARL_v61u7sptge","5fc3d41149c0c8728f07b95b","fixation","","","img/fixation.png","null","","","test","","","","","","","","","","","","","","","","","","","",""
"374","195751","SARL_v6","SARL_v61u7sptge","5fc3d41149c0c8728f07b95b","freq","","","img/blue_2bandit_b2.png","70","","70","test","1","","3","","","","circle","square","3","3","1","1","","","","","","","",""
"null","196187","SARL_v6","SARL_v61u7sptge","5fc3d41149c0c8728f07b95b","freq_resp","","","img/blue_2bandit_b.png","70","img/blue_2bandit_b.png","70","test","","","","","","","","","","","1","","","","","","","","",""
"null","196344","SARL_v6","SARL_v61u7sptge","5fc3d41149c0c8728f07b95b","fixation","","","img/fixation.png","null","","","test","","","","","","","","","","","","","","","","","","","",""
"330","196678","SARL_v6","SARL_v61u7sptge","5fc3d41149c0c8728f07b95b","freq","","","img/blue_2bandit_b2.png","70","","70","test","1","","4","","","","circle","square","4","4","1","1","","","","","","","",""
"null","197156","SARL_v6","SARL_v61u7sptge","5fc3d41149c0c8728f07b95b","freq_resp","","","img/blue_2bandit_b.png","70","img/blue_2bandit_b.png","70","test","","","","","","","","","","","1","","","","","","","","",""
"null","197313","SARL_v6","SARL_v61u7sptge","5fc3d41149c0c8728f07b95b","fixation","","","img/fixation.png","null","","","test","","","","","","","","","","","","","","","","","","","",""
"297","197614","SARL_v6","SARL_v61u7sptge","5fc3d41149c0c8728f07b95b","freq","","","img/blue_2bandit_b2.png","70","","70","test","1","","5","","","","circle","square","5","5","1","1","","","","","","","",""
"null","198127","SARL_v6","SARL_v61u7sptge","5fc3d41149c0c8728f07b95b","freq_resp","","","img/blue_2bandit_b.png","70","img/blue_2bandit_b.png","70","test","","","","","","","","","","","1","","","","","","","","",""
"null","198287","SARL_v6","SARL_v61u7sptge","5fc3d41149c0c8728f07b95b","fixation","","","img/fixation.png","null","","","test","","","","","","","","","","","","","","","","","","","",""
"331","198622","SARL_v6","SARL_v61u7sptge","5fc3d41149c0c8728f07b95b","freq","","","img/blue_2bandit_b2.png","70","","70","test","1","","6","","","","circle","square","6","6","1","1","","","","","","","",""
"null","199097","SARL_v6","SARL_v61u7sptge","5fc3d41149c0c8728f07b95b","freq_resp","","","img/blue_2bandit_b.png","70","img/blue_2bandit_b.png","70","test","","","","","","","","","","","1","","","","","","","","",""
"null","199257","SARL_v6","SARL_v61u7sptge","5fc3d41149c0c8728f07b95b","fixation","","","img/fixation.png","null","","","test","","","","","","","","","","","","","","","","","","","",""
"312","199572","SARL_v6","SARL_v61u7sptge","5fc3d41149c0c8728f07b95b","freq","","","img/blue_2bandit_b2.png","70","","70","test","1","","7","","","","circle","square","7","7","1","1","","","","","","","",""
"null","200069","SARL_v6","SARL_v61u7sptge","5fc3d41149c0c8728f07b95b","freq_resp","","","img/blue_2bandit_b.png","70","img/blue_2bandit_b.png","70","test","","","","","","","","","","","1","","","","","","","","",""
"null","200227","SARL_v6","SARL_v61u7sptge","5fc3d41149c0c8728f07b95b","fixation","","","img/fixation.png","null","","","test","","","","","","","","","","","","","","","","","","","",""
"297","200528","SARL_v6","SARL_v61u7sptge","5fc3d41149c0c8728f07b95b","freq","","","img/blue_2bandit_b2.png","70","","70","test","1","","8","","","","circle","square","8","8","1","1","","","","","","","",""
"null","201043","SARL_v6","SARL_v61u7sptge","5fc3d41149c0c8728f07b95b","freq_resp","","","img/blue_2bandit_b.png","70","img/blue_2bandit_b.png","70","test","","","","","","","","","","","1","","","","","","","","",""
"null","201204","SARL_v6","SARL_v61u7sptge","5fc3d41149c0c8728f07b95b","fixation","","","img/fixation.png","null","","","test","","","","","","","","","","","","","","","","","","","",""
"302","201509","SARL_v6","SARL_v61u7sptge","5fc3d41149c0c8728f07b95b","freq","","","img/blue_2bandit_b2.png","70","","70","test","1","","9","","","","circle","square","9","9","1","1","","","","","","","",""
"null","202017","SARL_v6","SARL_v61u7sptge","5fc3d41149c0c8728f07b95b","freq_resp","","","img/blue_2bandit_b.png","70","img/blue_2bandit_b.png","70","test","","","","","","","","","","","1","","","","","","","","",""
"null","202177","SARL_v6","SARL_v61u7sptge","5fc3d41149c0c8728f07b95b","fixation","","","img/fixation.png","null","","","test","","","","","","","","","","","","","","","","","","","",""
"371","202551","SARL_v6","SARL_v61u7sptge","5fc3d41149c0c8728f07b95b","freq","","","img/blue_2bandit_b2.png","70","","70","test","1","","10","","","","circle","square","10","10","1","1","","","","","","","",""
"null","202990","SARL_v6","SARL_v61u7sptge","5fc3d41149c0c8728f07b95b","freq_resp","","","img/blue_2bandit_b.png","70","img/blue_2bandit_b.png","70","test","","","","","","","","","","","1","","","","","","","","",""
"null","203151","SARL_v6","SARL_v61u7sptge","5fc3d41149c0c8728f07b95b","fixation","","","img/fixation.png","null","","","test","","","","","","","","","","","","","","","","","","","",""
"305","203460","SARL_v6","SARL_v61u7sptge","5fc3d41149c0c8728f07b95b","freq","","","img/blue_2bandit_b2.png","70","","70","test","1","","11","","","","circle","square","11","11","1","1","","","","","","","",""
"null","203961","SARL_v6","SARL_v61u7sptge","5fc3d41149c0c8728f07b95b","freq_resp","","","img/blue_2bandit_b.png","70","img/blue_2bandit_b.png","70","test","","","","","","","","","","","1","","","","","","","","",""
"null","204122","SARL_v6","SARL_v61u7sptge","5fc3d41149c0c8728f07b95b","fixation","","","img/fixation.png","null","","","test","","","","","","","","","","","","","","","","","","","",""
"330","204457","SARL_v6","SARL_v61u7sptge","5fc3d41149c0c8728f07b95b","freq","","","img/blue_2bandit_b2.png","70","","70","test","1","","12","","","","circle","square","12","12","1","1","","","","","","","",""
"null","204932","SARL_v6","SARL_v61u7sptge","5fc3d41149c0c8728f07b95b","freq_resp","","","img/blue_2bandit_b.png","70","img/blue_2bandit_b.png","70","test","","","","","","","","","","","1","","","","","","","","",""
"null","205092","SARL_v6","SARL_v61u7sptge","5fc3d41149c0c8728f07b95b","fixation","","","img/fixation.png","null","","","test","","","","","","","","","","","","","","","","","","","",""
"373","205469","SARL_v6","SARL_v61u7sptge","5fc3d41149c0c8728f07b95b","freq","","","img/blue_2bandit_b2.png","70","","70","test","1","","13","","","","circle","square","13","13","1","1","","","","","","","",""
"null","205903","SARL_v6","SARL_v61u7sptge","5fc3d41149c0c8728f07b95b","freq_resp","","","img/blue_2bandit_b.png","70","img/blue_2bandit_b.png","70","test","","","","","","","","","","","1","","","","","","","","",""
"null","206063","SARL_v6","SARL_v61u7sptge","5fc3d41149c0c8728f07b95b","fixation","","","img/fixation.png","null","","","test","","","","","","","","","","","","","","","","","","","",""
"332","206399","SARL_v6","SARL_v61u7sptge","5fc3d41149c0c8728f07b95b","freq","","","img/blue_2bandit_b2.png","70","","70","test","1","","14","","","","circle","square","14","14","1","1","","","","","","","",""
"null","206877","SARL_v6","SARL_v61u7sptge","5fc3d41149c0c8728f07b95b","freq_resp","","","img/blue_2bandit_b.png","70","img/blue_2bandit_b.png","70","test","","","","","","","","","","","1","","","","","","","","",""
"null","207036","SARL_v6","SARL_v61u7sptge","5fc3d41149c0c8728f07b95b","fixation","","","img/fixation.png","null","","","test","","","","","","","","","","","","","","","","","","","",""
"314","207354","SARL_v6","SARL_v61u7sptge","5fc3d41149c0c8728f07b95b","freq","","","img/blue_2bandit_b2.png","70","","70","test","1","","15","","","","circle","square","15","15","1","1","","","","","","","",""
"null","207851","SARL_v6","SARL_v61u7sptge","5fc3d41149c0c8728f07b95b","freq_resp","","","img/blue_2bandit_b.png","70","img/blue_2bandit_b.png","70","test","","","","","","","","","","","1","","","","","","","","",""
"null","208011","SARL_v6","SARL_v61u7sptge","5fc3d41149c0c8728f07b95b","fixation","","","img/fixation.png","null","","","test","","","","","","","","","","","","","","","","","","","",""
"327","208342","SARL_v6","SARL_v61u7sptge","5fc3d41149c0c8728f07b95b","freq","","","img/blue_2bandit_b2.png","70","","70","test","1","","16","","","","circle","square","16","16","1","1","","","","","","","",""
"null","208823","SARL_v6","SARL_v61u7sptge","5fc3d41149c0c8728f07b95b","freq_resp","","","img/blue_2bandit_b.png","70","img/blue_2bandit_b.png","70","test","","","","","","","","","","","1","","","","","","","","",""
"null","208982","SARL_v6","SARL_v61u7sptge","5fc3d41149c0c8728f07b95b","fixation","","","img/fixation.png","null","","","test","","","","","","","","","","","","","","","","","","","",""
"null","209798","SARL_v6","SARL_v61u7sptge","5fc3d41149c0c8728f07b95b","infreq","","","img/orange_2bandit_b2.png","null","","68","test","0","","17","","","","circle","square","17","17","1","0.9411764705882353","","","","","","","",""
"null","209954","SARL_v6","SARL_v61u7sptge","5fc3d41149c0c8728f07b95b","fixation","","","img/fixation.png","null","","","test","","","","","","","","","","","","","","","","","","","",""
"556","210514","SARL_v6","SARL_v61u7sptge","5fc3d41149c0c8728f07b95b","infreq","","","img/orange_2bandit_b2.png","68","","68","test","1","","18","","","","circle","square","18","18","1","0.9444444444444444","","","","","","","",""
"null","210767","SARL_v6","SARL_v61u7sptge","5fc3d41149c0c8728f07b95b","infreq_resp","","","img/orange_2bandit_b.png","68","img/orange_2bandit_b.png","68","test","","","","","","","","","","","1","","","","","","","","",""
"null","210927","SARL_v6","SARL_v61u7sptge","5fc3d41149c0c8728f07b95b","fixation","","","img/fixation.png","null","","","test","","","","","","","","","","","","","","","","","","","",""
"447","211377","SARL_v6","SARL_v61u7sptge","5fc3d41149c0c8728f07b95b","freq","","","img/blue_2bandit_b2.png","70","","70","test","1","","19","","","","circle","square","19","19","1","0.9473684210526315","","","","","","","",""
"null","211741","SARL_v6","SARL_v61u7sptge","5fc3d41149c0c8728f07b95b","freq_resp","","","img/blue_2bandit_b.png","70","img/blue_2bandit_b.png","70","test","","","","","","","","","","","1","","","","","","","","",""
"null","211901","SARL_v6","SARL_v61u7sptge","5fc3d41149c0c8728f07b95b","fixation","","","img/fixation.png","null","","","test","","","","","","","","","","","","","","","","","","","",""
"474","212379","SARL_v6","SARL_v61u7sptge","5fc3d41149c0c8728f07b95b","freq","","","img/blue_2bandit_b2.png","70","","70","test","1","","20","","","","circle","square","20","20","1","0.95","","","","","","","",""
"null","212717","SARL_v6","SARL_v61u7sptge","5fc3d41149c0c8728f07b95b","freq_resp","","","img/blue_2bandit_b.png","70","img/blue_2bandit_b.png","70","test","","","","","","","","","","","1","","","","","","","","",""
"null","212875","SARL_v6","SARL_v61u7sptge","5fc3d41149c0c8728f07b95b","fixation","","","img/fixation.png","null","","","test","","","","","","","","","","","","","","","","","","","",""
"386","213265","SARL_v6","SARL_v61u7sptge","5fc3d41149c0c8728f07b95b","freq","","","img/blue_2bandit_b2.png","70","","70","test","1","","21","","","","circle","square","21","21","1","0.9523809523809523","","","","","","","",""
"null","213692","SARL_v6","SARL_v61u7sptge","5fc3d41149c0c8728f07b95b","freq_resp","","","img/blue_2bandit_b.png","70","img/blue_2bandit_b.png","70","test","","","","","","","","","","","1","","","","","","","","",""
"null","213851","SARL_v6","SARL_v61u7sptge","5fc3d41149c0c8728f07b95b","fixation","","","img/fixation.png","null","","","test","","","","","","","","","","","","","","","","","","","",""
"503","214357","SARL_v6","SARL_v61u7sptge","5fc3d41149c0c8728f07b95b","rl","","","img/black_2bandit_b2.png","75","","0","test","","","22","","","-3","circle","square","","0","1","","75","-3","-3","-3","-3","square","1","0"
"null","215113","SARL_v6","SARL_v61u7sptge","5fc3d41149c0c8728f07b95b","feedback","","","<div class=""verylowPoints_sq""> -3 </div>","null","","na","test","","","NaN","","","","","","","","1","","75","","","","","","1",""
"583","215700","SARL_v6","SARL_v61u7sptge","5fc3d41149c0c8728f07b95b","freq","","","img/blue_2bandit_b2.png","70","","70","test","1","","23","","","","circle","square","22","1","2","0.9545454545454546","","","","","","","",""
"null","215922","SARL_v6","SARL_v61u7sptge","5fc3d41149c0c8728f07b95b","freq_resp","","","img/blue_2bandit_b.png","70","img/blue_2bandit_b.png","70","test","","","","","","","","","","","2","","","","","","","","",""
"null","216081","SARL_v6","SARL_v61u7sptge","5fc3d41149c0c8728f07b95b","fixation","","","img/fixation.png","null","","","test","","","","","","","","","","","","","","","","","","","",""
"476","216561","SARL_v6","SARL_v61u7sptge","5fc3d41149c0c8728f07b95b","infreq","","","img/orange_2bandit_b2.png","68","","68","test","1","","24","","","","circle","square","23","2","2","0.9565217391304348","","","","","","","",""
"null","216894","SARL_v6","SARL_v61u7sptge","5fc3d41149c0c8728f07b95b","infreq_resp","","","img/orange_2bandit_b.png","68","img/orange_2bandit_b.png","68","test","","","","","","","","","","","2","","","","","","","","",""
"null","217055","SARL_v6","SARL_v61u7sptge","5fc3d41149c0c8728f07b95b","fixation","","","img/fixation.png","null","","","test","","","","","","","","","","","","","","","","","","","",""
"459","217515","SARL_v6","SARL_v61u7sptge","5fc3d41149c0c8728f07b95b","freq","","","img/blue_2bandit_b2.png","70","","70","test","1","","25","","","","circle","square","24","3","2","0.9583333333333334","","","","","","","",""
"null","217870","SARL_v6","SARL_v61u7sptge","5fc3d41149c0c8728f07b95b","freq_resp","","","img/blue_2bandit_b.png","70","img/blue_2bandit_b.png","70","test","","","","","","","","","","","2","","","","","","","","",""
"null","218027","SARL_v6","SARL_v61u7sptge","5fc3d41149c0c8728f07b95b","fixation","","","img/fixation.png","null","","","test","","","","","","","","","","","","","","","","","","","",""
"442","218475","SARL_v6","SARL_v61u7sptge","5fc3d41149c0c8728f07b95b","infreq","","","img/orange_2bandit_b2.png","68","","68","test","1","","26","","","","circle","square","25","4","2","0.96","","","","","","","",""
"null","218842","SARL_v6","SARL_v61u7sptge","5fc3d41149c0c8728f07b95b","infreq_resp","","","img/orange_2bandit_b.png","68","img/orange_2bandit_b.png","68","test","","","","","","","","","","","2","","","","","","","","",""
"null","219002","SARL_v6","SARL_v61u7sptge","5fc3d41149c0c8728f07b95b","fixation","","","img/fixation.png","null","","","test","","","","","","","","","","","","","","","","","","","",""
"426","219430","SARL_v6","SARL_v61u7sptge","5fc3d41149c0c8728f07b95b","freq","","","img/blue_2bandit_b2.png","70","","70","test","1","","27","","","","circle","square","26","5","2","0.9615384615384616","","","","","","","",""
"null","219813","SARL_v6","SARL_v61u7sptge","5fc3d41149c0c8728f07b95b","freq_resp","","","img/blue_2bandit_b.png","70","img/blue_2bandit_b.png","70","test","","","","","","","","","","","2","","","","","","","","",""
"null","219974","SARL_v6","SARL_v61u7sptge","5fc3d41149c0c8728f07b95b","fixation","","","img/fixation.png","null","","","test","","","","","","","","","","","","","","","","","","","",""
"381","220358","SARL_v6","SARL_v61u7sptge","5fc3d41149c0c8728f07b95b","freq","","","img/blue_2bandit_b2.png","70","","70","test","1","","28","","","","circle","square","27","6","2","0.9629629629629629","","","","","","","",""
"null","220788","SARL_v6","SARL_v61u7sptge","5fc3d41149c0c8728f07b95b","freq_resp","","","img/blue_2bandit_b.png","70","img/blue_2bandit_b.png","70","test","","","","","","","","","","","2","","","","","","","","",""
"null","220946","SARL_v6","SARL_v61u7sptge","5fc3d41149c0c8728f07b95b","fixation","","","img/fixation.png","null","","","test","","","","","","","","","","","","","","","","","","","",""
"338","221287","SARL_v6","SARL_v61u7sptge","5fc3d41149c0c8728f07b95b","freq","","","img/blue_2bandit_b2.png","70","","70","test","1","","29","","","","circle","square","28","7","2","0.9642857142857143","","","","","","","",""
"null","221760","SARL_v6","SARL_v61u7sptge","5fc3d41149c0c8728f07b95b","freq_resp","","","img/blue_2bandit_b.png","70","img/blue_2bandit_b.png","70","test","","","","","","","","","","","2","","","","","","","","",""
"null","221919","SARL_v6","SARL_v61u7sptge","5fc3d41149c0c8728f07b95b","fixation","","","img/fixation.png","null","","","test","","","","","","","","","","","","","","","","","","","",""
"328","222251","SARL_v6","SARL_v61u7sptge","5fc3d41149c0c8728f07b95b","freq","","","img/blue_2bandit_b2.png","70","","70","test","1","","30","","","","circle","square","29","8","2","0.9655172413793104","","","","","","","",""
"null","222733","SARL_v6","SARL_v61u7sptge","5fc3d41149c0c8728f07b95b","freq_resp","","","img/blue_2bandit_b.png","70","img/blue_2bandit_b.png","70","test","","","","","","","","","","","2","","","","","","","","",""
"null","222892","SARL_v6","SARL_v61u7sptge","5fc3d41149c0c8728f07b95b","fixation","","","img/fixation.png","null","","","test","","","","","","","","","","","","","","","","","","","",""
"356","223252","SARL_v6","SARL_v61u7sptge","5fc3d41149c0c8728f07b95b","freq","","","img/blue_2bandit_b2.png","70","","70","test","1","","31","","","","circle","square","30","9","2","0.9666666666666667","","","","","","","",""
"null","223708","SARL_v6","SARL_v61u7sptge","5fc3d41149c0c8728f07b95b","freq_resp","","","img/blue_2bandit_b.png","70","img/blue_2bandit_b.png","70","test","","","","","","","","","","","2","","","","","","","","",""
"null","223869","SARL_v6","SARL_v61u7sptge","5fc3d41149c0c8728f07b95b","fixation","","","img/fixation.png","null","","","test","","","","","","","","","","","","","","","","","","","",""
"341","224214","SARL_v6","SARL_v61u7sptge","5fc3d41149c0c8728f07b95b","freq","","","img/blue_2bandit_b2.png","70","","70","test","1","","32","","","","circle","square","31","10","2","0.967741935483871","","","","","","","",""
"null","224683","SARL_v6","SARL_v61u7sptge","5fc3d41149c0c8728f07b95b","freq_resp","","","img/blue_2bandit_b.png","70","img/blue_2bandit_b.png","70","test","","","","","","","","","","","2","","","","","","","","",""
"null","224843","SARL_v6","SARL_v61u7sptge","5fc3d41149c0c8728f07b95b","fixation","","","img/fixation.png","null","","","test","","","","","","","","","","","","","","","","","","","",""
"356","225201","SARL_v6","SARL_v61u7sptge","5fc3d41149c0c8728f07b95b","freq","","","img/blue_2bandit_b2.png","70","","70","test","1","","33","","","","circle","square","32","11","2","0.96875","","","","","","","",""
"null","225656","SARL_v6","SARL_v61u7sptge","5fc3d41149c0c8728f07b95b","freq_resp","","","img/blue_2bandit_b.png","70","img/blue_2bandit_b.png","70","test","","","","","","","","","","","2","","","","","","","","",""
"null","225817","SARL_v6","SARL_v61u7sptge","5fc3d41149c0c8728f07b95b","fixation","","","img/fixation.png","null","","","test","","","","","","","","","","","","","","","","","","","",""
"335","226156","SARL_v6","SARL_v61u7sptge","5fc3d41149c0c8728f07b95b","freq","","","img/blue_2bandit_b2.png","70","","70","test","1","","34","","","","circle","square","33","12","2","0.9696969696969697","","","","","","","",""
"null","226627","SARL_v6","SARL_v61u7sptge","5fc3d41149c0c8728f07b95b","freq_resp","","","img/blue_2bandit_b.png","70","img/blue_2bandit_b.png","70","test","","","","","","","","","","","2","","","","","","","","",""
"null","226787","SARL_v6","SARL_v61u7sptge","5fc3d41149c0c8728f07b95b","fixation","","","img/fixation.png","null","","","test","","","","","","","","","","","","","","","","","","","",""
"343","227133","SARL_v6","SARL_v61u7sptge","5fc3d41149c0c8728f07b95b","freq","","","img/blue_2bandit_b2.png","70","","70","test","1","","35","","","","circle","square","34","13","2","0.9705882352941176","","","","","","","",""
"null","227601","SARL_v6","SARL_v61u7sptge","5fc3d41149c0c8728f07b95b","freq_resp","","","img/blue_2bandit_b.png","70","img/blue_2bandit_b.png","70","test","","","","","","","","","","","2","","","","","","","","",""
"null","227761","SARL_v6","SARL_v61u7sptge","5fc3d41149c0c8728f07b95b","fixation","","","img/fixation.png","null","","","test","","","","","","","","","","","","","","","","","","","",""
"335","228101","SARL_v6","SARL_v61u7sptge","5fc3d41149c0c8728f07b95b","freq","","","img/blue_2bandit_b2.png","70","","70","test","1","","36","","","","circle","square","35","14","2","0.9714285714285714","","","","","","","",""
"null","228578","SARL_v6","SARL_v61u7sptge","5fc3d41149c0c8728f07b95b","freq_resp","","","img/blue_2bandit_b.png","70","img/blue_2bandit_b.png","70","test","","","","","","","","","","","2","","","","","","","","",""
"null","228737","SARL_v6","SARL_v61u7sptge","5fc3d41149c0c8728f07b95b","fixation","","","img/fixation.png","null","","","test","","","","","","","","","","","","","","","","","","","",""
"362","229102","SARL_v6","SARL_v61u7sptge","5fc3d41149c0c8728f07b95b","freq","","","img/blue_2bandit_b2.png","70","","70","test","1","","37","","","","circle","square","36","15","2","0.9722222222222222","","","","","","","",""
"null","229549","SARL_v6","SARL_v61u7sptge","5fc3d41149c0c8728f07b95b","freq_resp","","","img/blue_2bandit_b.png","70","img/blue_2bandit_b.png","70","test","","","","","","","","","","","2","","","","","","","","",""
"null","229709","SARL_v6","SARL_v61u7sptge","5fc3d41149c0c8728f07b95b","fixation","","","img/fixation.png","null","","","test","","","","","","","","","","","","","","","","","","","",""
"322","230034","SARL_v6","SARL_v61u7sptge","5fc3d41149c0c8728f07b95b","freq","","","img/blue_2bandit_b2.png","70","","70","test","1","","38","","","","circle","square","37","16","2","0.972972972972973","","","","","","","",""
"null","230525","SARL_v6","SARL_v61u7sptge","5fc3d41149c0c8728f07b95b","freq_resp","","","img/blue_2bandit_b.png","70","img/blue_2bandit_b.png","70","test","","","","","","","","","","","2","","","","","","","","",""
"null","230684","SARL_v6","SARL_v61u7sptge","5fc3d41149c0c8728f07b95b","fixation","","","img/fixation.png","null","","","test","","","","","","","","","","","","","","","","","","","",""
"357","231046","SARL_v6","SARL_v61u7sptge","5fc3d41149c0c8728f07b95b","freq","","","img/blue_2bandit_b2.png","70","","70","test","1","","39","","","","circle","square","38","17","2","0.9736842105263158","","","","","","","",""
"null","231498","SARL_v6","SARL_v61u7sptge","5fc3d41149c0c8728f07b95b","freq_resp","","","img/blue_2bandit_b.png","70","img/blue_2bandit_b.png","70","test","","","","","","","","","","","2","","","","","","","","",""
"null","231657","SARL_v6","SARL_v61u7sptge","5fc3d41149c0c8728f07b95b","fixation","","","img/fixation.png","null","","","test","","","","","","","","","","","","","","","","","","","",""
"321","231982","SARL_v6","SARL_v61u7sptge","5fc3d41149c0c8728f07b95b","freq","","","img/blue_2bandit_b2.png","70","","70","test","1","","40","","","","circle","square","39","18","2","0.9743589743589743","","","","","","","",""
"null","232472","SARL_v6","SARL_v61u7sptge","5fc3d41149c0c8728f07b95b","freq_resp","","","img/blue_2bandit_b.png","70","img/blue_2bandit_b.png","70","test","","","","","","","","","","","2","","","","","","","","",""
"null","232628","SARL_v6","SARL_v61u7sptge","5fc3d41149c0c8728f07b95b","fixation","","","img/fixation.png","null","","","test","","","","","","","","","","","","","","","","","","","",""
"322","232954","SARL_v6","SARL_v61u7sptge","5fc3d41149c0c8728f07b95b","freq","","","img/blue_2bandit_b2.png","70","","70","test","1","","41","","","","circle","square","40","19","2","0.975","","","","","","","",""
"null","233442","SARL_v6","SARL_v61u7sptge","5fc3d41149c0c8728f07b95b","freq_resp","","","img/blue_2bandit_b.png","70","img/blue_2bandit_b.png","70","test","","","","","","","","","","","2","","","","","","","","",""
"null","233601","SARL_v6","SARL_v61u7sptge","5fc3d41149c0c8728f07b95b","fixation","","","img/fixation.png","null","","","test","","","","","","","","","","","","","","","","","","","",""
"556","234161","SARL_v6","SARL_v61u7sptge","5fc3d41149c0c8728f07b95b","rl","","","img/black_2bandit_b2.png","75","","0","test","","","42","","","-5","circle","square","","0","2","","75","-8","-5","-8","-5","square","2","0"
"null","234925","SARL_v6","SARL_v61u7sptge","5fc3d41149c0c8728f07b95b","feedback","","","<div class=""verylowPoints_sq""> -5 </div>","null","","na","test","","","NaN","","","","","","","","2","","75","","","","","","2",""
"null","235739","SARL_v6","SARL_v61u7sptge","5fc3d41149c0c8728f07b95b","freq","","","img/blue_2bandit_b2.png","null","","70","test","0","","43","","","","circle","square","41","1","3","0.9512195121951219","","","","","","","",""
"null","235899","SARL_v6","SARL_v61u7sptge","5fc3d41149c0c8728f07b95b","fixation","","","img/fixation.png","null","","","test","","","","","","","","","","","","","","","","","","","",""
"511","236415","SARL_v6","SARL_v61u7sptge","5fc3d41149c0c8728f07b95b","freq","","","img/blue_2bandit_b2.png","70","","70","test","1","","44","","","","circle","square","42","2","3","0.9523809523809523","","","","","","","",""
"null","236712","SARL_v6","SARL_v61u7sptge","5fc3d41149c0c8728f07b95b","freq_resp","","","img/blue_2bandit_b.png","70","img/blue_2bandit_b.png","70","test","","","","","","","","","","","3","","","","","","","","",""
"null","236871","SARL_v6","SARL_v61u7sptge","5fc3d41149c0c8728f07b95b","fixation","","","img/fixation.png","null","","","test","","","","","","","","","","","","","","","","","","","",""
"381","237256","SARL_v6","SARL_v61u7sptge","5fc3d41149c0c8728f07b95b","freq","","","img/blue_2bandit_b2.png","70","","70","test","1","","45","","","","circle","square","43","3","3","0.9534883720930233","","","","","","","",""
"null","237689","SARL_v6","SARL_v61u7sptge","5fc3d41149c0c8728f07b95b","freq_resp","","","img/blue_2bandit_b.png","70","img/blue_2bandit_b.png","70","test","","","","","","","","","","","3","","","","","","","","",""
"null","237847","SARL_v6","SARL_v61u7sptge","5fc3d41149c0c8728f07b95b","fixation","","","img/fixation.png","null","","","test","","","","","","","","","","","","","","","","","","","",""
"362","238213","SARL_v6","SARL_v61u7sptge","5fc3d41149c0c8728f07b95b","freq","","","img/blue_2bandit_b2.png","70","","70","test","1","","46","","","","circle","square","44","4","3","0.9545454545454546","","","","","","","",""
"null","238662","SARL_v6","SARL_v61u7sptge","5fc3d41149c0c8728f07b95b","freq_resp","","","img/blue_2bandit_b.png","70","img/blue_2bandit_b.png","70","test","","","","","","","","","","","3","","","","","","","","",""
"null","238821","SARL_v6","SARL_v61u7sptge","5fc3d41149c0c8728f07b95b","fixation","","","img/fixation.png","null","","","test","","","","","","","","","","","","","","","","","","","",""
"353","239179","SARL_v6","SARL_v61u7sptge","5fc3d41149c0c8728f07b95b","freq","","","img/blue_2bandit_b2.png","70","","70","test","1","","47","","","","circle","square","45","5","3","0.9555555555555556","","","","","","","",""
"null","239637","SARL_v6","SARL_v61u7sptge","5fc3d41149c0c8728f07b95b","freq_resp","","","img/blue_2bandit_b.png","70","img/blue_2bandit_b.png","70","test","","","","","","","","","","","3","","","","","","","","",""
"null","239796","SARL_v6","SARL_v61u7sptge","5fc3d41149c0c8728f07b95b","fixation","","","img/fixation.png","null","","","test","","","","","","","","","","","","","","","","","","","",""
"326","240128","SARL_v6","SARL_v61u7sptge","5fc3d41149c0c8728f07b95b","freq","","","img/blue_2bandit_b2.png","70","","70","test","1","","48","","","","circle","square","46","6","3","0.9565217391304348","","","","","","","",""
"null","240609","SARL_v6","SARL_v61u7sptge","5fc3d41149c0c8728f07b95b","freq_resp","","","img/blue_2bandit_b.png","70","img/blue_2bandit_b.png","70","test","","","","","","","","","","","3","","","","","","","","",""
"null","240769","SARL_v6","SARL_v61u7sptge","5fc3d41149c0c8728f07b95b","fixation","","","img/fixation.png","null","","","test","","","","","","","","","","","","","","","","","","","",""
"294","241068","SARL_v6","SARL_v61u7sptge","5fc3d41149c0c8728f07b95b","freq","","","img/blue_2bandit_b2.png","70","","70","test","1","","49","","","","circle","square","47","7","3","0.9574468085106383","","","","","","","",""
"null","241583","SARL_v6","SARL_v61u7sptge","5fc3d41149c0c8728f07b95b","freq_resp","","","img/blue_2bandit_b.png","70","img/blue_2bandit_b.png","70","test","","","","","","","","","","","3","","","","","","","","",""
"null","241743","SARL_v6","SARL_v61u7sptge","5fc3d41149c0c8728f07b95b","fixation","","","img/fixation.png","null","","","test","","","","","","","","","","","","","","","","","","","",""
"317","242064","SARL_v6","SARL_v61u7sptge","5fc3d41149c0c8728f07b95b","freq","","","img/blue_2bandit_b2.png","70","","70","test","1","","50","","","","circle","square","48","8","3","0.9583333333333334","","","","","","","",""
"null","242557","SARL_v6","SARL_v61u7sptge","5fc3d41149c0c8728f07b95b","freq_resp","","","img/blue_2bandit_b.png","70","img/blue_2bandit_b.png","70","test","","","","","","","","","","","3","","","","","","","","",""
"null","242716","SARL_v6","SARL_v61u7sptge","5fc3d41149c0c8728f07b95b","fixation","","","img/fixation.png","null","","","test","","","","","","","","","","","","","","","","","","","",""
"301","243021","SARL_v6","SARL_v61u7sptge","5fc3d41149c0c8728f07b95b","freq","","","img/blue_2bandit_b2.png","70","","70","test","1","","51","","","","circle","square","49","9","3","0.9591836734693877","","","","","","","",""
"null","243531","SARL_v6","SARL_v61u7sptge","5fc3d41149c0c8728f07b95b","freq_resp","","","img/blue_2bandit_b.png","70","img/blue_2bandit_b.png","70","test","","","","","","","","","","","3","","","","","","","","",""
"null","243691","SARL_v6","SARL_v61u7sptge","5fc3d41149c0c8728f07b95b","fixation","","","img/fixation.png","null","","","test","","","","","","","","","","","","","","","","","","","",""
"298","243993","SARL_v6","SARL_v61u7sptge","5fc3d41149c0c8728f07b95b","freq","","","img/blue_2bandit_b2.png","70","","70","test","1","","52","","","","circle","square","50","10","3","0.96","","","","","","","",""
"null","244505","SARL_v6","SARL_v61u7sptge","5fc3d41149c0c8728f07b95b","freq_resp","","","img/blue_2bandit_b.png","70","img/blue_2bandit_b.png","70","test","","","","","","","","","","","3","","","","","","","","",""
"null","244663","SARL_v6","SARL_v61u7sptge","5fc3d41149c0c8728f07b95b","fixation","","","img/fixation.png","null","","","test","","","","","","","","","","","","","","","","","","","",""
"338","245004","SARL_v6","SARL_v61u7sptge","5fc3d41149c0c8728f07b95b","freq","","","img/blue_2bandit_b2.png","70","","70","test","1","","53","","","","circle","square","51","11","3","0.9607843137254902","","","","","","","",""
"null","245477","SARL_v6","SARL_v61u7sptge","5fc3d41149c0c8728f07b95b","freq_resp","","","img/blue_2bandit_b.png","70","img/blue_2bandit_b.png","70","test","","","","","","","","","","","3","","","","","","","","",""
"null","245637","SARL_v6","SARL_v61u7sptge","5fc3d41149c0c8728f07b95b","fixation","","","img/fixation.png","null","","","test","","","","","","","","","","","","","","","","","","","",""
"300","245941","SARL_v6","SARL_v61u7sptge","5fc3d41149c0c8728f07b95b","freq","","","img/blue_2bandit_b2.png","70","","70","test","1","","54","","","","circle","square","52","12","3","0.9615384615384616","","","","","","","",""
"null","246449","SARL_v6","SARL_v61u7sptge","5fc3d41149c0c8728f07b95b","freq_resp","","","img/blue_2bandit_b.png","70","img/blue_2bandit_b.png","70","test","","","","","","","","","","","3","","","","","","","","",""
"null","246607","SARL_v6","SARL_v61u7sptge","5fc3d41149c0c8728f07b95b","fixation","","","img/fixation.png","null","","","test","","","","","","","","","","","","","","","","","","","",""
"295","246906","SARL_v6","SARL_v61u7sptge","5fc3d41149c0c8728f07b95b","freq","","","img/blue_2bandit_b2.png","70","","70","test","1","","55","","","","circle","square","53","13","3","0.9622641509433962","","","","","","","",""
"null","247421","SARL_v6","SARL_v61u7sptge","5fc3d41149c0c8728f07b95b","freq_resp","","","img/blue_2bandit_b.png","70","img/blue_2bandit_b.png","70","test","","","","","","","","","","","3","","","","","","","","",""
"null","247579","SARL_v6","SARL_v61u7sptge","5fc3d41149c0c8728f07b95b","fixation","","","img/fixation.png","null","","","test","","","","","","","","","","","","","","","","","","","",""
"326","247910","SARL_v6","SARL_v61u7sptge","5fc3d41149c0c8728f07b95b","freq","","","img/blue_2bandit_b2.png","70","","70","test","1","","56","","","","circle","square","54","14","3","0.9629629629629629","","","","","","","",""
"null","248394","SARL_v6","SARL_v61u7sptge","5fc3d41149c0c8728f07b95b","freq_resp","","","img/blue_2bandit_b.png","70","img/blue_2bandit_b.png","70","test","","","","","","","","","","","3","","","","","","","","",""
"null","248551","SARL_v6","SARL_v61u7sptge","5fc3d41149c0c8728f07b95b","fixation","","","img/fixation.png","null","","","test","","","","","","","","","","","","","","","","","","","",""
"431","248986","SARL_v6","SARL_v61u7sptge","5fc3d41149c0c8728f07b95b","freq","","","img/blue_2bandit_b2.png","70","","70","test","1","","57","","","","circle","square","55","15","3","0.9636363636363636","","","","","","","",""
"null","249366","SARL_v6","SARL_v61u7sptge","5fc3d41149c0c8728f07b95b","freq_resp","","","img/blue_2bandit_b.png","70","img/blue_2bandit_b.png","70","test","","","","","","","","","","","3","","","","","","","","",""
"null","249525","SARL_v6","SARL_v61u7sptge","5fc3d41149c0c8728f07b95b","fixation","","","img/fixation.png","null","","","test","","","","","","","","","","","","","","","","","","","",""
"317","249846","SARL_v6","SARL_v61u7sptge","5fc3d41149c0c8728f07b95b","freq","","","img/blue_2bandit_b2.png","70","","70","test","1","","58","","","","circle","square","56","16","3","0.9642857142857143","","","","","","","",""
"null","250334","SARL_v6","SARL_v61u7sptge","5fc3d41149c0c8728f07b95b","freq_resp","","","img/blue_2bandit_b.png","70","img/blue_2bandit_b.png","70","test","","","","","","","","","","","3","","","","","","","","",""
"null","250495","SARL_v6","SARL_v61u7sptge","5fc3d41149c0c8728f07b95b","fixation","","","img/fixation.png","null","","","test","","","","","","","","","","","","","","","","","","","",""
"320","250818","SARL_v6","SARL_v61u7sptge","5fc3d41149c0c8728f07b95b","freq","","","img/blue_2bandit_b2.png","70","","70","test","1","","59","","","","circle","square","57","17","3","0.9649122807017544","","","","","","","",""
"null","251305","SARL_v6","SARL_v61u7sptge","5fc3d41149c0c8728f07b95b","freq_resp","","","img/blue_2bandit_b.png","70","img/blue_2bandit_b.png","70","test","","","","","","","","","","","3","","","","","","","","",""
"null","251464","SARL_v6","SARL_v61u7sptge","5fc3d41149c0c8728f07b95b","fixation","","","img/fixation.png","null","","","test","","","","","","","","","","","","","","","","","","","",""
"429","251896","SARL_v6","SARL_v61u7sptge","5fc3d41149c0c8728f07b95b","infreq","","","img/orange_2bandit_b2.png","68","","68","test","1","","60","","","","circle","square","58","18","3","0.9655172413793104","","","","","","","",""
"null","252277","SARL_v6","SARL_v61u7sptge","5fc3d41149c0c8728f07b95b","infreq_resp","","","img/orange_2bandit_b.png","68","img/orange_2bandit_b.png","68","test","","","","","","","","","","","3","","","","","","","","",""
"null","252437","SARL_v6","SARL_v61u7sptge","5fc3d41149c0c8728f07b95b","fixation","","","img/fixation.png","null","","","test","","","","","","","","","","","","","","","","","","","",""
"406","252848","SARL_v6","SARL_v61u7sptge","5fc3d41149c0c8728f07b95b","freq","","","img/blue_2bandit_b2.png","70","","70","test","1","","61","","","","circle","square","59","19","3","0.9661016949152542","","","","","","","",""
"null","253252","SARL_v6","SARL_v61u7sptge","5fc3d41149c0c8728f07b95b","freq_resp","","","img/blue_2bandit_b.png","70","img/blue_2bandit_b.png","70","test","","","","","","","","","","","3","","","","","","","","",""
"null","253414","SARL_v6","SARL_v61u7sptge","5fc3d41149c0c8728f07b95b","fixation","","","img/fixation.png","null","","","test","","","","","","","","","","","","","","","","","","","",""
"271","253687","SARL_v6","SARL_v61u7sptge","5fc3d41149c0c8728f07b95b","infreq","","","img/orange_2bandit_b2.png","70","","68","test","0","","62","","","","circle","square","60","20","3","0.95","","","","","","","",""
"null","254225","SARL_v6","SARL_v61u7sptge","5fc3d41149c0c8728f07b95b","infreq_resp","","","img/orange_2bandit_b.png","70","img/orange_2bandit_b.png","68","test","","","","","","","","","","","3","","","","","","","","",""
"null","254385","SARL_v6","SARL_v61u7sptge","5fc3d41149c0c8728f07b95b","fixation","","","img/fixation.png","null","","","test","","","","","","","","","","","","","","","","","","","",""
"512","254901","SARL_v6","SARL_v61u7sptge","5fc3d41149c0c8728f07b95b","freq","","","img/blue_2bandit_b2.png","70","","70","test","1","","63","","","","circle","square","61","21","3","0.9508196721311475","","","","","","","",""
"null","255199","SARL_v6","SARL_v61u7sptge","5fc3d41149c0c8728f07b95b","freq_resp","","","img/blue_2bandit_b.png","70","img/blue_2bandit_b.png","70","test","","","","","","","","","","","3","","","","","","","","",""
"null","255356","SARL_v6","SARL_v61u7sptge","5fc3d41149c0c8728f07b95b","fixation","","","img/fixation.png","null","","","test","","","","","","","","","","","","","","","","","","","",""
"412","255771","SARL_v6","SARL_v61u7sptge","5fc3d41149c0c8728f07b95b","freq","","","img/blue_2bandit_b2.png","70","","70","test","1","","64","","","","circle","square","62","22","3","0.9516129032258065","","","","","","","",""
"null","256170","SARL_v6","SARL_v61u7sptge","5fc3d41149c0c8728f07b95b","freq_resp","","","img/blue_2bandit_b.png","70","img/blue_2bandit_b.png","70","test","","","","","","","","","","","3","","","","","","","","",""
"null","256329","SARL_v6","SARL_v61u7sptge","5fc3d41149c0c8728f07b95b","fixation","","","img/fixation.png","null","","","test","","","","","","","","","","","","","","","","","","","",""
"356","256689","SARL_v6","SARL_v61u7sptge","5fc3d41149c0c8728f07b95b","freq","","","img/blue_2bandit_b2.png","70","","70","test","1","","65","","","","circle","square","63","23","3","0.9523809523809523","","","","","","","",""
"null","257139","SARL_v6","SARL_v61u7sptge","5fc3d41149c0c8728f07b95b","freq_resp","","","img/blue_2bandit_b.png","70","img/blue_2bandit_b.png","70","test","","","","","","","","","","","3","","","","","","","","",""
"null","257298","SARL_v6","SARL_v61u7sptge","5fc3d41149c0c8728f07b95b","fixation","","","img/fixation.png","null","","","test","","","","","","","","","","","","","","","","","","","",""
"370","257670","SARL_v6","SARL_v61u7sptge","5fc3d41149c0c8728f07b95b","freq","","","img/blue_2bandit_b2.png","70","","70","test","1","","66","","","","circle","square","64","24","3","0.953125","","","","","","","",""
"null","258115","SARL_v6","SARL_v61u7sptge","5fc3d41149c0c8728f07b95b","freq_resp","","","img/blue_2bandit_b.png","70","img/blue_2bandit_b.png","70","test","","","","","","","","","","","3","","","","","","","","",""
"null","258272","SARL_v6","SARL_v61u7sptge","5fc3d41149c0c8728f07b95b","fixation","","","img/fixation.png","null","","","test","","","","","","","","","","","","","","","","","","","",""
"542","258817","SARL_v6","SARL_v61u7sptge","5fc3d41149c0c8728f07b95b","rl","","","img/black_2bandit_b2.png","74","","0","test","","","67","","","-8","circle","square","","0","3","","74","-8","-4","-8","-4","circle","3","0"
"null","259583","SARL_v6","SARL_v61u7sptge","5fc3d41149c0c8728f07b95b","feedback","","","<div class=""verylowPoints""> -8 </div>","null","","na","test","","","NaN","","","","","","","","3","","74","","","","","","3",""
"null","260399","SARL_v6","SARL_v61u7sptge","5fc3d41149c0c8728f07b95b","freq","","","img/blue_2bandit_b2.png","null","","70","test","0","","68","","","","circle","square","65","1","4","0.9384615384615385","","","","","","","",""
"null","260559","SARL_v6","SARL_v61u7sptge","5fc3d41149c0c8728f07b95b","fixation","","","img/fixation.png","null","","","test","","","","","","","","","","","","","","","","","","","",""
"389","260951","SARL_v6","SARL_v61u7sptge","5fc3d41149c0c8728f07b95b","freq","","","img/blue_2bandit_b2.png","70","","70","test","1","","69","","","","circle","square","66","2","4","0.9393939393939394","","","","","","","",""
"null","261369","SARL_v6","SARL_v61u7sptge","5fc3d41149c0c8728f07b95b","freq_resp","","","img/blue_2bandit_b.png","70","img/blue_2bandit_b.png","70","test","","","","","","","","","","","4","","","","","","","","",""
"null","261531","SARL_v6","SARL_v61u7sptge","5fc3d41149c0c8728f07b95b","fixation","","","img/fixation.png","null","","","test","","","","","","","","","","","","","","","","","","","",""
"272","261808","SARL_v6","SARL_v61u7sptge","5fc3d41149c0c8728f07b95b","freq","","","img/blue_2bandit_b2.png","70","","70","test","1","","70","","","","circle","square","67","3","4","0.9402985074626866","","","","","","","",""
"null","262346","SARL_v6","SARL_v61u7sptge","5fc3d41149c0c8728f07b95b","freq_resp","","","img/blue_2bandit_b.png","70","img/blue_2bandit_b.png","70","test","","","","","","","","","","","4","","","","","","","","",""
"null","262504","SARL_v6","SARL_v61u7sptge","5fc3d41149c0c8728f07b95b","fixation","","","img/fixation.png","null","","","test","","","","","","","","","","","","","","","","","","","",""
"285","262793","SARL_v6","SARL_v61u7sptge","5fc3d41149c0c8728f07b95b","freq","","","img/blue_2bandit_b2.png","70","","70","test","1","","71","","","","circle","square","68","4","4","0.9411764705882353","","","","","","","",""
"null","263316","SARL_v6","SARL_v61u7sptge","5fc3d41149c0c8728f07b95b","freq_resp","","","img/blue_2bandit_b.png","70","img/blue_2bandit_b.png","70","test","","","","","","","","","","","4","","","","","","","","",""
"null","263476","SARL_v6","SARL_v61u7sptge","5fc3d41149c0c8728f07b95b","fixation","","","img/fixation.png","null","","","test","","","","","","","","","","","","","","","","","","","",""
"313","263791","SARL_v6","SARL_v61u7sptge","5fc3d41149c0c8728f07b95b","freq","","","img/blue_2bandit_b2.png","70","","70","test","1","","72","","","","circle","square","69","5","4","0.9420289855072463","","","","","","","",""
"null","264289","SARL_v6","SARL_v61u7sptge","5fc3d41149c0c8728f07b95b","freq_resp","","","img/blue_2bandit_b.png","70","img/blue_2bandit_b.png","70","test","","","","","","","","","","","4","","","","","","","","",""
"null","264449","SARL_v6","SARL_v61u7sptge","5fc3d41149c0c8728f07b95b","fixation","","","img/fixation.png","null","","","test","","","","","","","","","","","","","","","","","","","",""
"324","264777","SARL_v6","SARL_v61u7sptge","5fc3d41149c0c8728f07b95b","freq","","","img/blue_2bandit_b2.png","70","","70","test","1","","73","","","","circle","square","70","6","4","0.9428571428571428","","","","","","","",""
"null","265260","SARL_v6","SARL_v61u7sptge","5fc3d41149c0c8728f07b95b","freq_resp","","","img/blue_2bandit_b.png","70","img/blue_2bandit_b.png","70","test","","","","","","","","","","","4","","","","","","","","",""
"null","265419","SARL_v6","SARL_v61u7sptge","5fc3d41149c0c8728f07b95b","fixation","","","img/fixation.png","null","","","test","","","","","","","","","","","","","","","","","","","",""
"477","265900","SARL_v6","SARL_v61u7sptge","5fc3d41149c0c8728f07b95b","infreq","","","img/orange_2bandit_b2.png","68","","68","test","1","","74","","","","circle","square","71","7","4","0.9436619718309859","","","","","","","",""
"null","266233","SARL_v6","SARL_v61u7sptge","5fc3d41149c0c8728f07b95b","infreq_resp","","","img/orange_2bandit_b.png","68","img/orange_2bandit_b.png","68","test","","","","","","","","","","","4","","","","","","","","",""
"null","266393","SARL_v6","SARL_v61u7sptge","5fc3d41149c0c8728f07b95b","fixation","","","img/fixation.png","null","","","test","","","","","","","","","","","","","","","","","","","",""
"375","266772","SARL_v6","SARL_v61u7sptge","5fc3d41149c0c8728f07b95b","freq","","","img/blue_2bandit_b2.png","70","","70","test","1","","75","","","","circle","square","72","8","4","0.9444444444444444","","","","","","","",""
"null","267207","SARL_v6","SARL_v61u7sptge","5fc3d41149c0c8728f07b95b","freq_resp","","","img/blue_2bandit_b.png","70","img/blue_2bandit_b.png","70","test","","","","","","","","","","","4","","","","","","","","",""
"null","267364","SARL_v6","SARL_v61u7sptge","5fc3d41149c0c8728f07b95b","fixation","","","img/fixation.png","null","","","test","","","","","","","","","","","","","","","","","","","",""
"329","267698","SARL_v6","SARL_v61u7sptge","5fc3d41149c0c8728f07b95b","freq","","","img/blue_2bandit_b2.png","70","","70","test","1","","76","","","","circle","square","73","9","4","0.9452054794520548","","","","","","","",""
"null","268180","SARL_v6","SARL_v61u7sptge","5fc3d41149c0c8728f07b95b","freq_resp","","","img/blue_2bandit_b.png","70","img/blue_2bandit_b.png","70","test","","","","","","","","","","","4","","","","","","","","",""
"null","268337","SARL_v6","SARL_v61u7sptge","5fc3d41149c0c8728f07b95b","fixation","","","img/fixation.png","null","","","test","","","","","","","","","","","","","","","","","","","",""
"311","268653","SARL_v6","SARL_v61u7sptge","5fc3d41149c0c8728f07b95b","freq","","","img/blue_2bandit_b2.png","70","","70","test","1","","77","","","","circle","square","74","10","4","0.9459459459459459","","","","","","","",""
"null","269150","SARL_v6","SARL_v61u7sptge","5fc3d41149c0c8728f07b95b","freq_resp","","","img/blue_2bandit_b.png","70","img/blue_2bandit_b.png","70","test","","","","","","","","","","","4","","","","","","","","",""
"null","269311","SARL_v6","SARL_v61u7sptge","5fc3d41149c0c8728f07b95b","fixation","","","img/fixation.png","null","","","test","","","","","","","","","","","","","","","","","","","",""
"371","269687","SARL_v6","SARL_v61u7sptge","5fc3d41149c0c8728f07b95b","freq","","","img/blue_2bandit_b2.png","70","","70","test","1","","78","","","","circle","square","75","11","4","0.9466666666666667","","","","","","","",""
"null","270122","SARL_v6","SARL_v61u7sptge","5fc3d41149c0c8728f07b95b","freq_resp","","","img/blue_2bandit_b.png","70","img/blue_2bandit_b.png","70","test","","","","","","","","","","","4","","","","","","","","",""
"null","270281","SARL_v6","SARL_v61u7sptge","5fc3d41149c0c8728f07b95b","fixation","","","img/fixation.png","null","","","test","","","","","","","","","","","","","","","","","","","",""
"326","270612","SARL_v6","SARL_v61u7sptge","5fc3d41149c0c8728f07b95b","freq","","","img/blue_2bandit_b2.png","70","","70","test","1","","79","","","","circle","square","76","12","4","0.9473684210526315","","","","","","","",""
"null","271097","SARL_v6","SARL_v61u7sptge","5fc3d41149c0c8728f07b95b","freq_resp","","","img/blue_2bandit_b.png","70","img/blue_2bandit_b.png","70","test","","","","","","","","","","","4","","","","","","","","",""
"null","271257","SARL_v6","SARL_v61u7sptge","5fc3d41149c0c8728f07b95b","fixation","","","img/fixation.png","null","","","test","","","","","","","","","","","","","","","","","","","",""
"373","271633","SARL_v6","SARL_v61u7sptge","5fc3d41149c0c8728f07b95b","freq","","","img/blue_2bandit_b2.png","70","","70","test","1","","80","","","","circle","square","77","13","4","0.948051948051948","","","","","","","",""
"null","272072","SARL_v6","SARL_v61u7sptge","5fc3d41149c0c8728f07b95b","freq_resp","","","img/blue_2bandit_b.png","70","img/blue_2bandit_b.png","70","test","","","","","","","","","","","4","","","","","","","","",""
"null","272231","SARL_v6","SARL_v61u7sptge","5fc3d41149c0c8728f07b95b","fixation","","","img/fixation.png","null","","","test","","","","","","","","","","","","","","","","","","","",""
"351","272585","SARL_v6","SARL_v61u7sptge","5fc3d41149c0c8728f07b95b","freq","","","img/blue_2bandit_b2.png","70","","70","test","1","","81","","","","circle","square","78","14","4","0.9487179487179487","","","","","","","",""
"null","273045","SARL_v6","SARL_v61u7sptge","5fc3d41149c0c8728f07b95b","freq_resp","","","img/blue_2bandit_b.png","70","img/blue_2bandit_b.png","70","test","","","","","","","","","","","4","","","","","","","","",""
"null","273203","SARL_v6","SARL_v61u7sptge","5fc3d41149c0c8728f07b95b","fixation","","","img/fixation.png","null","","","test","","","","","","","","","","","","","","","","","","","",""
"324","273534","SARL_v6","SARL_v61u7sptge","5fc3d41149c0c8728f07b95b","freq","","","img/blue_2bandit_b2.png","70","","70","test","1","","82","","","","circle","square","79","15","4","0.9493670886075949","","","","","","","",""
"null","274019","SARL_v6","SARL_v61u7sptge","5fc3d41149c0c8728f07b95b","freq_resp","","","img/blue_2bandit_b.png","70","img/blue_2bandit_b.png","70","test","","","","","","","","","","","4","","","","","","","","",""
"null","274179","SARL_v6","SARL_v61u7sptge","5fc3d41149c0c8728f07b95b","fixation","","","img/fixation.png","null","","","test","","","","","","","","","","","","","","","","","","","",""
"320","274504","SARL_v6","SARL_v61u7sptge","5fc3d41149c0c8728f07b95b","freq","","","img/blue_2bandit_b2.png","70","","70","test","1","","83","","","","circle","square","80","16","4","0.95","","","","","","","",""
"null","274990","SARL_v6","SARL_v61u7sptge","5fc3d41149c0c8728f07b95b","freq_resp","","","img/blue_2bandit_b.png","70","img/blue_2bandit_b.png","70","test","","","","","","","","","","","4","","","","","","","","",""
"null","275149","SARL_v6","SARL_v61u7sptge","5fc3d41149c0c8728f07b95b","fixation","","","img/fixation.png","null","","","test","","","","","","","","","","","","","","","","","","","",""
"352","275506","SARL_v6","SARL_v61u7sptge","5fc3d41149c0c8728f07b95b","freq","","","img/blue_2bandit_b2.png","70","","70","test","1","","84","","","","circle","square","81","17","4","0.9506172839506173","","","","","","","",""
"null","275963","SARL_v6","SARL_v61u7sptge","5fc3d41149c0c8728f07b95b","freq_resp","","","img/blue_2bandit_b.png","70","img/blue_2bandit_b.png","70","test","","","","","","","","","","","4","","","","","","","","",""
"null","276122","SARL_v6","SARL_v61u7sptge","5fc3d41149c0c8728f07b95b","fixation","","","img/fixation.png","null","","","test","","","","","","","","","","","","","","","","","","","",""
"321","276446","SARL_v6","SARL_v61u7sptge","5fc3d41149c0c8728f07b95b","infreq","","","img/orange_2bandit_b2.png","70","","68","test","0","","85","","","","circle","square","82","18","4","0.9390243902439024","","","","","","","",""
"null","276936","SARL_v6","SARL_v61u7sptge","5fc3d41149c0c8728f07b95b","infreq_resp","","","img/orange_2bandit_b.png","70","img/orange_2bandit_b.png","68","test","","","","","","","","","","","4","","","","","","","","",""
"null","277095","SARL_v6","SARL_v61u7sptge","5fc3d41149c0c8728f07b95b","fixation","","","img/fixation.png","null","","","test","","","","","","","","","","","","","","","","","","","",""
"491","277590","SARL_v6","SARL_v61u7sptge","5fc3d41149c0c8728f07b95b","freq","","","img/blue_2bandit_b2.png","70","","70","test","1","","86","","","","circle","square","83","19","4","0.9397590361445783","","","","","","","",""
"null","277908","SARL_v6","SARL_v61u7sptge","5fc3d41149c0c8728f07b95b","freq_resp","","","img/blue_2bandit_b.png","70","img/blue_2bandit_b.png","70","test","","","","","","","","","","","4","","","","","","","","",""
"null","278067","SARL_v6","SARL_v61u7sptge","5fc3d41149c0c8728f07b95b","fixation","","","img/fixation.png","null","","","test","","","","","","","","","","","","","","","","","","","",""
"601","278671","SARL_v6","SARL_v61u7sptge","5fc3d41149c0c8728f07b95b","rl","","","img/black_2bandit_b2.png","75","","0","test","","","87","","","0","circle","square","","0","4","","75","-12","0","-12","0","square","4","0"
"null","279438","SARL_v6","SARL_v61u7sptge","5fc3d41149c0c8728f07b95b","feedback","","","<div class=""verylowPoints_sq""> 0 </div>","null","","na","test","","","NaN","","","","","","","","4","","75","","","","","","4",""
"803","280243","SARL_v6","SARL_v61u7sptge","5fc3d41149c0c8728f07b95b","freq","","","img/blue_2bandit_b2.png","70","","70","test","1","","88","","","","circle","square","84","1","5","0.9404761904761905","","","","","","","",""
"null","280412","SARL_v6","SARL_v61u7sptge","5fc3d41149c0c8728f07b95b","fixation","","","img/fixation.png","null","","","test","","","","","","","","","","","","","","","","","","","",""
"433","280849","SARL_v6","SARL_v61u7sptge","5fc3d41149c0c8728f07b95b","freq","","","img/blue_2bandit_b2.png","70","","70","test","1","","89","","","","circle","square","85","2","5","0.9411764705882353","","","","","","","",""
"null","281225","SARL_v6","SARL_v61u7sptge","5fc3d41149c0c8728f07b95b","freq_resp","","","img/blue_2bandit_b.png","70","img/blue_2bandit_b.png","70","test","","","","","","","","","","","5","","","","","","","","",""
"null","281387","SARL_v6","SARL_v61u7sptge","5fc3d41149c0c8728f07b95b","fixation","","","img/fixation.png","null","","","test","","","","","","","","","","","","","","","","","","","",""
"365","281756","SARL_v6","SARL_v61u7sptge","5fc3d41149c0c8728f07b95b","freq","","","img/blue_2bandit_b2.png","70","","70","test","1","","90","","","","circle","square","86","3","5","0.9418604651162791","","","","","","","",""
"null","282197","SARL_v6","SARL_v61u7sptge","5fc3d41149c0c8728f07b95b","freq_resp","","","img/blue_2bandit_b.png","70","img/blue_2bandit_b.png","70","test","","","","","","","","","","","5","","","","","","","","",""
"null","282357","SARL_v6","SARL_v61u7sptge","5fc3d41149c0c8728f07b95b","fixation","","","img/fixation.png","null","","","test","","","","","","","","","","","","","","","","","","","",""
"452","282813","SARL_v6","SARL_v61u7sptge","5fc3d41149c0c8728f07b95b","infreq","","","img/orange_2bandit_b2.png","68","","68","test","1","","91","","","","circle","square","87","4","5","0.9425287356321839","","","","","","","",""
"null","283173","SARL_v6","SARL_v61u7sptge","5fc3d41149c0c8728f07b95b","infreq_resp","","","img/orange_2bandit_b.png","68","img/orange_2bandit_b.png","68","test","","","","","","","","","","","5","","","","","","","","",""
"null","283333","SARL_v6","SARL_v61u7sptge","5fc3d41149c0c8728f07b95b","fixation","","","img/fixation.png","null","","","test","","","","","","","","","","","","","","","","","","","",""
"432","283768","SARL_v6","SARL_v61u7sptge","5fc3d41149c0c8728f07b95b","freq","","","img/blue_2bandit_b2.png","70","","70","test","1","","92","","","","circle","square","88","5","5","0.9431818181818182","","","","","","","",""
"null","284142","SARL_v6","SARL_v61u7sptge","5fc3d41149c0c8728f07b95b","freq_resp","","","img/blue_2bandit_b.png","70","img/blue_2bandit_b.png","70","test","","","","","","","","","","","5","","","","","","","","",""
"null","284302","SARL_v6","SARL_v61u7sptge","5fc3d41149c0c8728f07b95b","fixation","","","img/fixation.png","null","","","test","","","","","","","","","","","","","","","","","","","",""
"431","284735","SARL_v6","SARL_v61u7sptge","5fc3d41149c0c8728f07b95b","infreq","","","img/orange_2bandit_b2.png","68","","68","test","1","","93","","","","circle","square","89","6","5","0.9438202247191011","","","","","","","",""
"null","285114","SARL_v6","SARL_v61u7sptge","5fc3d41149c0c8728f07b95b","infreq_resp","","","img/orange_2bandit_b.png","68","img/orange_2bandit_b.png","68","test","","","","","","","","","","","5","","","","","","","","",""
"null","285274","SARL_v6","SARL_v61u7sptge","5fc3d41149c0c8728f07b95b","fixation","","","img/fixation.png","null","","","test","","","","","","","","","","","","","","","","","","","",""
"446","285724","SARL_v6","SARL_v61u7sptge","5fc3d41149c0c8728f07b95b","freq","","","img/blue_2bandit_b2.png","70","","70","test","1","","94","","","","circle","square","90","7","5","0.9444444444444444","","","","","","","",""
"null","286090","SARL_v6","SARL_v61u7sptge","5fc3d41149c0c8728f07b95b","freq_resp","","","img/blue_2bandit_b.png","70","img/blue_2bandit_b.png","70","test","","","","","","","","","","","5","","","","","","","","",""
"null","286248","SARL_v6","SARL_v61u7sptge","5fc3d41149c0c8728f07b95b","fixation","","","img/fixation.png","null","","","test","","","","","","","","","","","","","","","","","","","",""
"371","286624","SARL_v6","SARL_v61u7sptge","5fc3d41149c0c8728f07b95b","freq","","","img/blue_2bandit_b2.png","70","","70","test","1","","95","","","","circle","square","91","8","5","0.945054945054945","","","","","","","",""
"null","287062","SARL_v6","SARL_v61u7sptge","5fc3d41149c0c8728f07b95b","freq_resp","","","img/blue_2bandit_b.png","70","img/blue_2bandit_b.png","70","test","","","","","","","","","","","5","","","","","","","","",""
"null","287223","SARL_v6","SARL_v61u7sptge","5fc3d41149c0c8728f07b95b","fixation","","","img/fixation.png","null","","","test","","","","","","","","","","","","","","","","","","","",""
"347","287573","SARL_v6","SARL_v61u7sptge","5fc3d41149c0c8728f07b95b","freq","","","img/blue_2bandit_b2.png","70","","70","test","1","","96","","","","circle","square","92","9","5","0.9456521739130435","","","","","","","",""
"null","288036","SARL_v6","SARL_v61u7sptge","5fc3d41149c0c8728f07b95b","freq_resp","","","img/blue_2bandit_b.png","70","img/blue_2bandit_b.png","70","test","","","","","","","","","","","5","","","","","","","","",""
"null","288195","SARL_v6","SARL_v61u7sptge","5fc3d41149c0c8728f07b95b","fixation","","","img/fixation.png","null","","","test","","","","","","","","","","","","","","","","","","","",""
"363","288561","SARL_v6","SARL_v61u7sptge","5fc3d41149c0c8728f07b95b","freq","","","img/blue_2bandit_b2.png","70","","70","test","1","","97","","","","circle","square","93","10","5","0.946236559139785","","","","","","","",""
"null","289008","SARL_v6","SARL_v61u7sptge","5fc3d41149c0c8728f07b95b","freq_resp","","","img/blue_2bandit_b.png","70","img/blue_2bandit_b.png","70","test","","","","","","","","","","","5","","","","","","","","",""
"null","289168","SARL_v6","SARL_v61u7sptge","5fc3d41149c0c8728f07b95b","fixation","","","img/fixation.png","null","","","test","","","","","","","","","","","","","","","","","","","",""
"362","289535","SARL_v6","SARL_v61u7sptge","5fc3d41149c0c8728f07b95b","freq","","","img/blue_2bandit_b2.png","70","","70","test","1","","98","","","","circle","square","94","11","5","0.9468085106382979","","","","","","","",""
"null","289980","SARL_v6","SARL_v61u7sptge","5fc3d41149c0c8728f07b95b","freq_resp","","","img/blue_2bandit_b.png","70","img/blue_2bandit_b.png","70","test","","","","","","","","","","","5","","","","","","","","",""
"null","290139","SARL_v6","SARL_v61u7sptge","5fc3d41149c0c8728f07b95b","fixation","","","img/fixation.png","null","","","test","","","","","","","","","","","","","","","","","","","",""
"368","290512","SARL_v6","SARL_v61u7sptge","5fc3d41149c0c8728f07b95b","freq","","","img/blue_2bandit_b2.png","70","","70","test","1","","99","","","","circle","square","95","12","5","0.9473684210526315","","","","","","","",""
"null","290952","SARL_v6","SARL_v61u7sptge","5fc3d41149c0c8728f07b95b","freq_resp","","","img/blue_2bandit_b.png","70","img/blue_2bandit_b.png","70","test","","","","","","","","","","","5","","","","","","","","",""
"null","291113","SARL_v6","SARL_v61u7sptge","5fc3d41149c0c8728f07b95b","fixation","","","img/fixation.png","null","","","test","","","","","","","","","","","","","","","","","","","",""
"385","291502","SARL_v6","SARL_v61u7sptge","5fc3d41149c0c8728f07b95b","freq","","","img/blue_2bandit_b2.png","70","","70","test","1","","100","","","","circle","square","96","13","5","0.9479166666666666","","","","","","","",""
"null","291926","SARL_v6","SARL_v61u7sptge","5fc3d41149c0c8728f07b95b","freq_resp","","","img/blue_2bandit_b.png","70","img/blue_2bandit_b.png","70","test","","","","","","","","","","","5","","","","","","","","",""
"null","292085","SARL_v6","SARL_v61u7sptge","5fc3d41149c0c8728f07b95b","fixation","","","img/fixation.png","null","","","test","","","","","","","","","","","","","","","","","","","",""
"344","292433","SARL_v6","SARL_v61u7sptge","5fc3d41149c0c8728f07b95b","freq","","","img/blue_2bandit_b2.png","70","","70","test","1","","101","","","","circle","square","97","14","5","0.9484536082474226","","","","","","","",""
"null","292899","SARL_v6","SARL_v61u7sptge","5fc3d41149c0c8728f07b95b","freq_resp","","","img/blue_2bandit_b.png","70","img/blue_2bandit_b.png","70","test","","","","","","","","","","","5","","","","","","","","",""
"null","293057","SARL_v6","SARL_v61u7sptge","5fc3d41149c0c8728f07b95b","fixation","","","img/fixation.png","null","","","test","","","","","","","","","","","","","","","","","","","",""
"366","293426","SARL_v6","SARL_v61u7sptge","5fc3d41149c0c8728f07b95b","freq","","","img/blue_2bandit_b2.png","70","","70","test","1","","102","","","","circle","square","98","15","5","0.9489795918367347","","","","","","","",""
"null","293870","SARL_v6","SARL_v61u7sptge","5fc3d41149c0c8728f07b95b","freq_resp","","","img/blue_2bandit_b.png","70","img/blue_2bandit_b.png","70","test","","","","","","","","","","","5","","","","","","","","",""
"null","294029","SARL_v6","SARL_v61u7sptge","5fc3d41149c0c8728f07b95b","fixation","","","img/fixation.png","null","","","test","","","","","","","","","","","","","","","","","","","",""
"455","294488","SARL_v6","SARL_v61u7sptge","5fc3d41149c0c8728f07b95b","infreq","","","img/orange_2bandit_b2.png","68","","68","test","1","","103","","","","circle","square","99","16","5","0.9494949494949495","","","","","","","",""
"null","294845","SARL_v6","SARL_v61u7sptge","5fc3d41149c0c8728f07b95b","infreq_resp","","","img/orange_2bandit_b.png","68","img/orange_2bandit_b.png","68","test","","","","","","","","","","","5","","","","","","","","",""
"null","295004","SARL_v6","SARL_v61u7sptge","5fc3d41149c0c8728f07b95b","fixation","","","img/fixation.png","null","","","test","","","","","","","","","","","","","","","","","","","",""
"366","295374","SARL_v6","SARL_v61u7sptge","5fc3d41149c0c8728f07b95b","freq","","","img/blue_2bandit_b2.png","70","","70","test","1","","104","","","","circle","square","100","17","5","0.95","","","","","","","",""
"null","295818","SARL_v6","SARL_v61u7sptge","5fc3d41149c0c8728f07b95b","freq_resp","","","img/blue_2bandit_b.png","70","img/blue_2bandit_b.png","70","test","","","","","","","","","","","5","","","","","","","","",""
"null","295976","SARL_v6","SARL_v61u7sptge","5fc3d41149c0c8728f07b95b","fixation","","","img/fixation.png","null","","","test","","","","","","","","","","","","","","","","","","","",""
"354","296335","SARL_v6","SARL_v61u7sptge","5fc3d41149c0c8728f07b95b","freq","","","img/blue_2bandit_b2.png","70","","70","test","1","","105","","","","circle","square","101","18","5","0.9504950495049505","","","","","","","",""
"null","296789","SARL_v6","SARL_v61u7sptge","5fc3d41149c0c8728f07b95b","freq_resp","","","img/blue_2bandit_b.png","70","img/blue_2bandit_b.png","70","test","","","","","","","","","","","5","","","","","","","","",""
"null","296949","SARL_v6","SARL_v61u7sptge","5fc3d41149c0c8728f07b95b","fixation","","","img/fixation.png","null","","","test","","","","","","","","","","","","","","","","","","","",""
"319","297272","SARL_v6","SARL_v61u7sptge","5fc3d41149c0c8728f07b95b","freq","","","img/blue_2bandit_b2.png","70","","70","test","1","","106","","","","circle","square","102","19","5","0.9509803921568627","","","","","","","",""
"null","297762","SARL_v6","SARL_v61u7sptge","5fc3d41149c0c8728f07b95b","freq_resp","","","img/blue_2bandit_b.png","70","img/blue_2bandit_b.png","70","test","","","","","","","","","","","5","","","","","","","","",""
"null","297921","SARL_v6","SARL_v61u7sptge","5fc3d41149c0c8728f07b95b","fixation","","","img/fixation.png","null","","","test","","","","","","","","","","","","","","","","","","","",""
"355","298281","SARL_v6","SARL_v61u7sptge","5fc3d41149c0c8728f07b95b","freq","","","img/blue_2bandit_b2.png","70","","70","test","1","","107","","","","circle","square","103","20","5","0.9514563106796117","","","","","","","",""
"null","298732","SARL_v6","SARL_v61u7sptge","5fc3d41149c0c8728f07b95b","freq_resp","","","img/blue_2bandit_b.png","70","img/blue_2bandit_b.png","70","test","","","","","","","","","","","5","","","","","","","","",""
"null","298891","SARL_v6","SARL_v61u7sptge","5fc3d41149c0c8728f07b95b","fixation","","","img/fixation.png","null","","","test","","","","","","","","","","","","","","","","","","","",""
"356","299250","SARL_v6","SARL_v61u7sptge","5fc3d41149c0c8728f07b95b","freq","","","img/blue_2bandit_b2.png","70","","70","test","1","","108","","","","circle","square","104","21","5","0.9519230769230769","","","","","","","",""
"null","299703","SARL_v6","SARL_v61u7sptge","5fc3d41149c0c8728f07b95b","freq_resp","","","img/blue_2bandit_b.png","70","img/blue_2bandit_b.png","70","test","","","","","","","","","","","5","","","","","","","","",""
"null","299862","SARL_v6","SARL_v61u7sptge","5fc3d41149c0c8728f07b95b","fixation","","","img/fixation.png","null","","","test","","","","","","","","","","","","","","","","","","","",""
"321","300188","SARL_v6","SARL_v61u7sptge","5fc3d41149c0c8728f07b95b","freq","","","img/blue_2bandit_b2.png","70","","70","test","1","","109","","","","circle","square","105","22","5","0.9523809523809523","","","","","","","",""
"null","300677","SARL_v6","SARL_v61u7sptge","5fc3d41149c0c8728f07b95b","freq_resp","","","img/blue_2bandit_b.png","70","img/blue_2bandit_b.png","70","test","","","","","","","","","","","5","","","","","","","","",""
"null","300836","SARL_v6","SARL_v61u7sptge","5fc3d41149c0c8728f07b95b","fixation","","","img/fixation.png","null","","","test","","","","","","","","","","","","","","","","","","","",""
"343","301183","SARL_v6","SARL_v61u7sptge","5fc3d41149c0c8728f07b95b","freq","","","img/blue_2bandit_b2.png","70","","70","test","1","","110","","","","circle","square","106","23","5","0.9528301886792453","","","","","","","",""
"null","301649","SARL_v6","SARL_v61u7sptge","5fc3d41149c0c8728f07b95b","freq_resp","","","img/blue_2bandit_b.png","70","img/blue_2bandit_b.png","70","test","","","","","","","","","","","5","","","","","","","","",""
"null","301809","SARL_v6","SARL_v61u7sptge","5fc3d41149c0c8728f07b95b","fixation","","","img/fixation.png","null","","","test","","","","","","","","","","","","","","","","","","","",""
"342","302155","SARL_v6","SARL_v61u7sptge","5fc3d41149c0c8728f07b95b","freq","","","img/blue_2bandit_b2.png","70","","70","test","1","","111","","","","circle","square","107","24","5","0.9532710280373832","","","","","","","",""
"null","302622","SARL_v6","SARL_v61u7sptge","5fc3d41149c0c8728f07b95b","freq_resp","","","img/blue_2bandit_b.png","70","img/blue_2bandit_b.png","70","test","","","","","","","","","","","5","","","","","","","","",""
"null","302781","SARL_v6","SARL_v61u7sptge","5fc3d41149c0c8728f07b95b","fixation","","","img/fixation.png","null","","","test","","","","","","","","","","","","","","","","","","","",""
"333","303119","SARL_v6","SARL_v61u7sptge","5fc3d41149c0c8728f07b95b","freq","","","img/blue_2bandit_b2.png","70","","70","test","1","","112","","","","circle","square","108","25","5","0.9537037037037037","","","","","","","",""
"null","303594","SARL_v6","SARL_v61u7sptge","5fc3d41149c0c8728f07b95b","freq_resp","","","img/blue_2bandit_b.png","70","img/blue_2bandit_b.png","70","test","","","","","","","","","","","5","","","","","","","","",""
"null","303754","SARL_v6","SARL_v61u7sptge","5fc3d41149c0c8728f07b95b","fixation","","","img/fixation.png","null","","","test","","","","","","","","","","","","","","","","","","","",""
"530","304289","SARL_v6","SARL_v61u7sptge","5fc3d41149c0c8728f07b95b","rl","","","img/black_2bandit_b2.png","75","","0","test","","","113","","","4","circle","square","","0","5","","75","-7","4","-7","4","square","5","0"
"null","305046","SARL_v6","SARL_v61u7sptge","5fc3d41149c0c8728f07b95b","feedback","","","<div class=""veryhighPoints_sq""> 4 </div>","null","","na","test","","","NaN","","","","","","","","5","","75","","","","","","5",""
"742","305792","SARL_v6","SARL_v61u7sptge","5fc3d41149c0c8728f07b95b","freq","","","img/blue_2bandit_b2.png","70","","70","test","1","","114","","","","circle","square","109","1","6","0.9541284403669725","","","","","","","",""
"null","305861","SARL_v6","SARL_v61u7sptge","5fc3d41149c0c8728f07b95b","freq_resp","","","img/blue_2bandit_b.png","70","img/blue_2bandit_b.png","70","test","","","","","","","","","","","6","","","","","","","","",""
"null","306023","SARL_v6","SARL_v61u7sptge","5fc3d41149c0c8728f07b95b","fixation","","","img/fixation.png","null","","","test","","","","","","","","","","","","","","","","","","","",""
"570","306598","SARL_v6","SARL_v61u7sptge","5fc3d41149c0c8728f07b95b","infreq","","","img/orange_2bandit_b2.png","68","","68","test","1","","115","","","","circle","square","110","2","6","0.9545454545454546","","","","","","","",""
"null","306833","SARL_v6","SARL_v61u7sptge","5fc3d41149c0c8728f07b95b","infreq_resp","","","img/orange_2bandit_b.png","68","img/orange_2bandit_b.png","68","test","","","","","","","","","","","6","","","","","","","","",""
"null","306992","SARL_v6","SARL_v61u7sptge","5fc3d41149c0c8728f07b95b","fixation","","","img/fixation.png","null","","","test","","","","","","","","","","","","","","","","","","","",""
"434","307430","SARL_v6","SARL_v61u7sptge","5fc3d41149c0c8728f07b95b","infreq","","","img/orange_2bandit_b2.png","68","","68","test","1","","116","","","","circle","square","111","3","6","0.954954954954955","","","","","","","",""
"null","307809","SARL_v6","SARL_v61u7sptge","5fc3d41149c0c8728f07b95b","infreq_resp","","","img/orange_2bandit_b.png","68","img/orange_2bandit_b.png","68","test","","","","","","","","","","","6","","","","","","","","",""
"null","307966","SARL_v6","SARL_v61u7sptge","5fc3d41149c0c8728f07b95b","fixation","","","img/fixation.png","null","","","test","","","","","","","","","","","","","","","","","","","",""
"400","308371","SARL_v6","SARL_v61u7sptge","5fc3d41149c0c8728f07b95b","freq","","","img/blue_2bandit_b2.png","70","","70","test","1","","117","","","","circle","square","112","4","6","0.9553571428571429","","","","","","","",""
"null","308783","SARL_v6","SARL_v61u7sptge","5fc3d41149c0c8728f07b95b","freq_resp","","","img/blue_2bandit_b.png","70","img/blue_2bandit_b.png","70","test","","","","","","","","","","","6","","","","","","","","",""
"null","308942","SARL_v6","SARL_v61u7sptge","5fc3d41149c0c8728f07b95b","fixation","","","img/fixation.png","null","","","test","","","","","","","","","","","","","","","","","","","",""
"551","309498","SARL_v6","SARL_v61u7sptge","5fc3d41149c0c8728f07b95b","freq","","","img/blue_2bandit_b2.png","70","","70","test","1","","118","","","","circle","square","113","5","6","0.9557522123893806","","","","","","","",""
"null","309756","SARL_v6","SARL_v61u7sptge","5fc3d41149c0c8728f07b95b","freq_resp","","","img/blue_2bandit_b.png","70","img/blue_2bandit_b.png","70","test","","","","","","","","","","","6","","","","","","","","",""
"null","309914","SARL_v6","SARL_v61u7sptge","5fc3d41149c0c8728f07b95b","fixation","","","img/fixation.png","null","","","test","","","","","","","","","","","","","","","","","","","",""
"550","310470","SARL_v6","SARL_v61u7sptge","5fc3d41149c0c8728f07b95b","freq","","","img/blue_2bandit_b2.png","70","","70","test","1","","119","","","","circle","square","114","6","6","0.956140350877193","","","","","","","",""
"null","310729","SARL_v6","SARL_v61u7sptge","5fc3d41149c0c8728f07b95b","freq_resp","","","img/blue_2bandit_b.png","70","img/blue_2bandit_b.png","70","test","","","","","","","","","","","6","","","","","","","","",""
"null","310889","SARL_v6","SARL_v61u7sptge","5fc3d41149c0c8728f07b95b","fixation","","","img/fixation.png","null","","","test","","","","","","","","","","","","","","","","","","","",""
"438","311331","SARL_v6","SARL_v61u7sptge","5fc3d41149c0c8728f07b95b","freq","","","img/blue_2bandit_b2.png","70","","70","test","1","","120","","","","circle","square","115","7","6","0.9565217391304348","","","","","","","",""
"null","311702","SARL_v6","SARL_v61u7sptge","5fc3d41149c0c8728f07b95b","freq_resp","","","img/blue_2bandit_b.png","70","img/blue_2bandit_b.png","70","test","","","","","","","","","","","6","","","","","","","","",""
"null","311862","SARL_v6","SARL_v61u7sptge","5fc3d41149c0c8728f07b95b","fixation","","","img/fixation.png","null","","","test","","","","","","","","","","","","","","","","","","","",""
"335","312202","SARL_v6","SARL_v61u7sptge","5fc3d41149c0c8728f07b95b","freq","","","img/blue_2bandit_b2.png","70","","70","test","1","","121","","","","circle","square","116","8","6","0.9568965517241379","","","","","","","",""
"null","312679","SARL_v6","SARL_v61u7sptge","5fc3d41149c0c8728f07b95b","freq_resp","","","img/blue_2bandit_b.png","70","img/blue_2bandit_b.png","70","test","","","","","","","","","","","6","","","","","","","","",""
"null","312837","SARL_v6","SARL_v61u7sptge","5fc3d41149c0c8728f07b95b","fixation","","","img/fixation.png","null","","","test","","","","","","","","","","","","","","","","","","","",""
"358","313199","SARL_v6","SARL_v61u7sptge","5fc3d41149c0c8728f07b95b","freq","","","img/blue_2bandit_b2.png","70","","70","test","1","","122","","","","circle","square","117","9","6","0.9572649572649573","","","","","","","",""
"null","313651","SARL_v6","SARL_v61u7sptge","5fc3d41149c0c8728f07b95b","freq_resp","","","img/blue_2bandit_b.png","70","img/blue_2bandit_b.png","70","test","","","","","","","","","","","6","","","","","","","","",""
"null","313811","SARL_v6","SARL_v61u7sptge","5fc3d41149c0c8728f07b95b","fixation","","","img/fixation.png","null","","","test","","","","","","","","","","","","","","","","","","","",""
"380","314195","SARL_v6","SARL_v61u7sptge","5fc3d41149c0c8728f07b95b","freq","","","img/blue_2bandit_b2.png","70","","70","test","1","","123","","","","circle","square","118","10","6","0.9576271186440678","","","","","","","",""
"null","314625","SARL_v6","SARL_v61u7sptge","5fc3d41149c0c8728f07b95b","freq_resp","","","img/blue_2bandit_b.png","70","img/blue_2bandit_b.png","70","test","","","","","","","","","","","6","","","","","","","","",""
"null","314784","SARL_v6","SARL_v61u7sptge","5fc3d41149c0c8728f07b95b","fixation","","","img/fixation.png","null","","","test","","","","","","","","","","","","","","","","","","","",""
"335","315122","SARL_v6","SARL_v61u7sptge","5fc3d41149c0c8728f07b95b","freq","","","img/blue_2bandit_b2.png","70","","70","test","1","","124","","","","circle","square","119","11","6","0.957983193277311","","","","","","","",""
"null","315600","SARL_v6","SARL_v61u7sptge","5fc3d41149c0c8728f07b95b","freq_resp","","","img/blue_2bandit_b.png","70","img/blue_2bandit_b.png","70","test","","","","","","","","","","","6","","","","","","","","",""
"null","315760","SARL_v6","SARL_v61u7sptge","5fc3d41149c0c8728f07b95b","fixation","","","img/fixation.png","null","","","test","","","","","","","","","","","","","","","","","","","",""
"351","316114","SARL_v6","SARL_v61u7sptge","5fc3d41149c0c8728f07b95b","freq","","","img/blue_2bandit_b2.png","70","","70","test","1","","125","","","","circle","square","120","12","6","0.9583333333333334","","","","","","","",""
"null","316573","SARL_v6","SARL_v61u7sptge","5fc3d41149c0c8728f07b95b","freq_resp","","","img/blue_2bandit_b.png","70","img/blue_2bandit_b.png","70","test","","","","","","","","","","","6","","","","","","","","",""
"null","316733","SARL_v6","SARL_v61u7sptge","5fc3d41149c0c8728f07b95b","fixation","","","img/fixation.png","null","","","test","","","","","","","","","","","","","","","","","","","",""
"318","317055","SARL_v6","SARL_v61u7sptge","5fc3d41149c0c8728f07b95b","freq","","","img/blue_2bandit_b2.png","70","","70","test","1","","126","","","","circle","square","121","13","6","0.9586776859504132","","","","","","","",""
"null","317548","SARL_v6","SARL_v61u7sptge","5fc3d41149c0c8728f07b95b","freq_resp","","","img/blue_2bandit_b.png","70","img/blue_2bandit_b.png","70","test","","","","","","","","","","","6","","","","","","","","",""
"null","317707","SARL_v6","SARL_v61u7sptge","5fc3d41149c0c8728f07b95b","fixation","","","img/fixation.png","null","","","test","","","","","","","","","","","","","","","","","","","",""
"314","318026","SARL_v6","SARL_v61u7sptge","5fc3d41149c0c8728f07b95b","freq","","","img/blue_2bandit_b2.png","70","","70","test","1","","127","","","","circle","square","122","14","6","0.9590163934426229","","","","","","","",""
"null","318524","SARL_v6","SARL_v61u7sptge","5fc3d41149c0c8728f07b95b","freq_resp","","","img/blue_2bandit_b.png","70","img/blue_2bandit_b.png","70","test","","","","","","","","","","","6","","","","","","","","",""
"null","318681","SARL_v6","SARL_v61u7sptge","5fc3d41149c0c8728f07b95b","fixation","","","img/fixation.png","null","","","test","","","","","","","","","","","","","","","","","","","",""
"325","319009","SARL_v6","SARL_v61u7sptge","5fc3d41149c0c8728f07b95b","freq","","","img/blue_2bandit_b2.png","70","","70","test","1","","128","","","","circle","square","123","15","6","0.959349593495935","","","","","","","",""
"null","319496","SARL_v6","SARL_v61u7sptge","5fc3d41149c0c8728f07b95b","freq_resp","","","img/blue_2bandit_b.png","70","img/blue_2bandit_b.png","70","test","","","","","","","","","","","6","","","","","","","","",""
"null","319654","SARL_v6","SARL_v61u7sptge","5fc3d41149c0c8728f07b95b","fixation","","","img/fixation.png","null","","","test","","","","","","","","","","","","","","","","","","","",""
"311","319970","SARL_v6","SARL_v61u7sptge","5fc3d41149c0c8728f07b95b","freq","","","img/blue_2bandit_b2.png","70","","70","test","1","","129","","","","circle","square","124","16","6","0.9596774193548387","","","","","","","",""
"null","320468","SARL_v6","SARL_v61u7sptge","5fc3d41149c0c8728f07b95b","freq_resp","","","img/blue_2bandit_b.png","70","img/blue_2bandit_b.png","70","test","","","","","","","","","","","6","","","","","","","","",""
"null","320627","SARL_v6","SARL_v61u7sptge","5fc3d41149c0c8728f07b95b","fixation","","","img/fixation.png","null","","","test","","","","","","","","","","","","","","","","","","","",""
"305","320936","SARL_v6","SARL_v61u7sptge","5fc3d41149c0c8728f07b95b","freq","","","img/blue_2bandit_b2.png","70","","70","test","1","","130","","","","circle","square","125","17","6","0.96","","","","","","","",""
"null","321441","SARL_v6","SARL_v61u7sptge","5fc3d41149c0c8728f07b95b","freq_resp","","","img/blue_2bandit_b.png","70","img/blue_2bandit_b.png","70","test","","","","","","","","","","","6","","","","","","","","",""
"null","321601","SARL_v6","SARL_v61u7sptge","5fc3d41149c0c8728f07b95b","fixation","","","img/fixation.png","null","","","test","","","","","","","","","","","","","","","","","","","",""
"308","321913","SARL_v6","SARL_v61u7sptge","5fc3d41149c0c8728f07b95b","freq","","","img/blue_2bandit_b2.png","70","","70","test","1","","131","","","","circle","square","126","18","6","0.9603174603174603","","","","","","","",""
"null","322412","SARL_v6","SARL_v61u7sptge","5fc3d41149c0c8728f07b95b","freq_resp","","","img/blue_2bandit_b.png","70","img/blue_2bandit_b.png","70","test","","","","","","","","","","","6","","","","","","","","",""
"null","322572","SARL_v6","SARL_v61u7sptge","5fc3d41149c0c8728f07b95b","fixation","","","img/fixation.png","null","","","test","","","","","","","","","","","","","","","","","","","",""
"358","322935","SARL_v6","SARL_v61u7sptge","5fc3d41149c0c8728f07b95b","freq","","","img/blue_2bandit_b2.png","70","","70","test","1","","132","","","","circle","square","127","19","6","0.9606299212598425","","","","","","","",""
"null","323383","SARL_v6","SARL_v61u7sptge","5fc3d41149c0c8728f07b95b","freq_resp","","","img/blue_2bandit_b.png","70","img/blue_2bandit_b.png","70","test","","","","","","","","","","","6","","","","","","","","",""
"null","323545","SARL_v6","SARL_v61u7sptge","5fc3d41149c0c8728f07b95b","fixation","","","img/fixation.png","null","","","test","","","","","","","","","","","","","","","","","","","",""
"403","323952","SARL_v6","SARL_v61u7sptge","5fc3d41149c0c8728f07b95b","freq","","","img/blue_2bandit_b2.png","70","","70","test","1","","133","","","","circle","square","128","20","6","0.9609375","","","","","","","",""
"null","324357","SARL_v6","SARL_v61u7sptge","5fc3d41149c0c8728f07b95b","freq_resp","","","img/blue_2bandit_b.png","70","img/blue_2bandit_b.png","70","test","","","","","","","","","","","6","","","","","","","","",""
"null","324517","SARL_v6","SARL_v61u7sptge","5fc3d41149c0c8728f07b95b","fixation","","","img/fixation.png","null","","","test","","","","","","","","","","","","","","","","","","","",""
"348","324870","SARL_v6","SARL_v61u7sptge","5fc3d41149c0c8728f07b95b","freq","","","img/blue_2bandit_b2.png","70","","70","test","1","","134","","","","circle","square","129","21","6","0.9612403100775194","","","","","","","",""
"null","325331","SARL_v6","SARL_v61u7sptge","5fc3d41149c0c8728f07b95b","freq_resp","","","img/blue_2bandit_b.png","70","img/blue_2bandit_b.png","70","test","","","","","","","","","","","6","","","","","","","","",""
"null","325489","SARL_v6","SARL_v61u7sptge","5fc3d41149c0c8728f07b95b","fixation","","","img/fixation.png","null","","","test","","","","","","","","","","","","","","","","","","","",""
