"rt","time_elapsed","expId","subject","prolificID","trialType","rlType","attType","stimulus","key_press","stim","corrresp","phase","corr","pracCounter","trialNum","rewardOne","rewardTwo","reward","bandOne","bandTwo","attentionNum","attentionRunNum","blockNum","performance","bandChosen","circleVal","squareVal","bandOneVal","bandTwoVal","shapeChosen","rlNum","badFlag"
"3592.5","3597","SARL_v6","SARL_v6a7vga0y2","60ef2700e476748689a999f7","","","","","","","","","","","","","","","","","","","","","","","","","","","",""
"","6308","SARL_v6","SARL_v6a7vga0y2","60ef2700e476748689a999f7","fullscreen","fullscreen","fullscreen","","","","","","","","","","","","","","","","","","","","","","","","",""
"30136.5","36449","SARL_v6","SARL_v6a7vga0y2","60ef2700e476748689a999f7","","","","","","","","","","","","","","","","","","","","","","","","","","","",""
"null","37271","SARL_v6","SARL_v6a7vga0y2","60ef2700e476748689a999f7","freqPrac","","","img/orange_2bandit_b2.png","null","img/orange_2bandit_b2.png","70","prac","0","1","","","","","","","","","","","","","","","","","",""
"null","38281","SARL_v6","SARL_v6a7vga0y2","60ef2700e476748689a999f7","feedback","","","img/tooSlow.png","null","","na","prac","","","","","","","","","","","","","","","","","","","",""
"null","38449","SARL_v6","SARL_v6a7vga0y2","60ef2700e476748689a999f7","fixation","","","img/fixation.png","null","","","prac","","","","","","","","","","","","","","","","","","","",""
"487.39999985694885","38940","SARL_v6","SARL_v6a7vga0y2","60ef2700e476748689a999f7","infreqPrac","","","img/blue_2bandit_b2.png","68","img/blue_2bandit_b2.png","68","prac","1","1","","","","","","","","","","","","","","","","","",""
"487.39999985694885","39273","SARL_v6","SARL_v6a7vga0y2","60ef2700e476748689a999f7","infreqPrac_resp","","","img/blue_2bandit_b.png","68","img/blue_2bandit_b.png","68","prac","","","","","","","","","","","","","","","","","","","",""
"null","39438","SARL_v6","SARL_v6a7vga0y2","60ef2700e476748689a999f7","fixation","","","img/fixation.png","null","","","prac","","","","","","","","","","","","","","","","","","","",""
"522.5999999046326","39965","SARL_v6","SARL_v6a7vga0y2","60ef2700e476748689a999f7","freqPrac","","","img/orange_2bandit_b2.png","70","img/orange_2bandit_b2.png","70","prac","1","1","","","","","","","","","","","","","","","","","",""
"522.5999999046326","40254","SARL_v6","SARL_v6a7vga0y2","60ef2700e476748689a999f7","freqPrac_resp","","","img/orange_2bandit_b.png","70","img/orange_2bandit_b.png","70","prac","","","","","","","","","","","","","","","","","","","",""
"null","40422","SARL_v6","SARL_v6a7vga0y2","60ef2700e476748689a999f7","fixation","","","img/fixation.png","null","","","prac","","","","","","","","","","","","","","","","","","","",""
"523.2999999523163","40950","SARL_v6","SARL_v6a7vga0y2","60ef2700e476748689a999f7","infreqPrac","","","img/blue_2bandit_b2.png","68","img/blue_2bandit_b2.png","68","prac","1","1","","","","","","","","","","","","","","","","","",""
"523.2999999523163","41245","SARL_v6","SARL_v6a7vga0y2","60ef2700e476748689a999f7","infreqPrac_resp","","","img/blue_2bandit_b.png","68","img/blue_2bandit_b.png","68","prac","","","","","","","","","","","","","","","","","","","",""
"null","41411","SARL_v6","SARL_v6a7vga0y2","60ef2700e476748689a999f7","fixation","","","img/fixation.png","null","","","prac","","","","","","","","","","","","","","","","","","","",""
"357.7000000476837","41773","SARL_v6","SARL_v6a7vga0y2","60ef2700e476748689a999f7","infreqPrac","","","img/blue_2bandit_b2.png","68","img/blue_2bandit_b2.png","68","prac","1","1","","","","","","","","","","","","","","","","","",""
"357.7000000476837","42219","SARL_v6","SARL_v6a7vga0y2","60ef2700e476748689a999f7","infreqPrac_resp","","","img/blue_2bandit_b.png","68","img/blue_2bandit_b.png","68","prac","","","","","","","","","","","","","","","","","","","",""
"null","42385","SARL_v6","SARL_v6a7vga0y2","60ef2700e476748689a999f7","fixation","","","img/fixation.png","null","","","prac","","","","","","","","","","","","","","","","","","","",""
"360.5","42750","SARL_v6","SARL_v6a7vga0y2","60ef2700e476748689a999f7","infreqPrac","","","img/blue_2bandit_b2.png","68","img/blue_2bandit_b2.png","68","prac","1","1","","","","","","","","","","","","","","","","","",""
"360.5","43204","SARL_v6","SARL_v6a7vga0y2","60ef2700e476748689a999f7","infreqPrac_resp","","","img/blue_2bandit_b.png","68","img/blue_2bandit_b.png","68","prac","","","","","","","","","","","","","","","","","","","",""
"null","43377","SARL_v6","SARL_v6a7vga0y2","60ef2700e476748689a999f7","fixation","","","img/fixation.png","null","","","prac","","","","","","","","","","","","","","","","","","","",""
"301.7999999523163","43684","SARL_v6","SARL_v6a7vga0y2","60ef2700e476748689a999f7","freqPrac","","","img/orange_2bandit_b2.png","68","img/orange_2bandit_b2.png","70","prac","0","2","","","","","","","","","","","","","","","","","",""
"301.7999999523163","44207","SARL_v6","SARL_v6a7vga0y2","60ef2700e476748689a999f7","freqPrac_resp","","","img/orange_2bandit_b.png","68","img/orange_2bandit_b.png","70","prac","","","","","","","","","","","","","","","","","","","",""
"null","45221","SARL_v6","SARL_v6a7vga0y2","60ef2700e476748689a999f7","feedback","","","img/wrongKey.png","null","","na","prac","","","","","","","","","","","","","","","","","","","",""
"null","45385","SARL_v6","SARL_v6a7vga0y2","60ef2700e476748689a999f7","fixation","","","img/fixation.png","null","","","prac","","","","","","","","","","","","","","","","","","","",""
"515.7000000476837","45904","SARL_v6","SARL_v6a7vga0y2","60ef2700e476748689a999f7","infreqPrac","","","img/blue_2bandit_b2.png","68","img/blue_2bandit_b2.png","68","prac","1","2","","","","","","","","","","","","","","","","","",""
"515.7000000476837","46194","SARL_v6","SARL_v6a7vga0y2","60ef2700e476748689a999f7","infreqPrac_resp","","","img/blue_2bandit_b.png","68","img/blue_2bandit_b.png","68","prac","","","","","","","","","","","","","","","","","","","",""
"null","46360","SARL_v6","SARL_v6a7vga0y2","60ef2700e476748689a999f7","fixation","","","img/fixation.png","null","","","prac","","","","","","","","","","","","","","","","","","","",""
"389.40000009536743","46754","SARL_v6","SARL_v6a7vga0y2","60ef2700e476748689a999f7","freqPrac","","","img/orange_2bandit_b2.png","70","img/orange_2bandit_b2.png","70","prac","1","2","","","","","","","","","","","","","","","","","",""
"389.40000009536743","47177","SARL_v6","SARL_v6a7vga0y2","60ef2700e476748689a999f7","freqPrac_resp","","","img/orange_2bandit_b.png","70","img/orange_2bandit_b.png","70","prac","","","","","","","","","","","","","","","","","","","",""
"null","47341","SARL_v6","SARL_v6a7vga0y2","60ef2700e476748689a999f7","fixation","","","img/fixation.png","null","","","prac","","","","","","","","","","","","","","","","","","","",""
"347.09999990463257","47692","SARL_v6","SARL_v6a7vga0y2","60ef2700e476748689a999f7","freqPrac","","","img/orange_2bandit_b2.png","70","img/orange_2bandit_b2.png","70","prac","1","2","","","","","","","","","","","","","","","","","",""
"347.09999990463257","48152","SARL_v6","SARL_v6a7vga0y2","60ef2700e476748689a999f7","freqPrac_resp","","","img/orange_2bandit_b.png","70","img/orange_2bandit_b.png","70","prac","","","","","","","","","","","","","","","","","","","",""
"null","48319","SARL_v6","SARL_v6a7vga0y2","60ef2700e476748689a999f7","fixation","","","img/fixation.png","null","","","prac","","","","","","","","","","","","","","","","","","","",""
"253137.39999985695","301462","SARL_v6","SARL_v6a7vga0y2","60ef2700e476748689a999f7","","","","","","","","prac","","","","","","","","","","","","","","","","","","","",""
"416.5","301882","SARL_v6","SARL_v6a7vga0y2","60ef2700e476748689a999f7","rlPractice","","","img/black_2bandit_b2.png","74","img/black_2bandit_b2.png","","prac","","","0","","","","","","","","","","","","","","","","",""
"null","302640","SARL_v6","SARL_v6a7vga0y2","60ef2700e476748689a999f7","feedback","","","<div class=""veryhighPoints""> 10 </div>","null","","na","prac","","","1","10","-14","10","","","","","","","","","","","","","",""
"null","302808","SARL_v6","SARL_v6a7vga0y2","60ef2700e476748689a999f7","fixation","","","img/fixation.png","null","","","prac","","","","","","","","","","","","","","","","","","","",""
"401.89999985694885","303214","SARL_v6","SARL_v6a7vga0y2","60ef2700e476748689a999f7","rlPractice","","","img/black_2bandit_b2.png","74","img/black_2bandit_b2.png","","prac","","","1","","","","","","","","","","","","","","","","",""
"null","303977","SARL_v6","SARL_v6a7vga0y2","60ef2700e476748689a999f7","feedback","","","<div class=""veryhighPoints""> 5 </div>","null","","na","prac","","","2","5","-5","5","","","","","","","","","","","","","",""
"null","304143","SARL_v6","SARL_v6a7vga0y2","60ef2700e476748689a999f7","fixation","","","img/fixation.png","null","","","prac","","","","","","","","","","","","","","","","","","","",""
"328.5","304475","SARL_v6","SARL_v6a7vga0y2","60ef2700e476748689a999f7","rlPractice","","","img/black_2bandit_b2.png","74","img/black_2bandit_b2.png","","prac","","","2","","","","","","","","","","","","","","","","",""
"null","305230","SARL_v6","SARL_v6a7vga0y2","60ef2700e476748689a999f7","feedback","","","<div class=""veryhighPoints""> 30 </div>","null","","na","prac","","","3","30","2","30","","","","","","","","","","","","","",""
"null","305396","SARL_v6","SARL_v6a7vga0y2","60ef2700e476748689a999f7","fixation","","","img/fixation.png","null","","","prac","","","","","","","","","","","","","","","","","","","",""
"255.79999995231628","305655","SARL_v6","SARL_v6a7vga0y2","60ef2700e476748689a999f7","rlPractice","","","img/black_2bandit_b2.png","74","img/black_2bandit_b2.png","","prac","","","3","","","","","","","","","","","","","","","","",""
"null","306416","SARL_v6","SARL_v6a7vga0y2","60ef2700e476748689a999f7","feedback","","","<div class=""verylowPoints""> -2 </div>","null","","na","prac","","","4","-2","20","-2","","","","","","","","","","","","","",""
"null","306584","SARL_v6","SARL_v6a7vga0y2","60ef2700e476748689a999f7","fixation","","","img/fixation.png","null","","","prac","","","","","","","","","","","","","","","","","","","",""
"7196.800000190735","313784","SARL_v6","SARL_v6a7vga0y2","60ef2700e476748689a999f7","","","","","","","","prac","","","","","","","","","","","","","","","","","","","",""
"789.8999998569489","314579","SARL_v6","SARL_v6a7vga0y2","60ef2700e476748689a999f7","mixAttFreqPrac","","","img/orange_2bandit_b2.png","68","img/orange_2bandit_b2.png","70","prac","","","1","","","","","","","","","","","","","","","","",""
"789.8999998569489","314593","SARL_v6","SARL_v6a7vga0y2","60ef2700e476748689a999f7","freqPrac_resp","","","img/orange_2bandit_b.png","68","img/orange_2bandit_b.png","70","prac","","","1","","","","","","","","","","","","","","","","",""
"null","314756","SARL_v6","SARL_v6a7vga0y2","60ef2700e476748689a999f7","fixation","","","img/fixation.png","null","","","prac","","","","","","","","","","","","","","","","","","","",""
"662.5","315423","SARL_v6","SARL_v6a7vga0y2","60ef2700e476748689a999f7","mixAttInfreqPrac","","","img/blue_2bandit_b2.png","68","img/blue_2bandit_b2.png","68","prac","","","2","","","","","","","","","","","","","","","","",""
"662.5","315583","SARL_v6","SARL_v6a7vga0y2","60ef2700e476748689a999f7","infreqPrac_resp","","","img/blue_2bandit_b.png","68","img/orange_2bandit_b.png","68","prac","","","2","","","","","","","","","","","","","","","","",""
"null","315740","SARL_v6","SARL_v6a7vga0y2","60ef2700e476748689a999f7","fixation","","","img/fixation.png","null","","","prac","","","","","","","","","","","","","","","","","","","",""
"598.6000001430511","316344","SARL_v6","SARL_v6a7vga0y2","60ef2700e476748689a999f7","mixAttInfreqPrac","","","img/blue_2bandit_b2.png","68","img/blue_2bandit_b2.png","68","prac","","","3","","","","","","","","","","","","","","","","",""
"598.6000001430511","316564","SARL_v6","SARL_v6a7vga0y2","60ef2700e476748689a999f7","infreqPrac_resp","","","img/blue_2bandit_b.png","68","img/orange_2bandit_b.png","68","prac","","","3","","","","","","","","","","","","","","","","",""
"null","316727","SARL_v6","SARL_v6a7vga0y2","60ef2700e476748689a999f7","fixation","","","img/fixation.png","null","","","prac","","","","","","","","","","","","","","","","","","","",""
"447.7000000476837","317177","SARL_v6","SARL_v6a7vga0y2","60ef2700e476748689a999f7","mixAttInfreqPrac","","","img/blue_2bandit_b2.png","68","img/blue_2bandit_b2.png","68","prac","","","4","","","","","","","","","","","","","","","","",""
"447.7000000476837","317545","SARL_v6","SARL_v6a7vga0y2","60ef2700e476748689a999f7","infreqPrac_resp","","","img/blue_2bandit_b.png","68","img/orange_2bandit_b.png","68","prac","","","4","","","","","","","","","","","","","","","","",""
"null","317715","SARL_v6","SARL_v6a7vga0y2","60ef2700e476748689a999f7","fixation","","","img/fixation.png","null","","","prac","","","","","","","","","","","","","","","","","","","",""
"320.90000009536743","318039","SARL_v6","SARL_v6a7vga0y2","60ef2700e476748689a999f7","mixAttFreqPrac","","","img/orange_2bandit_b2.png","70","img/orange_2bandit_b2.png","70","prac","","","5","","","","","","","","","","","","","","","","",""
"320.90000009536743","318532","SARL_v6","SARL_v6a7vga0y2","60ef2700e476748689a999f7","freqPrac_resp","","","img/orange_2bandit_b.png","70","img/orange_2bandit_b.png","70","prac","","","5","","","","","","","","","","","","","","","","",""
"null","318699","SARL_v6","SARL_v6a7vga0y2","60ef2700e476748689a999f7","fixation","","","img/fixation.png","null","","","prac","","","","","","","","","","","","","","","","","","","",""
"1166.6999998092651","319870","SARL_v6","SARL_v6a7vga0y2","60ef2700e476748689a999f7","mixRLPractice","","","img/black_2bandit_b2.png","74","img/black_2bandit_b2.png","","prac","","","5","","","","","","","","","","","","","","","","",""
"null","320636","SARL_v6","SARL_v6a7vga0y2","60ef2700e476748689a999f7","feedback","","","<div class=""verylowPoints""> -14 </div>","null","","na","prac","","","6","-14","10","-14","","","","","","","","","","","","","",""
"null","320807","SARL_v6","SARL_v6a7vga0y2","60ef2700e476748689a999f7","fixation","","","img/fixation.png","null","","","prac","","","","","","","","","","","","","","","","","","","",""
"773.7999999523163","321586","SARL_v6","SARL_v6a7vga0y2","60ef2700e476748689a999f7","mixAttFreqPrac","","","img/orange_2bandit_b2.png","68","img/orange_2bandit_b2.png","70","prac","","","7","","","","","","","","","","","","","","","","",""
"773.7999999523163","321617","SARL_v6","SARL_v6a7vga0y2","60ef2700e476748689a999f7","freqPrac_resp","","","img/orange_2bandit_b.png","68","img/orange_2bandit_b.png","70","prac","","","7","","","","","","","","","","","","","","","","",""
"null","321774","SARL_v6","SARL_v6a7vga0y2","60ef2700e476748689a999f7","fixation","","","img/fixation.png","null","","","prac","","","","","","","","","","","","","","","","","","","",""
"654.5","322433","SARL_v6","SARL_v6a7vga0y2","60ef2700e476748689a999f7","mixAttInfreqPrac","","","img/blue_2bandit_b2.png","68","img/blue_2bandit_b2.png","68","prac","","","8","","","","","","","","","","","","","","","","",""
"654.5","322598","SARL_v6","SARL_v6a7vga0y2","60ef2700e476748689a999f7","infreqPrac_resp","","","img/blue_2bandit_b.png","68","img/orange_2bandit_b.png","68","prac","","","8","","","","","","","","","","","","","","","","",""
"null","322758","SARL_v6","SARL_v6a7vga0y2","60ef2700e476748689a999f7","fixation","","","img/fixation.png","null","","","prac","","","","","","","","","","","","","","","","","","","",""
"668.9000000953674","323431","SARL_v6","SARL_v6a7vga0y2","60ef2700e476748689a999f7","mixAttFreqPrac","","","img/orange_2bandit_b2.png","70","img/orange_2bandit_b2.png","70","prac","","","9","","","","","","","","","","","","","","","","",""
"668.9000000953674","323573","SARL_v6","SARL_v6a7vga0y2","60ef2700e476748689a999f7","freqPrac_resp","","","img/orange_2bandit_b.png","70","img/orange_2bandit_b.png","70","prac","","","9","","","","","","","","","","","","","","","","",""
"null","323740","SARL_v6","SARL_v6a7vga0y2","60ef2700e476748689a999f7","fixation","","","img/fixation.png","null","","","prac","","","","","","","","","","","","","","","","","","","",""
"559.0999999046326","324303","SARL_v6","SARL_v6a7vga0y2","60ef2700e476748689a999f7","mixAttFreqPrac","","","img/orange_2bandit_b2.png","70","img/orange_2bandit_b2.png","70","prac","","","10","","","","","","","","","","","","","","","","",""
"559.0999999046326","324549","SARL_v6","SARL_v6a7vga0y2","60ef2700e476748689a999f7","freqPrac_resp","","","img/orange_2bandit_b.png","70","img/orange_2bandit_b.png","70","prac","","","10","","","","","","","","","","","","","","","","",""
"null","324718","SARL_v6","SARL_v6a7vga0y2","60ef2700e476748689a999f7","fixation","","","img/fixation.png","null","","","prac","","","","","","","","","","","","","","","","","","","",""
"410.39999985694885","325133","SARL_v6","SARL_v6a7vga0y2","60ef2700e476748689a999f7","mixAttInfreqPrac","","","img/blue_2bandit_b2.png","68","img/blue_2bandit_b2.png","68","prac","","","11","","","","","","","","","","","","","","","","",""
"410.39999985694885","325531","SARL_v6","SARL_v6a7vga0y2","60ef2700e476748689a999f7","infreqPrac_resp","","","img/blue_2bandit_b.png","68","img/orange_2bandit_b.png","68","prac","","","11","","","","","","","","","","","","","","","","",""
"null","325690","SARL_v6","SARL_v6a7vga0y2","60ef2700e476748689a999f7","fixation","","","img/fixation.png","null","","","prac","","","","","","","","","","","","","","","","","","","",""
"945.9000000953674","326640","SARL_v6","SARL_v6a7vga0y2","60ef2700e476748689a999f7","mixRLPractice","","","img/black_2bandit_b2.png","75","img/black_2bandit_b2.png","","prac","","","11","","","","","","","","","","","","","","","","",""
"null","327407","SARL_v6","SARL_v6a7vga0y2","60ef2700e476748689a999f7","feedback","","","<div class=""verylowPoints_sq""> -5 </div>","null","","na","prac","","","12","5","-5","5","","","","","","","","","","","","","",""
"null","327566","SARL_v6","SARL_v6a7vga0y2","60ef2700e476748689a999f7","fixation","","","img/fixation.png","null","","","prac","","","","","","","","","","","","","","","","","","","",""
"692402.7000000477","1019973","SARL_v6","SARL_v6a7vga0y2","60ef2700e476748689a999f7","","","","","","","","prac","","","","","","","","","","","","","","","","","","","",""
"null","1020782","SARL_v6","SARL_v6a7vga0y2","60ef2700e476748689a999f7","freq","","","img/orange_2bandit_b2.png","null","","70","test","0","","1","","","","circle","square","1","1","1","0","","","","","","","",""
"null","1020942","SARL_v6","SARL_v6a7vga0y2","60ef2700e476748689a999f7","fixation","","","img/fixation.png","null","","","test","","","","","","","","","","","","","","","","","","","",""
"28.40000009536743","1020973","SARL_v6","SARL_v6a7vga0y2","60ef2700e476748689a999f7","freq","","","img/orange_2bandit_b2.png","70","","70","test","1","","2","","","","circle","square","2","2","1","0.5","","","","","","","",""
"null","1021758","SARL_v6","SARL_v6a7vga0y2","60ef2700e476748689a999f7","freq_resp","","","img/orange_2bandit_b.png","70","img/orange_2bandit_b.png","70","test","","","","","","","","","","","1","","","","","","","","",""
"null","1021922","SARL_v6","SARL_v6a7vga0y2","60ef2700e476748689a999f7","fixation","","","img/fixation.png","null","","","test","","","","","","","","","","","","","","","","","","","",""
"502.2000000476837","1022429","SARL_v6","SARL_v6a7vga0y2","60ef2700e476748689a999f7","freq","","","img/orange_2bandit_b2.png","70","","70","test","1","","3","","","","circle","square","3","3","1","0.6666666666666666","","","","","","","",""
"null","1022733","SARL_v6","SARL_v6a7vga0y2","60ef2700e476748689a999f7","freq_resp","","","img/orange_2bandit_b.png","70","img/orange_2bandit_b.png","70","test","","","","","","","","","","","1","","","","","","","","",""
"null","1022897","SARL_v6","SARL_v6a7vga0y2","60ef2700e476748689a999f7","fixation","","","img/fixation.png","null","","","test","","","","","","","","","","","","","","","","","","","",""
"376.19999980926514","1023277","SARL_v6","SARL_v6a7vga0y2","60ef2700e476748689a999f7","freq","","","img/orange_2bandit_b2.png","70","","70","test","1","","4","","","","circle","square","4","4","1","0.75","","","","","","","",""
"null","1023711","SARL_v6","SARL_v6a7vga0y2","60ef2700e476748689a999f7","freq_resp","","","img/orange_2bandit_b.png","70","img/orange_2bandit_b.png","70","test","","","","","","","","","","","1","","","","","","","","",""
"null","1023870","SARL_v6","SARL_v6a7vga0y2","60ef2700e476748689a999f7","fixation","","","img/fixation.png","null","","","test","","","","","","","","","","","","","","","","","","","",""
"274.40000009536743","1024148","SARL_v6","SARL_v6a7vga0y2","60ef2700e476748689a999f7","freq","","","img/orange_2bandit_b2.png","70","","70","test","1","","5","","","","circle","square","5","5","1","0.8","","","","","","","",""
"null","1024690","SARL_v6","SARL_v6a7vga0y2","60ef2700e476748689a999f7","freq_resp","","","img/orange_2bandit_b.png","70","img/orange_2bandit_b.png","70","test","","","","","","","","","","","1","","","","","","","","",""
"null","1024844","SARL_v6","SARL_v6a7vga0y2","60ef2700e476748689a999f7","fixation","","","img/fixation.png","null","","","test","","","","","","","","","","","","","","","","","","","",""
"302.7999999523163","1025151","SARL_v6","SARL_v6a7vga0y2","60ef2700e476748689a999f7","freq","","","img/orange_2bandit_b2.png","70","","70","test","1","","6","","","","circle","square","6","6","1","0.8333333333333334","","","","","","","",""
"null","1025667","SARL_v6","SARL_v6a7vga0y2","60ef2700e476748689a999f7","freq_resp","","","img/orange_2bandit_b.png","70","img/orange_2bandit_b.png","70","test","","","","","","","","","","","1","","","","","","","","",""
"null","1025831","SARL_v6","SARL_v6a7vga0y2","60ef2700e476748689a999f7","fixation","","","img/fixation.png","null","","","test","","","","","","","","","","","","","","","","","","","",""
"253.40000009536743","1026089","SARL_v6","SARL_v6a7vga0y2","60ef2700e476748689a999f7","freq","","","img/orange_2bandit_b2.png","70","","70","test","1","","7","","","","circle","square","7","7","1","0.8571428571428571","","","","","","","",""
"null","1026652","SARL_v6","SARL_v6a7vga0y2","60ef2700e476748689a999f7","freq_resp","","","img/orange_2bandit_b.png","70","img/orange_2bandit_b.png","70","test","","","","","","","","","","","1","","","","","","","","",""
"null","1026817","SARL_v6","SARL_v6a7vga0y2","60ef2700e476748689a999f7","fixation","","","img/fixation.png","null","","","test","","","","","","","","","","","","","","","","","","","",""
"409.69999980926514","1027232","SARL_v6","SARL_v6a7vga0y2","60ef2700e476748689a999f7","infreq","","","img/blue_2bandit_b2.png","68","","68","test","1","","8","","","","circle","square","8","8","1","0.875","","","","","","","",""
"null","1027638","SARL_v6","SARL_v6a7vga0y2","60ef2700e476748689a999f7","infreq_resp","","","img/blue_2bandit_b.png","68","img/blue_2bandit_b.png","68","test","","","","","","","","","","","1","","","","","","","","",""
"null","1027799","SARL_v6","SARL_v6a7vga0y2","60ef2700e476748689a999f7","fixation","","","img/fixation.png","null","","","test","","","","","","","","","","","","","","","","","","","",""
"462.80000019073486","1028267","SARL_v6","SARL_v6a7vga0y2","60ef2700e476748689a999f7","freq","","","img/orange_2bandit_b2.png","70","","70","test","1","","9","","","","circle","square","9","9","1","0.8888888888888888","","","","","","","",""
"null","1028610","SARL_v6","SARL_v6a7vga0y2","60ef2700e476748689a999f7","freq_resp","","","img/orange_2bandit_b.png","70","img/orange_2bandit_b.png","70","test","","","","","","","","","","","1","","","","","","","","",""
"null","1028768","SARL_v6","SARL_v6a7vga0y2","60ef2700e476748689a999f7","fixation","","","img/fixation.png","null","","","test","","","","","","","","","","","","","","","","","","","",""
"354.59999990463257","1029128","SARL_v6","SARL_v6a7vga0y2","60ef2700e476748689a999f7","freq","","","img/orange_2bandit_b2.png","70","","70","test","1","","10","","","","circle","square","10","10","1","0.9","","","","","","","",""
"null","1029587","SARL_v6","SARL_v6a7vga0y2","60ef2700e476748689a999f7","freq_resp","","","img/orange_2bandit_b.png","70","img/orange_2bandit_b.png","70","test","","","","","","","","","","","1","","","","","","","","",""
"null","1029747","SARL_v6","SARL_v6a7vga0y2","60ef2700e476748689a999f7","fixation","","","img/fixation.png","null","","","test","","","","","","","","","","","","","","","","","","","",""
"267.59999990463257","1030019","SARL_v6","SARL_v6a7vga0y2","60ef2700e476748689a999f7","freq","","","img/orange_2bandit_b2.png","70","","70","test","1","","11","","","","circle","square","11","11","1","0.9090909090909091","","","","","","","",""
"null","1030564","SARL_v6","SARL_v6a7vga0y2","60ef2700e476748689a999f7","freq_resp","","","img/orange_2bandit_b.png","70","img/orange_2bandit_b.png","70","test","","","","","","","","","","","1","","","","","","","","",""
"null","1030730","SARL_v6","SARL_v6a7vga0y2","60ef2700e476748689a999f7","fixation","","","img/fixation.png","null","","","test","","","","","","","","","","","","","","","","","","","",""
"220.5","1030956","SARL_v6","SARL_v6a7vga0y2","60ef2700e476748689a999f7","freq","","","img/orange_2bandit_b2.png","70","","70","test","1","","12","","","","circle","square","12","12","1","0.9166666666666666","","","","","","","",""
"null","1031549","SARL_v6","SARL_v6a7vga0y2","60ef2700e476748689a999f7","freq_resp","","","img/orange_2bandit_b.png","70","img/orange_2bandit_b.png","70","test","","","","","","","","","","","1","","","","","","","","",""
"null","1031709","SARL_v6","SARL_v6a7vga0y2","60ef2700e476748689a999f7","fixation","","","img/fixation.png","null","","","test","","","","","","","","","","","","","","","","","","","",""
"284.7999999523163","1031998","SARL_v6","SARL_v6a7vga0y2","60ef2700e476748689a999f7","freq","","","img/orange_2bandit_b2.png","70","","70","test","1","","13","","","","circle","square","13","13","1","0.9230769230769231","","","","","","","",""
"null","1032532","SARL_v6","SARL_v6a7vga0y2","60ef2700e476748689a999f7","freq_resp","","","img/orange_2bandit_b.png","70","img/orange_2bandit_b.png","70","test","","","","","","","","","","","1","","","","","","","","",""
"null","1032688","SARL_v6","SARL_v6a7vga0y2","60ef2700e476748689a999f7","fixation","","","img/fixation.png","null","","","test","","","","","","","","","","","","","","","","","","","",""
"215.30000019073486","1032908","SARL_v6","SARL_v6a7vga0y2","60ef2700e476748689a999f7","freq","","","img/orange_2bandit_b2.png","70","","70","test","1","","14","","","","circle","square","14","14","1","0.9285714285714286","","","","","","","",""
"null","1033508","SARL_v6","SARL_v6a7vga0y2","60ef2700e476748689a999f7","freq_resp","","","img/orange_2bandit_b.png","70","img/orange_2bandit_b.png","70","test","","","","","","","","","","","1","","","","","","","","",""
"null","1033664","SARL_v6","SARL_v6a7vga0y2","60ef2700e476748689a999f7","fixation","","","img/fixation.png","null","","","test","","","","","","","","","","","","","","","","","","","",""
"166","1033835","SARL_v6","SARL_v6a7vga0y2","60ef2700e476748689a999f7","infreq","","","img/blue_2bandit_b2.png","70","","68","test","0","","15","","","","circle","square","15","15","1","0.8666666666666667","","","","","","","",""
"null","1034487","SARL_v6","SARL_v6a7vga0y2","60ef2700e476748689a999f7","infreq_resp","","","img/blue_2bandit_b.png","70","img/blue_2bandit_b.png","68","test","","","","","","","","","","","1","","","","","","","","",""
"null","1034646","SARL_v6","SARL_v6a7vga0y2","60ef2700e476748689a999f7","fixation","","","img/fixation.png","null","","","test","","","","","","","","","","","","","","","","","","","",""
"386.90000009536743","1035037","SARL_v6","SARL_v6a7vga0y2","60ef2700e476748689a999f7","freq","","","img/orange_2bandit_b2.png","70","","70","test","1","","16","","","","circle","square","16","16","1","0.875","","","","","","","",""
"null","1035458","SARL_v6","SARL_v6a7vga0y2","60ef2700e476748689a999f7","freq_resp","","","img/orange_2bandit_b.png","70","img/orange_2bandit_b.png","70","test","","","","","","","","","","","1","","","","","","","","",""
"null","1035619","SARL_v6","SARL_v6a7vga0y2","60ef2700e476748689a999f7","fixation","","","img/fixation.png","null","","","test","","","","","","","","","","","","","","","","","","","",""
"312.2000000476837","1035934","SARL_v6","SARL_v6a7vga0y2","60ef2700e476748689a999f7","freq","","","img/orange_2bandit_b2.png","70","","70","test","1","","17","","","","circle","square","17","17","1","0.8823529411764706","","","","","","","",""
"null","1036431","SARL_v6","SARL_v6a7vga0y2","60ef2700e476748689a999f7","freq_resp","","","img/orange_2bandit_b.png","70","img/orange_2bandit_b.png","70","test","","","","","","","","","","","1","","","","","","","","",""
"null","1036588","SARL_v6","SARL_v6a7vga0y2","60ef2700e476748689a999f7","fixation","","","img/fixation.png","null","","","test","","","","","","","","","","","","","","","","","","","",""
"308.7999999523163","1036902","SARL_v6","SARL_v6a7vga0y2","60ef2700e476748689a999f7","freq","","","img/orange_2bandit_b2.png","70","","70","test","1","","18","","","","circle","square","18","18","1","0.8888888888888888","","","","","","","",""
"null","1037416","SARL_v6","SARL_v6a7vga0y2","60ef2700e476748689a999f7","freq_resp","","","img/orange_2bandit_b.png","70","img/orange_2bandit_b.png","70","test","","","","","","","","","","","1","","","","","","","","",""
"null","1037589","SARL_v6","SARL_v6a7vga0y2","60ef2700e476748689a999f7","fixation","","","img/fixation.png","null","","","test","","","","","","","","","","","","","","","","","","","",""
"334.7999999523163","1037929","SARL_v6","SARL_v6a7vga0y2","60ef2700e476748689a999f7","freq","","","img/orange_2bandit_b2.png","70","","70","test","1","","19","","","","circle","square","19","19","1","0.8947368421052632","","","","","","","",""
"null","1038406","SARL_v6","SARL_v6a7vga0y2","60ef2700e476748689a999f7","freq_resp","","","img/orange_2bandit_b.png","70","img/orange_2bandit_b.png","70","test","","","","","","","","","","","1","","","","","","","","",""
"null","1038566","SARL_v6","SARL_v6a7vga0y2","60ef2700e476748689a999f7","fixation","","","img/fixation.png","null","","","test","","","","","","","","","","","","","","","","","","","",""
"278.19999980926514","1038849","SARL_v6","SARL_v6a7vga0y2","60ef2700e476748689a999f7","freq","","","img/orange_2bandit_b2.png","70","","70","test","1","","20","","","","circle","square","20","20","1","0.9","","","","","","","",""
"null","1039382","SARL_v6","SARL_v6a7vga0y2","60ef2700e476748689a999f7","freq_resp","","","img/orange_2bandit_b.png","70","img/orange_2bandit_b.png","70","test","","","","","","","","","","","1","","","","","","","","",""
"null","1039543","SARL_v6","SARL_v6a7vga0y2","60ef2700e476748689a999f7","fixation","","","img/fixation.png","null","","","test","","","","","","","","","","","","","","","","","","","",""
"412.09999990463257","1039959","SARL_v6","SARL_v6a7vga0y2","60ef2700e476748689a999f7","freq","","","img/orange_2bandit_b2.png","70","","70","test","1","","21","","","","circle","square","21","21","1","0.9047619047619048","","","","","","","",""
"null","1040354","SARL_v6","SARL_v6a7vga0y2","60ef2700e476748689a999f7","freq_resp","","","img/orange_2bandit_b.png","70","img/orange_2bandit_b.png","70","test","","","","","","","","","","","1","","","","","","","","",""
"null","1040522","SARL_v6","SARL_v6a7vga0y2","60ef2700e476748689a999f7","fixation","","","img/fixation.png","null","","","test","","","","","","","","","","","","","","","","","","","",""
"297.90000009536743","1040824","SARL_v6","SARL_v6a7vga0y2","60ef2700e476748689a999f7","freq","","","img/orange_2bandit_b2.png","70","","70","test","1","","22","","","","circle","square","22","22","1","0.9090909090909091","","","","","","","",""
"null","1041331","SARL_v6","SARL_v6a7vga0y2","60ef2700e476748689a999f7","freq_resp","","","img/orange_2bandit_b.png","70","img/orange_2bandit_b.png","70","test","","","","","","","","","","","1","","","","","","","","",""
"null","1041490","SARL_v6","SARL_v6a7vga0y2","60ef2700e476748689a999f7","fixation","","","img/fixation.png","null","","","test","","","","","","","","","","","","","","","","","","","",""
"665.1000001430511","1042160","SARL_v6","SARL_v6a7vga0y2","60ef2700e476748689a999f7","rl","","","img/black_2bandit_b2.png","74","","0","test","","","23","","","-3","circle","square","","0","1","","74","-3","-3","-3","-3","circle","1","0"
"null","1042929","SARL_v6","SARL_v6a7vga0y2","60ef2700e476748689a999f7","feedback","","","<div class=""verylowPoints""> -3 </div>","null","","na","test","","","NaN","","","","","","","","1","","74","","","","","","1",""
"508.2999999523163","1043443","SARL_v6","SARL_v6a7vga0y2","60ef2700e476748689a999f7","freq","","","img/orange_2bandit_b2.png","70","","70","test","1","","24","","","","circle","square","23","1","2","0.9130434782608695","","","","","","","",""
"null","1043755","SARL_v6","SARL_v6a7vga0y2","60ef2700e476748689a999f7","freq_resp","","","img/orange_2bandit_b.png","70","img/orange_2bandit_b.png","70","test","","","","","","","","","","","2","","","","","","","","",""
"null","1043916","SARL_v6","SARL_v6a7vga0y2","60ef2700e476748689a999f7","fixation","","","img/fixation.png","null","","","test","","","","","","","","","","","","","","","","","","","",""
"326.2999999523163","1044245","SARL_v6","SARL_v6a7vga0y2","60ef2700e476748689a999f7","freq","","","img/orange_2bandit_b2.png","70","","70","test","1","","25","","","","circle","square","24","2","2","0.9166666666666666","","","","","","","",""
"null","1044726","SARL_v6","SARL_v6a7vga0y2","60ef2700e476748689a999f7","freq_resp","","","img/orange_2bandit_b.png","70","img/orange_2bandit_b.png","70","test","","","","","","","","","","","2","","","","","","","","",""
"null","1044893","SARL_v6","SARL_v6a7vga0y2","60ef2700e476748689a999f7","fixation","","","img/fixation.png","null","","","test","","","","","","","","","","","","","","","","","","","",""
"203.29999995231628","1045101","SARL_v6","SARL_v6a7vga0y2","60ef2700e476748689a999f7","freq","","","img/orange_2bandit_b2.png","70","","70","test","1","","26","","","","circle","square","25","3","2","0.92","","","","","","","",""
"null","1045721","SARL_v6","SARL_v6a7vga0y2","60ef2700e476748689a999f7","freq_resp","","","img/orange_2bandit_b.png","70","img/orange_2bandit_b.png","70","test","","","","","","","","","","","2","","","","","","","","",""
"null","1045887","SARL_v6","SARL_v6a7vga0y2","60ef2700e476748689a999f7","fixation","","","img/fixation.png","null","","","test","","","","","","","","","","","","","","","","","","","",""
"129","1046020","SARL_v6","SARL_v6a7vga0y2","60ef2700e476748689a999f7","freq","","","img/orange_2bandit_b2.png","70","","70","test","1","","27","","","","circle","square","26","4","2","0.9230769230769231","","","","","","","",""
"null","1046706","SARL_v6","SARL_v6a7vga0y2","60ef2700e476748689a999f7","freq_resp","","","img/orange_2bandit_b.png","70","img/orange_2bandit_b.png","70","test","","","","","","","","","","","2","","","","","","","","",""
"null","1046867","SARL_v6","SARL_v6a7vga0y2","60ef2700e476748689a999f7","fixation","","","img/fixation.png","null","","","test","","","","","","","","","","","","","","","","","","","",""
"323.2000000476837","1047194","SARL_v6","SARL_v6a7vga0y2","60ef2700e476748689a999f7","freq","","","img/orange_2bandit_b2.png","70","","70","test","1","","28","","","","circle","square","27","5","2","0.9259259259259259","","","","","","","",""
"null","1047694","SARL_v6","SARL_v6a7vga0y2","60ef2700e476748689a999f7","freq_resp","","","img/orange_2bandit_b.png","70","img/orange_2bandit_b.png","70","test","","","","","","","","","","","2","","","","","","","","",""
"null","1047864","SARL_v6","SARL_v6a7vga0y2","60ef2700e476748689a999f7","fixation","","","img/fixation.png","null","","","test","","","","","","","","","","","","","","","","","","","",""
"256","1048123","SARL_v6","SARL_v6a7vga0y2","60ef2700e476748689a999f7","freq","","","img/orange_2bandit_b2.png","70","","70","test","1","","29","","","","circle","square","28","6","2","0.9285714285714286","","","","","","","",""
"null","1048687","SARL_v6","SARL_v6a7vga0y2","60ef2700e476748689a999f7","freq_resp","","","img/orange_2bandit_b.png","70","img/orange_2bandit_b.png","70","test","","","","","","","","","","","2","","","","","","","","",""
"null","1048858","SARL_v6","SARL_v6a7vga0y2","60ef2700e476748689a999f7","fixation","","","img/fixation.png","null","","","test","","","","","","","","","","","","","","","","","","","",""
"289","1049153","SARL_v6","SARL_v6a7vga0y2","60ef2700e476748689a999f7","freq","","","img/orange_2bandit_b2.png","70","","70","test","1","","30","","","","circle","square","29","7","2","0.9310344827586207","","","","","","","",""
"null","1049673","SARL_v6","SARL_v6a7vga0y2","60ef2700e476748689a999f7","freq_resp","","","img/orange_2bandit_b.png","70","img/orange_2bandit_b.png","70","test","","","","","","","","","","","2","","","","","","","","",""
"null","1049833","SARL_v6","SARL_v6a7vga0y2","60ef2700e476748689a999f7","fixation","","","img/fixation.png","null","","","test","","","","","","","","","","","","","","","","","","","",""
"393.5","1050231","SARL_v6","SARL_v6a7vga0y2","60ef2700e476748689a999f7","freq","","","img/orange_2bandit_b2.png","70","","70","test","1","","31","","","","circle","square","30","8","2","0.9333333333333333","","","","","","","",""
"null","1050646","SARL_v6","SARL_v6a7vga0y2","60ef2700e476748689a999f7","freq_resp","","","img/orange_2bandit_b.png","70","img/orange_2bandit_b.png","70","test","","","","","","","","","","","2","","","","","","","","",""
"null","1050812","SARL_v6","SARL_v6a7vga0y2","60ef2700e476748689a999f7","fixation","","","img/fixation.png","null","","","test","","","","","","","","","","","","","","","","","","","",""
"303.60000014305115","1051120","SARL_v6","SARL_v6a7vga0y2","60ef2700e476748689a999f7","freq","","","img/orange_2bandit_b2.png","70","","70","test","1","","32","","","","circle","square","31","9","2","0.9354838709677419","","","","","","","",""
"null","1051628","SARL_v6","SARL_v6a7vga0y2","60ef2700e476748689a999f7","freq_resp","","","img/orange_2bandit_b.png","70","img/orange_2bandit_b.png","70","test","","","","","","","","","","","2","","","","","","","","",""
"null","1051791","SARL_v6","SARL_v6a7vga0y2","60ef2700e476748689a999f7","fixation","","","img/fixation.png","null","","","test","","","","","","","","","","","","","","","","","","","",""
"355.59999990463257","1052151","SARL_v6","SARL_v6a7vga0y2","60ef2700e476748689a999f7","freq","","","img/orange_2bandit_b2.png","70","","70","test","1","","33","","","","circle","square","32","10","2","0.9375","","","","","","","",""
"null","1052605","SARL_v6","SARL_v6a7vga0y2","60ef2700e476748689a999f7","freq_resp","","","img/orange_2bandit_b.png","70","img/orange_2bandit_b.png","70","test","","","","","","","","","","","2","","","","","","","","",""
"null","1052764","SARL_v6","SARL_v6a7vga0y2","60ef2700e476748689a999f7","fixation","","","img/fixation.png","null","","","test","","","","","","","","","","","","","","","","","","","",""
"373.39999985694885","1053141","SARL_v6","SARL_v6a7vga0y2","60ef2700e476748689a999f7","freq","","","img/orange_2bandit_b2.png","70","","70","test","1","","34","","","","circle","square","33","11","2","0.9393939393939394","","","","","","","",""
"null","1053572","SARL_v6","SARL_v6a7vga0y2","60ef2700e476748689a999f7","freq_resp","","","img/orange_2bandit_b.png","70","img/orange_2bandit_b.png","70","test","","","","","","","","","","","2","","","","","","","","",""
"null","1053745","SARL_v6","SARL_v6a7vga0y2","60ef2700e476748689a999f7","fixation","","","img/fixation.png","null","","","test","","","","","","","","","","","","","","","","","","","",""
"562","1054312","SARL_v6","SARL_v6a7vga0y2","60ef2700e476748689a999f7","infreq","","","img/blue_2bandit_b2.png","68","","68","test","1","","35","","","","circle","square","34","12","2","0.9411764705882353","","","","","","","",""
"null","1054572","SARL_v6","SARL_v6a7vga0y2","60ef2700e476748689a999f7","infreq_resp","","","img/blue_2bandit_b.png","68","img/blue_2bandit_b.png","68","test","","","","","","","","","","","2","","","","","","","","",""
"null","1054730","SARL_v6","SARL_v6a7vga0y2","60ef2700e476748689a999f7","fixation","","","img/fixation.png","null","","","test","","","","","","","","","","","","","","","","","","","",""
"422.39999985694885","1055157","SARL_v6","SARL_v6a7vga0y2","60ef2700e476748689a999f7","freq","","","img/orange_2bandit_b2.png","70","","70","test","1","","36","","","","circle","square","35","13","2","0.9428571428571428","","","","","","","",""
"null","1055545","SARL_v6","SARL_v6a7vga0y2","60ef2700e476748689a999f7","freq_resp","","","img/orange_2bandit_b.png","70","img/orange_2bandit_b.png","70","test","","","","","","","","","","","2","","","","","","","","",""
"null","1055708","SARL_v6","SARL_v6a7vga0y2","60ef2700e476748689a999f7","fixation","","","img/fixation.png","null","","","test","","","","","","","","","","","","","","","","","","","",""
"314.39999985694885","1056027","SARL_v6","SARL_v6a7vga0y2","60ef2700e476748689a999f7","freq","","","img/orange_2bandit_b2.png","70","","70","test","1","","37","","","","circle","square","36","14","2","0.9444444444444444","","","","","","","",""
"null","1056531","SARL_v6","SARL_v6a7vga0y2","60ef2700e476748689a999f7","freq_resp","","","img/orange_2bandit_b.png","70","img/orange_2bandit_b.png","70","test","","","","","","","","","","","2","","","","","","","","",""
"null","1056689","SARL_v6","SARL_v6a7vga0y2","60ef2700e476748689a999f7","fixation","","","img/fixation.png","null","","","test","","","","","","","","","","","","","","","","","","","",""
"250.29999995231628","1056945","SARL_v6","SARL_v6a7vga0y2","60ef2700e476748689a999f7","freq","","","img/orange_2bandit_b2.png","70","","70","test","1","","38","","","","circle","square","37","15","2","0.9459459459459459","","","","","","","",""
"null","1057510","SARL_v6","SARL_v6a7vga0y2","60ef2700e476748689a999f7","freq_resp","","","img/orange_2bandit_b.png","70","img/orange_2bandit_b.png","70","test","","","","","","","","","","","2","","","","","","","","",""
"null","1057674","SARL_v6","SARL_v6a7vga0y2","60ef2700e476748689a999f7","fixation","","","img/fixation.png","null","","","test","","","","","","","","","","","","","","","","","","","",""
"272.5","1057952","SARL_v6","SARL_v6a7vga0y2","60ef2700e476748689a999f7","freq","","","img/orange_2bandit_b2.png","70","","70","test","1","","39","","","","circle","square","38","16","2","0.9473684210526315","","","","","","","",""
"null","1058494","SARL_v6","SARL_v6a7vga0y2","60ef2700e476748689a999f7","freq_resp","","","img/orange_2bandit_b.png","70","img/orange_2bandit_b.png","70","test","","","","","","","","","","","2","","","","","","","","",""
"null","1058668","SARL_v6","SARL_v6a7vga0y2","60ef2700e476748689a999f7","fixation","","","img/fixation.png","null","","","test","","","","","","","","","","","","","","","","","","","",""
"263.40000009536743","1058936","SARL_v6","SARL_v6a7vga0y2","60ef2700e476748689a999f7","infreq","","","img/blue_2bandit_b2.png","70","","68","test","0","","40","","","","circle","square","39","17","2","0.9230769230769231","","","","","","","",""
"null","1059494","SARL_v6","SARL_v6a7vga0y2","60ef2700e476748689a999f7","infreq_resp","","","img/blue_2bandit_b.png","70","img/blue_2bandit_b.png","68","test","","","","","","","","","","","2","","","","","","","","",""
"null","1059653","SARL_v6","SARL_v6a7vga0y2","60ef2700e476748689a999f7","fixation","","","img/fixation.png","null","","","test","","","","","","","","","","","","","","","","","","","",""
"370.40000009536743","1060028","SARL_v6","SARL_v6a7vga0y2","60ef2700e476748689a999f7","freq","","","img/orange_2bandit_b2.png","70","","70","test","1","","41","","","","circle","square","40","18","2","0.925","","","","","","","",""
"null","1060467","SARL_v6","SARL_v6a7vga0y2","60ef2700e476748689a999f7","freq_resp","","","img/orange_2bandit_b.png","70","img/orange_2bandit_b.png","70","test","","","","","","","","","","","2","","","","","","","","",""
"null","1060624","SARL_v6","SARL_v6a7vga0y2","60ef2700e476748689a999f7","fixation","","","img/fixation.png","null","","","test","","","","","","","","","","","","","","","","","","","",""
"331.89999985694885","1060960","SARL_v6","SARL_v6a7vga0y2","60ef2700e476748689a999f7","freq","","","img/orange_2bandit_b2.png","70","","70","test","1","","42","","","","circle","square","41","19","2","0.926829268292683","","","","","","","",""
"null","1061438","SARL_v6","SARL_v6a7vga0y2","60ef2700e476748689a999f7","freq_resp","","","img/orange_2bandit_b.png","70","img/orange_2bandit_b.png","70","test","","","","","","","","","","","2","","","","","","","","",""
"null","1061595","SARL_v6","SARL_v6a7vga0y2","60ef2700e476748689a999f7","fixation","","","img/fixation.png","null","","","test","","","","","","","","","","","","","","","","","","","",""
"285.39999985694885","1061886","SARL_v6","SARL_v6a7vga0y2","60ef2700e476748689a999f7","freq","","","img/orange_2bandit_b2.png","70","","70","test","1","","43","","","","circle","square","42","20","2","0.9285714285714286","","","","","","","",""
"null","1062421","SARL_v6","SARL_v6a7vga0y2","60ef2700e476748689a999f7","freq_resp","","","img/orange_2bandit_b.png","70","img/orange_2bandit_b.png","70","test","","","","","","","","","","","2","","","","","","","","",""
"null","1062588","SARL_v6","SARL_v6a7vga0y2","60ef2700e476748689a999f7","fixation","","","img/fixation.png","null","","","test","","","","","","","","","","","","","","","","","","","",""
"605.2000000476837","1063199","SARL_v6","SARL_v6a7vga0y2","60ef2700e476748689a999f7","rl","","","img/black_2bandit_b2.png","75","","0","test","","","44","","","-5","circle","square","","0","2","","75","-8","-5","-8","-5","square","2","0"
"null","1063974","SARL_v6","SARL_v6a7vga0y2","60ef2700e476748689a999f7","feedback","","","<div class=""verylowPoints_sq""> -5 </div>","null","","na","test","","","NaN","","","","","","","","2","","75","","","","","","2",""
"557.5","1064536","SARL_v6","SARL_v6a7vga0y2","60ef2700e476748689a999f7","freq","","","img/orange_2bandit_b2.png","70","","70","test","1","","45","","","","circle","square","43","1","3","0.9302325581395349","","","","","","","",""
"null","1064795","SARL_v6","SARL_v6a7vga0y2","60ef2700e476748689a999f7","freq_resp","","","img/orange_2bandit_b.png","70","img/orange_2bandit_b.png","70","test","","","","","","","","","","","3","","","","","","","","",""
"null","1064959","SARL_v6","SARL_v6a7vga0y2","60ef2700e476748689a999f7","fixation","","","img/fixation.png","null","","","test","","","","","","","","","","","","","","","","","","","",""
"265","1065230","SARL_v6","SARL_v6a7vga0y2","60ef2700e476748689a999f7","freq","","","img/orange_2bandit_b2.png","70","","70","test","1","","46","","","","circle","square","44","2","3","0.9318181818181818","","","","","","","",""
"null","1065771","SARL_v6","SARL_v6a7vga0y2","60ef2700e476748689a999f7","freq_resp","","","img/orange_2bandit_b.png","70","img/orange_2bandit_b.png","70","test","","","","","","","","","","","3","","","","","","","","",""
"null","1065926","SARL_v6","SARL_v6a7vga0y2","60ef2700e476748689a999f7","fixation","","","img/fixation.png","null","","","test","","","","","","","","","","","","","","","","","","","",""
"734.3999998569489","1066664","SARL_v6","SARL_v6a7vga0y2","60ef2700e476748689a999f7","freq","","","img/orange_2bandit_b2.png","70","","70","test","1","","47","","","","circle","square","45","3","3","0.9333333333333333","","","","","","","",""
"null","1066734","SARL_v6","SARL_v6a7vga0y2","60ef2700e476748689a999f7","freq_resp","","","img/orange_2bandit_b.png","70","img/orange_2bandit_b.png","70","test","","","","","","","","","","","3","","","","","","","","",""
"null","1066896","SARL_v6","SARL_v6a7vga0y2","60ef2700e476748689a999f7","fixation","","","img/fixation.png","null","","","test","","","","","","","","","","","","","","","","","","","",""
"532.7000000476837","1067433","SARL_v6","SARL_v6a7vga0y2","60ef2700e476748689a999f7","freq","","","img/orange_2bandit_b2.png","70","","70","test","1","","48","","","","circle","square","46","4","3","0.9347826086956522","","","","","","","",""
"null","1067722","SARL_v6","SARL_v6a7vga0y2","60ef2700e476748689a999f7","freq_resp","","","img/orange_2bandit_b.png","70","img/orange_2bandit_b.png","70","test","","","","","","","","","","","3","","","","","","","","",""
"null","1067895","SARL_v6","SARL_v6a7vga0y2","60ef2700e476748689a999f7","fixation","","","img/fixation.png","null","","","test","","","","","","","","","","","","","","","","","","","",""
"330.2000000476837","1068230","SARL_v6","SARL_v6a7vga0y2","60ef2700e476748689a999f7","freq","","","img/orange_2bandit_b2.png","70","","70","test","1","","49","","","","circle","square","47","5","3","0.9361702127659575","","","","","","","",""
"null","1068709","SARL_v6","SARL_v6a7vga0y2","60ef2700e476748689a999f7","freq_resp","","","img/orange_2bandit_b.png","70","img/orange_2bandit_b.png","70","test","","","","","","","","","","","3","","","","","","","","",""
"null","1068867","SARL_v6","SARL_v6a7vga0y2","60ef2700e476748689a999f7","fixation","","","img/fixation.png","null","","","test","","","","","","","","","","","","","","","","","","","",""
"435.7000000476837","1069307","SARL_v6","SARL_v6a7vga0y2","60ef2700e476748689a999f7","freq","","","img/orange_2bandit_b2.png","70","","70","test","1","","50","","","","circle","square","48","6","3","0.9375","","","","","","","",""
"null","1069687","SARL_v6","SARL_v6a7vga0y2","60ef2700e476748689a999f7","freq_resp","","","img/orange_2bandit_b.png","70","img/orange_2bandit_b.png","70","test","","","","","","","","","","","3","","","","","","","","",""
"null","1069858","SARL_v6","SARL_v6a7vga0y2","60ef2700e476748689a999f7","fixation","","","img/fixation.png","null","","","test","","","","","","","","","","","","","","","","","","","",""
"349.7999999523163","1070213","SARL_v6","SARL_v6a7vga0y2","60ef2700e476748689a999f7","freq","","","img/orange_2bandit_b2.png","70","","70","test","1","","51","","","","circle","square","49","7","3","0.9387755102040817","","","","","","","",""
"null","1070684","SARL_v6","SARL_v6a7vga0y2","60ef2700e476748689a999f7","freq_resp","","","img/orange_2bandit_b.png","70","img/orange_2bandit_b.png","70","test","","","","","","","","","","","3","","","","","","","","",""
"null","1070851","SARL_v6","SARL_v6a7vga0y2","60ef2700e476748689a999f7","fixation","","","img/fixation.png","null","","","test","","","","","","","","","","","","","","","","","","","",""
"288.19999980926514","1071144","SARL_v6","SARL_v6a7vga0y2","60ef2700e476748689a999f7","freq","","","img/orange_2bandit_b2.png","70","","70","test","1","","52","","","","circle","square","50","8","3","0.94","","","","","","","",""
"null","1071673","SARL_v6","SARL_v6a7vga0y2","60ef2700e476748689a999f7","freq_resp","","","img/orange_2bandit_b.png","70","img/orange_2bandit_b.png","70","test","","","","","","","","","","","3","","","","","","","","",""
"null","1071835","SARL_v6","SARL_v6a7vga0y2","60ef2700e476748689a999f7","fixation","","","img/fixation.png","null","","","test","","","","","","","","","","","","","","","","","","","",""
"661.7999999523163","1072503","SARL_v6","SARL_v6a7vga0y2","60ef2700e476748689a999f7","infreq","","","img/blue_2bandit_b2.png","68","","68","test","1","","53","","","","circle","square","51","9","3","0.9411764705882353","","","","","","","",""
"null","1072653","SARL_v6","SARL_v6a7vga0y2","60ef2700e476748689a999f7","infreq_resp","","","img/blue_2bandit_b.png","68","img/blue_2bandit_b.png","68","test","","","","","","","","","","","3","","","","","","","","",""
"null","1072817","SARL_v6","SARL_v6a7vga0y2","60ef2700e476748689a999f7","fixation","","","img/fixation.png","null","","","test","","","","","","","","","","","","","","","","","","","",""
"669.9000000953674","1073491","SARL_v6","SARL_v6a7vga0y2","60ef2700e476748689a999f7","freq","","","img/orange_2bandit_b2.png","70","","70","test","1","","54","","","","circle","square","52","10","3","0.9423076923076923","","","","","","","",""
"null","1073637","SARL_v6","SARL_v6a7vga0y2","60ef2700e476748689a999f7","freq_resp","","","img/orange_2bandit_b.png","70","img/orange_2bandit_b.png","70","test","","","","","","","","","","","3","","","","","","","","",""
"null","1073797","SARL_v6","SARL_v6a7vga0y2","60ef2700e476748689a999f7","fixation","","","img/fixation.png","null","","","test","","","","","","","","","","","","","","","","","","","",""
"370.40000009536743","1074171","SARL_v6","SARL_v6a7vga0y2","60ef2700e476748689a999f7","freq","","","img/orange_2bandit_b2.png","70","","70","test","1","","55","","","","circle","square","53","11","3","0.9433962264150944","","","","","","","",""
"null","1074622","SARL_v6","SARL_v6a7vga0y2","60ef2700e476748689a999f7","freq_resp","","","img/orange_2bandit_b.png","70","img/orange_2bandit_b.png","70","test","","","","","","","","","","","3","","","","","","","","",""
"null","1074793","SARL_v6","SARL_v6a7vga0y2","60ef2700e476748689a999f7","fixation","","","img/fixation.png","null","","","test","","","","","","","","","","","","","","","","","","","",""
"369.2999999523163","1075167","SARL_v6","SARL_v6a7vga0y2","60ef2700e476748689a999f7","infreq","","","img/blue_2bandit_b2.png","68","","68","test","1","","56","","","","circle","square","54","12","3","0.9444444444444444","","","","","","","",""
"null","1075620","SARL_v6","SARL_v6a7vga0y2","60ef2700e476748689a999f7","infreq_resp","","","img/blue_2bandit_b.png","68","img/blue_2bandit_b.png","68","test","","","","","","","","","","","3","","","","","","","","",""
"null","1075789","SARL_v6","SARL_v6a7vga0y2","60ef2700e476748689a999f7","fixation","","","img/fixation.png","null","","","test","","","","","","","","","","","","","","","","","","","",""
"386.7999999523163","1076181","SARL_v6","SARL_v6a7vga0y2","60ef2700e476748689a999f7","freq","","","img/orange_2bandit_b2.png","70","","70","test","1","","57","","","","circle","square","55","13","3","0.9454545454545454","","","","","","","",""
"null","1076602","SARL_v6","SARL_v6a7vga0y2","60ef2700e476748689a999f7","freq_resp","","","img/orange_2bandit_b.png","70","img/orange_2bandit_b.png","70","test","","","","","","","","","","","3","","","","","","","","",""
"null","1076768","SARL_v6","SARL_v6a7vga0y2","60ef2700e476748689a999f7","fixation","","","img/fixation.png","null","","","test","","","","","","","","","","","","","","","","","","","",""
"277.7999999523163","1077050","SARL_v6","SARL_v6a7vga0y2","60ef2700e476748689a999f7","freq","","","img/orange_2bandit_b2.png","70","","70","test","1","","58","","","","circle","square","56","14","3","0.9464285714285714","","","","","","","",""
"null","1077588","SARL_v6","SARL_v6a7vga0y2","60ef2700e476748689a999f7","freq_resp","","","img/orange_2bandit_b.png","70","img/orange_2bandit_b.png","70","test","","","","","","","","","","","3","","","","","","","","",""
"null","1077752","SARL_v6","SARL_v6a7vga0y2","60ef2700e476748689a999f7","fixation","","","img/fixation.png","null","","","test","","","","","","","","","","","","","","","","","","","",""
"309.2999999523163","1078067","SARL_v6","SARL_v6a7vga0y2","60ef2700e476748689a999f7","freq","","","img/orange_2bandit_b2.png","70","","70","test","1","","59","","","","circle","square","57","15","3","0.9473684210526315","","","","","","","",""
"null","1078567","SARL_v6","SARL_v6a7vga0y2","60ef2700e476748689a999f7","freq_resp","","","img/orange_2bandit_b.png","70","img/orange_2bandit_b.png","70","test","","","","","","","","","","","3","","","","","","","","",""
"null","1078732","SARL_v6","SARL_v6a7vga0y2","60ef2700e476748689a999f7","fixation","","","img/fixation.png","null","","","test","","","","","","","","","","","","","","","","","","","",""
"250.90000009536743","1078987","SARL_v6","SARL_v6a7vga0y2","60ef2700e476748689a999f7","freq","","","img/orange_2bandit_b2.png","70","","70","test","1","","60","","","","circle","square","58","16","3","0.9482758620689655","","","","","","","",""
"null","1079558","SARL_v6","SARL_v6a7vga0y2","60ef2700e476748689a999f7","freq_resp","","","img/orange_2bandit_b.png","70","img/orange_2bandit_b.png","70","test","","","","","","","","","","","3","","","","","","","","",""
"null","1079726","SARL_v6","SARL_v6a7vga0y2","60ef2700e476748689a999f7","fixation","","","img/fixation.png","null","","","test","","","","","","","","","","","","","","","","","","","",""
"256.5","1079988","SARL_v6","SARL_v6a7vga0y2","60ef2700e476748689a999f7","freq","","","img/orange_2bandit_b2.png","70","","70","test","1","","61","","","","circle","square","59","17","3","0.9491525423728814","","","","","","","",""
"null","1080537","SARL_v6","SARL_v6a7vga0y2","60ef2700e476748689a999f7","freq_resp","","","img/orange_2bandit_b.png","70","img/orange_2bandit_b.png","70","test","","","","","","","","","","","3","","","","","","","","",""
"null","1080695","SARL_v6","SARL_v6a7vga0y2","60ef2700e476748689a999f7","fixation","","","img/fixation.png","null","","","test","","","","","","","","","","","","","","","","","","","",""
"313.7999999523163","1081013","SARL_v6","SARL_v6a7vga0y2","60ef2700e476748689a999f7","freq","","","img/orange_2bandit_b2.png","70","","70","test","1","","62","","","","circle","square","60","18","3","0.95","","","","","","","",""
"null","1081510","SARL_v6","SARL_v6a7vga0y2","60ef2700e476748689a999f7","freq_resp","","","img/orange_2bandit_b.png","70","img/orange_2bandit_b.png","70","test","","","","","","","","","","","3","","","","","","","","",""
"null","1081669","SARL_v6","SARL_v6a7vga0y2","60ef2700e476748689a999f7","fixation","","","img/fixation.png","null","","","test","","","","","","","","","","","","","","","","","","","",""
"251.10000014305115","1081925","SARL_v6","SARL_v6a7vga0y2","60ef2700e476748689a999f7","freq","","","img/orange_2bandit_b2.png","70","","70","test","1","","63","","","","circle","square","61","19","3","0.9508196721311475","","","","","","","",""
"null","1082495","SARL_v6","SARL_v6a7vga0y2","60ef2700e476748689a999f7","freq_resp","","","img/orange_2bandit_b.png","70","img/orange_2bandit_b.png","70","test","","","","","","","","","","","3","","","","","","","","",""
"null","1082670","SARL_v6","SARL_v6a7vga0y2","60ef2700e476748689a999f7","fixation","","","img/fixation.png","null","","","test","","","","","","","","","","","","","","","","","","","",""
"318.7000000476837","1082993","SARL_v6","SARL_v6a7vga0y2","60ef2700e476748689a999f7","freq","","","img/orange_2bandit_b2.png","70","","70","test","1","","64","","","","circle","square","62","20","3","0.9516129032258065","","","","","","","",""
"null","1083485","SARL_v6","SARL_v6a7vga0y2","60ef2700e476748689a999f7","freq_resp","","","img/orange_2bandit_b.png","70","img/orange_2bandit_b.png","70","test","","","","","","","","","","","3","","","","","","","","",""
"null","1083657","SARL_v6","SARL_v6a7vga0y2","60ef2700e476748689a999f7","fixation","","","img/fixation.png","null","","","test","","","","","","","","","","","","","","","","","","","",""
"241.69999980926514","1083904","SARL_v6","SARL_v6a7vga0y2","60ef2700e476748689a999f7","freq","","","img/orange_2bandit_b2.png","70","","70","test","1","","65","","","","circle","square","63","21","3","0.9523809523809523","","","","","","","",""
"null","1084481","SARL_v6","SARL_v6a7vga0y2","60ef2700e476748689a999f7","freq_resp","","","img/orange_2bandit_b.png","70","img/orange_2bandit_b.png","70","test","","","","","","","","","","","3","","","","","","","","",""
"null","1084638","SARL_v6","SARL_v6a7vga0y2","60ef2700e476748689a999f7","fixation","","","img/fixation.png","null","","","test","","","","","","","","","","","","","","","","","","","",""
"358.60000014305115","1084999","SARL_v6","SARL_v6a7vga0y2","60ef2700e476748689a999f7","freq","","","img/orange_2bandit_b2.png","70","","70","test","1","","66","","","","circle","square","64","22","3","0.953125","","","","","","","",""
"null","1085447","SARL_v6","SARL_v6a7vga0y2","60ef2700e476748689a999f7","freq_resp","","","img/orange_2bandit_b.png","70","img/orange_2bandit_b.png","70","test","","","","","","","","","","","3","","","","","","","","",""
"null","1085607","SARL_v6","SARL_v6a7vga0y2","60ef2700e476748689a999f7","fixation","","","img/fixation.png","null","","","test","","","","","","","","","","","","","","","","","","","",""
"289.80000019073486","1085899","SARL_v6","SARL_v6a7vga0y2","60ef2700e476748689a999f7","freq","","","img/orange_2bandit_b2.png","70","","70","test","1","","67","","","","circle","square","65","23","3","0.9538461538461539","","","","","","","",""
"null","1086419","SARL_v6","SARL_v6a7vga0y2","60ef2700e476748689a999f7","freq_resp","","","img/orange_2bandit_b.png","70","img/orange_2bandit_b.png","70","test","","","","","","","","","","","3","","","","","","","","",""
"null","1086576","SARL_v6","SARL_v6a7vga0y2","60ef2700e476748689a999f7","fixation","","","img/fixation.png","null","","","test","","","","","","","","","","","","","","","","","","","",""
"805.2999999523163","1087385","SARL_v6","SARL_v6a7vga0y2","60ef2700e476748689a999f7","rl","","","img/black_2bandit_b2.png","74","","0","test","","","68","","","-8","circle","square","","0","3","","74","-8","-4","-8","-4","circle","3","0"
"null","1088141","SARL_v6","SARL_v6a7vga0y2","60ef2700e476748689a999f7","feedback","","","<div class=""verylowPoints""> -8 </div>","null","","na","test","","","NaN","","","","","","","","3","","74","","","","","","3",""
"null","1088965","SARL_v6","SARL_v6a7vga0y2","60ef2700e476748689a999f7","freq","","","img/orange_2bandit_b2.png","null","","70","test","0","","69","","","","circle","square","66","1","4","0.9393939393939394","","","","","","","",""
"null","1089125","SARL_v6","SARL_v6a7vga0y2","60ef2700e476748689a999f7","fixation","","","img/fixation.png","null","","","test","","","","","","","","","","","","","","","","","","","",""
"53.799999952316284","1089182","SARL_v6","SARL_v6a7vga0y2","60ef2700e476748689a999f7","freq","","","img/orange_2bandit_b2.png","70","","70","test","1","","70","","","","circle","square","67","2","4","0.9402985074626866","","","","","","","",""
"null","1089935","SARL_v6","SARL_v6a7vga0y2","60ef2700e476748689a999f7","freq_resp","","","img/orange_2bandit_b.png","70","img/orange_2bandit_b.png","70","test","","","","","","","","","","","4","","","","","","","","",""
"null","1090090","SARL_v6","SARL_v6a7vga0y2","60ef2700e476748689a999f7","fixation","","","img/fixation.png","null","","","test","","","","","","","","","","","","","","","","","","","",""
"null","1090909","SARL_v6","SARL_v6a7vga0y2","60ef2700e476748689a999f7","freq","","","img/orange_2bandit_b2.png","null","","70","test","0","","71","","","","circle","square","68","3","4","0.9264705882352942","","","","","","","",""
"null","1091075","SARL_v6","SARL_v6a7vga0y2","60ef2700e476748689a999f7","fixation","","","img/fixation.png","null","","","test","","","","","","","","","","","","","","","","","","","",""
"53.200000047683716","1091134","SARL_v6","SARL_v6a7vga0y2","60ef2700e476748689a999f7","infreq","","","img/blue_2bandit_b2.png","70","","68","test","0","","72","","","","circle","square","69","4","4","0.9130434782608695","","","","","","","",""
"null","1091895","SARL_v6","SARL_v6a7vga0y2","60ef2700e476748689a999f7","infreq_resp","","","img/blue_2bandit_b.png","70","img/blue_2bandit_b.png","68","test","","","","","","","","","","","4","","","","","","","","",""
"null","1092053","SARL_v6","SARL_v6a7vga0y2","60ef2700e476748689a999f7","fixation","","","img/fixation.png","null","","","test","","","","","","","","","","","","","","","","","","","",""
"589.5","1092648","SARL_v6","SARL_v6a7vga0y2","60ef2700e476748689a999f7","freq","","","img/orange_2bandit_b2.png","70","","70","test","1","","73","","","","circle","square","70","5","4","0.9142857142857143","","","","","","","",""
"null","1092867","SARL_v6","SARL_v6a7vga0y2","60ef2700e476748689a999f7","freq_resp","","","img/orange_2bandit_b.png","70","img/orange_2bandit_b.png","70","test","","","","","","","","","","","4","","","","","","","","",""
"null","1093032","SARL_v6","SARL_v6a7vga0y2","60ef2700e476748689a999f7","fixation","","","img/fixation.png","null","","","test","","","","","","","","","","","","","","","","","","","",""
"558","1093594","SARL_v6","SARL_v6a7vga0y2","60ef2700e476748689a999f7","freq","","","img/orange_2bandit_b2.png","70","","70","test","1","","74","","","","circle","square","71","6","4","0.9154929577464789","","","","","","","",""
"null","1093852","SARL_v6","SARL_v6a7vga0y2","60ef2700e476748689a999f7","freq_resp","","","img/orange_2bandit_b.png","70","img/orange_2bandit_b.png","70","test","","","","","","","","","","","4","","","","","","","","",""
"null","1094013","SARL_v6","SARL_v6a7vga0y2","60ef2700e476748689a999f7","fixation","","","img/fixation.png","null","","","test","","","","","","","","","","","","","","","","","","","",""
"379.59999990463257","1094397","SARL_v6","SARL_v6a7vga0y2","60ef2700e476748689a999f7","freq","","","img/orange_2bandit_b2.png","70","","70","test","1","","75","","","","circle","square","72","7","4","0.9166666666666666","","","","","","","",""
"null","1094828","SARL_v6","SARL_v6a7vga0y2","60ef2700e476748689a999f7","freq_resp","","","img/orange_2bandit_b.png","70","img/orange_2bandit_b.png","70","test","","","","","","","","","","","4","","","","","","","","",""
"null","1094994","SARL_v6","SARL_v6a7vga0y2","60ef2700e476748689a999f7","fixation","","","img/fixation.png","null","","","test","","","","","","","","","","","","","","","","","","","",""
"333.59999990463257","1095331","SARL_v6","SARL_v6a7vga0y2","60ef2700e476748689a999f7","freq","","","img/orange_2bandit_b2.png","70","","70","test","1","","76","","","","circle","square","73","8","4","0.9178082191780822","","","","","","","",""
"null","1095816","SARL_v6","SARL_v6a7vga0y2","60ef2700e476748689a999f7","freq_resp","","","img/orange_2bandit_b.png","70","img/orange_2bandit_b.png","70","test","","","","","","","","","","","4","","","","","","","","",""
"null","1095976","SARL_v6","SARL_v6a7vga0y2","60ef2700e476748689a999f7","fixation","","","img/fixation.png","null","","","test","","","","","","","","","","","","","","","","","","","",""
"321.89999985694885","1096303","SARL_v6","SARL_v6a7vga0y2","60ef2700e476748689a999f7","freq","","","img/orange_2bandit_b2.png","70","","70","test","1","","77","","","","circle","square","74","9","4","0.918918918918919","","","","","","","",""
"null","1096791","SARL_v6","SARL_v6a7vga0y2","60ef2700e476748689a999f7","freq_resp","","","img/orange_2bandit_b.png","70","img/orange_2bandit_b.png","70","test","","","","","","","","","","","4","","","","","","","","",""
"null","1096959","SARL_v6","SARL_v6a7vga0y2","60ef2700e476748689a999f7","fixation","","","img/fixation.png","null","","","test","","","","","","","","","","","","","","","","","","","",""
"356.89999985694885","1097321","SARL_v6","SARL_v6a7vga0y2","60ef2700e476748689a999f7","freq","","","img/orange_2bandit_b2.png","70","","70","test","1","","78","","","","circle","square","75","10","4","0.92","","","","","","","",""
"null","1097775","SARL_v6","SARL_v6a7vga0y2","60ef2700e476748689a999f7","freq_resp","","","img/orange_2bandit_b.png","70","img/orange_2bandit_b.png","70","test","","","","","","","","","","","4","","","","","","","","",""
"null","1097939","SARL_v6","SARL_v6a7vga0y2","60ef2700e476748689a999f7","fixation","","","img/fixation.png","null","","","test","","","","","","","","","","","","","","","","","","","",""
"285.90000009536743","1098229","SARL_v6","SARL_v6a7vga0y2","60ef2700e476748689a999f7","freq","","","img/orange_2bandit_b2.png","70","","70","test","1","","79","","","","circle","square","76","11","4","0.9210526315789473","","","","","","","",""
"null","1098755","SARL_v6","SARL_v6a7vga0y2","60ef2700e476748689a999f7","freq_resp","","","img/orange_2bandit_b.png","70","img/orange_2bandit_b.png","70","test","","","","","","","","","","","4","","","","","","","","",""
"null","1098919","SARL_v6","SARL_v6a7vga0y2","60ef2700e476748689a999f7","fixation","","","img/fixation.png","null","","","test","","","","","","","","","","","","","","","","","","","",""
"359.80000019073486","1099283","SARL_v6","SARL_v6a7vga0y2","60ef2700e476748689a999f7","freq","","","img/orange_2bandit_b2.png","70","","70","test","1","","80","","","","circle","square","77","12","4","0.922077922077922","","","","","","","",""
"null","1099738","SARL_v6","SARL_v6a7vga0y2","60ef2700e476748689a999f7","freq_resp","","","img/orange_2bandit_b.png","70","img/orange_2bandit_b.png","70","test","","","","","","","","","","","4","","","","","","","","",""
"null","1099895","SARL_v6","SARL_v6a7vga0y2","60ef2700e476748689a999f7","fixation","","","img/fixation.png","null","","","test","","","","","","","","","","","","","","","","","","","",""
"308.19999980926514","1100209","SARL_v6","SARL_v6a7vga0y2","60ef2700e476748689a999f7","freq","","","img/orange_2bandit_b2.png","70","","70","test","1","","81","","","","circle","square","78","13","4","0.9230769230769231","","","","","","","",""
"null","1100707","SARL_v6","SARL_v6a7vga0y2","60ef2700e476748689a999f7","freq_resp","","","img/orange_2bandit_b.png","70","img/orange_2bandit_b.png","70","test","","","","","","","","","","","4","","","","","","","","",""
"null","1100870","SARL_v6","SARL_v6a7vga0y2","60ef2700e476748689a999f7","fixation","","","img/fixation.png","null","","","test","","","","","","","","","","","","","","","","","","","",""
"277.60000014305115","1101153","SARL_v6","SARL_v6a7vga0y2","60ef2700e476748689a999f7","freq","","","img/orange_2bandit_b2.png","70","","70","test","1","","82","","","","circle","square","79","14","4","0.9240506329113924","","","","","","","",""
"null","1101691","SARL_v6","SARL_v6a7vga0y2","60ef2700e476748689a999f7","freq_resp","","","img/orange_2bandit_b.png","70","img/orange_2bandit_b.png","70","test","","","","","","","","","","","4","","","","","","","","",""
"null","1101846","SARL_v6","SARL_v6a7vga0y2","60ef2700e476748689a999f7","fixation","","","img/fixation.png","null","","","test","","","","","","","","","","","","","","","","","","","",""
"357.2000000476837","1102208","SARL_v6","SARL_v6a7vga0y2","60ef2700e476748689a999f7","freq","","","img/orange_2bandit_b2.png","70","","70","test","1","","83","","","","circle","square","80","15","4","0.925","","","","","","","",""
"null","1102657","SARL_v6","SARL_v6a7vga0y2","60ef2700e476748689a999f7","freq_resp","","","img/orange_2bandit_b.png","70","img/orange_2bandit_b.png","70","test","","","","","","","","","","","4","","","","","","","","",""
"null","1102829","SARL_v6","SARL_v6a7vga0y2","60ef2700e476748689a999f7","fixation","","","img/fixation.png","null","","","test","","","","","","","","","","","","","","","","","","","",""
"267.7000000476837","1103102","SARL_v6","SARL_v6a7vga0y2","60ef2700e476748689a999f7","freq","","","img/orange_2bandit_b2.png","70","","70","test","1","","84","","","","circle","square","81","16","4","0.9259259259259259","","","","","","","",""
"null","1103655","SARL_v6","SARL_v6a7vga0y2","60ef2700e476748689a999f7","freq_resp","","","img/orange_2bandit_b.png","70","img/orange_2bandit_b.png","70","test","","","","","","","","","","","4","","","","","","","","",""
"null","1103814","SARL_v6","SARL_v6a7vga0y2","60ef2700e476748689a999f7","fixation","","","img/fixation.png","null","","","test","","","","","","","","","","","","","","","","","","","",""
"458.90000009536743","1104277","SARL_v6","SARL_v6a7vga0y2","60ef2700e476748689a999f7","infreq","","","img/blue_2bandit_b2.png","68","","68","test","1","","85","","","","circle","square","82","17","4","0.926829268292683","","","","","","","",""
"null","1104625","SARL_v6","SARL_v6a7vga0y2","60ef2700e476748689a999f7","infreq_resp","","","img/blue_2bandit_b.png","68","img/blue_2bandit_b.png","68","test","","","","","","","","","","","4","","","","","","","","",""
"null","1104797","SARL_v6","SARL_v6a7vga0y2","60ef2700e476748689a999f7","fixation","","","img/fixation.png","null","","","test","","","","","","","","","","","","","","","","","","","",""
"440.7999999523163","1105240","SARL_v6","SARL_v6a7vga0y2","60ef2700e476748689a999f7","freq","","","img/orange_2bandit_b2.png","70","","70","test","1","","86","","","","circle","square","83","18","4","0.927710843373494","","","","","","","",""
"null","1105604","SARL_v6","SARL_v6a7vga0y2","60ef2700e476748689a999f7","freq_resp","","","img/orange_2bandit_b.png","70","img/orange_2bandit_b.png","70","test","","","","","","","","","","","4","","","","","","","","",""
"null","1105757","SARL_v6","SARL_v6a7vga0y2","60ef2700e476748689a999f7","fixation","","","img/fixation.png","null","","","test","","","","","","","","","","","","","","","","","","","",""
"303","1106062","SARL_v6","SARL_v6a7vga0y2","60ef2700e476748689a999f7","freq","","","img/orange_2bandit_b2.png","70","","70","test","1","","87","","","","circle","square","84","19","4","0.9285714285714286","","","","","","","",""
"null","1106578","SARL_v6","SARL_v6a7vga0y2","60ef2700e476748689a999f7","freq_resp","","","img/orange_2bandit_b.png","70","img/orange_2bandit_b.png","70","test","","","","","","","","","","","4","","","","","","","","",""
"null","1106744","SARL_v6","SARL_v6a7vga0y2","60ef2700e476748689a999f7","fixation","","","img/fixation.png","null","","","test","","","","","","","","","","","","","","","","","","","",""
"238.40000009536743","1106986","SARL_v6","SARL_v6a7vga0y2","60ef2700e476748689a999f7","freq","","","img/orange_2bandit_b2.png","70","","70","test","1","","88","","","","circle","square","85","20","4","0.9294117647058824","","","","","","","",""
"null","1107565","SARL_v6","SARL_v6a7vga0y2","60ef2700e476748689a999f7","freq_resp","","","img/orange_2bandit_b.png","70","img/orange_2bandit_b.png","70","test","","","","","","","","","","","4","","","","","","","","",""
"null","1107736","SARL_v6","SARL_v6a7vga0y2","60ef2700e476748689a999f7","fixation","","","img/fixation.png","null","","","test","","","","","","","","","","","","","","","","","","","",""
"286.80000019073486","1108026","SARL_v6","SARL_v6a7vga0y2","60ef2700e476748689a999f7","freq","","","img/orange_2bandit_b2.png","70","","70","test","1","","89","","","","circle","square","86","21","4","0.9302325581395349","","","","","","","",""
"null","1108549","SARL_v6","SARL_v6a7vga0y2","60ef2700e476748689a999f7","freq_resp","","","img/orange_2bandit_b.png","70","img/orange_2bandit_b.png","70","test","","","","","","","","","","","4","","","","","","","","",""
"null","1108709","SARL_v6","SARL_v6a7vga0y2","60ef2700e476748689a999f7","fixation","","","img/fixation.png","null","","","test","","","","","","","","","","","","","","","","","","","",""
"239.79999995231628","1108955","SARL_v6","SARL_v6a7vga0y2","60ef2700e476748689a999f7","freq","","","img/orange_2bandit_b2.png","70","","70","test","1","","90","","","","circle","square","87","22","4","0.9310344827586207","","","","","","","",""
"null","1109528","SARL_v6","SARL_v6a7vga0y2","60ef2700e476748689a999f7","freq_resp","","","img/orange_2bandit_b.png","70","img/orange_2bandit_b.png","70","test","","","","","","","","","","","4","","","","","","","","",""
"null","1109685","SARL_v6","SARL_v6a7vga0y2","60ef2700e476748689a999f7","fixation","","","img/fixation.png","null","","","test","","","","","","","","","","","","","","","","","","","",""
"536","1110225","SARL_v6","SARL_v6a7vga0y2","60ef2700e476748689a999f7","rl","","","img/black_2bandit_b2.png","74","","0","test","","","91","","","-12","circle","square","","0","4","","74","-12","0","-12","0","circle","4","0"
"null","1110996","SARL_v6","SARL_v6a7vga0y2","60ef2700e476748689a999f7","feedback","","","<div class=""verylowPoints""> -12 </div>","null","","na","test","","","NaN","","","","","","","","4","","74","","","","","","4",""
"478.2999999523163","1111477","SARL_v6","SARL_v6a7vga0y2","60ef2700e476748689a999f7","freq","","","img/orange_2bandit_b2.png","70","","70","test","1","","92","","","","circle","square","88","1","5","0.9318181818181818","","","","","","","",""
"null","1111811","SARL_v6","SARL_v6a7vga0y2","60ef2700e476748689a999f7","freq_resp","","","img/orange_2bandit_b.png","70","img/orange_2bandit_b.png","70","test","","","","","","","","","","","5","","","","","","","","",""
"null","1111968","SARL_v6","SARL_v6a7vga0y2","60ef2700e476748689a999f7","fixation","","","img/fixation.png","null","","","test","","","","","","","","","","","","","","","","","","","",""
"283.90000009536743","1112256","SARL_v6","SARL_v6a7vga0y2","60ef2700e476748689a999f7","freq","","","img/orange_2bandit_b2.png","70","","70","test","1","","93","","","","circle","square","89","2","5","0.9325842696629213","","","","","","","",""
"null","1112796","SARL_v6","SARL_v6a7vga0y2","60ef2700e476748689a999f7","freq_resp","","","img/orange_2bandit_b.png","70","img/orange_2bandit_b.png","70","test","","","","","","","","","","","5","","","","","","","","",""
"null","1112967","SARL_v6","SARL_v6a7vga0y2","60ef2700e476748689a999f7","fixation","","","img/fixation.png","null","","","test","","","","","","","","","","","","","","","","","","","",""
"232","1113203","SARL_v6","SARL_v6a7vga0y2","60ef2700e476748689a999f7","freq","","","img/orange_2bandit_b2.png","70","","70","test","1","","94","","","","circle","square","90","3","5","0.9333333333333333","","","","","","","",""
"null","1113786","SARL_v6","SARL_v6a7vga0y2","60ef2700e476748689a999f7","freq_resp","","","img/orange_2bandit_b.png","70","img/orange_2bandit_b.png","70","test","","","","","","","","","","","5","","","","","","","","",""
"null","1113950","SARL_v6","SARL_v6a7vga0y2","60ef2700e476748689a999f7","fixation","","","img/fixation.png","null","","","test","","","","","","","","","","","","","","","","","","","",""
"135.09999990463257","1114089","SARL_v6","SARL_v6a7vga0y2","60ef2700e476748689a999f7","freq","","","img/orange_2bandit_b2.png","70","","70","test","1","","95","","","","circle","square","91","4","5","0.9340659340659341","","","","","","","",""
"null","1114774","SARL_v6","SARL_v6a7vga0y2","60ef2700e476748689a999f7","freq_resp","","","img/orange_2bandit_b.png","70","img/orange_2bandit_b.png","70","test","","","","","","","","","","","5","","","","","","","","",""
"null","1114948","SARL_v6","SARL_v6a7vga0y2","60ef2700e476748689a999f7","fixation","","","img/fixation.png","null","","","test","","","","","","","","","","","","","","","","","","","",""
"172.20000004768372","1115125","SARL_v6","SARL_v6a7vga0y2","60ef2700e476748689a999f7","freq","","","img/orange_2bandit_b2.png","70","","70","test","1","","96","","","","circle","square","92","5","5","0.9347826086956522","","","","","","","",""
"null","1115773","SARL_v6","SARL_v6a7vga0y2","60ef2700e476748689a999f7","freq_resp","","","img/orange_2bandit_b.png","70","img/orange_2bandit_b.png","70","test","","","","","","","","","","","5","","","","","","","","",""
"null","1115933","SARL_v6","SARL_v6a7vga0y2","60ef2700e476748689a999f7","fixation","","","img/fixation.png","null","","","test","","","","","","","","","","","","","","","","","","","",""
"170.29999995231628","1116109","SARL_v6","SARL_v6a7vga0y2","60ef2700e476748689a999f7","freq","","","img/orange_2bandit_b2.png","70","","70","test","1","","97","","","","circle","square","93","6","5","0.9354838709677419","","","","","","","",""
"null","1116758","SARL_v6","SARL_v6a7vga0y2","60ef2700e476748689a999f7","freq_resp","","","img/orange_2bandit_b.png","70","img/orange_2bandit_b.png","70","test","","","","","","","","","","","5","","","","","","","","",""
"null","1116926","SARL_v6","SARL_v6a7vga0y2","60ef2700e476748689a999f7","fixation","","","img/fixation.png","null","","","test","","","","","","","","","","","","","","","","","","","",""
"201.70000004768372","1117134","SARL_v6","SARL_v6a7vga0y2","60ef2700e476748689a999f7","freq","","","img/orange_2bandit_b2.png","70","","70","test","1","","98","","","","circle","square","94","7","5","0.9361702127659575","","","","","","","",""
"null","1117755","SARL_v6","SARL_v6a7vga0y2","60ef2700e476748689a999f7","freq_resp","","","img/orange_2bandit_b.png","70","img/orange_2bandit_b.png","70","test","","","","","","","","","","","5","","","","","","","","",""
"null","1117911","SARL_v6","SARL_v6a7vga0y2","60ef2700e476748689a999f7","fixation","","","img/fixation.png","null","","","test","","","","","","","","","","","","","","","","","","","",""
"271.30000019073486","1118186","SARL_v6","SARL_v6a7vga0y2","60ef2700e476748689a999f7","freq","","","img/orange_2bandit_b2.png","70","","70","test","1","","99","","","","circle","square","95","8","5","0.9368421052631579","","","","","","","",""
"null","1118720","SARL_v6","SARL_v6a7vga0y2","60ef2700e476748689a999f7","freq_resp","","","img/orange_2bandit_b.png","70","img/orange_2bandit_b.png","70","test","","","","","","","","","","","5","","","","","","","","",""
"null","1118875","SARL_v6","SARL_v6a7vga0y2","60ef2700e476748689a999f7","fixation","","","img/fixation.png","null","","","test","","","","","","","","","","","","","","","","","","","",""
"247.39999985694885","1119127","SARL_v6","SARL_v6a7vga0y2","60ef2700e476748689a999f7","freq","","","img/orange_2bandit_b2.png","70","","70","test","1","","100","","","","circle","square","96","9","5","0.9375","","","","","","","",""
"null","1119693","SARL_v6","SARL_v6a7vga0y2","60ef2700e476748689a999f7","freq_resp","","","img/orange_2bandit_b.png","70","img/orange_2bandit_b.png","70","test","","","","","","","","","","","5","","","","","","","","",""
"null","1119866","SARL_v6","SARL_v6a7vga0y2","60ef2700e476748689a999f7","fixation","","","img/fixation.png","null","","","test","","","","","","","","","","","","","","","","","","","",""
"306.7000000476837","1120177","SARL_v6","SARL_v6a7vga0y2","60ef2700e476748689a999f7","freq","","","img/orange_2bandit_b2.png","70","","70","test","1","","101","","","","circle","square","97","10","5","0.9381443298969072","","","","","","","",""
"null","1120678","SARL_v6","SARL_v6a7vga0y2","60ef2700e476748689a999f7","freq_resp","","","img/orange_2bandit_b.png","70","img/orange_2bandit_b.png","70","test","","","","","","","","","","","5","","","","","","","","",""
"null","1120836","SARL_v6","SARL_v6a7vga0y2","60ef2700e476748689a999f7","fixation","","","img/fixation.png","null","","","test","","","","","","","","","","","","","","","","","","","",""
"308.90000009536743","1121150","SARL_v6","SARL_v6a7vga0y2","60ef2700e476748689a999f7","freq","","","img/orange_2bandit_b2.png","70","","70","test","1","","102","","","","circle","square","98","11","5","0.9387755102040817","","","","","","","",""
"null","1121657","SARL_v6","SARL_v6a7vga0y2","60ef2700e476748689a999f7","freq_resp","","","img/orange_2bandit_b.png","70","img/orange_2bandit_b.png","70","test","","","","","","","","","","","5","","","","","","","","",""
"null","1121815","SARL_v6","SARL_v6a7vga0y2","60ef2700e476748689a999f7","fixation","","","img/fixation.png","null","","","test","","","","","","","","","","","","","","","","","","","",""
"290.40000009536743","1122111","SARL_v6","SARL_v6a7vga0y2","60ef2700e476748689a999f7","freq","","","img/orange_2bandit_b2.png","70","","70","test","1","","103","","","","circle","square","99","12","5","0.9393939393939394","","","","","","","",""
"null","1122635","SARL_v6","SARL_v6a7vga0y2","60ef2700e476748689a999f7","freq_resp","","","img/orange_2bandit_b.png","70","img/orange_2bandit_b.png","70","test","","","","","","","","","","","5","","","","","","","","",""
"null","1122804","SARL_v6","SARL_v6a7vga0y2","60ef2700e476748689a999f7","fixation","","","img/fixation.png","null","","","test","","","","","","","","","","","","","","","","","","","",""
"324.10000014305115","1123133","SARL_v6","SARL_v6a7vga0y2","60ef2700e476748689a999f7","freq","","","img/orange_2bandit_b2.png","70","","70","test","1","","104","","","","circle","square","100","13","5","0.94","","","","","","","",""
"null","1123622","SARL_v6","SARL_v6a7vga0y2","60ef2700e476748689a999f7","freq_resp","","","img/orange_2bandit_b.png","70","img/orange_2bandit_b.png","70","test","","","","","","","","","","","5","","","","","","","","",""
"null","1123795","SARL_v6","SARL_v6a7vga0y2","60ef2700e476748689a999f7","fixation","","","img/fixation.png","null","","","test","","","","","","","","","","","","","","","","","","","",""
"327.2000000476837","1124126","SARL_v6","SARL_v6a7vga0y2","60ef2700e476748689a999f7","freq","","","img/orange_2bandit_b2.png","70","","70","test","1","","105","","","","circle","square","101","14","5","0.9405940594059405","","","","","","","",""
"null","1124609","SARL_v6","SARL_v6a7vga0y2","60ef2700e476748689a999f7","freq_resp","","","img/orange_2bandit_b.png","70","img/orange_2bandit_b.png","70","test","","","","","","","","","","","5","","","","","","","","",""
"null","1124775","SARL_v6","SARL_v6a7vga0y2","60ef2700e476748689a999f7","fixation","","","img/fixation.png","null","","","test","","","","","","","","","","","","","","","","","","","",""
"343.7999999523163","1125123","SARL_v6","SARL_v6a7vga0y2","60ef2700e476748689a999f7","freq","","","img/orange_2bandit_b2.png","70","","70","test","1","","106","","","","circle","square","102","15","5","0.9411764705882353","","","","","","","",""
"null","1125595","SARL_v6","SARL_v6a7vga0y2","60ef2700e476748689a999f7","freq_resp","","","img/orange_2bandit_b.png","70","img/orange_2bandit_b.png","70","test","","","","","","","","","","","5","","","","","","","","",""
"null","1125753","SARL_v6","SARL_v6a7vga0y2","60ef2700e476748689a999f7","fixation","","","img/fixation.png","null","","","test","","","","","","","","","","","","","","","","","","","",""
"269.90000009536743","1126028","SARL_v6","SARL_v6a7vga0y2","60ef2700e476748689a999f7","freq","","","img/orange_2bandit_b2.png","70","","70","test","1","","107","","","","circle","square","103","16","5","0.941747572815534","","","","","","","",""
"null","1126566","SARL_v6","SARL_v6a7vga0y2","60ef2700e476748689a999f7","freq_resp","","","img/orange_2bandit_b.png","70","img/orange_2bandit_b.png","70","test","","","","","","","","","","","5","","","","","","","","",""
"null","1126725","SARL_v6","SARL_v6a7vga0y2","60ef2700e476748689a999f7","fixation","","","img/fixation.png","null","","","test","","","","","","","","","","","","","","","","","","","",""
"320.10000014305115","1127050","SARL_v6","SARL_v6a7vga0y2","60ef2700e476748689a999f7","infreq","","","img/blue_2bandit_b2.png","70","","68","test","0","","108","","","","circle","square","104","17","5","0.9326923076923077","","","","","","","",""
"null","1127546","SARL_v6","SARL_v6a7vga0y2","60ef2700e476748689a999f7","infreq_resp","","","img/blue_2bandit_b.png","70","img/blue_2bandit_b.png","68","test","","","","","","","","","","","5","","","","","","","","",""
"null","1127712","SARL_v6","SARL_v6a7vga0y2","60ef2700e476748689a999f7","fixation","","","img/fixation.png","null","","","test","","","","","","","","","","","","","","","","","","","",""
"458.90000009536743","1128174","SARL_v6","SARL_v6a7vga0y2","60ef2700e476748689a999f7","infreq","","","img/blue_2bandit_b2.png","68","","68","test","1","","109","","","","circle","square","105","18","5","0.9333333333333333","","","","","","","",""
"null","1128526","SARL_v6","SARL_v6a7vga0y2","60ef2700e476748689a999f7","infreq_resp","","","img/blue_2bandit_b.png","68","img/blue_2bandit_b.png","68","test","","","","","","","","","","","5","","","","","","","","",""
"null","1128690","SARL_v6","SARL_v6a7vga0y2","60ef2700e476748689a999f7","fixation","","","img/fixation.png","null","","","test","","","","","","","","","","","","","","","","","","","",""
"433.89999985694885","1129129","SARL_v6","SARL_v6a7vga0y2","60ef2700e476748689a999f7","freq","","","img/orange_2bandit_b2.png","70","","70","test","1","","110","","","","circle","square","106","19","5","0.9339622641509434","","","","","","","",""
"null","1129512","SARL_v6","SARL_v6a7vga0y2","60ef2700e476748689a999f7","freq_resp","","","img/orange_2bandit_b.png","70","img/orange_2bandit_b.png","70","test","","","","","","","","","","","5","","","","","","","","",""
"null","1129670","SARL_v6","SARL_v6a7vga0y2","60ef2700e476748689a999f7","fixation","","","img/fixation.png","null","","","test","","","","","","","","","","","","","","","","","","","",""
"392.2000000476837","1130067","SARL_v6","SARL_v6a7vga0y2","60ef2700e476748689a999f7","infreq","","","img/blue_2bandit_b2.png","68","","68","test","1","","111","","","","circle","square","107","20","5","0.9345794392523364","","","","","","","",""
"null","1130491","SARL_v6","SARL_v6a7vga0y2","60ef2700e476748689a999f7","infreq_resp","","","img/blue_2bandit_b.png","68","img/blue_2bandit_b.png","68","test","","","","","","","","","","","5","","","","","","","","",""
"null","1130647","SARL_v6","SARL_v6a7vga0y2","60ef2700e476748689a999f7","fixation","","","img/fixation.png","null","","","test","","","","","","","","","","","","","","","","","","","",""
"322.09999990463257","1130974","SARL_v6","SARL_v6a7vga0y2","60ef2700e476748689a999f7","freq","","","img/orange_2bandit_b2.png","70","","70","test","1","","112","","","","circle","square","108","21","5","0.9351851851851852","","","","","","","",""
"null","1131473","SARL_v6","SARL_v6a7vga0y2","60ef2700e476748689a999f7","freq_resp","","","img/orange_2bandit_b.png","70","img/orange_2bandit_b.png","70","test","","","","","","","","","","","5","","","","","","","","",""
"null","1131634","SARL_v6","SARL_v6a7vga0y2","60ef2700e476748689a999f7","fixation","","","img/fixation.png","null","","","test","","","","","","","","","","","","","","","","","","","",""
"304.60000014305115","1131944","SARL_v6","SARL_v6a7vga0y2","60ef2700e476748689a999f7","freq","","","img/orange_2bandit_b2.png","70","","70","test","1","","113","","","","circle","square","109","22","5","0.9357798165137615","","","","","","","",""
"null","1132449","SARL_v6","SARL_v6a7vga0y2","60ef2700e476748689a999f7","freq_resp","","","img/orange_2bandit_b.png","70","img/orange_2bandit_b.png","70","test","","","","","","","","","","","5","","","","","","","","",""
"null","1132612","SARL_v6","SARL_v6a7vga0y2","60ef2700e476748689a999f7","fixation","","","img/fixation.png","null","","","test","","","","","","","","","","","","","","","","","","","",""
"283.7000000476837","1132901","SARL_v6","SARL_v6a7vga0y2","60ef2700e476748689a999f7","freq","","","img/orange_2bandit_b2.png","70","","70","test","1","","114","","","","circle","square","110","23","5","0.9363636363636364","","","","","","","",""
"null","1133440","SARL_v6","SARL_v6a7vga0y2","60ef2700e476748689a999f7","freq_resp","","","img/orange_2bandit_b.png","70","img/orange_2bandit_b.png","70","test","","","","","","","","","","","5","","","","","","","","",""
"null","1133606","SARL_v6","SARL_v6a7vga0y2","60ef2700e476748689a999f7","fixation","","","img/fixation.png","null","","","test","","","","","","","","","","","","","","","","","","","",""
"269.39999985694885","1133881","SARL_v6","SARL_v6a7vga0y2","60ef2700e476748689a999f7","freq","","","img/orange_2bandit_b2.png","70","","70","test","1","","115","","","","circle","square","111","24","5","0.9369369369369369","","","","","","","",""
"null","1134427","SARL_v6","SARL_v6a7vga0y2","60ef2700e476748689a999f7","freq_resp","","","img/orange_2bandit_b.png","70","img/orange_2bandit_b.png","70","test","","","","","","","","","","","5","","","","","","","","",""
"null","1134583","SARL_v6","SARL_v6a7vga0y2","60ef2700e476748689a999f7","fixation","","","img/fixation.png","null","","","test","","","","","","","","","","","","","","","","","","","",""
"263.5","1134851","SARL_v6","SARL_v6a7vga0y2","60ef2700e476748689a999f7","freq","","","img/orange_2bandit_b2.png","70","","70","test","1","","116","","","","circle","square","112","25","5","0.9375","","","","","","","",""
"null","1135404","SARL_v6","SARL_v6a7vga0y2","60ef2700e476748689a999f7","freq_resp","","","img/orange_2bandit_b.png","70","img/orange_2bandit_b.png","70","test","","","","","","","","","","","5","","","","","","","","",""
"null","1135570","SARL_v6","SARL_v6a7vga0y2","60ef2700e476748689a999f7","fixation","","","img/fixation.png","null","","","test","","","","","","","","","","","","","","","","","","","",""
"525.3999998569489","1136101","SARL_v6","SARL_v6a7vga0y2","60ef2700e476748689a999f7","rl","","","img/black_2bandit_b2.png","74","","0","test","","","117","","","-7","circle","square","","0","5","","74","-7","4","-7","4","circle","5","0"
"null","1136868","SARL_v6","SARL_v6a7vga0y2","60ef2700e476748689a999f7","feedback","","","<div class=""verylowPoints""> -7 </div>","null","","na","test","","","NaN","","","","","","","","5","","74","","","","","","5",""
"580.8999998569489","1137454","SARL_v6","SARL_v6a7vga0y2","60ef2700e476748689a999f7","freq","","","img/orange_2bandit_b2.png","70","","70","test","1","","118","","","","circle","square","113","1","6","0.9380530973451328","","","","","","","",""
"null","1137687","SARL_v6","SARL_v6a7vga0y2","60ef2700e476748689a999f7","freq_resp","","","img/orange_2bandit_b.png","70","img/orange_2bandit_b.png","70","test","","","","","","","","","","","6","","","","","","","","",""
"null","1137851","SARL_v6","SARL_v6a7vga0y2","60ef2700e476748689a999f7","fixation","","","img/fixation.png","null","","","test","","","","","","","","","","","","","","","","","","","",""
"338.90000009536743","1138195","SARL_v6","SARL_v6a7vga0y2","60ef2700e476748689a999f7","freq","","","img/orange_2bandit_b2.png","70","","70","test","1","","119","","","","circle","square","114","2","6","0.9385964912280702","","","","","","","",""
"null","1138678","SARL_v6","SARL_v6a7vga0y2","60ef2700e476748689a999f7","freq_resp","","","img/orange_2bandit_b.png","70","img/orange_2bandit_b.png","70","test","","","","","","","","","","","6","","","","","","","","",""
"null","1138852","SARL_v6","SARL_v6a7vga0y2","60ef2700e476748689a999f7","fixation","","","img/fixation.png","null","","","test","","","","","","","","","","","","","","","","","","","",""
"304.80000019073486","1139162","SARL_v6","SARL_v6a7vga0y2","60ef2700e476748689a999f7","freq","","","img/orange_2bandit_b2.png","70","","70","test","1","","120","","","","circle","square","115","3","6","0.9391304347826087","","","","","","","",""
"null","1139671","SARL_v6","SARL_v6a7vga0y2","60ef2700e476748689a999f7","freq_resp","","","img/orange_2bandit_b.png","70","img/orange_2bandit_b.png","70","test","","","","","","","","","","","6","","","","","","","","",""
"null","1139836","SARL_v6","SARL_v6a7vga0y2","60ef2700e476748689a999f7","fixation","","","img/fixation.png","null","","","test","","","","","","","","","","","","","","","","","","","",""
"330","1140172","SARL_v6","SARL_v6a7vga0y2","60ef2700e476748689a999f7","freq","","","img/orange_2bandit_b2.png","70","","70","test","1","","121","","","","circle","square","116","4","6","0.9396551724137931","","","","","","","",""
"null","1140652","SARL_v6","SARL_v6a7vga0y2","60ef2700e476748689a999f7","freq_resp","","","img/orange_2bandit_b.png","70","img/orange_2bandit_b.png","70","test","","","","","","","","","","","6","","","","","","","","",""
"null","1140818","SARL_v6","SARL_v6a7vga0y2","60ef2700e476748689a999f7","fixation","","","img/fixation.png","null","","","test","","","","","","","","","","","","","","","","","","","",""
"332.7000000476837","1141155","SARL_v6","SARL_v6a7vga0y2","60ef2700e476748689a999f7","freq","","","img/orange_2bandit_b2.png","70","","70","test","1","","122","","","","circle","square","117","5","6","0.9401709401709402","","","","","","","",""
"null","1141637","SARL_v6","SARL_v6a7vga0y2","60ef2700e476748689a999f7","freq_resp","","","img/orange_2bandit_b.png","70","img/orange_2bandit_b.png","70","test","","","","","","","","","","","6","","","","","","","","",""
"null","1141808","SARL_v6","SARL_v6a7vga0y2","60ef2700e476748689a999f7","fixation","","","img/fixation.png","null","","","test","","","","","","","","","","","","","","","","","","","",""
"310.09999990463257","1142124","SARL_v6","SARL_v6a7vga0y2","60ef2700e476748689a999f7","freq","","","img/orange_2bandit_b2.png","70","","70","test","1","","123","","","","circle","square","118","6","6","0.940677966101695","","","","","","","",""
"null","1142634","SARL_v6","SARL_v6a7vga0y2","60ef2700e476748689a999f7","freq_resp","","","img/orange_2bandit_b.png","70","img/orange_2bandit_b.png","70","test","","","","","","","","","","","6","","","","","","","","",""
"null","1142791","SARL_v6","SARL_v6a7vga0y2","60ef2700e476748689a999f7","fixation","","","img/fixation.png","null","","","test","","","","","","","","","","","","","","","","","","","",""
"359.39999985694885","1143155","SARL_v6","SARL_v6a7vga0y2","60ef2700e476748689a999f7","freq","","","img/orange_2bandit_b2.png","70","","70","test","1","","124","","","","circle","square","119","7","6","0.9411764705882353","","","","","","","",""
"null","1143604","SARL_v6","SARL_v6a7vga0y2","60ef2700e476748689a999f7","freq_resp","","","img/orange_2bandit_b.png","70","img/orange_2bandit_b.png","70","test","","","","","","","","","","","6","","","","","","","","",""
"null","1143764","SARL_v6","SARL_v6a7vga0y2","60ef2700e476748689a999f7","fixation","","","img/fixation.png","null","","","test","","","","","","","","","","","","","","","","","","","",""
"337.7999999523163","1144106","SARL_v6","SARL_v6a7vga0y2","60ef2700e476748689a999f7","freq","","","img/orange_2bandit_b2.png","70","","70","test","1","","125","","","","circle","square","120","8","6","0.9416666666666667","","","","","","","",""
"null","1144576","SARL_v6","SARL_v6a7vga0y2","60ef2700e476748689a999f7","freq_resp","","","img/orange_2bandit_b.png","70","img/orange_2bandit_b.png","70","test","","","","","","","","","","","6","","","","","","","","",""
"null","1144747","SARL_v6","SARL_v6a7vga0y2","60ef2700e476748689a999f7","fixation","","","img/fixation.png","null","","","test","","","","","","","","","","","","","","","","","","","",""
"257.90000009536743","1145010","SARL_v6","SARL_v6a7vga0y2","60ef2700e476748689a999f7","freq","","","img/orange_2bandit_b2.png","70","","70","test","1","","126","","","","circle","square","121","9","6","0.9421487603305785","","","","","","","",""
"null","1145568","SARL_v6","SARL_v6a7vga0y2","60ef2700e476748689a999f7","freq_resp","","","img/orange_2bandit_b.png","70","img/orange_2bandit_b.png","70","test","","","","","","","","","","","6","","","","","","","","",""
"null","1145740","SARL_v6","SARL_v6a7vga0y2","60ef2700e476748689a999f7","fixation","","","img/fixation.png","null","","","test","","","","","","","","","","","","","","","","","","","",""
"312.10000014305115","1146058","SARL_v6","SARL_v6a7vga0y2","60ef2700e476748689a999f7","freq","","","img/orange_2bandit_b2.png","70","","70","test","1","","127","","","","circle","square","122","10","6","0.9426229508196722","","","","","","","",""
"null","1146557","SARL_v6","SARL_v6a7vga0y2","60ef2700e476748689a999f7","freq_resp","","","img/orange_2bandit_b.png","70","img/orange_2bandit_b.png","70","test","","","","","","","","","","","6","","","","","","","","",""
"null","1146730","SARL_v6","SARL_v6a7vga0y2","60ef2700e476748689a999f7","fixation","","","img/fixation.png","null","","","test","","","","","","","","","","","","","","","","","","","",""
"302.2999999523163","1147036","SARL_v6","SARL_v6a7vga0y2","60ef2700e476748689a999f7","freq","","","img/orange_2bandit_b2.png","70","","70","test","1","","128","","","","circle","square","123","11","6","0.943089430894309","","","","","","","",""
"null","1147548","SARL_v6","SARL_v6a7vga0y2","60ef2700e476748689a999f7","freq_resp","","","img/orange_2bandit_b.png","70","img/orange_2bandit_b.png","70","test","","","","","","","","","","","6","","","","","","","","",""
