"rt","time_elapsed","expId","subject","prolificID","trialType","rlType","attType","stimulus","key_press","stim","corrresp","phase","corr","pracCounter","trialNum","rewardOne","rewardTwo","reward","bandOne","bandTwo","attentionNum","attentionRunNum","blockNum","performance","bandChosen","circleVal","squareVal","bandOneVal","bandTwoVal","shapeChosen","rlNum","badFlag"
"9441.400000095367","9443","SARL_v6","SARL_v631upwb42","5f3d6975ef131710ed519c7a","","","","","","","","","","","","","","","","","","","","","","","","","","","",""
"","11557","SARL_v6","SARL_v631upwb42","5f3d6975ef131710ed519c7a","fullscreen","fullscreen","fullscreen","","","","","","","","","","","","","","","","","","","","","","","","",""
"49315.59999990463","60876","SARL_v6","SARL_v631upwb42","5f3d6975ef131710ed519c7a","","","","","","","","","","","","","","","","","","","","","","","","","","","",""
"null","61679","SARL_v6","SARL_v631upwb42","5f3d6975ef131710ed519c7a","freqPrac","","","img/orange_2bandit_b2.png","null","img/orange_2bandit_b2.png","70","prac","0","1","","","","","","","","","","","","","","","","","",""
"null","62684","SARL_v6","SARL_v631upwb42","5f3d6975ef131710ed519c7a","feedback","","","img/tooSlow.png","null","","na","prac","","","","","","","","","","","","","","","","","","","",""
"null","62839","SARL_v6","SARL_v631upwb42","5f3d6975ef131710ed519c7a","fixation","","","img/fixation.png","null","","","prac","","","","","","","","","","","","","","","","","","","",""
"603.2999999523163","63443","SARL_v6","SARL_v631upwb42","5f3d6975ef131710ed519c7a","infreqPrac","","","img/blue_2bandit_b2.png","70","img/blue_2bandit_b2.png","68","prac","0","2","","","","","","","","","","","","","","","","","",""
"603.2999999523163","63643","SARL_v6","SARL_v631upwb42","5f3d6975ef131710ed519c7a","infreqPrac_resp","","","img/blue_2bandit_b.png","70","img/blue_2bandit_b.png","68","prac","","","","","","","","","","","","","","","","","","","",""
"null","64652","SARL_v6","SARL_v631upwb42","5f3d6975ef131710ed519c7a","feedback","","","img/wrongKey.png","null","","na","prac","","","","","","","","","","","","","","","","","","","",""
"null","64807","SARL_v6","SARL_v631upwb42","5f3d6975ef131710ed519c7a","fixation","","","img/fixation.png","null","","","prac","","","","","","","","","","","","","","","","","","","",""
"586.7999999523163","65395","SARL_v6","SARL_v631upwb42","5f3d6975ef131710ed519c7a","freqPrac","","","img/orange_2bandit_b2.png","70","img/orange_2bandit_b2.png","70","prac","1","2","","","","","","","","","","","","","","","","","",""
"586.7999999523163","65616","SARL_v6","SARL_v631upwb42","5f3d6975ef131710ed519c7a","freqPrac_resp","","","img/orange_2bandit_b.png","70","img/orange_2bandit_b.png","70","prac","","","","","","","","","","","","","","","","","","","",""
"null","65770","SARL_v6","SARL_v631upwb42","5f3d6975ef131710ed519c7a","fixation","","","img/fixation.png","null","","","prac","","","","","","","","","","","","","","","","","","","",""
"591.5999999046326","66363","SARL_v6","SARL_v631upwb42","5f3d6975ef131710ed519c7a","infreqPrac","","","img/blue_2bandit_b2.png","68","img/blue_2bandit_b2.png","68","prac","1","2","","","","","","","","","","","","","","","","","",""
"591.5999999046326","66577","SARL_v6","SARL_v631upwb42","5f3d6975ef131710ed519c7a","infreqPrac_resp","","","img/blue_2bandit_b.png","68","img/blue_2bandit_b.png","68","prac","","","","","","","","","","","","","","","","","","","",""
"null","66732","SARL_v6","SARL_v631upwb42","5f3d6975ef131710ed519c7a","fixation","","","img/fixation.png","null","","","prac","","","","","","","","","","","","","","","","","","","",""
"493.90000009536743","67227","SARL_v6","SARL_v631upwb42","5f3d6975ef131710ed519c7a","infreqPrac","","","img/blue_2bandit_b2.png","68","img/blue_2bandit_b2.png","68","prac","1","2","","","","","","","","","","","","","","","","","",""
"493.90000009536743","67547","SARL_v6","SARL_v631upwb42","5f3d6975ef131710ed519c7a","infreqPrac_resp","","","img/blue_2bandit_b.png","68","img/blue_2bandit_b.png","68","prac","","","","","","","","","","","","","","","","","","","",""
"null","67700","SARL_v6","SARL_v631upwb42","5f3d6975ef131710ed519c7a","fixation","","","img/fixation.png","null","","","prac","","","","","","","","","","","","","","","","","","","",""
"389.59999990463257","68091","SARL_v6","SARL_v631upwb42","5f3d6975ef131710ed519c7a","infreqPrac","","","img/blue_2bandit_b2.png","68","img/blue_2bandit_b2.png","68","prac","1","2","","","","","","","","","","","","","","","","","",""
"389.59999990463257","68506","SARL_v6","SARL_v631upwb42","5f3d6975ef131710ed519c7a","infreqPrac_resp","","","img/blue_2bandit_b.png","68","img/blue_2bandit_b.png","68","prac","","","","","","","","","","","","","","","","","","","",""
"null","68661","SARL_v6","SARL_v631upwb42","5f3d6975ef131710ed519c7a","fixation","","","img/fixation.png","null","","","prac","","","","","","","","","","","","","","","","","","","",""
"452.5","69115","SARL_v6","SARL_v631upwb42","5f3d6975ef131710ed519c7a","freqPrac","","","img/orange_2bandit_b2.png","70","img/orange_2bandit_b2.png","70","prac","1","2","","","","","","","","","","","","","","","","","",""
"452.5","69465","SARL_v6","SARL_v631upwb42","5f3d6975ef131710ed519c7a","freqPrac_resp","","","img/orange_2bandit_b.png","70","img/orange_2bandit_b.png","70","prac","","","","","","","","","","","","","","","","","","","",""
"null","69621","SARL_v6","SARL_v631upwb42","5f3d6975ef131710ed519c7a","fixation","","","img/fixation.png","null","","","prac","","","","","","","","","","","","","","","","","","","",""
"588.7999999523163","70211","SARL_v6","SARL_v631upwb42","5f3d6975ef131710ed519c7a","infreqPrac","","","img/blue_2bandit_b2.png","68","img/blue_2bandit_b2.png","68","prac","1","2","","","","","","","","","","","","","","","","","",""
"588.7999999523163","70427","SARL_v6","SARL_v631upwb42","5f3d6975ef131710ed519c7a","infreqPrac_resp","","","img/blue_2bandit_b.png","68","img/blue_2bandit_b.png","68","prac","","","","","","","","","","","","","","","","","","","",""
"null","70581","SARL_v6","SARL_v631upwb42","5f3d6975ef131710ed519c7a","fixation","","","img/fixation.png","null","","","prac","","","","","","","","","","","","","","","","","","","",""
"469.2000000476837","71051","SARL_v6","SARL_v631upwb42","5f3d6975ef131710ed519c7a","freqPrac","","","img/orange_2bandit_b2.png","70","img/orange_2bandit_b2.png","70","prac","1","2","","","","","","","","","","","","","","","","","",""
"469.2000000476837","71383","SARL_v6","SARL_v631upwb42","5f3d6975ef131710ed519c7a","freqPrac_resp","","","img/orange_2bandit_b.png","70","img/orange_2bandit_b.png","70","prac","","","","","","","","","","","","","","","","","","","",""
"null","71538","SARL_v6","SARL_v631upwb42","5f3d6975ef131710ed519c7a","fixation","","","img/fixation.png","null","","","prac","","","","","","","","","","","","","","","","","","","",""
"391.7999999523163","71931","SARL_v6","SARL_v631upwb42","5f3d6975ef131710ed519c7a","freqPrac","","","img/orange_2bandit_b2.png","70","img/orange_2bandit_b2.png","70","prac","1","2","","","","","","","","","","","","","","","","","",""
"391.7999999523163","72353","SARL_v6","SARL_v631upwb42","5f3d6975ef131710ed519c7a","freqPrac_resp","","","img/orange_2bandit_b.png","70","img/orange_2bandit_b.png","70","prac","","","","","","","","","","","","","","","","","","","",""
"null","72508","SARL_v6","SARL_v631upwb42","5f3d6975ef131710ed519c7a","fixation","","","img/fixation.png","null","","","prac","","","","","","","","","","","","","","","","","","","",""
"16533.299999952316","89043","SARL_v6","SARL_v631upwb42","5f3d6975ef131710ed519c7a","","","","","","","","prac","","","","","","","","","","","","","","","","","","","",""
"558","89603","SARL_v6","SARL_v631upwb42","5f3d6975ef131710ed519c7a","rlPractice","","","img/black_2bandit_b2.png","74","img/black_2bandit_b2.png","","prac","","","0","","","","","","","","","","","","","","","","",""
"null","90360","SARL_v6","SARL_v631upwb42","5f3d6975ef131710ed519c7a","feedback","","","<div class=""veryhighPoints""> 10 </div>","null","","na","prac","","","1","10","-14","10","","","","","","","","","","","","","",""
"null","90515","SARL_v6","SARL_v631upwb42","5f3d6975ef131710ed519c7a","fixation","","","img/fixation.png","null","","","prac","","","","","","","","","","","","","","","","","","","",""
"774.5999999046326","91291","SARL_v6","SARL_v631upwb42","5f3d6975ef131710ed519c7a","rlPractice","","","img/black_2bandit_b2.png","75","img/black_2bandit_b2.png","","prac","","","1","","","","","","","","","","","","","","","","",""
"null","92047","SARL_v6","SARL_v631upwb42","5f3d6975ef131710ed519c7a","feedback","","","<div class=""verylowPoints_sq""> -5 </div>","null","","na","prac","","","2","5","-5","5","","","","","","","","","","","","","",""
"null","92203","SARL_v6","SARL_v631upwb42","5f3d6975ef131710ed519c7a","fixation","","","img/fixation.png","null","","","prac","","","","","","","","","","","","","","","","","","","",""
"614.2999999523163","92819","SARL_v6","SARL_v631upwb42","5f3d6975ef131710ed519c7a","rlPractice","","","img/black_2bandit_b2.png","74","img/black_2bandit_b2.png","","prac","","","2","","","","","","","","","","","","","","","","",""
"null","93584","SARL_v6","SARL_v631upwb42","5f3d6975ef131710ed519c7a","feedback","","","<div class=""veryhighPoints""> 30 </div>","null","","na","prac","","","3","30","2","30","","","","","","","","","","","","","",""
"null","93738","SARL_v6","SARL_v631upwb42","5f3d6975ef131710ed519c7a","fixation","","","img/fixation.png","null","","","prac","","","","","","","","","","","","","","","","","","","",""
"295","94035","SARL_v6","SARL_v631upwb42","5f3d6975ef131710ed519c7a","rlPractice","","","img/black_2bandit_b2.png","75","img/black_2bandit_b2.png","","prac","","","3","","","","","","","","","","","","","","","","",""
"null","94801","SARL_v6","SARL_v631upwb42","5f3d6975ef131710ed519c7a","feedback","","","<div class=""veryhighPoints_sq""> 20 </div>","null","","na","prac","","","4","-2","20","-2","","","","","","","","","","","","","",""
"null","94957","SARL_v6","SARL_v631upwb42","5f3d6975ef131710ed519c7a","fixation","","","img/fixation.png","null","","","prac","","","","","","","","","","","","","","","","","","","",""
"2548.7000000476837","97507","SARL_v6","SARL_v631upwb42","5f3d6975ef131710ed519c7a","","","","","","","","prac","","","","","","","","","","","","","","","","","","","",""
"758.0999999046326","98267","SARL_v6","SARL_v631upwb42","5f3d6975ef131710ed519c7a","mixAttFreqPrac","","","img/orange_2bandit_b2.png","70","img/orange_2bandit_b2.png","70","prac","","","1","","","","","","","","","","","","","","","","",""
"758.0999999046326","98317","SARL_v6","SARL_v631upwb42","5f3d6975ef131710ed519c7a","freqPrac_resp","","","img/orange_2bandit_b.png","70","img/orange_2bandit_b.png","70","prac","","","1","","","","","","","","","","","","","","","","",""
"null","98472","SARL_v6","SARL_v631upwb42","5f3d6975ef131710ed519c7a","fixation","","","img/fixation.png","null","","","prac","","","","","","","","","","","","","","","","","","","",""
"513.2999999523163","98987","SARL_v6","SARL_v631upwb42","5f3d6975ef131710ed519c7a","mixAttInfreqPrac","","","img/blue_2bandit_b2.png","68","img/blue_2bandit_b2.png","68","prac","","","2","","","","","","","","","","","","","","","","",""
"513.2999999523163","99276","SARL_v6","SARL_v631upwb42","5f3d6975ef131710ed519c7a","infreqPrac_resp","","","img/blue_2bandit_b.png","68","img/orange_2bandit_b.png","68","prac","","","2","","","","","","","","","","","","","","","","",""
"null","99428","SARL_v6","SARL_v631upwb42","5f3d6975ef131710ed519c7a","fixation","","","img/fixation.png","null","","","prac","","","","","","","","","","","","","","","","","","","",""
"621","100051","SARL_v6","SARL_v631upwb42","5f3d6975ef131710ed519c7a","mixAttInfreqPrac","","","img/blue_2bandit_b2.png","68","img/blue_2bandit_b2.png","68","prac","","","3","","","","","","","","","","","","","","","","",""
"621","100246","SARL_v6","SARL_v631upwb42","5f3d6975ef131710ed519c7a","infreqPrac_resp","","","img/blue_2bandit_b.png","68","img/orange_2bandit_b.png","68","prac","","","3","","","","","","","","","","","","","","","","",""
"null","100400","SARL_v6","SARL_v631upwb42","5f3d6975ef131710ed519c7a","fixation","","","img/fixation.png","null","","","prac","","","","","","","","","","","","","","","","","","","",""
"441.5","100843","SARL_v6","SARL_v631upwb42","5f3d6975ef131710ed519c7a","mixAttInfreqPrac","","","img/blue_2bandit_b2.png","68","img/blue_2bandit_b2.png","68","prac","","","4","","","","","","","","","","","","","","","","",""
"441.5","101204","SARL_v6","SARL_v631upwb42","5f3d6975ef131710ed519c7a","infreqPrac_resp","","","img/blue_2bandit_b.png","68","img/orange_2bandit_b.png","68","prac","","","4","","","","","","","","","","","","","","","","",""
"null","101357","SARL_v6","SARL_v631upwb42","5f3d6975ef131710ed519c7a","fixation","","","img/fixation.png","null","","","prac","","","","","","","","","","","","","","","","","","","",""
"436.09999990463257","101795","SARL_v6","SARL_v631upwb42","5f3d6975ef131710ed519c7a","mixAttFreqPrac","","","img/orange_2bandit_b2.png","70","img/orange_2bandit_b2.png","70","prac","","","5","","","","","","","","","","","","","","","","",""
"436.09999990463257","102162","SARL_v6","SARL_v631upwb42","5f3d6975ef131710ed519c7a","freqPrac_resp","","","img/orange_2bandit_b.png","70","img/orange_2bandit_b.png","70","prac","","","5","","","","","","","","","","","","","","","","",""
"null","102318","SARL_v6","SARL_v631upwb42","5f3d6975ef131710ed519c7a","fixation","","","img/fixation.png","null","","","prac","","","","","","","","","","","","","","","","","","","",""
"443.2000000476837","102763","SARL_v6","SARL_v631upwb42","5f3d6975ef131710ed519c7a","mixRLPractice","","","img/black_2bandit_b2.png","74","img/black_2bandit_b2.png","","prac","","","5","","","","","","","","","","","","","","","","",""
"null","103523","SARL_v6","SARL_v631upwb42","5f3d6975ef131710ed519c7a","feedback","","","<div class=""verylowPoints""> -14 </div>","null","","na","prac","","","6","-14","10","-14","","","","","","","","","","","","","",""
"null","103677","SARL_v6","SARL_v631upwb42","5f3d6975ef131710ed519c7a","fixation","","","img/fixation.png","null","","","prac","","","","","","","","","","","","","","","","","","","",""
"692.2000000476837","104371","SARL_v6","SARL_v631upwb42","5f3d6975ef131710ed519c7a","mixAttFreqPrac","","","img/orange_2bandit_b2.png","70","img/orange_2bandit_b2.png","70","prac","","","7","","","","","","","","","","","","","","","","",""
"692.2000000476837","104493","SARL_v6","SARL_v631upwb42","5f3d6975ef131710ed519c7a","freqPrac_resp","","","img/orange_2bandit_b.png","70","img/orange_2bandit_b.png","70","prac","","","7","","","","","","","","","","","","","","","","",""
"null","104648","SARL_v6","SARL_v631upwb42","5f3d6975ef131710ed519c7a","fixation","","","img/fixation.png","null","","","prac","","","","","","","","","","","","","","","","","","","",""
"465.7000000476837","105115","SARL_v6","SARL_v631upwb42","5f3d6975ef131710ed519c7a","mixAttInfreqPrac","","","img/blue_2bandit_b2.png","68","img/blue_2bandit_b2.png","68","prac","","","8","","","","","","","","","","","","","","","","",""
"465.7000000476837","105453","SARL_v6","SARL_v631upwb42","5f3d6975ef131710ed519c7a","infreqPrac_resp","","","img/blue_2bandit_b.png","68","img/orange_2bandit_b.png","68","prac","","","8","","","","","","","","","","","","","","","","",""
"null","105606","SARL_v6","SARL_v631upwb42","5f3d6975ef131710ed519c7a","fixation","","","img/fixation.png","null","","","prac","","","","","","","","","","","","","","","","","","","",""
"587.5","106195","SARL_v6","SARL_v631upwb42","5f3d6975ef131710ed519c7a","mixAttFreqPrac","","","img/orange_2bandit_b2.png","70","img/orange_2bandit_b2.png","70","prac","","","9","","","","","","","","","","","","","","","","",""
"587.5","106409","SARL_v6","SARL_v631upwb42","5f3d6975ef131710ed519c7a","freqPrac_resp","","","img/orange_2bandit_b.png","70","img/orange_2bandit_b.png","70","prac","","","9","","","","","","","","","","","","","","","","",""
"null","106563","SARL_v6","SARL_v631upwb42","5f3d6975ef131710ed519c7a","fixation","","","img/fixation.png","null","","","prac","","","","","","","","","","","","","","","","","","","",""
"598.3999998569489","107163","SARL_v6","SARL_v631upwb42","5f3d6975ef131710ed519c7a","mixAttFreqPrac","","","img/orange_2bandit_b2.png","70","img/orange_2bandit_b2.png","70","prac","","","10","","","","","","","","","","","","","","","","",""
"598.3999998569489","107382","SARL_v6","SARL_v631upwb42","5f3d6975ef131710ed519c7a","freqPrac_resp","","","img/orange_2bandit_b.png","70","img/orange_2bandit_b.png","70","prac","","","10","","","","","","","","","","","","","","","","",""
"null","107537","SARL_v6","SARL_v631upwb42","5f3d6975ef131710ed519c7a","fixation","","","img/fixation.png","null","","","prac","","","","","","","","","","","","","","","","","","","",""
"584.9000000953674","108123","SARL_v6","SARL_v631upwb42","5f3d6975ef131710ed519c7a","mixAttInfreqPrac","","","img/blue_2bandit_b2.png","68","img/blue_2bandit_b2.png","68","prac","","","11","","","","","","","","","","","","","","","","",""
"584.9000000953674","108342","SARL_v6","SARL_v631upwb42","5f3d6975ef131710ed519c7a","infreqPrac_resp","","","img/blue_2bandit_b.png","68","img/orange_2bandit_b.png","68","prac","","","11","","","","","","","","","","","","","","","","",""
"null","108498","SARL_v6","SARL_v631upwb42","5f3d6975ef131710ed519c7a","fixation","","","img/fixation.png","null","","","prac","","","","","","","","","","","","","","","","","","","",""
"431.7999999523163","108931","SARL_v6","SARL_v631upwb42","5f3d6975ef131710ed519c7a","mixRLPractice","","","img/black_2bandit_b2.png","75","img/black_2bandit_b2.png","","prac","","","11","","","","","","","","","","","","","","","","",""
"null","109687","SARL_v6","SARL_v631upwb42","5f3d6975ef131710ed519c7a","feedback","","","<div class=""verylowPoints_sq""> -5 </div>","null","","na","prac","","","12","5","-5","5","","","","","","","","","","","","","",""
"null","109841","SARL_v6","SARL_v631upwb42","5f3d6975ef131710ed519c7a","fixation","","","img/fixation.png","null","","","prac","","","","","","","","","","","","","","","","","","","",""
"5281.099999904633","115123","SARL_v6","SARL_v631upwb42","5f3d6975ef131710ed519c7a","","","","","","","","prac","","","","","","","","","","","","","","","","","","","",""
"774.0999999046326","115899","SARL_v6","SARL_v631upwb42","5f3d6975ef131710ed519c7a","freq","","","img/orange_2bandit_b2.png","70","","70","test","1","","1","","","","circle","square","1","1","1","1","","","","","","","",""
"null","115926","SARL_v6","SARL_v631upwb42","5f3d6975ef131710ed519c7a","freq_resp","","","img/orange_2bandit_b.png","70","img/orange_2bandit_b.png","70","test","","","","","","","","","","","1","","","","","","","","",""
"null","116084","SARL_v6","SARL_v631upwb42","5f3d6975ef131710ed519c7a","fixation","","","img/fixation.png","null","","","test","","","","","","","","","","","","","","","","","","","",""
"381.80000019073486","116467","SARL_v6","SARL_v631upwb42","5f3d6975ef131710ed519c7a","freq","","","img/orange_2bandit_b2.png","70","","70","test","1","","2","","","","circle","square","2","2","1","1","","","","","","","",""
"null","116896","SARL_v6","SARL_v631upwb42","5f3d6975ef131710ed519c7a","freq_resp","","","img/orange_2bandit_b.png","70","img/orange_2bandit_b.png","70","test","","","","","","","","","","","1","","","","","","","","",""
"null","117051","SARL_v6","SARL_v631upwb42","5f3d6975ef131710ed519c7a","fixation","","","img/fixation.png","null","","","test","","","","","","","","","","","","","","","","","","","",""
"37.799999952316284","117091","SARL_v6","SARL_v631upwb42","5f3d6975ef131710ed519c7a","freq","","","img/orange_2bandit_b2.png","70","","70","test","1","","3","","","","circle","square","3","3","1","1","","","","","","","",""
"null","117868","SARL_v6","SARL_v631upwb42","5f3d6975ef131710ed519c7a","freq_resp","","","img/orange_2bandit_b.png","70","img/orange_2bandit_b.png","70","test","","","","","","","","","","","1","","","","","","","","",""
"null","118023","SARL_v6","SARL_v631upwb42","5f3d6975ef131710ed519c7a","fixation","","","img/fixation.png","null","","","test","","","","","","","","","","","","","","","","","","","",""
"466.40000009536743","118491","SARL_v6","SARL_v631upwb42","5f3d6975ef131710ed519c7a","freq","","","img/orange_2bandit_b2.png","70","","70","test","1","","4","","","","circle","square","4","4","1","1","","","","","","","",""
"null","118840","SARL_v6","SARL_v631upwb42","5f3d6975ef131710ed519c7a","freq_resp","","","img/orange_2bandit_b.png","70","img/orange_2bandit_b.png","70","test","","","","","","","","","","","1","","","","","","","","",""
"null","118994","SARL_v6","SARL_v631upwb42","5f3d6975ef131710ed519c7a","fixation","","","img/fixation.png","null","","","test","","","","","","","","","","","","","","","","","","","",""
"439.40000009536743","119435","SARL_v6","SARL_v631upwb42","5f3d6975ef131710ed519c7a","freq","","","img/orange_2bandit_b2.png","70","","70","test","1","","5","","","","circle","square","5","5","1","1","","","","","","","",""
"null","119799","SARL_v6","SARL_v631upwb42","5f3d6975ef131710ed519c7a","freq_resp","","","img/orange_2bandit_b.png","70","img/orange_2bandit_b.png","70","test","","","","","","","","","","","1","","","","","","","","",""
"null","119954","SARL_v6","SARL_v631upwb42","5f3d6975ef131710ed519c7a","fixation","","","img/fixation.png","null","","","test","","","","","","","","","","","","","","","","","","","",""
"478.7999999523163","120435","SARL_v6","SARL_v631upwb42","5f3d6975ef131710ed519c7a","freq","","","img/orange_2bandit_b2.png","70","","70","test","1","","6","","","","circle","square","6","6","1","1","","","","","","","",""
"null","120769","SARL_v6","SARL_v631upwb42","5f3d6975ef131710ed519c7a","freq_resp","","","img/orange_2bandit_b.png","70","img/orange_2bandit_b.png","70","test","","","","","","","","","","","1","","","","","","","","",""
"null","120923","SARL_v6","SARL_v631upwb42","5f3d6975ef131710ed519c7a","fixation","","","img/fixation.png","null","","","test","","","","","","","","","","","","","","","","","","","",""
"429.7000000476837","121355","SARL_v6","SARL_v631upwb42","5f3d6975ef131710ed519c7a","freq","","","img/orange_2bandit_b2.png","70","","70","test","1","","7","","","","circle","square","7","7","1","1","","","","","","","",""
"null","121728","SARL_v6","SARL_v631upwb42","5f3d6975ef131710ed519c7a","freq_resp","","","img/orange_2bandit_b.png","70","img/orange_2bandit_b.png","70","test","","","","","","","","","","","1","","","","","","","","",""
"null","121882","SARL_v6","SARL_v631upwb42","5f3d6975ef131710ed519c7a","fixation","","","img/fixation.png","null","","","test","","","","","","","","","","","","","","","","","","","",""
"423.60000014305115","122307","SARL_v6","SARL_v631upwb42","5f3d6975ef131710ed519c7a","freq","","","img/orange_2bandit_b2.png","70","","70","test","1","","8","","","","circle","square","8","8","1","1","","","","","","","",""
"null","122699","SARL_v6","SARL_v631upwb42","5f3d6975ef131710ed519c7a","freq_resp","","","img/orange_2bandit_b.png","70","img/orange_2bandit_b.png","70","test","","","","","","","","","","","1","","","","","","","","",""
"null","122853","SARL_v6","SARL_v631upwb42","5f3d6975ef131710ed519c7a","fixation","","","img/fixation.png","null","","","test","","","","","","","","","","","","","","","","","","","",""
"436.5","123291","SARL_v6","SARL_v631upwb42","5f3d6975ef131710ed519c7a","freq","","","img/orange_2bandit_b2.png","70","","70","test","1","","9","","","","circle","square","9","9","1","1","","","","","","","",""
"null","123659","SARL_v6","SARL_v631upwb42","5f3d6975ef131710ed519c7a","freq_resp","","","img/orange_2bandit_b.png","70","img/orange_2bandit_b.png","70","test","","","","","","","","","","","1","","","","","","","","",""
"null","123815","SARL_v6","SARL_v631upwb42","5f3d6975ef131710ed519c7a","fixation","","","img/fixation.png","null","","","test","","","","","","","","","","","","","","","","","","","",""
"498.5","124315","SARL_v6","SARL_v631upwb42","5f3d6975ef131710ed519c7a","infreq","","","img/blue_2bandit_b2.png","68","","68","test","1","","10","","","","circle","square","10","10","1","1","","","","","","","",""
"null","124617","SARL_v6","SARL_v631upwb42","5f3d6975ef131710ed519c7a","infreq_resp","","","img/blue_2bandit_b.png","68","img/blue_2bandit_b.png","68","test","","","","","","","","","","","1","","","","","","","","",""
"null","124774","SARL_v6","SARL_v631upwb42","5f3d6975ef131710ed519c7a","fixation","","","img/fixation.png","null","","","test","","","","","","","","","","","","","","","","","","","",""
"467.09999990463257","125243","SARL_v6","SARL_v631upwb42","5f3d6975ef131710ed519c7a","freq","","","img/orange_2bandit_b2.png","70","","70","test","1","","11","","","","circle","square","11","11","1","1","","","","","","","",""
"null","125578","SARL_v6","SARL_v631upwb42","5f3d6975ef131710ed519c7a","freq_resp","","","img/orange_2bandit_b.png","70","img/orange_2bandit_b.png","70","test","","","","","","","","","","","1","","","","","","","","",""
"null","125733","SARL_v6","SARL_v631upwb42","5f3d6975ef131710ed519c7a","fixation","","","img/fixation.png","null","","","test","","","","","","","","","","","","","","","","","","","",""
"571.5999999046326","126307","SARL_v6","SARL_v631upwb42","5f3d6975ef131710ed519c7a","freq","","","img/orange_2bandit_b2.png","70","","70","test","1","","12","","","","circle","square","12","12","1","1","","","","","","","",""
"null","126539","SARL_v6","SARL_v631upwb42","5f3d6975ef131710ed519c7a","freq_resp","","","img/orange_2bandit_b.png","70","img/orange_2bandit_b.png","70","test","","","","","","","","","","","1","","","","","","","","",""
"null","126694","SARL_v6","SARL_v631upwb42","5f3d6975ef131710ed519c7a","fixation","","","img/fixation.png","null","","","test","","","","","","","","","","","","","","","","","","","",""
"595.5999999046326","127291","SARL_v6","SARL_v631upwb42","5f3d6975ef131710ed519c7a","freq","","","img/orange_2bandit_b2.png","70","","70","test","1","","13","","","","circle","square","13","13","1","1","","","","","","","",""
"null","127499","SARL_v6","SARL_v631upwb42","5f3d6975ef131710ed519c7a","freq_resp","","","img/orange_2bandit_b.png","70","img/orange_2bandit_b.png","70","test","","","","","","","","","","","1","","","","","","","","",""
"null","127654","SARL_v6","SARL_v631upwb42","5f3d6975ef131710ed519c7a","fixation","","","img/fixation.png","null","","","test","","","","","","","","","","","","","","","","","","","",""
"555.5","128211","SARL_v6","SARL_v631upwb42","5f3d6975ef131710ed519c7a","infreq","","","img/blue_2bandit_b2.png","68","","68","test","1","","14","","","","circle","square","14","14","1","1","","","","","","","",""
"null","128458","SARL_v6","SARL_v631upwb42","5f3d6975ef131710ed519c7a","infreq_resp","","","img/blue_2bandit_b.png","68","img/blue_2bandit_b.png","68","test","","","","","","","","","","","1","","","","","","","","",""
"null","128612","SARL_v6","SARL_v631upwb42","5f3d6975ef131710ed519c7a","fixation","","","img/fixation.png","null","","","test","","","","","","","","","","","","","","","","","","","",""
"493.7999999523163","129107","SARL_v6","SARL_v631upwb42","5f3d6975ef131710ed519c7a","freq","","","img/orange_2bandit_b2.png","70","","70","test","1","","15","","","","circle","square","15","15","1","1","","","","","","","",""
"null","129428","SARL_v6","SARL_v631upwb42","5f3d6975ef131710ed519c7a","freq_resp","","","img/orange_2bandit_b.png","70","img/orange_2bandit_b.png","70","test","","","","","","","","","","","1","","","","","","","","",""
"null","129583","SARL_v6","SARL_v631upwb42","5f3d6975ef131710ed519c7a","fixation","","","img/fixation.png","null","","","test","","","","","","","","","","","","","","","","","","","",""
"346.2999999523163","129931","SARL_v6","SARL_v631upwb42","5f3d6975ef131710ed519c7a","freq","","","img/orange_2bandit_b2.png","70","","70","test","1","","16","","","","circle","square","16","16","1","1","","","","","","","",""
"null","130389","SARL_v6","SARL_v631upwb42","5f3d6975ef131710ed519c7a","freq_resp","","","img/orange_2bandit_b.png","70","img/orange_2bandit_b.png","70","test","","","","","","","","","","","1","","","","","","","","",""
"null","130543","SARL_v6","SARL_v631upwb42","5f3d6975ef131710ed519c7a","fixation","","","img/fixation.png","null","","","test","","","","","","","","","","","","","","","","","","","",""
"345.90000009536743","130891","SARL_v6","SARL_v631upwb42","5f3d6975ef131710ed519c7a","freq","","","img/orange_2bandit_b2.png","70","","70","test","1","","17","","","","circle","square","17","17","1","1","","","","","","","",""
"null","131362","SARL_v6","SARL_v631upwb42","5f3d6975ef131710ed519c7a","freq_resp","","","img/orange_2bandit_b.png","70","img/orange_2bandit_b.png","70","test","","","","","","","","","","","1","","","","","","","","",""
"null","131518","SARL_v6","SARL_v631upwb42","5f3d6975ef131710ed519c7a","fixation","","","img/fixation.png","null","","","test","","","","","","","","","","","","","","","","","","","",""
"386.89999985694885","131907","SARL_v6","SARL_v631upwb42","5f3d6975ef131710ed519c7a","freq","","","img/orange_2bandit_b2.png","70","","70","test","1","","18","","","","circle","square","18","18","1","1","","","","","","","",""
"null","132335","SARL_v6","SARL_v631upwb42","5f3d6975ef131710ed519c7a","freq_resp","","","img/orange_2bandit_b.png","70","img/orange_2bandit_b.png","70","test","","","","","","","","","","","1","","","","","","","","",""
"null","132490","SARL_v6","SARL_v631upwb42","5f3d6975ef131710ed519c7a","fixation","","","img/fixation.png","null","","","test","","","","","","","","","","","","","","","","","","","",""
"439.2000000476837","132931","SARL_v6","SARL_v631upwb42","5f3d6975ef131710ed519c7a","freq","","","img/orange_2bandit_b2.png","70","","70","test","1","","19","","","","circle","square","19","19","1","1","","","","","","","",""
"null","133293","SARL_v6","SARL_v631upwb42","5f3d6975ef131710ed519c7a","freq_resp","","","img/orange_2bandit_b.png","70","img/orange_2bandit_b.png","70","test","","","","","","","","","","","1","","","","","","","","",""
"null","133449","SARL_v6","SARL_v631upwb42","5f3d6975ef131710ed519c7a","fixation","","","img/fixation.png","null","","","test","","","","","","","","","","","","","","","","","","","",""
"408","133859","SARL_v6","SARL_v631upwb42","5f3d6975ef131710ed519c7a","freq","","","img/orange_2bandit_b2.png","70","","70","test","1","","20","","","","circle","square","20","20","1","1","","","","","","","",""
"null","134267","SARL_v6","SARL_v631upwb42","5f3d6975ef131710ed519c7a","freq_resp","","","img/orange_2bandit_b.png","70","img/orange_2bandit_b.png","70","test","","","","","","","","","","","1","","","","","","","","",""
"null","134420","SARL_v6","SARL_v631upwb42","5f3d6975ef131710ed519c7a","fixation","","","img/fixation.png","null","","","test","","","","","","","","","","","","","","","","","","","",""
"372.7999999523163","134795","SARL_v6","SARL_v631upwb42","5f3d6975ef131710ed519c7a","freq","","","img/orange_2bandit_b2.png","70","","70","test","1","","21","","","","circle","square","21","21","1","1","","","","","","","",""
"null","135238","SARL_v6","SARL_v631upwb42","5f3d6975ef131710ed519c7a","freq_resp","","","img/orange_2bandit_b.png","70","img/orange_2bandit_b.png","70","test","","","","","","","","","","","1","","","","","","","","",""
"null","135391","SARL_v6","SARL_v631upwb42","5f3d6975ef131710ed519c7a","fixation","","","img/fixation.png","null","","","test","","","","","","","","","","","","","","","","","","","",""
"617.7000000476837","136011","SARL_v6","SARL_v631upwb42","5f3d6975ef131710ed519c7a","rl","","","img/black_2bandit_b2.png","75","","0","test","","","22","","","-3","circle","square","","0","1","","75","-3","-3","-3","-3","square","1","0"
"null","136768","SARL_v6","SARL_v631upwb42","5f3d6975ef131710ed519c7a","feedback","","","<div class=""verylowPoints_sq""> -3 </div>","null","","na","test","","","NaN","","","","","","","","1","","75","","","","","","1",""
"328.7000000476837","137099","SARL_v6","SARL_v631upwb42","5f3d6975ef131710ed519c7a","freq","","","img/orange_2bandit_b2.png","70","","70","test","1","","23","","","","circle","square","22","1","2","1","","","","","","","",""
"null","137586","SARL_v6","SARL_v631upwb42","5f3d6975ef131710ed519c7a","freq_resp","","","img/orange_2bandit_b.png","70","img/orange_2bandit_b.png","70","test","","","","","","","","","","","2","","","","","","","","",""
"null","137742","SARL_v6","SARL_v631upwb42","5f3d6975ef131710ed519c7a","fixation","","","img/fixation.png","null","","","test","","","","","","","","","","","","","","","","","","","",""
"338.7000000476837","138083","SARL_v6","SARL_v631upwb42","5f3d6975ef131710ed519c7a","freq","","","img/orange_2bandit_b2.png","70","","70","test","1","","24","","","","circle","square","23","2","2","1","","","","","","","",""
"null","138547","SARL_v6","SARL_v631upwb42","5f3d6975ef131710ed519c7a","freq_resp","","","img/orange_2bandit_b.png","70","img/orange_2bandit_b.png","70","test","","","","","","","","","","","2","","","","","","","","",""
"null","138702","SARL_v6","SARL_v631upwb42","5f3d6975ef131710ed519c7a","fixation","","","img/fixation.png","null","","","test","","","","","","","","","","","","","","","","","","","",""
"371.5","139075","SARL_v6","SARL_v631upwb42","5f3d6975ef131710ed519c7a","freq","","","img/orange_2bandit_b2.png","70","","70","test","1","","25","","","","circle","square","24","3","2","1","","","","","","","",""
"null","139518","SARL_v6","SARL_v631upwb42","5f3d6975ef131710ed519c7a","freq_resp","","","img/orange_2bandit_b.png","70","img/orange_2bandit_b.png","70","test","","","","","","","","","","","2","","","","","","","","",""
"null","139671","SARL_v6","SARL_v631upwb42","5f3d6975ef131710ed519c7a","fixation","","","img/fixation.png","null","","","test","","","","","","","","","","","","","","","","","","","",""
"370","140043","SARL_v6","SARL_v631upwb42","5f3d6975ef131710ed519c7a","freq","","","img/orange_2bandit_b2.png","70","","70","test","1","","26","","","","circle","square","25","4","2","1","","","","","","","",""
"null","140490","SARL_v6","SARL_v631upwb42","5f3d6975ef131710ed519c7a","freq_resp","","","img/orange_2bandit_b.png","70","img/orange_2bandit_b.png","70","test","","","","","","","","","","","2","","","","","","","","",""
"null","140645","SARL_v6","SARL_v631upwb42","5f3d6975ef131710ed519c7a","fixation","","","img/fixation.png","null","","","test","","","","","","","","","","","","","","","","","","","",""
"444.59999990463257","141091","SARL_v6","SARL_v631upwb42","5f3d6975ef131710ed519c7a","freq","","","img/orange_2bandit_b2.png","70","","70","test","1","","27","","","","circle","square","26","5","2","1","","","","","","","",""
"null","141450","SARL_v6","SARL_v631upwb42","5f3d6975ef131710ed519c7a","freq_resp","","","img/orange_2bandit_b.png","70","img/orange_2bandit_b.png","70","test","","","","","","","","","","","2","","","","","","","","",""
"null","141603","SARL_v6","SARL_v631upwb42","5f3d6975ef131710ed519c7a","fixation","","","img/fixation.png","null","","","test","","","","","","","","","","","","","","","","","","","",""
"413.40000009536743","142018","SARL_v6","SARL_v631upwb42","5f3d6975ef131710ed519c7a","freq","","","img/orange_2bandit_b2.png","70","","70","test","1","","28","","","","circle","square","27","6","2","1","","","","","","","",""
"null","142410","SARL_v6","SARL_v631upwb42","5f3d6975ef131710ed519c7a","freq_resp","","","img/orange_2bandit_b.png","70","img/orange_2bandit_b.png","70","test","","","","","","","","","","","2","","","","","","","","",""
"null","142564","SARL_v6","SARL_v631upwb42","5f3d6975ef131710ed519c7a","fixation","","","img/fixation.png","null","","","test","","","","","","","","","","","","","","","","","","","",""
"380.7000000476837","142947","SARL_v6","SARL_v631upwb42","5f3d6975ef131710ed519c7a","freq","","","img/orange_2bandit_b2.png","70","","70","test","1","","29","","","","circle","square","28","7","2","1","","","","","","","",""
"null","143382","SARL_v6","SARL_v631upwb42","5f3d6975ef131710ed519c7a","freq_resp","","","img/orange_2bandit_b.png","70","img/orange_2bandit_b.png","70","test","","","","","","","","","","","2","","","","","","","","",""
"null","143535","SARL_v6","SARL_v631upwb42","5f3d6975ef131710ed519c7a","fixation","","","img/fixation.png","null","","","test","","","","","","","","","","","","","","","","","","","",""
"554.5999999046326","144091","SARL_v6","SARL_v631upwb42","5f3d6975ef131710ed519c7a","freq","","","img/orange_2bandit_b2.png","70","","70","test","1","","30","","","","circle","square","29","8","2","1","","","","","","","",""
"null","144352","SARL_v6","SARL_v631upwb42","5f3d6975ef131710ed519c7a","freq_resp","","","img/orange_2bandit_b.png","70","img/orange_2bandit_b.png","70","test","","","","","","","","","","","2","","","","","","","","",""
"null","144506","SARL_v6","SARL_v631upwb42","5f3d6975ef131710ed519c7a","fixation","","","img/fixation.png","null","","","test","","","","","","","","","","","","","","","","","","","",""
"454.7999999523163","144963","SARL_v6","SARL_v631upwb42","5f3d6975ef131710ed519c7a","freq","","","img/orange_2bandit_b2.png","70","","70","test","1","","31","","","","circle","square","30","9","2","1","","","","","","","",""
"null","145322","SARL_v6","SARL_v631upwb42","5f3d6975ef131710ed519c7a","freq_resp","","","img/orange_2bandit_b.png","70","img/orange_2bandit_b.png","70","test","","","","","","","","","","","2","","","","","","","","",""
"null","145476","SARL_v6","SARL_v631upwb42","5f3d6975ef131710ed519c7a","fixation","","","img/fixation.png","null","","","test","","","","","","","","","","","","","","","","","","","",""
"661.7000000476837","146139","SARL_v6","SARL_v631upwb42","5f3d6975ef131710ed519c7a","infreq","","","img/blue_2bandit_b2.png","68","","68","test","1","","32","","","","circle","square","31","10","2","1","","","","","","","",""
"null","146291","SARL_v6","SARL_v631upwb42","5f3d6975ef131710ed519c7a","infreq_resp","","","img/blue_2bandit_b.png","68","img/blue_2bandit_b.png","68","test","","","","","","","","","","","2","","","","","","","","",""
"null","146444","SARL_v6","SARL_v631upwb42","5f3d6975ef131710ed519c7a","fixation","","","img/fixation.png","null","","","test","","","","","","","","","","","","","","","","","","","",""
"532.7999999523163","146979","SARL_v6","SARL_v631upwb42","5f3d6975ef131710ed519c7a","freq","","","img/orange_2bandit_b2.png","70","","70","test","1","","33","","","","circle","square","32","11","2","1","","","","","","","",""
"null","147250","SARL_v6","SARL_v631upwb42","5f3d6975ef131710ed519c7a","freq_resp","","","img/orange_2bandit_b.png","70","img/orange_2bandit_b.png","70","test","","","","","","","","","","","2","","","","","","","","",""
"null","147403","SARL_v6","SARL_v631upwb42","5f3d6975ef131710ed519c7a","fixation","","","img/fixation.png","null","","","test","","","","","","","","","","","","","","","","","","","",""
"382.5","147787","SARL_v6","SARL_v631upwb42","5f3d6975ef131710ed519c7a","freq","","","img/orange_2bandit_b2.png","70","","70","test","1","","34","","","","circle","square","33","12","2","1","","","","","","","",""
"null","148207","SARL_v6","SARL_v631upwb42","5f3d6975ef131710ed519c7a","freq_resp","","","img/orange_2bandit_b.png","70","img/orange_2bandit_b.png","70","test","","","","","","","","","","","2","","","","","","","","",""
"null","148366","SARL_v6","SARL_v631upwb42","5f3d6975ef131710ed519c7a","fixation","","","img/fixation.png","null","","","test","","","","","","","","","","","","","","","","","","","",""
"475.7000000476837","148843","SARL_v6","SARL_v631upwb42","5f3d6975ef131710ed519c7a","infreq","","","img/blue_2bandit_b2.png","68","","68","test","1","","35","","","","circle","square","34","13","2","1","","","","","","","",""
"null","149170","SARL_v6","SARL_v631upwb42","5f3d6975ef131710ed519c7a","infreq_resp","","","img/blue_2bandit_b.png","68","img/blue_2bandit_b.png","68","test","","","","","","","","","","","2","","","","","","","","",""
"null","149325","SARL_v6","SARL_v631upwb42","5f3d6975ef131710ed519c7a","fixation","","","img/fixation.png","null","","","test","","","","","","","","","","","","","","","","","","","",""
"500","149827","SARL_v6","SARL_v631upwb42","5f3d6975ef131710ed519c7a","freq","","","img/orange_2bandit_b2.png","70","","70","test","1","","36","","","","circle","square","35","14","2","1","","","","","","","",""
"null","150130","SARL_v6","SARL_v631upwb42","5f3d6975ef131710ed519c7a","freq_resp","","","img/orange_2bandit_b.png","70","img/orange_2bandit_b.png","70","test","","","","","","","","","","","2","","","","","","","","",""
"null","150285","SARL_v6","SARL_v631upwb42","5f3d6975ef131710ed519c7a","fixation","","","img/fixation.png","null","","","test","","","","","","","","","","","","","","","","","","","",""
"356.80000019073486","150643","SARL_v6","SARL_v631upwb42","5f3d6975ef131710ed519c7a","freq","","","img/orange_2bandit_b2.png","70","","70","test","1","","37","","","","circle","square","36","15","2","1","","","","","","","",""
"null","151090","SARL_v6","SARL_v631upwb42","5f3d6975ef131710ed519c7a","freq_resp","","","img/orange_2bandit_b.png","70","img/orange_2bandit_b.png","70","test","","","","","","","","","","","2","","","","","","","","",""
"null","151244","SARL_v6","SARL_v631upwb42","5f3d6975ef131710ed519c7a","fixation","","","img/fixation.png","null","","","test","","","","","","","","","","","","","","","","","","","",""
"349.7000000476837","151595","SARL_v6","SARL_v631upwb42","5f3d6975ef131710ed519c7a","freq","","","img/orange_2bandit_b2.png","70","","70","test","1","","38","","","","circle","square","37","16","2","1","","","","","","","",""
"null","152062","SARL_v6","SARL_v631upwb42","5f3d6975ef131710ed519c7a","freq_resp","","","img/orange_2bandit_b.png","70","img/orange_2bandit_b.png","70","test","","","","","","","","","","","2","","","","","","","","",""
"null","152217","SARL_v6","SARL_v631upwb42","5f3d6975ef131710ed519c7a","fixation","","","img/fixation.png","null","","","test","","","","","","","","","","","","","","","","","","","",""
"351.5","152571","SARL_v6","SARL_v631upwb42","5f3d6975ef131710ed519c7a","freq","","","img/orange_2bandit_b2.png","70","","70","test","1","","39","","","","circle","square","38","17","2","1","","","","","","","",""
"null","153035","SARL_v6","SARL_v631upwb42","5f3d6975ef131710ed519c7a","freq_resp","","","img/orange_2bandit_b.png","70","img/orange_2bandit_b.png","70","test","","","","","","","","","","","2","","","","","","","","",""
"null","153188","SARL_v6","SARL_v631upwb42","5f3d6975ef131710ed519c7a","fixation","","","img/fixation.png","null","","","test","","","","","","","","","","","","","","","","","","","",""
"357.5","153547","SARL_v6","SARL_v631upwb42","5f3d6975ef131710ed519c7a","freq","","","img/orange_2bandit_b2.png","70","","70","test","1","","40","","","","circle","square","39","18","2","1","","","","","","","",""
"null","153993","SARL_v6","SARL_v631upwb42","5f3d6975ef131710ed519c7a","freq_resp","","","img/orange_2bandit_b.png","70","img/orange_2bandit_b.png","70","test","","","","","","","","","","","2","","","","","","","","",""
"null","154147","SARL_v6","SARL_v631upwb42","5f3d6975ef131710ed519c7a","fixation","","","img/fixation.png","null","","","test","","","","","","","","","","","","","","","","","","","",""
"526.5999999046326","154675","SARL_v6","SARL_v631upwb42","5f3d6975ef131710ed519c7a","infreq","","","img/blue_2bandit_b2.png","68","","68","test","1","","41","","","","circle","square","40","19","2","1","","","","","","","",""
"null","154964","SARL_v6","SARL_v631upwb42","5f3d6975ef131710ed519c7a","infreq_resp","","","img/blue_2bandit_b.png","68","img/blue_2bandit_b.png","68","test","","","","","","","","","","","2","","","","","","","","",""
"null","155119","SARL_v6","SARL_v631upwb42","5f3d6975ef131710ed519c7a","fixation","","","img/fixation.png","null","","","test","","","","","","","","","","","","","","","","","","","",""
"577.9000000953674","155699","SARL_v6","SARL_v631upwb42","5f3d6975ef131710ed519c7a","freq","","","img/orange_2bandit_b2.png","70","","70","test","1","","42","","","","circle","square","41","20","2","1","","","","","","","",""
"null","155925","SARL_v6","SARL_v631upwb42","5f3d6975ef131710ed519c7a","freq_resp","","","img/orange_2bandit_b.png","70","img/orange_2bandit_b.png","70","test","","","","","","","","","","","2","","","","","","","","",""
"null","156080","SARL_v6","SARL_v631upwb42","5f3d6975ef131710ed519c7a","fixation","","","img/fixation.png","null","","","test","","","","","","","","","","","","","","","","","","","",""
"393.2999999523163","156475","SARL_v6","SARL_v631upwb42","5f3d6975ef131710ed519c7a","freq","","","img/orange_2bandit_b2.png","70","","70","test","1","","43","","","","circle","square","42","21","2","1","","","","","","","",""
"null","156885","SARL_v6","SARL_v631upwb42","5f3d6975ef131710ed519c7a","freq_resp","","","img/orange_2bandit_b.png","70","img/orange_2bandit_b.png","70","test","","","","","","","","","","","2","","","","","","","","",""
"null","157039","SARL_v6","SARL_v631upwb42","5f3d6975ef131710ed519c7a","fixation","","","img/fixation.png","null","","","test","","","","","","","","","","","","","","","","","","","",""
"474","157515","SARL_v6","SARL_v631upwb42","5f3d6975ef131710ed519c7a","freq","","","img/orange_2bandit_b2.png","70","","70","test","1","","44","","","","circle","square","43","22","2","1","","","","","","","",""
"null","157846","SARL_v6","SARL_v631upwb42","5f3d6975ef131710ed519c7a","freq_resp","","","img/orange_2bandit_b.png","70","img/orange_2bandit_b.png","70","test","","","","","","","","","","","2","","","","","","","","",""
"null","158001","SARL_v6","SARL_v631upwb42","5f3d6975ef131710ed519c7a","fixation","","","img/fixation.png","null","","","test","","","","","","","","","","","","","","","","","","","",""
"351.7999999523163","158355","SARL_v6","SARL_v631upwb42","5f3d6975ef131710ed519c7a","freq","","","img/orange_2bandit_b2.png","70","","70","test","1","","45","","","","circle","square","44","23","2","1","","","","","","","",""
"null","158819","SARL_v6","SARL_v631upwb42","5f3d6975ef131710ed519c7a","freq_resp","","","img/orange_2bandit_b.png","70","img/orange_2bandit_b.png","70","test","","","","","","","","","","","2","","","","","","","","",""
"null","158973","SARL_v6","SARL_v631upwb42","5f3d6975ef131710ed519c7a","fixation","","","img/fixation.png","null","","","test","","","","","","","","","","","","","","","","","","","",""
"652","159627","SARL_v6","SARL_v631upwb42","5f3d6975ef131710ed519c7a","freq","","","img/orange_2bandit_b2.png","70","","70","test","1","","46","","","","circle","square","45","24","2","1","","","","","","","",""
"null","159777","SARL_v6","SARL_v631upwb42","5f3d6975ef131710ed519c7a","freq_resp","","","img/orange_2bandit_b.png","70","img/orange_2bandit_b.png","70","test","","","","","","","","","","","2","","","","","","","","",""
"null","159932","SARL_v6","SARL_v631upwb42","5f3d6975ef131710ed519c7a","fixation","","","img/fixation.png","null","","","test","","","","","","","","","","","","","","","","","","","",""
"452.90000009536743","160387","SARL_v6","SARL_v631upwb42","5f3d6975ef131710ed519c7a","freq","","","img/orange_2bandit_b2.png","70","","70","test","1","","47","","","","circle","square","46","25","2","1","","","","","","","",""
"null","160751","SARL_v6","SARL_v631upwb42","5f3d6975ef131710ed519c7a","freq_resp","","","img/orange_2bandit_b.png","70","img/orange_2bandit_b.png","70","test","","","","","","","","","","","2","","","","","","","","",""
"null","160906","SARL_v6","SARL_v631upwb42","5f3d6975ef131710ed519c7a","fixation","","","img/fixation.png","null","","","test","","","","","","","","","","","","","","","","","","","",""
"710.6999998092651","161619","SARL_v6","SARL_v631upwb42","5f3d6975ef131710ed519c7a","rl","","","img/black_2bandit_b2.png","75","","0","test","","","48","","","-8","circle","square","","0","2","","75","-5","-8","-5","-8","square","2","0"
"null","162376","SARL_v6","SARL_v631upwb42","5f3d6975ef131710ed519c7a","feedback","","","<div class=""verylowPoints_sq""> -8 </div>","null","","na","test","","","NaN","","","","","","","","2","","75","","","","","","2",""
"473.40000009536743","162851","SARL_v6","SARL_v631upwb42","5f3d6975ef131710ed519c7a","freq","","","img/orange_2bandit_b2.png","70","","70","test","1","","49","","","","circle","square","47","1","3","1","","","","","","","",""
"null","163180","SARL_v6","SARL_v631upwb42","5f3d6975ef131710ed519c7a","freq_resp","","","img/orange_2bandit_b.png","70","img/orange_2bandit_b.png","70","test","","","","","","","","","","","3","","","","","","","","",""
"null","163333","SARL_v6","SARL_v631upwb42","5f3d6975ef131710ed519c7a","fixation","","","img/fixation.png","null","","","test","","","","","","","","","","","","","","","","","","","",""
"467.7000000476837","163803","SARL_v6","SARL_v631upwb42","5f3d6975ef131710ed519c7a","freq","","","img/orange_2bandit_b2.png","70","","70","test","1","","50","","","","circle","square","48","2","3","1","","","","","","","",""
"null","164139","SARL_v6","SARL_v631upwb42","5f3d6975ef131710ed519c7a","freq_resp","","","img/orange_2bandit_b.png","70","img/orange_2bandit_b.png","70","test","","","","","","","","","","","3","","","","","","","","",""
"null","164293","SARL_v6","SARL_v631upwb42","5f3d6975ef131710ed519c7a","fixation","","","img/fixation.png","null","","","test","","","","","","","","","","","","","","","","","","","",""
"348.59999990463257","164643","SARL_v6","SARL_v631upwb42","5f3d6975ef131710ed519c7a","freq","","","img/orange_2bandit_b2.png","70","","70","test","1","","51","","","","circle","square","49","3","3","1","","","","","","","",""
"null","165097","SARL_v6","SARL_v631upwb42","5f3d6975ef131710ed519c7a","freq_resp","","","img/orange_2bandit_b.png","70","img/orange_2bandit_b.png","70","test","","","","","","","","","","","3","","","","","","","","",""
"null","165252","SARL_v6","SARL_v631upwb42","5f3d6975ef131710ed519c7a","fixation","","","img/fixation.png","null","","","test","","","","","","","","","","","","","","","","","","","",""
"373.39999985694885","165627","SARL_v6","SARL_v631upwb42","5f3d6975ef131710ed519c7a","freq","","","img/orange_2bandit_b2.png","70","","70","test","1","","52","","","","circle","square","50","4","3","1","","","","","","","",""
"null","166070","SARL_v6","SARL_v631upwb42","5f3d6975ef131710ed519c7a","freq_resp","","","img/orange_2bandit_b.png","70","img/orange_2bandit_b.png","70","test","","","","","","","","","","","3","","","","","","","","",""
"null","166225","SARL_v6","SARL_v631upwb42","5f3d6975ef131710ed519c7a","fixation","","","img/fixation.png","null","","","test","","","","","","","","","","","","","","","","","","","",""
"295.39999985694885","166522","SARL_v6","SARL_v631upwb42","5f3d6975ef131710ed519c7a","infreq","","","img/blue_2bandit_b2.png","70","","68","test","0","","53","","","","circle","square","51","5","3","0.9803921568627451","","","","","","","",""
"null","167031","SARL_v6","SARL_v631upwb42","5f3d6975ef131710ed519c7a","infreq_resp","","","img/blue_2bandit_b.png","70","img/blue_2bandit_b.png","68","test","","","","","","","","","","","3","","","","","","","","",""
"null","167186","SARL_v6","SARL_v631upwb42","5f3d6975ef131710ed519c7a","fixation","","","img/fixation.png","null","","","test","","","","","","","","","","","","","","","","","","","",""
"486.69999980926514","167675","SARL_v6","SARL_v631upwb42","5f3d6975ef131710ed519c7a","freq","","","img/orange_2bandit_b2.png","70","","70","test","1","","54","","","","circle","square","52","6","3","0.9807692307692307","","","","","","","",""
"null","168004","SARL_v6","SARL_v631upwb42","5f3d6975ef131710ed519c7a","freq_resp","","","img/orange_2bandit_b.png","70","img/orange_2bandit_b.png","70","test","","","","","","","","","","","3","","","","","","","","",""
"null","168158","SARL_v6","SARL_v631upwb42","5f3d6975ef131710ed519c7a","fixation","","","img/fixation.png","null","","","test","","","","","","","","","","","","","","","","","","","",""
"378.90000009536743","168539","SARL_v6","SARL_v631upwb42","5f3d6975ef131710ed519c7a","freq","","","img/orange_2bandit_b2.png","70","","70","test","1","","55","","","","circle","square","53","7","3","0.9811320754716981","","","","","","","",""
"null","168963","SARL_v6","SARL_v631upwb42","5f3d6975ef131710ed519c7a","freq_resp","","","img/orange_2bandit_b.png","70","img/orange_2bandit_b.png","70","test","","","","","","","","","","","3","","","","","","","","",""
"null","169117","SARL_v6","SARL_v631upwb42","5f3d6975ef131710ed519c7a","fixation","","","img/fixation.png","null","","","test","","","","","","","","","","","","","","","","","","","",""
"340.2000000476837","169459","SARL_v6","SARL_v631upwb42","5f3d6975ef131710ed519c7a","freq","","","img/orange_2bandit_b2.png","70","","70","test","1","","56","","","","circle","square","54","8","3","0.9814814814814815","","","","","","","",""
"null","169922","SARL_v6","SARL_v631upwb42","5f3d6975ef131710ed519c7a","freq_resp","","","img/orange_2bandit_b.png","70","img/orange_2bandit_b.png","70","test","","","","","","","","","","","3","","","","","","","","",""
"null","170075","SARL_v6","SARL_v631upwb42","5f3d6975ef131710ed519c7a","fixation","","","img/fixation.png","null","","","test","","","","","","","","","","","","","","","","","","","",""
"397.60000014305115","170475","SARL_v6","SARL_v631upwb42","5f3d6975ef131710ed519c7a","freq","","","img/orange_2bandit_b2.png","70","","70","test","1","","57","","","","circle","square","55","9","3","0.9818181818181818","","","","","","","",""
"null","170880","SARL_v6","SARL_v631upwb42","5f3d6975ef131710ed519c7a","freq_resp","","","img/orange_2bandit_b.png","70","img/orange_2bandit_b.png","70","test","","","","","","","","","","","3","","","","","","","","",""
"null","171035","SARL_v6","SARL_v631upwb42","5f3d6975ef131710ed519c7a","fixation","","","img/fixation.png","null","","","test","","","","","","","","","","","","","","","","","","","",""
"366.60000014305115","171403","SARL_v6","SARL_v631upwb42","5f3d6975ef131710ed519c7a","freq","","","img/orange_2bandit_b2.png","70","","70","test","1","","58","","","","circle","square","56","10","3","0.9821428571428571","","","","","","","",""
"null","171850","SARL_v6","SARL_v631upwb42","5f3d6975ef131710ed519c7a","freq_resp","","","img/orange_2bandit_b.png","70","img/orange_2bandit_b.png","70","test","","","","","","","","","","","3","","","","","","","","",""
"null","172005","SARL_v6","SARL_v631upwb42","5f3d6975ef131710ed519c7a","fixation","","","img/fixation.png","null","","","test","","","","","","","","","","","","","","","","","","","",""
"460.2000000476837","172467","SARL_v6","SARL_v631upwb42","5f3d6975ef131710ed519c7a","infreq","","","img/blue_2bandit_b2.png","68","","68","test","1","","59","","","","circle","square","57","11","3","0.9824561403508771","","","","","","","",""
"null","172820","SARL_v6","SARL_v631upwb42","5f3d6975ef131710ed519c7a","infreq_resp","","","img/blue_2bandit_b.png","68","img/blue_2bandit_b.png","68","test","","","","","","","","","","","3","","","","","","","","",""
"null","172975","SARL_v6","SARL_v631upwb42","5f3d6975ef131710ed519c7a","fixation","","","img/fixation.png","null","","","test","","","","","","","","","","","","","","","","","","","",""
"593.4000000953674","173570","SARL_v6","SARL_v631upwb42","5f3d6975ef131710ed519c7a","freq","","","img/orange_2bandit_b2.png","70","","70","test","1","","60","","","","circle","square","58","12","3","0.9827586206896551","","","","","","","",""
"null","173782","SARL_v6","SARL_v631upwb42","5f3d6975ef131710ed519c7a","freq_resp","","","img/orange_2bandit_b.png","70","img/orange_2bandit_b.png","70","test","","","","","","","","","","","3","","","","","","","","",""
"null","173936","SARL_v6","SARL_v631upwb42","5f3d6975ef131710ed519c7a","fixation","","","img/fixation.png","null","","","test","","","","","","","","","","","","","","","","","","","",""
"473.09999990463257","174411","SARL_v6","SARL_v631upwb42","5f3d6975ef131710ed519c7a","freq","","","img/orange_2bandit_b2.png","70","","70","test","1","","61","","","","circle","square","59","13","3","0.9830508474576272","","","","","","","",""
"null","174753","SARL_v6","SARL_v631upwb42","5f3d6975ef131710ed519c7a","freq_resp","","","img/orange_2bandit_b.png","70","img/orange_2bandit_b.png","70","test","","","","","","","","","","","3","","","","","","","","",""
"null","174907","SARL_v6","SARL_v631upwb42","5f3d6975ef131710ed519c7a","fixation","","","img/fixation.png","null","","","test","","","","","","","","","","","","","","","","","","","",""
"461.7999999523163","175371","SARL_v6","SARL_v631upwb42","5f3d6975ef131710ed519c7a","freq","","","img/orange_2bandit_b2.png","70","","70","test","1","","62","","","","circle","square","60","14","3","0.9833333333333333","","","","","","","",""
"null","175724","SARL_v6","SARL_v631upwb42","5f3d6975ef131710ed519c7a","freq_resp","","","img/orange_2bandit_b.png","70","img/orange_2bandit_b.png","70","test","","","","","","","","","","","3","","","","","","","","",""
"null","175878","SARL_v6","SARL_v631upwb42","5f3d6975ef131710ed519c7a","fixation","","","img/fixation.png","null","","","test","","","","","","","","","","","","","","","","","","","",""
"403.59999990463257","176283","SARL_v6","SARL_v631upwb42","5f3d6975ef131710ed519c7a","freq","","","img/orange_2bandit_b2.png","70","","70","test","1","","63","","","","circle","square","61","15","3","0.9836065573770492","","","","","","","",""
"null","176683","SARL_v6","SARL_v631upwb42","5f3d6975ef131710ed519c7a","freq_resp","","","img/orange_2bandit_b.png","70","img/orange_2bandit_b.png","70","test","","","","","","","","","","","3","","","","","","","","",""
"null","176838","SARL_v6","SARL_v631upwb42","5f3d6975ef131710ed519c7a","fixation","","","img/fixation.png","null","","","test","","","","","","","","","","","","","","","","","","","",""
"674.5","177515","SARL_v6","SARL_v631upwb42","5f3d6975ef131710ed519c7a","freq","","","img/orange_2bandit_b2.png","70","","70","test","1","","64","","","","circle","square","62","16","3","0.9838709677419355","","","","","","","",""
"null","177646","SARL_v6","SARL_v631upwb42","5f3d6975ef131710ed519c7a","freq_resp","","","img/orange_2bandit_b.png","70","img/orange_2bandit_b.png","70","test","","","","","","","","","","","3","","","","","","","","",""
"null","177800","SARL_v6","SARL_v631upwb42","5f3d6975ef131710ed519c7a","fixation","","","img/fixation.png","null","","","test","","","","","","","","","","","","","","","","","","","",""
"561.2000000476837","178363","SARL_v6","SARL_v631upwb42","5f3d6975ef131710ed519c7a","freq","","","img/orange_2bandit_b2.png","70","","70","test","1","","65","","","","circle","square","63","17","3","0.9841269841269841","","","","","","","",""
"null","178606","SARL_v6","SARL_v631upwb42","5f3d6975ef131710ed519c7a","freq_resp","","","img/orange_2bandit_b.png","70","img/orange_2bandit_b.png","70","test","","","","","","","","","","","3","","","","","","","","",""
"null","178761","SARL_v6","SARL_v631upwb42","5f3d6975ef131710ed519c7a","fixation","","","img/fixation.png","null","","","test","","","","","","","","","","","","","","","","","","","",""
"384.7999999523163","179147","SARL_v6","SARL_v631upwb42","5f3d6975ef131710ed519c7a","freq","","","img/orange_2bandit_b2.png","70","","70","test","1","","66","","","","circle","square","64","18","3","0.984375","","","","","","","",""
"null","179568","SARL_v6","SARL_v631upwb42","5f3d6975ef131710ed519c7a","freq_resp","","","img/orange_2bandit_b.png","70","img/orange_2bandit_b.png","70","test","","","","","","","","","","","3","","","","","","","","",""
"null","179723","SARL_v6","SARL_v631upwb42","5f3d6975ef131710ed519c7a","fixation","","","img/fixation.png","null","","","test","","","","","","","","","","","","","","","","","","","",""
"366.40000009536743","180091","SARL_v6","SARL_v631upwb42","5f3d6975ef131710ed519c7a","freq","","","img/orange_2bandit_b2.png","70","","70","test","1","","67","","","","circle","square","65","19","3","0.9846153846153847","","","","","","","",""
"null","180526","SARL_v6","SARL_v631upwb42","5f3d6975ef131710ed519c7a","freq_resp","","","img/orange_2bandit_b.png","70","img/orange_2bandit_b.png","70","test","","","","","","","","","","","3","","","","","","","","",""
"null","180681","SARL_v6","SARL_v631upwb42","5f3d6975ef131710ed519c7a","fixation","","","img/fixation.png","null","","","test","","","","","","","","","","","","","","","","","","","",""
"376.19999980926514","181058","SARL_v6","SARL_v631upwb42","5f3d6975ef131710ed519c7a","freq","","","img/orange_2bandit_b2.png","70","","70","test","1","","68","","","","circle","square","66","20","3","0.9848484848484849","","","","","","","",""
"null","181485","SARL_v6","SARL_v631upwb42","5f3d6975ef131710ed519c7a","freq_resp","","","img/orange_2bandit_b.png","70","img/orange_2bandit_b.png","70","test","","","","","","","","","","","3","","","","","","","","",""
"null","181640","SARL_v6","SARL_v631upwb42","5f3d6975ef131710ed519c7a","fixation","","","img/fixation.png","null","","","test","","","","","","","","","","","","","","","","","","","",""
"633.2000000476837","182274","SARL_v6","SARL_v631upwb42","5f3d6975ef131710ed519c7a","rl","","","img/black_2bandit_b2.png","74","","0","test","","","69","","","-4","circle","square","","0","3","","74","-4","-8","-4","-8","circle","3","0"
"null","183031","SARL_v6","SARL_v631upwb42","5f3d6975ef131710ed519c7a","feedback","","","<div class=""verylowPoints""> -4 </div>","null","","na","test","","","NaN","","","","","","","","3","","74","","","","","","3",""
"481.60000014305115","183514","SARL_v6","SARL_v631upwb42","5f3d6975ef131710ed519c7a","freq","","","img/orange_2bandit_b2.png","70","","70","test","1","","70","","","","circle","square","67","1","4","0.9850746268656716","","","","","","","",""
"null","183848","SARL_v6","SARL_v631upwb42","5f3d6975ef131710ed519c7a","freq_resp","","","img/orange_2bandit_b.png","70","img/orange_2bandit_b.png","70","test","","","","","","","","","","","4","","","","","","","","",""
"null","184002","SARL_v6","SARL_v631upwb42","5f3d6975ef131710ed519c7a","fixation","","","img/fixation.png","null","","","test","","","","","","","","","","","","","","","","","","","",""
"382.39999985694885","184386","SARL_v6","SARL_v631upwb42","5f3d6975ef131710ed519c7a","freq","","","img/orange_2bandit_b2.png","70","","70","test","1","","71","","","","circle","square","68","2","4","0.9852941176470589","","","","","","","",""
"null","184819","SARL_v6","SARL_v631upwb42","5f3d6975ef131710ed519c7a","freq_resp","","","img/orange_2bandit_b.png","70","img/orange_2bandit_b.png","70","test","","","","","","","","","","","4","","","","","","","","",""
"null","184974","SARL_v6","SARL_v631upwb42","5f3d6975ef131710ed519c7a","fixation","","","img/fixation.png","null","","","test","","","","","","","","","","","","","","","","","","","",""
"355","185331","SARL_v6","SARL_v631upwb42","5f3d6975ef131710ed519c7a","freq","","","img/orange_2bandit_b2.png","70","","70","test","1","","72","","","","circle","square","69","3","4","0.9855072463768116","","","","","","","",""
"null","185778","SARL_v6","SARL_v631upwb42","5f3d6975ef131710ed519c7a","freq_resp","","","img/orange_2bandit_b.png","70","img/orange_2bandit_b.png","70","test","","","","","","","","","","","4","","","","","","","","",""
"null","185933","SARL_v6","SARL_v631upwb42","5f3d6975ef131710ed519c7a","fixation","","","img/fixation.png","null","","","test","","","","","","","","","","","","","","","","","","","",""
"379.7000000476837","186314","SARL_v6","SARL_v631upwb42","5f3d6975ef131710ed519c7a","freq","","","img/orange_2bandit_b2.png","70","","70","test","1","","73","","","","circle","square","70","4","4","0.9857142857142858","","","","","","","",""
"null","186738","SARL_v6","SARL_v631upwb42","5f3d6975ef131710ed519c7a","freq_resp","","","img/orange_2bandit_b.png","70","img/orange_2bandit_b.png","70","test","","","","","","","","","","","4","","","","","","","","",""
"null","186893","SARL_v6","SARL_v631upwb42","5f3d6975ef131710ed519c7a","fixation","","","img/fixation.png","null","","","test","","","","","","","","","","","","","","","","","","","",""
"363.5","187259","SARL_v6","SARL_v631upwb42","5f3d6975ef131710ed519c7a","freq","","","img/orange_2bandit_b2.png","70","","70","test","1","","74","","","","circle","square","71","5","4","0.9859154929577465","","","","","","","",""
"null","187698","SARL_v6","SARL_v631upwb42","5f3d6975ef131710ed519c7a","freq_resp","","","img/orange_2bandit_b.png","70","img/orange_2bandit_b.png","70","test","","","","","","","","","","","4","","","","","","","","",""
"null","187853","SARL_v6","SARL_v631upwb42","5f3d6975ef131710ed519c7a","fixation","","","img/fixation.png","null","","","test","","","","","","","","","","","","","","","","","","","",""
"579.5","188434","SARL_v6","SARL_v631upwb42","5f3d6975ef131710ed519c7a","freq","","","img/orange_2bandit_b2.png","70","","70","test","1","","75","","","","circle","square","72","6","4","0.9861111111111112","","","","","","","",""
"null","188671","SARL_v6","SARL_v631upwb42","5f3d6975ef131710ed519c7a","freq_resp","","","img/orange_2bandit_b.png","70","img/orange_2bandit_b.png","70","test","","","","","","","","","","","4","","","","","","","","",""
"null","188825","SARL_v6","SARL_v631upwb42","5f3d6975ef131710ed519c7a","fixation","","","img/fixation.png","null","","","test","","","","","","","","","","","","","","","","","","","",""
"631.6999998092651","189458","SARL_v6","SARL_v631upwb42","5f3d6975ef131710ed519c7a","infreq","","","img/blue_2bandit_b2.png","68","","68","test","1","","76","","","","circle","square","73","7","4","0.9863013698630136","","","","","","","",""
"null","189642","SARL_v6","SARL_v631upwb42","5f3d6975ef131710ed519c7a","infreq_resp","","","img/blue_2bandit_b.png","68","img/blue_2bandit_b.png","68","test","","","","","","","","","","","4","","","","","","","","",""
"null","189798","SARL_v6","SARL_v631upwb42","5f3d6975ef131710ed519c7a","fixation","","","img/fixation.png","null","","","test","","","","","","","","","","","","","","","","","","","",""
"507.10000014305115","190306","SARL_v6","SARL_v631upwb42","5f3d6975ef131710ed519c7a","freq","","","img/orange_2bandit_b2.png","70","","70","test","1","","77","","","","circle","square","74","8","4","0.9864864864864865","","","","","","","",""
"null","190615","SARL_v6","SARL_v631upwb42","5f3d6975ef131710ed519c7a","freq_resp","","","img/orange_2bandit_b.png","70","img/orange_2bandit_b.png","70","test","","","","","","","","","","","4","","","","","","","","",""
"null","190768","SARL_v6","SARL_v631upwb42","5f3d6975ef131710ed519c7a","fixation","","","img/fixation.png","null","","","test","","","","","","","","","","","","","","","","","","","",""
"361.09999990463257","191131","SARL_v6","SARL_v631upwb42","5f3d6975ef131710ed519c7a","freq","","","img/orange_2bandit_b2.png","70","","70","test","1","","78","","","","circle","square","75","9","4","0.9866666666666667","","","","","","","",""
"null","191584","SARL_v6","SARL_v631upwb42","5f3d6975ef131710ed519c7a","freq_resp","","","img/orange_2bandit_b.png","70","img/orange_2bandit_b.png","70","test","","","","","","","","","","","4","","","","","","","","",""
"null","191738","SARL_v6","SARL_v631upwb42","5f3d6975ef131710ed519c7a","fixation","","","img/fixation.png","null","","","test","","","","","","","","","","","","","","","","","","","",""
"366.7999999523163","192106","SARL_v6","SARL_v631upwb42","5f3d6975ef131710ed519c7a","freq","","","img/orange_2bandit_b2.png","70","","70","test","1","","79","","","","circle","square","76","10","4","0.9868421052631579","","","","","","","",""
"null","192554","SARL_v6","SARL_v631upwb42","5f3d6975ef131710ed519c7a","freq_resp","","","img/orange_2bandit_b.png","70","img/orange_2bandit_b.png","70","test","","","","","","","","","","","4","","","","","","","","",""
"null","192708","SARL_v6","SARL_v631upwb42","5f3d6975ef131710ed519c7a","fixation","","","img/fixation.png","null","","","test","","","","","","","","","","","","","","","","","","","",""
"309","193018","SARL_v6","SARL_v631upwb42","5f3d6975ef131710ed519c7a","freq","","","img/orange_2bandit_b2.png","70","","70","test","1","","80","","","","circle","square","77","11","4","0.987012987012987","","","","","","","",""
"null","193525","SARL_v6","SARL_v631upwb42","5f3d6975ef131710ed519c7a","freq_resp","","","img/orange_2bandit_b.png","70","img/orange_2bandit_b.png","70","test","","","","","","","","","","","4","","","","","","","","",""
"null","193681","SARL_v6","SARL_v631upwb42","5f3d6975ef131710ed519c7a","fixation","","","img/fixation.png","null","","","test","","","","","","","","","","","","","","","","","","","",""
"303.7999999523163","193987","SARL_v6","SARL_v631upwb42","5f3d6975ef131710ed519c7a","freq","","","img/orange_2bandit_b2.png","70","","70","test","1","","81","","","","circle","square","78","12","4","0.9871794871794872","","","","","","","",""
"null","194485","SARL_v6","SARL_v631upwb42","5f3d6975ef131710ed519c7a","freq_resp","","","img/orange_2bandit_b.png","70","img/orange_2bandit_b.png","70","test","","","","","","","","","","","4","","","","","","","","",""
"null","194639","SARL_v6","SARL_v631upwb42","5f3d6975ef131710ed519c7a","fixation","","","img/fixation.png","null","","","test","","","","","","","","","","","","","","","","","","","",""
"345.7000000476837","194986","SARL_v6","SARL_v631upwb42","5f3d6975ef131710ed519c7a","freq","","","img/orange_2bandit_b2.png","70","","70","test","1","","82","","","","circle","square","79","13","4","0.9873417721518988","","","","","","","",""
"null","195458","SARL_v6","SARL_v631upwb42","5f3d6975ef131710ed519c7a","freq_resp","","","img/orange_2bandit_b.png","70","img/orange_2bandit_b.png","70","test","","","","","","","","","","","4","","","","","","","","",""
"null","195612","SARL_v6","SARL_v631upwb42","5f3d6975ef131710ed519c7a","fixation","","","img/fixation.png","null","","","test","","","","","","","","","","","","","","","","","","","",""
"604.5999999046326","196218","SARL_v6","SARL_v631upwb42","5f3d6975ef131710ed519c7a","infreq","","","img/blue_2bandit_b2.png","68","","68","test","1","","83","","","","circle","square","80","14","4","0.9875","","","","","","","",""
"null","196419","SARL_v6","SARL_v631upwb42","5f3d6975ef131710ed519c7a","infreq_resp","","","img/blue_2bandit_b.png","68","img/blue_2bandit_b.png","68","test","","","","","","","","","","","4","","","","","","","","",""
"null","196574","SARL_v6","SARL_v631upwb42","5f3d6975ef131710ed519c7a","fixation","","","img/fixation.png","null","","","test","","","","","","","","","","","","","","","","","","","",""
"498.59999990463257","197074","SARL_v6","SARL_v631upwb42","5f3d6975ef131710ed519c7a","freq","","","img/orange_2bandit_b2.png","70","","70","test","1","","84","","","","circle","square","81","15","4","0.9876543209876543","","","","","","","",""
"null","197378","SARL_v6","SARL_v631upwb42","5f3d6975ef131710ed519c7a","freq_resp","","","img/orange_2bandit_b.png","70","img/orange_2bandit_b.png","70","test","","","","","","","","","","","4","","","","","","","","",""
"null","197531","SARL_v6","SARL_v631upwb42","5f3d6975ef131710ed519c7a","fixation","","","img/fixation.png","null","","","test","","","","","","","","","","","","","","","","","","","",""
"382","197914","SARL_v6","SARL_v631upwb42","5f3d6975ef131710ed519c7a","freq","","","img/orange_2bandit_b2.png","70","","70","test","1","","85","","","","circle","square","82","16","4","0.9878048780487805","","","","","","","",""
"null","198347","SARL_v6","SARL_v631upwb42","5f3d6975ef131710ed519c7a","freq_resp","","","img/orange_2bandit_b.png","70","img/orange_2bandit_b.png","70","test","","","","","","","","","","","4","","","","","","","","",""
"null","198501","SARL_v6","SARL_v631upwb42","5f3d6975ef131710ed519c7a","fixation","","","img/fixation.png","null","","","test","","","","","","","","","","","","","","","","","","","",""
"332","198834","SARL_v6","SARL_v631upwb42","5f3d6975ef131710ed519c7a","freq","","","img/orange_2bandit_b2.png","70","","70","test","1","","86","","","","circle","square","83","17","4","0.9879518072289156","","","","","","","",""
"null","199315","SARL_v6","SARL_v631upwb42","5f3d6975ef131710ed519c7a","freq_resp","","","img/orange_2bandit_b.png","70","img/orange_2bandit_b.png","70","test","","","","","","","","","","","4","","","","","","","","",""
"null","199469","SARL_v6","SARL_v631upwb42","5f3d6975ef131710ed519c7a","fixation","","","img/fixation.png","null","","","test","","","","","","","","","","","","","","","","","","","",""
"251.70000004768372","199722","SARL_v6","SARL_v631upwb42","5f3d6975ef131710ed519c7a","freq","","","img/orange_2bandit_b2.png","70","","70","test","1","","87","","","","circle","square","84","18","4","0.9880952380952381","","","","","","","",""
"null","200276","SARL_v6","SARL_v631upwb42","5f3d6975ef131710ed519c7a","freq_resp","","","img/orange_2bandit_b.png","70","img/orange_2bandit_b.png","70","test","","","","","","","","","","","4","","","","","","","","",""
"null","200431","SARL_v6","SARL_v631upwb42","5f3d6975ef131710ed519c7a","fixation","","","img/fixation.png","null","","","test","","","","","","","","","","","","","","","","","","","",""
"337.7000000476837","200771","SARL_v6","SARL_v631upwb42","5f3d6975ef131710ed519c7a","freq","","","img/orange_2bandit_b2.png","70","","70","test","1","","88","","","","circle","square","85","19","4","0.9882352941176471","","","","","","","",""
"null","201248","SARL_v6","SARL_v631upwb42","5f3d6975ef131710ed519c7a","freq_resp","","","img/orange_2bandit_b.png","70","img/orange_2bandit_b.png","70","test","","","","","","","","","","","4","","","","","","","","",""
"null","201402","SARL_v6","SARL_v631upwb42","5f3d6975ef131710ed519c7a","fixation","","","img/fixation.png","null","","","test","","","","","","","","","","","","","","","","","","","",""
"326.7000000476837","201730","SARL_v6","SARL_v631upwb42","5f3d6975ef131710ed519c7a","freq","","","img/orange_2bandit_b2.png","70","","70","test","1","","89","","","","circle","square","86","20","4","0.9883720930232558","","","","","","","",""
"null","202219","SARL_v6","SARL_v631upwb42","5f3d6975ef131710ed519c7a","freq_resp","","","img/orange_2bandit_b.png","70","img/orange_2bandit_b.png","70","test","","","","","","","","","","","4","","","","","","","","",""
"null","202372","SARL_v6","SARL_v631upwb42","5f3d6975ef131710ed519c7a","fixation","","","img/fixation.png","null","","","test","","","","","","","","","","","","","","","","","","","",""
"540.2999999523163","202914","SARL_v6","SARL_v631upwb42","5f3d6975ef131710ed519c7a","rl","","","img/black_2bandit_b2.png","75","","0","test","","","90","","","-12","circle","square","","0","4","","75","0","-12","0","-12","square","4","0"
"null","203672","SARL_v6","SARL_v631upwb42","5f3d6975ef131710ed519c7a","feedback","","","<div class=""verylowPoints_sq""> -12 </div>","null","","na","test","","","NaN","","","","","","","","4","","75","","","","","","4",""
"496.5","204170","SARL_v6","SARL_v631upwb42","5f3d6975ef131710ed519c7a","freq","","","img/orange_2bandit_b2.png","70","","70","test","1","","91","","","","circle","square","87","1","5","0.9885057471264368","","","","","","","",""
"null","204491","SARL_v6","SARL_v631upwb42","5f3d6975ef131710ed519c7a","freq_resp","","","img/orange_2bandit_b.png","70","img/orange_2bandit_b.png","70","test","","","","","","","","","","","5","","","","","","","","",""
"null","204645","SARL_v6","SARL_v631upwb42","5f3d6975ef131710ed519c7a","fixation","","","img/fixation.png","null","","","test","","","","","","","","","","","","","","","","","","","",""
"339.7000000476837","204986","SARL_v6","SARL_v631upwb42","5f3d6975ef131710ed519c7a","freq","","","img/orange_2bandit_b2.png","70","","70","test","1","","92","","","","circle","square","88","2","5","0.9886363636363636","","","","","","","",""
"null","205450","SARL_v6","SARL_v631upwb42","5f3d6975ef131710ed519c7a","freq_resp","","","img/orange_2bandit_b.png","70","img/orange_2bandit_b.png","70","test","","","","","","","","","","","5","","","","","","","","",""
"null","205605","SARL_v6","SARL_v631upwb42","5f3d6975ef131710ed519c7a","fixation","","","img/fixation.png","null","","","test","","","","","","","","","","","","","","","","","","","",""
"403.59999990463257","206010","SARL_v6","SARL_v631upwb42","5f3d6975ef131710ed519c7a","freq","","","img/orange_2bandit_b2.png","70","","70","test","1","","93","","","","circle","square","89","3","5","0.9887640449438202","","","","","","","",""
"null","206410","SARL_v6","SARL_v631upwb42","5f3d6975ef131710ed519c7a","freq_resp","","","img/orange_2bandit_b.png","70","img/orange_2bandit_b.png","70","test","","","","","","","","","","","5","","","","","","","","",""
"null","206566","SARL_v6","SARL_v631upwb42","5f3d6975ef131710ed519c7a","fixation","","","img/fixation.png","null","","","test","","","","","","","","","","","","","","","","","","","",""
"594.6000001430511","207162","SARL_v6","SARL_v631upwb42","5f3d6975ef131710ed519c7a","infreq","","","img/blue_2bandit_b2.png","68","","68","test","1","","94","","","","circle","square","90","4","5","0.9888888888888889","","","","","","","",""
"null","207384","SARL_v6","SARL_v631upwb42","5f3d6975ef131710ed519c7a","infreq_resp","","","img/blue_2bandit_b.png","68","img/blue_2bandit_b.png","68","test","","","","","","","","","","","5","","","","","","","","",""
"null","207539","SARL_v6","SARL_v631upwb42","5f3d6975ef131710ed519c7a","fixation","","","img/fixation.png","null","","","test","","","","","","","","","","","","","","","","","","","",""
"606.0999999046326","208146","SARL_v6","SARL_v631upwb42","5f3d6975ef131710ed519c7a","freq","","","img/orange_2bandit_b2.png","70","","70","test","1","","95","","","","circle","square","91","5","5","0.989010989010989","","","","","","","",""
"null","208354","SARL_v6","SARL_v631upwb42","5f3d6975ef131710ed519c7a","freq_resp","","","img/orange_2bandit_b.png","70","img/orange_2bandit_b.png","70","test","","","","","","","","","","","5","","","","","","","","",""
"null","208507","SARL_v6","SARL_v631upwb42","5f3d6975ef131710ed519c7a","fixation","","","img/fixation.png","null","","","test","","","","","","","","","","","","","","","","","","","",""
"525.2999999523163","209035","SARL_v6","SARL_v631upwb42","5f3d6975ef131710ed519c7a","freq","","","img/orange_2bandit_b2.png","70","","70","test","1","","96","","","","circle","square","92","6","5","0.9891304347826086","","","","","","","",""
"null","209312","SARL_v6","SARL_v631upwb42","5f3d6975ef131710ed519c7a","freq_resp","","","img/orange_2bandit_b.png","70","img/orange_2bandit_b.png","70","test","","","","","","","","","","","5","","","","","","","","",""
"null","209467","SARL_v6","SARL_v631upwb42","5f3d6975ef131710ed519c7a","fixation","","","img/fixation.png","null","","","test","","","","","","","","","","","","","","","","","","","",""
"605.8999998569489","210074","SARL_v6","SARL_v631upwb42","5f3d6975ef131710ed519c7a","freq","","","img/orange_2bandit_b2.png","70","","70","test","1","","97","","","","circle","square","93","7","5","0.989247311827957","","","","","","","",""
"null","210271","SARL_v6","SARL_v631upwb42","5f3d6975ef131710ed519c7a","freq_resp","","","img/orange_2bandit_b.png","70","img/orange_2bandit_b.png","70","test","","","","","","","","","","","5","","","","","","","","",""
"null","210426","SARL_v6","SARL_v631upwb42","5f3d6975ef131710ed519c7a","fixation","","","img/fixation.png","null","","","test","","","","","","","","","","","","","","","","","","","",""
"null","211231","SARL_v6","SARL_v631upwb42","5f3d6975ef131710ed519c7a","freq","","","img/orange_2bandit_b2.png","null","","70","test","0","","98","","","","circle","square","94","8","5","0.9787234042553191","","","","","","","",""
"null","211386","SARL_v6","SARL_v631upwb42","5f3d6975ef131710ed519c7a","fixation","","","img/fixation.png","null","","","test","","","","","","","","","","","","","","","","","","","",""
"567","211954","SARL_v6","SARL_v631upwb42","5f3d6975ef131710ed519c7a","freq","","","img/orange_2bandit_b2.png","70","","70","test","1","","99","","","","circle","square","95","9","5","0.9789473684210527","","","","","","","",""
"null","212194","SARL_v6","SARL_v631upwb42","5f3d6975ef131710ed519c7a","freq_resp","","","img/orange_2bandit_b.png","70","img/orange_2bandit_b.png","70","test","","","","","","","","","","","5","","","","","","","","",""
"null","212348","SARL_v6","SARL_v631upwb42","5f3d6975ef131710ed519c7a","fixation","","","img/fixation.png","null","","","test","","","","","","","","","","","","","","","","","","","",""
"405","212754","SARL_v6","SARL_v631upwb42","5f3d6975ef131710ed519c7a","freq","","","img/orange_2bandit_b2.png","70","","70","test","1","","100","","","","circle","square","96","10","5","0.9791666666666666","","","","","","","",""
"null","213153","SARL_v6","SARL_v631upwb42","5f3d6975ef131710ed519c7a","freq_resp","","","img/orange_2bandit_b.png","70","img/orange_2bandit_b.png","70","test","","","","","","","","","","","5","","","","","","","","",""
"null","213306","SARL_v6","SARL_v631upwb42","5f3d6975ef131710ed519c7a","fixation","","","img/fixation.png","null","","","test","","","","","","","","","","","","","","","","","","","",""
"335.10000014305115","213642","SARL_v6","SARL_v631upwb42","5f3d6975ef131710ed519c7a","freq","","","img/orange_2bandit_b2.png","70","","70","test","1","","101","","","","circle","square","97","11","5","0.979381443298969","","","","","","","",""
"null","214110","SARL_v6","SARL_v631upwb42","5f3d6975ef131710ed519c7a","freq_resp","","","img/orange_2bandit_b.png","70","img/orange_2bandit_b.png","70","test","","","","","","","","","","","5","","","","","","","","",""
"null","214265","SARL_v6","SARL_v631upwb42","5f3d6975ef131710ed519c7a","fixation","","","img/fixation.png","null","","","test","","","","","","","","","","","","","","","","","","","",""
"503.2999999523163","214770","SARL_v6","SARL_v631upwb42","5f3d6975ef131710ed519c7a","infreq","","","img/blue_2bandit_b2.png","68","","68","test","1","","102","","","","circle","square","98","12","5","0.9795918367346939","","","","","","","",""
"null","215069","SARL_v6","SARL_v631upwb42","5f3d6975ef131710ed519c7a","infreq_resp","","","img/blue_2bandit_b.png","68","img/blue_2bandit_b.png","68","test","","","","","","","","","","","5","","","","","","","","",""
"null","215223","SARL_v6","SARL_v631upwb42","5f3d6975ef131710ed519c7a","fixation","","","img/fixation.png","null","","","test","","","","","","","","","","","","","","","","","","","",""
"289.40000009536743","215514","SARL_v6","SARL_v631upwb42","5f3d6975ef131710ed519c7a","freq","","","img/orange_2bandit_b2.png","70","","70","test","1","","103","","","","circle","square","99","13","5","0.9797979797979798","","","","","","","",""
"null","216029","SARL_v6","SARL_v631upwb42","5f3d6975ef131710ed519c7a","freq_resp","","","img/orange_2bandit_b.png","70","img/orange_2bandit_b.png","70","test","","","","","","","","","","","5","","","","","","","","",""
"null","216184","SARL_v6","SARL_v631upwb42","5f3d6975ef131710ed519c7a","fixation","","","img/fixation.png","null","","","test","","","","","","","","","","","","","","","","","","","",""
"104.59999990463257","216290","SARL_v6","SARL_v631upwb42","5f3d6975ef131710ed519c7a","freq","","","img/orange_2bandit_b2.png","70","","70","test","1","","104","","","","circle","square","100","14","5","0.98","","","","","","","",""
"null","216988","SARL_v6","SARL_v631upwb42","5f3d6975ef131710ed519c7a","freq_resp","","","img/orange_2bandit_b.png","70","img/orange_2bandit_b.png","70","test","","","","","","","","","","","5","","","","","","","","",""
"null","217142","SARL_v6","SARL_v631upwb42","5f3d6975ef131710ed519c7a","fixation","","","img/fixation.png","null","","","test","","","","","","","","","","","","","","","","","","","",""
"138.5","217282","SARL_v6","SARL_v631upwb42","5f3d6975ef131710ed519c7a","freq","","","img/orange_2bandit_b2.png","70","","70","test","1","","105","","","","circle","square","101","15","5","0.9801980198019802","","","","","","","",""
"null","217959","SARL_v6","SARL_v631upwb42","5f3d6975ef131710ed519c7a","freq_resp","","","img/orange_2bandit_b.png","70","img/orange_2bandit_b.png","70","test","","","","","","","","","","","5","","","","","","","","",""
"null","218113","SARL_v6","SARL_v631upwb42","5f3d6975ef131710ed519c7a","fixation","","","img/fixation.png","null","","","test","","","","","","","","","","","","","","","","","","","",""
"248.5","218363","SARL_v6","SARL_v631upwb42","5f3d6975ef131710ed519c7a","freq","","","img/orange_2bandit_b2.png","70","","70","test","1","","106","","","","circle","square","102","16","5","0.9803921568627451","","","","","","","",""
"null","218917","SARL_v6","SARL_v631upwb42","5f3d6975ef131710ed519c7a","freq_resp","","","img/orange_2bandit_b.png","70","img/orange_2bandit_b.png","70","test","","","","","","","","","","","5","","","","","","","","",""
"null","219073","SARL_v6","SARL_v631upwb42","5f3d6975ef131710ed519c7a","fixation","","","img/fixation.png","null","","","test","","","","","","","","","","","","","","","","","","","",""
"303.59999990463257","219378","SARL_v6","SARL_v631upwb42","5f3d6975ef131710ed519c7a","freq","","","img/orange_2bandit_b2.png","70","","70","test","1","","107","","","","circle","square","103","17","5","0.9805825242718447","","","","","","","",""
"null","219877","SARL_v6","SARL_v631upwb42","5f3d6975ef131710ed519c7a","freq_resp","","","img/orange_2bandit_b.png","70","img/orange_2bandit_b.png","70","test","","","","","","","","","","","5","","","","","","","","",""
"null","220032","SARL_v6","SARL_v631upwb42","5f3d6975ef131710ed519c7a","fixation","","","img/fixation.png","null","","","test","","","","","","","","","","","","","","","","","","","",""
"432.90000009536743","220466","SARL_v6","SARL_v631upwb42","5f3d6975ef131710ed519c7a","freq","","","img/orange_2bandit_b2.png","70","","70","test","1","","108","","","","circle","square","104","18","5","0.9807692307692307","","","","","","","",""
"null","220849","SARL_v6","SARL_v631upwb42","5f3d6975ef131710ed519c7a","freq_resp","","","img/orange_2bandit_b.png","70","img/orange_2bandit_b.png","70","test","","","","","","","","","","","5","","","","","","","","",""
"null","221005","SARL_v6","SARL_v631upwb42","5f3d6975ef131710ed519c7a","fixation","","","img/fixation.png","null","","","test","","","","","","","","","","","","","","","","","","","",""
"435.5","221442","SARL_v6","SARL_v631upwb42","5f3d6975ef131710ed519c7a","freq","","","img/orange_2bandit_b2.png","70","","70","test","1","","109","","","","circle","square","105","19","5","0.9809523809523809","","","","","","","",""
"null","221810","SARL_v6","SARL_v631upwb42","5f3d6975ef131710ed519c7a","freq_resp","","","img/orange_2bandit_b.png","70","img/orange_2bandit_b.png","70","test","","","","","","","","","","","5","","","","","","","","",""
"null","221964","SARL_v6","SARL_v631upwb42","5f3d6975ef131710ed519c7a","fixation","","","img/fixation.png","null","","","test","","","","","","","","","","","","","","","","","","","",""
"500.69999980926514","222466","SARL_v6","SARL_v631upwb42","5f3d6975ef131710ed519c7a","freq","","","img/orange_2bandit_b2.png","70","","70","test","1","","110","","","","circle","square","106","20","5","0.9811320754716981","","","","","","","",""
"null","222779","SARL_v6","SARL_v631upwb42","5f3d6975ef131710ed519c7a","freq_resp","","","img/orange_2bandit_b.png","70","img/orange_2bandit_b.png","70","test","","","","","","","","","","","5","","","","","","","","",""
"null","222933","SARL_v6","SARL_v631upwb42","5f3d6975ef131710ed519c7a","fixation","","","img/fixation.png","null","","","test","","","","","","","","","","","","","","","","","","","",""
"331.7999999523163","223266","SARL_v6","SARL_v631upwb42","5f3d6975ef131710ed519c7a","freq","","","img/orange_2bandit_b2.png","70","","70","test","1","","111","","","","circle","square","107","21","5","0.9813084112149533","","","","","","","",""
"null","223749","SARL_v6","SARL_v631upwb42","5f3d6975ef131710ed519c7a","freq_resp","","","img/orange_2bandit_b.png","70","img/orange_2bandit_b.png","70","test","","","","","","","","","","","5","","","","","","","","",""
"null","223903","SARL_v6","SARL_v631upwb42","5f3d6975ef131710ed519c7a","fixation","","","img/fixation.png","null","","","test","","","","","","","","","","","","","","","","","","","",""
"185.59999990463257","224090","SARL_v6","SARL_v631upwb42","5f3d6975ef131710ed519c7a","freq","","","img/orange_2bandit_b2.png","70","","70","test","1","","112","","","","circle","square","108","22","5","0.9814814814814815","","","","","","","",""
"null","224707","SARL_v6","SARL_v631upwb42","5f3d6975ef131710ed519c7a","freq_resp","","","img/orange_2bandit_b.png","70","img/orange_2bandit_b.png","70","test","","","","","","","","","","","5","","","","","","","","",""
"null","224862","SARL_v6","SARL_v631upwb42","5f3d6975ef131710ed519c7a","fixation","","","img/fixation.png","null","","","test","","","","","","","","","","","","","","","","","","","",""
"243.20000004768372","225106","SARL_v6","SARL_v631upwb42","5f3d6975ef131710ed519c7a","freq","","","img/orange_2bandit_b2.png","70","","70","test","1","","113","","","","circle","square","109","23","5","0.981651376146789","","","","","","","",""
"null","225665","SARL_v6","SARL_v631upwb42","5f3d6975ef131710ed519c7a","freq_resp","","","img/orange_2bandit_b.png","70","img/orange_2bandit_b.png","70","test","","","","","","","","","","","5","","","","","","","","",""
"null","225819","SARL_v6","SARL_v631upwb42","5f3d6975ef131710ed519c7a","fixation","","","img/fixation.png","null","","","test","","","","","","","","","","","","","","","","","","","",""
"461.90000009536743","226282","SARL_v6","SARL_v631upwb42","5f3d6975ef131710ed519c7a","rl","","","img/black_2bandit_b2.png","75","","0","test","","","114","","","-7","circle","square","","0","5","","75","4","-7","4","-7","square","5","0"
"null","227049","SARL_v6","SARL_v631upwb42","5f3d6975ef131710ed519c7a","feedback","","","<div class=""verylowPoints_sq""> -7 </div>","null","","na","test","","","NaN","","","","","","","","5","","75","","","","","","5",""
"383.2000000476837","227434","SARL_v6","SARL_v631upwb42","5f3d6975ef131710ed519c7a","freq","","","img/orange_2bandit_b2.png","70","","70","test","1","","115","","","","circle","square","110","1","6","0.9818181818181818","","","","","","","",""
"null","227855","SARL_v6","SARL_v631upwb42","5f3d6975ef131710ed519c7a","freq_resp","","","img/orange_2bandit_b.png","70","img/orange_2bandit_b.png","70","test","","","","","","","","","","","6","","","","","","","","",""
"null","228011","SARL_v6","SARL_v631upwb42","5f3d6975ef131710ed519c7a","fixation","","","img/fixation.png","null","","","test","","","","","","","","","","","","","","","","","","","",""
"245.29999995231628","228258","SARL_v6","SARL_v631upwb42","5f3d6975ef131710ed519c7a","freq","","","img/orange_2bandit_b2.png","70","","70","test","1","","116","","","","circle","square","111","2","6","0.9819819819819819","","","","","","","",""
"null","228817","SARL_v6","SARL_v631upwb42","5f3d6975ef131710ed519c7a","freq_resp","","","img/orange_2bandit_b.png","70","img/orange_2bandit_b.png","70","test","","","","","","","","","","","6","","","","","","","","",""
"null","228972","SARL_v6","SARL_v631upwb42","5f3d6975ef131710ed519c7a","fixation","","","img/fixation.png","null","","","test","","","","","","","","","","","","","","","","","","","",""
"284.59999990463257","229258","SARL_v6","SARL_v631upwb42","5f3d6975ef131710ed519c7a","freq","","","img/orange_2bandit_b2.png","70","","70","test","1","","117","","","","circle","square","112","3","6","0.9821428571428571","","","","","","","",""
"null","229778","SARL_v6","SARL_v631upwb42","5f3d6975ef131710ed519c7a","freq_resp","","","img/orange_2bandit_b.png","70","img/orange_2bandit_b.png","70","test","","","","","","","","","","","6","","","","","","","","",""
"null","229931","SARL_v6","SARL_v631upwb42","5f3d6975ef131710ed519c7a","fixation","","","img/fixation.png","null","","","test","","","","","","","","","","","","","","","","","","","",""
"381.5","230315","SARL_v6","SARL_v631upwb42","5f3d6975ef131710ed519c7a","freq","","","img/orange_2bandit_b2.png","70","","70","test","1","","118","","","","circle","square","113","4","6","0.9823008849557522","","","","","","","",""
"null","230745","SARL_v6","SARL_v631upwb42","5f3d6975ef131710ed519c7a","freq_resp","","","img/orange_2bandit_b.png","70","img/orange_2bandit_b.png","70","test","","","","","","","","","","","6","","","","","","","","",""
"null","230900","SARL_v6","SARL_v631upwb42","5f3d6975ef131710ed519c7a","fixation","","","img/fixation.png","null","","","test","","","","","","","","","","","","","","","","","","","",""
"293","231194","SARL_v6","SARL_v631upwb42","5f3d6975ef131710ed519c7a","freq","","","img/orange_2bandit_b2.png","70","","70","test","1","","119","","","","circle","square","114","5","6","0.9824561403508771","","","","","","","",""
"null","231703","SARL_v6","SARL_v631upwb42","5f3d6975ef131710ed519c7a","freq_resp","","","img/orange_2bandit_b.png","70","img/orange_2bandit_b.png","70","test","","","","","","","","","","","6","","","","","","","","",""
"null","231859","SARL_v6","SARL_v631upwb42","5f3d6975ef131710ed519c7a","fixation","","","img/fixation.png","null","","","test","","","","","","","","","","","","","","","","","","","",""
"621.2999999523163","232482","SARL_v6","SARL_v631upwb42","5f3d6975ef131710ed519c7a","infreq","","","img/blue_2bandit_b2.png","68","","68","test","1","","120","","","","circle","square","115","6","6","0.9826086956521739","","","","","","","",""
"null","232664","SARL_v6","SARL_v631upwb42","5f3d6975ef131710ed519c7a","infreq_resp","","","img/blue_2bandit_b.png","68","img/blue_2bandit_b.png","68","test","","","","","","","","","","","6","","","","","","","","",""
"null","232818","SARL_v6","SARL_v631upwb42","5f3d6975ef131710ed519c7a","fixation","","","img/fixation.png","null","","","test","","","","","","","","","","","","","","","","","","","",""
"527.9000000953674","233347","SARL_v6","SARL_v631upwb42","5f3d6975ef131710ed519c7a","freq","","","img/orange_2bandit_b2.png","70","","70","test","1","","121","","","","circle","square","116","7","6","0.9827586206896551","","","","","","","",""
"null","233622","SARL_v6","SARL_v631upwb42","5f3d6975ef131710ed519c7a","freq_resp","","","img/orange_2bandit_b.png","70","img/orange_2bandit_b.png","70","test","","","","","","","","","","","6","","","","","","","","",""
"null","233776","SARL_v6","SARL_v631upwb42","5f3d6975ef131710ed519c7a","fixation","","","img/fixation.png","null","","","test","","","","","","","","","","","","","","","","","","","",""
"352.90000009536743","234131","SARL_v6","SARL_v631upwb42","5f3d6975ef131710ed519c7a","freq","","","img/orange_2bandit_b2.png","70","","70","test","1","","122","","","","circle","square","117","8","6","0.9829059829059829","","","","","","","",""
"null","234595","SARL_v6","SARL_v631upwb42","5f3d6975ef131710ed519c7a","freq_resp","","","img/orange_2bandit_b.png","70","img/orange_2bandit_b.png","70","test","","","","","","","","","","","6","","","","","","","","",""
"null","234749","SARL_v6","SARL_v631upwb42","5f3d6975ef131710ed519c7a","fixation","","","img/fixation.png","null","","","test","","","","","","","","","","","","","","","","","","","",""
"451.7999999523163","235202","SARL_v6","SARL_v631upwb42","5f3d6975ef131710ed519c7a","infreq","","","img/blue_2bandit_b2.png","68","","68","test","1","","123","","","","circle","square","118","9","6","0.9830508474576272","","","","","","","",""
"null","235566","SARL_v6","SARL_v631upwb42","5f3d6975ef131710ed519c7a","infreq_resp","","","img/blue_2bandit_b.png","68","img/blue_2bandit_b.png","68","test","","","","","","","","","","","6","","","","","","","","",""
"null","235722","SARL_v6","SARL_v631upwb42","5f3d6975ef131710ed519c7a","fixation","","","img/fixation.png","null","","","test","","","","","","","","","","","","","","","","","","","",""
"494.7999999523163","236218","SARL_v6","SARL_v631upwb42","5f3d6975ef131710ed519c7a","freq","","","img/orange_2bandit_b2.png","70","","70","test","1","","124","","","","circle","square","119","10","6","0.9831932773109243","","","","","","","",""
"null","236529","SARL_v6","SARL_v631upwb42","5f3d6975ef131710ed519c7a","freq_resp","","","img/orange_2bandit_b.png","70","img/orange_2bandit_b.png","70","test","","","","","","","","","","","6","","","","","","","","",""
"null","236683","SARL_v6","SARL_v631upwb42","5f3d6975ef131710ed519c7a","fixation","","","img/fixation.png","null","","","test","","","","","","","","","","","","","","","","","","","",""
"301.7999999523163","236986","SARL_v6","SARL_v631upwb42","5f3d6975ef131710ed519c7a","freq","","","img/orange_2bandit_b2.png","70","","70","test","1","","125","","","","circle","square","120","11","6","0.9833333333333333","","","","","","","",""
"null","237493","SARL_v6","SARL_v631upwb42","5f3d6975ef131710ed519c7a","freq_resp","","","img/orange_2bandit_b.png","70","img/orange_2bandit_b.png","70","test","","","","","","","","","","","6","","","","","","","","",""
"null","237647","SARL_v6","SARL_v631upwb42","5f3d6975ef131710ed519c7a","fixation","","","img/fixation.png","null","","","test","","","","","","","","","","","","","","","","","","","",""
"441.7999999523163","238090","SARL_v6","SARL_v631upwb42","5f3d6975ef131710ed519c7a","freq","","","img/orange_2bandit_b2.png","70","","70","test","1","","126","","","","circle","square","121","12","6","0.9834710743801653","","","","","","","",""
"null","238457","SARL_v6","SARL_v631upwb42","5f3d6975ef131710ed519c7a","freq_resp","","","img/orange_2bandit_b.png","70","img/orange_2bandit_b.png","70","test","","","","","","","","","","","6","","","","","","","","",""
"null","238612","SARL_v6","SARL_v631upwb42","5f3d6975ef131710ed519c7a","fixation","","","img/fixation.png","null","","","test","","","","","","","","","","","","","","","","","","","",""
"380.5","238994","SARL_v6","SARL_v631upwb42","5f3d6975ef131710ed519c7a","freq","","","img/orange_2bandit_b2.png","70","","70","test","1","","127","","","","circle","square","122","13","6","0.9836065573770492","","","","","","","",""
"null","239418","SARL_v6","SARL_v631upwb42","5f3d6975ef131710ed519c7a","freq_resp","","","img/orange_2bandit_b.png","70","img/orange_2bandit_b.png","70","test","","","","","","","","","","","6","","","","","","","","",""
"null","239573","SARL_v6","SARL_v631upwb42","5f3d6975ef131710ed519c7a","fixation","","","img/fixation.png","null","","","test","","","","","","","","","","","","","","","","","","","",""
"387.90000009536743","239962","SARL_v6","SARL_v631upwb42","5f3d6975ef131710ed519c7a","freq","","","img/orange_2bandit_b2.png","70","","70","test","1","","128","","","","circle","square","123","14","6","0.983739837398374","","","","","","","",""
"null","240379","SARL_v6","SARL_v631upwb42","5f3d6975ef131710ed519c7a","freq_resp","","","img/orange_2bandit_b.png","70","img/orange_2bandit_b.png","70","test","","","","","","","","","","","6","","","","","","","","",""
"null","240533","SARL_v6","SARL_v631upwb42","5f3d6975ef131710ed519c7a","fixation","","","img/fixation.png","null","","","test","","","","","","","","","","","","","","","","","","","",""
"443.7999999523163","240978","SARL_v6","SARL_v631upwb42","5f3d6975ef131710ed519c7a","freq","","","img/orange_2bandit_b2.png","70","","70","test","1","","129","","","","circle","square","124","15","6","0.9838709677419355","","","","","","","",""
"null","241350","SARL_v6","SARL_v631upwb42","5f3d6975ef131710ed519c7a","freq_resp","","","img/orange_2bandit_b.png","70","img/orange_2bandit_b.png","70","test","","","","","","","","","","","6","","","","","","","","",""
"null","241506","SARL_v6","SARL_v631upwb42","5f3d6975ef131710ed519c7a","fixation","","","img/fixation.png","null","","","test","","","","","","","","","","","","","","","","","","","",""
