"rt","time_elapsed","expId","subject","prolificID","trialType","rlType","attType","stimulus","key_press","stim","corrresp","phase","corr","pracCounter","trialNum","rewardOne","rewardTwo","reward","bandOne","bandTwo","attentionNum","attentionRunNum","blockNum","performance","bandChosen","circleVal","squareVal","bandOneVal","bandTwoVal","shapeChosen","rlNum","badFlag"
"9604","9609","SARL_v6","SARL_v6p199xw4x","6473bd2d95a488b826bc24c4","","","","","","","","","","","","","","","","","","","","","","","","","","","",""
"","12399","SARL_v6","SARL_v6p199xw4x","6473bd2d95a488b826bc24c4","fullscreen","fullscreen","fullscreen","","","","","","","","","","","","","","","","","","","","","","","","",""
"57167","69569","SARL_v6","SARL_v6p199xw4x","6473bd2d95a488b826bc24c4","","","","","","","","","","","","","","","","","","","","","","","","","","","",""
"null","70380","SARL_v6","SARL_v6p199xw4x","6473bd2d95a488b826bc24c4","freqPrac","","","img/orange_2bandit_a2.png","null","img/orange_2bandit_a2.png","70","prac","0","1","","","","","","","","","","","","","","","","","",""
"null","71387","SARL_v6","SARL_v6p199xw4x","6473bd2d95a488b826bc24c4","feedback","","","img/tooSlow.png","null","","na","prac","","","","","","","","","","","","","","","","","","","",""
"null","71543","SARL_v6","SARL_v6p199xw4x","6473bd2d95a488b826bc24c4","fixation","","","img/fixation.png","null","","","prac","","","","","","","","","","","","","","","","","","","",""
"583","72129","SARL_v6","SARL_v6p199xw4x","6473bd2d95a488b826bc24c4","infreqPrac","","","img/blue_2bandit_a2.png","68","img/blue_2bandit_a2.png","68","prac","1","1","","","","","","","","","","","","","","","","","",""
"583","72361","SARL_v6","SARL_v6p199xw4x","6473bd2d95a488b826bc24c4","infreqPrac_resp","","","img/blue_2bandit_a.png","68","img/blue_2bandit_a.png","68","prac","","","","","","","","","","","","","","","","","","","",""
"null","72517","SARL_v6","SARL_v6p199xw4x","6473bd2d95a488b826bc24c4","fixation","","","img/fixation.png","null","","","prac","","","","","","","","","","","","","","","","","","","",""
"410","72929","SARL_v6","SARL_v6p199xw4x","6473bd2d95a488b826bc24c4","freqPrac","","","img/orange_2bandit_a2.png","70","img/orange_2bandit_a2.png","70","prac","1","1","","","","","","","","","","","","","","","","","",""
"410","73335","SARL_v6","SARL_v6p199xw4x","6473bd2d95a488b826bc24c4","freqPrac_resp","","","img/orange_2bandit_a.png","70","img/orange_2bandit_a.png","70","prac","","","","","","","","","","","","","","","","","","","",""
"null","73491","SARL_v6","SARL_v6p199xw4x","6473bd2d95a488b826bc24c4","fixation","","","img/fixation.png","null","","","prac","","","","","","","","","","","","","","","","","","","",""
"364","73856","SARL_v6","SARL_v6p199xw4x","6473bd2d95a488b826bc24c4","infreqPrac","","","img/blue_2bandit_a2.png","68","img/blue_2bandit_a2.png","68","prac","1","1","","","","","","","","","","","","","","","","","",""
"364","74309","SARL_v6","SARL_v6p199xw4x","6473bd2d95a488b826bc24c4","infreqPrac_resp","","","img/blue_2bandit_a.png","68","img/blue_2bandit_a.png","68","prac","","","","","","","","","","","","","","","","","","","",""
"null","74466","SARL_v6","SARL_v6p199xw4x","6473bd2d95a488b826bc24c4","fixation","","","img/fixation.png","null","","","prac","","","","","","","","","","","","","","","","","","","",""
"508","74977","SARL_v6","SARL_v6p199xw4x","6473bd2d95a488b826bc24c4","infreqPrac","","","img/blue_2bandit_a2.png","70","img/blue_2bandit_a2.png","68","prac","0","2","","","","","","","","","","","","","","","","","",""
"508","75284","SARL_v6","SARL_v6p199xw4x","6473bd2d95a488b826bc24c4","infreqPrac_resp","","","img/blue_2bandit_a.png","70","img/blue_2bandit_a.png","68","prac","","","","","","","","","","","","","","","","","","","",""
"null","76290","SARL_v6","SARL_v6p199xw4x","6473bd2d95a488b826bc24c4","feedback","","","img/wrongKey.png","null","","na","prac","","","","","","","","","","","","","","","","","","","",""
"null","76447","SARL_v6","SARL_v6p199xw4x","6473bd2d95a488b826bc24c4","fixation","","","img/fixation.png","null","","","prac","","","","","","","","","","","","","","","","","","","",""
"416","76864","SARL_v6","SARL_v6p199xw4x","6473bd2d95a488b826bc24c4","infreqPrac","","","img/blue_2bandit_a2.png","68","img/blue_2bandit_a2.png","68","prac","1","2","","","","","","","","","","","","","","","","","",""
"416","77265","SARL_v6","SARL_v6p199xw4x","6473bd2d95a488b826bc24c4","infreqPrac_resp","","","img/blue_2bandit_a.png","68","img/blue_2bandit_a.png","68","prac","","","","","","","","","","","","","","","","","","","",""
"null","77421","SARL_v6","SARL_v6p199xw4x","6473bd2d95a488b826bc24c4","fixation","","","img/fixation.png","null","","","prac","","","","","","","","","","","","","","","","","","","",""
"434","77857","SARL_v6","SARL_v6p199xw4x","6473bd2d95a488b826bc24c4","freqPrac","","","img/orange_2bandit_a2.png","70","img/orange_2bandit_a2.png","70","prac","1","2","","","","","","","","","","","","","","","","","",""
"434","78237","SARL_v6","SARL_v6p199xw4x","6473bd2d95a488b826bc24c4","freqPrac_resp","","","img/orange_2bandit_a.png","70","img/orange_2bandit_a.png","70","prac","","","","","","","","","","","","","","","","","","","",""
"null","78394","SARL_v6","SARL_v6p199xw4x","6473bd2d95a488b826bc24c4","fixation","","","img/fixation.png","null","","","prac","","","","","","","","","","","","","","","","","","","",""
"549","78944","SARL_v6","SARL_v6p199xw4x","6473bd2d95a488b826bc24c4","infreqPrac","","","img/blue_2bandit_a2.png","68","img/blue_2bandit_a2.png","68","prac","1","2","","","","","","","","","","","","","","","","","",""
"549","79212","SARL_v6","SARL_v6p199xw4x","6473bd2d95a488b826bc24c4","infreqPrac_resp","","","img/blue_2bandit_a.png","68","img/blue_2bandit_a.png","68","prac","","","","","","","","","","","","","","","","","","","",""
"null","79368","SARL_v6","SARL_v6p199xw4x","6473bd2d95a488b826bc24c4","fixation","","","img/fixation.png","null","","","prac","","","","","","","","","","","","","","","","","","","",""
"375","79745","SARL_v6","SARL_v6p199xw4x","6473bd2d95a488b826bc24c4","freqPrac","","","img/orange_2bandit_a2.png","70","img/orange_2bandit_a2.png","70","prac","1","2","","","","","","","","","","","","","","","","","",""
"375","80185","SARL_v6","SARL_v6p199xw4x","6473bd2d95a488b826bc24c4","freqPrac_resp","","","img/orange_2bandit_a.png","70","img/orange_2bandit_a.png","70","prac","","","","","","","","","","","","","","","","","","","",""
"null","80341","SARL_v6","SARL_v6p199xw4x","6473bd2d95a488b826bc24c4","fixation","","","img/fixation.png","null","","","prac","","","","","","","","","","","","","","","","","","","",""
"362","80704","SARL_v6","SARL_v6p199xw4x","6473bd2d95a488b826bc24c4","freqPrac","","","img/orange_2bandit_a2.png","68","img/orange_2bandit_a2.png","70","prac","0","3","","","","","","","","","","","","","","","","","",""
"362","81158","SARL_v6","SARL_v6p199xw4x","6473bd2d95a488b826bc24c4","freqPrac_resp","","","img/orange_2bandit_a.png","68","img/orange_2bandit_a.png","70","prac","","","","","","","","","","","","","","","","","","","",""
"null","82164","SARL_v6","SARL_v6p199xw4x","6473bd2d95a488b826bc24c4","feedback","","","img/wrongKey.png","null","","na","prac","","","","","","","","","","","","","","","","","","","",""
"null","82322","SARL_v6","SARL_v6p199xw4x","6473bd2d95a488b826bc24c4","fixation","","","img/fixation.png","null","","","prac","","","","","","","","","","","","","","","","","","","",""
"33413","115737","SARL_v6","SARL_v6p199xw4x","6473bd2d95a488b826bc24c4","","","","","","","","prac","","","","","","","","","","","","","","","","","","","",""
"959","116696","SARL_v6","SARL_v6p199xw4x","6473bd2d95a488b826bc24c4","rlPractice","","","img/black_2bandit_a2.png","75","img/black_2bandit_a2.png","","prac","","","0","","","","","","","","","","","","","","","","",""
"null","117458","SARL_v6","SARL_v6p199xw4x","6473bd2d95a488b826bc24c4","feedback","","","<div class=""veryhighPoints""> 10 </div>","null","","na","prac","","","1","10","-14","10","","","","","","","","","","","","","",""
"null","117614","SARL_v6","SARL_v6p199xw4x","6473bd2d95a488b826bc24c4","fixation","","","img/fixation.png","null","","","prac","","","","","","","","","","","","","","","","","","","",""
"null","119125","SARL_v6","SARL_v6p199xw4x","6473bd2d95a488b826bc24c4","rlPractice","","","img/black_2bandit_a2.png","null","img/black_2bandit_a2.png","","prac","","","1","","","","","","","","","","","","","","","","",""
"null","119878","SARL_v6","SARL_v6p199xw4x","6473bd2d95a488b826bc24c4","feedback","","","<div font size = 80> TOO SLOW  </div>","null","","na","prac","","","2","5","-5","5","","","","","","","","","","","","","",""
"null","120035","SARL_v6","SARL_v6p199xw4x","6473bd2d95a488b826bc24c4","fixation","","","img/fixation.png","null","","","prac","","","","","","","","","","","","","","","","","","","",""
"435","120472","SARL_v6","SARL_v6p199xw4x","6473bd2d95a488b826bc24c4","rlPractice","","","img/black_2bandit_a2.png","75","img/black_2bandit_a2.png","","prac","","","2","","","","","","","","","","","","","","","","",""
"null","121230","SARL_v6","SARL_v6p199xw4x","6473bd2d95a488b826bc24c4","feedback","","","<div class=""veryhighPoints""> 30 </div>","null","","na","prac","","","3","30","2","30","","","","","","","","","","","","","",""
"null","121386","SARL_v6","SARL_v6p199xw4x","6473bd2d95a488b826bc24c4","fixation","","","img/fixation.png","null","","","prac","","","","","","","","","","","","","","","","","","","",""
"301","121688","SARL_v6","SARL_v6p199xw4x","6473bd2d95a488b826bc24c4","rlPractice","","","img/black_2bandit_a2.png","75","img/black_2bandit_a2.png","","prac","","","3","","","","","","","","","","","","","","","","",""
"null","122440","SARL_v6","SARL_v6p199xw4x","6473bd2d95a488b826bc24c4","feedback","","","<div class=""verylowPoints""> -2 </div>","null","","na","prac","","","4","-2","20","-2","","","","","","","","","","","","","",""
"null","122596","SARL_v6","SARL_v6p199xw4x","6473bd2d95a488b826bc24c4","fixation","","","img/fixation.png","null","","","prac","","","","","","","","","","","","","","","","","","","",""
"11964","134560","SARL_v6","SARL_v6p199xw4x","6473bd2d95a488b826bc24c4","","","","","","","","prac","","","","","","","","","","","","","","","","","","","",""
"null","135362","SARL_v6","SARL_v6p199xw4x","6473bd2d95a488b826bc24c4","mixAttFreqPrac","","","img/orange_2bandit_a2.png","null","img/orange_2bandit_a2.png","70","prac","","","1","","","","","","","","","","","","","","","","",""
"null","135519","SARL_v6","SARL_v6p199xw4x","6473bd2d95a488b826bc24c4","fixation","","","img/fixation.png","null","","","prac","","","","","","","","","","","","","","","","","","","",""
"609","136128","SARL_v6","SARL_v6p199xw4x","6473bd2d95a488b826bc24c4","mixAttInfreqPrac","","","img/blue_2bandit_a2.png","68","img/blue_2bandit_a2.png","68","prac","","","2","","","","","","","","","","","","","","","","",""
"609","136321","SARL_v6","SARL_v6p199xw4x","6473bd2d95a488b826bc24c4","infreqPrac_resp","","","img/blue_2bandit_a.png","68","img/orange_2bandit_a.png","68","prac","","","2","","","","","","","","","","","","","","","","",""
"null","136479","SARL_v6","SARL_v6p199xw4x","6473bd2d95a488b826bc24c4","fixation","","","img/fixation.png","null","","","prac","","","","","","","","","","","","","","","","","","","",""
"448","136928","SARL_v6","SARL_v6p199xw4x","6473bd2d95a488b826bc24c4","mixAttInfreqPrac","","","img/blue_2bandit_a2.png","68","img/blue_2bandit_a2.png","68","prac","","","3","","","","","","","","","","","","","","","","",""
"448","137295","SARL_v6","SARL_v6p199xw4x","6473bd2d95a488b826bc24c4","infreqPrac_resp","","","img/blue_2bandit_a.png","68","img/orange_2bandit_a.png","68","prac","","","3","","","","","","","","","","","","","","","","",""
"null","137451","SARL_v6","SARL_v6p199xw4x","6473bd2d95a488b826bc24c4","fixation","","","img/fixation.png","null","","","prac","","","","","","","","","","","","","","","","","","","",""
"371","137824","SARL_v6","SARL_v6p199xw4x","6473bd2d95a488b826bc24c4","mixAttInfreqPrac","","","img/blue_2bandit_a2.png","68","img/blue_2bandit_a2.png","68","prac","","","4","","","","","","","","","","","","","","","","",""
"371","138269","SARL_v6","SARL_v6p199xw4x","6473bd2d95a488b826bc24c4","infreqPrac_resp","","","img/blue_2bandit_a.png","68","img/orange_2bandit_a.png","68","prac","","","4","","","","","","","","","","","","","","","","",""
"null","138425","SARL_v6","SARL_v6p199xw4x","6473bd2d95a488b826bc24c4","fixation","","","img/fixation.png","null","","","prac","","","","","","","","","","","","","","","","","","","",""
"293","138720","SARL_v6","SARL_v6p199xw4x","6473bd2d95a488b826bc24c4","mixAttFreqPrac","","","img/orange_2bandit_a2.png","70","img/orange_2bandit_a2.png","70","prac","","","5","","","","","","","","","","","","","","","","",""
"293","139241","SARL_v6","SARL_v6p199xw4x","6473bd2d95a488b826bc24c4","freqPrac_resp","","","img/orange_2bandit_a.png","70","img/orange_2bandit_a.png","70","prac","","","5","","","","","","","","","","","","","","","","",""
"null","139399","SARL_v6","SARL_v6p199xw4x","6473bd2d95a488b826bc24c4","fixation","","","img/fixation.png","null","","","prac","","","","","","","","","","","","","","","","","","","",""
"473","139872","SARL_v6","SARL_v6p199xw4x","6473bd2d95a488b826bc24c4","mixRLPractice","","","img/black_2bandit_a2.png","75","img/black_2bandit_a2.png","","prac","","","5","","","","","","","","","","","","","","","","",""
"null","140624","SARL_v6","SARL_v6p199xw4x","6473bd2d95a488b826bc24c4","feedback","","","<div class=""verylowPoints""> -14 </div>","null","","na","prac","","","6","-14","10","-14","","","","","","","","","","","","","",""
"null","140781","SARL_v6","SARL_v6p199xw4x","6473bd2d95a488b826bc24c4","fixation","","","img/fixation.png","null","","","prac","","","","","","","","","","","","","","","","","","","",""
"561","141344","SARL_v6","SARL_v6p199xw4x","6473bd2d95a488b826bc24c4","mixAttFreqPrac","","","img/orange_2bandit_a2.png","70","img/orange_2bandit_a2.png","70","prac","","","7","","","","","","","","","","","","","","","","",""
"561","141599","SARL_v6","SARL_v6p199xw4x","6473bd2d95a488b826bc24c4","freqPrac_resp","","","img/orange_2bandit_a.png","70","img/orange_2bandit_a.png","70","prac","","","7","","","","","","","","","","","","","","","","",""
"null","141756","SARL_v6","SARL_v6p199xw4x","6473bd2d95a488b826bc24c4","fixation","","","img/fixation.png","null","","","prac","","","","","","","","","","","","","","","","","","","",""
"483","142240","SARL_v6","SARL_v6p199xw4x","6473bd2d95a488b826bc24c4","mixAttInfreqPrac","","","img/blue_2bandit_a2.png","68","img/blue_2bandit_a2.png","68","prac","","","8","","","","","","","","","","","","","","","","",""
"483","142559","SARL_v6","SARL_v6p199xw4x","6473bd2d95a488b826bc24c4","infreqPrac_resp","","","img/blue_2bandit_a.png","68","img/orange_2bandit_a.png","68","prac","","","8","","","","","","","","","","","","","","","","",""
"null","142716","SARL_v6","SARL_v6p199xw4x","6473bd2d95a488b826bc24c4","fixation","","","img/fixation.png","null","","","prac","","","","","","","","","","","","","","","","","","","",""
"388","143105","SARL_v6","SARL_v6p199xw4x","6473bd2d95a488b826bc24c4","mixAttFreqPrac","","","img/orange_2bandit_a2.png","70","img/orange_2bandit_a2.png","70","prac","","","9","","","","","","","","","","","","","","","","",""
"388","143518","SARL_v6","SARL_v6p199xw4x","6473bd2d95a488b826bc24c4","freqPrac_resp","","","img/orange_2bandit_a.png","70","img/orange_2bandit_a.png","70","prac","","","9","","","","","","","","","","","","","","","","",""
"null","143676","SARL_v6","SARL_v6p199xw4x","6473bd2d95a488b826bc24c4","fixation","","","img/fixation.png","null","","","prac","","","","","","","","","","","","","","","","","","","",""
"451","144129","SARL_v6","SARL_v6p199xw4x","6473bd2d95a488b826bc24c4","mixAttFreqPrac","","","img/orange_2bandit_a2.png","70","img/orange_2bandit_a2.png","70","prac","","","10","","","","","","","","","","","","","","","","",""
"451","144492","SARL_v6","SARL_v6p199xw4x","6473bd2d95a488b826bc24c4","freqPrac_resp","","","img/orange_2bandit_a.png","70","img/orange_2bandit_a.png","70","prac","","","10","","","","","","","","","","","","","","","","",""
"null","144649","SARL_v6","SARL_v6p199xw4x","6473bd2d95a488b826bc24c4","fixation","","","img/fixation.png","null","","","prac","","","","","","","","","","","","","","","","","","","",""
"374","145024","SARL_v6","SARL_v6p199xw4x","6473bd2d95a488b826bc24c4","mixAttInfreqPrac","","","img/blue_2bandit_a2.png","68","img/blue_2bandit_a2.png","68","prac","","","11","","","","","","","","","","","","","","","","",""
"374","145466","SARL_v6","SARL_v6p199xw4x","6473bd2d95a488b826bc24c4","infreqPrac_resp","","","img/blue_2bandit_a.png","68","img/orange_2bandit_a.png","68","prac","","","11","","","","","","","","","","","","","","","","",""
"null","145622","SARL_v6","SARL_v6p199xw4x","6473bd2d95a488b826bc24c4","fixation","","","img/fixation.png","null","","","prac","","","","","","","","","","","","","","","","","","","",""
"1289","146912","SARL_v6","SARL_v6p199xw4x","6473bd2d95a488b826bc24c4","mixRLPractice","","","img/black_2bandit_a2.png","75","img/black_2bandit_a2.png","","prac","","","11","","","","","","","","","","","","","","","","",""
"null","147669","SARL_v6","SARL_v6p199xw4x","6473bd2d95a488b826bc24c4","feedback","","","<div class=""veryhighPoints""> 5 </div>","null","","na","prac","","","12","5","-5","5","","","","","","","","","","","","","",""
"null","147826","SARL_v6","SARL_v6p199xw4x","6473bd2d95a488b826bc24c4","fixation","","","img/fixation.png","null","","","prac","","","","","","","","","","","","","","","","","","","",""
"9350","157177","SARL_v6","SARL_v6p199xw4x","6473bd2d95a488b826bc24c4","","","","","","","","prac","","","","","","","","","","","","","","","","","","","",""
"null","157990","SARL_v6","SARL_v6p199xw4x","6473bd2d95a488b826bc24c4","freq","","","img/orange_2bandit_a2.png","null","","70","test","0","","1","","","","square","circle","1","1","1","0","","","","","","","",""
"null","158149","SARL_v6","SARL_v6p199xw4x","6473bd2d95a488b826bc24c4","fixation","","","img/fixation.png","null","","","test","","","","","","","","","","","","","","","","","","","",""
"434","158584","SARL_v6","SARL_v6p199xw4x","6473bd2d95a488b826bc24c4","freq","","","img/orange_2bandit_a2.png","70","","70","test","1","","2","","","","square","circle","2","2","1","0.5","","","","","","","",""
"null","158964","SARL_v6","SARL_v6p199xw4x","6473bd2d95a488b826bc24c4","freq_resp","","","img/orange_2bandit_a.png","70","img/orange_2bandit_a.png","70","test","","","","","","","","","","","1","","","","","","","","",""
"null","159121","SARL_v6","SARL_v6p199xw4x","6473bd2d95a488b826bc24c4","fixation","","","img/fixation.png","null","","","test","","","","","","","","","","","","","","","","","","","",""
"390","159512","SARL_v6","SARL_v6p199xw4x","6473bd2d95a488b826bc24c4","freq","","","img/orange_2bandit_a2.png","70","","70","test","1","","3","","","","square","circle","3","3","1","0.6666666666666666","","","","","","","",""
"null","159939","SARL_v6","SARL_v6p199xw4x","6473bd2d95a488b826bc24c4","freq_resp","","","img/orange_2bandit_a.png","70","img/orange_2bandit_a.png","70","test","","","","","","","","","","","1","","","","","","","","",""
"null","160096","SARL_v6","SARL_v6p199xw4x","6473bd2d95a488b826bc24c4","fixation","","","img/fixation.png","null","","","test","","","","","","","","","","","","","","","","","","","",""
"376","160472","SARL_v6","SARL_v6p199xw4x","6473bd2d95a488b826bc24c4","freq","","","img/orange_2bandit_a2.png","70","","70","test","1","","4","","","","square","circle","4","4","1","0.75","","","","","","","",""
"null","160897","SARL_v6","SARL_v6p199xw4x","6473bd2d95a488b826bc24c4","freq_resp","","","img/orange_2bandit_a.png","70","img/orange_2bandit_a.png","70","test","","","","","","","","","","","1","","","","","","","","",""
"null","161055","SARL_v6","SARL_v6p199xw4x","6473bd2d95a488b826bc24c4","fixation","","","img/fixation.png","null","","","test","","","","","","","","","","","","","","","","","","","",""
"376","161432","SARL_v6","SARL_v6p199xw4x","6473bd2d95a488b826bc24c4","freq","","","img/orange_2bandit_a2.png","70","","70","test","1","","5","","","","square","circle","5","5","1","0.8","","","","","","","",""
"null","161858","SARL_v6","SARL_v6p199xw4x","6473bd2d95a488b826bc24c4","freq_resp","","","img/orange_2bandit_a.png","70","img/orange_2bandit_a.png","70","test","","","","","","","","","","","1","","","","","","","","",""
"null","162015","SARL_v6","SARL_v6p199xw4x","6473bd2d95a488b826bc24c4","fixation","","","img/fixation.png","null","","","test","","","","","","","","","","","","","","","","","","","",""
"471","162488","SARL_v6","SARL_v6p199xw4x","6473bd2d95a488b826bc24c4","freq","","","img/orange_2bandit_a2.png","70","","70","test","1","","6","","","","square","circle","6","6","1","0.8333333333333334","","","","","","","",""
"null","162834","SARL_v6","SARL_v6p199xw4x","6473bd2d95a488b826bc24c4","freq_resp","","","img/orange_2bandit_a.png","70","img/orange_2bandit_a.png","70","test","","","","","","","","","","","1","","","","","","","","",""
"null","162989","SARL_v6","SARL_v6p199xw4x","6473bd2d95a488b826bc24c4","fixation","","","img/fixation.png","null","","","test","","","","","","","","","","","","","","","","","","","",""
"393","163384","SARL_v6","SARL_v6p199xw4x","6473bd2d95a488b826bc24c4","freq","","","img/orange_2bandit_a2.png","70","","70","test","1","","7","","","","square","circle","7","7","1","0.8571428571428571","","","","","","","",""
"null","163806","SARL_v6","SARL_v6p199xw4x","6473bd2d95a488b826bc24c4","freq_resp","","","img/orange_2bandit_a.png","70","img/orange_2bandit_a.png","70","test","","","","","","","","","","","1","","","","","","","","",""
"null","163963","SARL_v6","SARL_v6p199xw4x","6473bd2d95a488b826bc24c4","fixation","","","img/fixation.png","null","","","test","","","","","","","","","","","","","","","","","","","",""
"348","164312","SARL_v6","SARL_v6p199xw4x","6473bd2d95a488b826bc24c4","freq","","","img/orange_2bandit_a2.png","70","","70","test","1","","8","","","","square","circle","8","8","1","0.875","","","","","","","",""
"null","164780","SARL_v6","SARL_v6p199xw4x","6473bd2d95a488b826bc24c4","freq_resp","","","img/orange_2bandit_a.png","70","img/orange_2bandit_a.png","70","test","","","","","","","","","","","1","","","","","","","","",""
"null","164937","SARL_v6","SARL_v6p199xw4x","6473bd2d95a488b826bc24c4","fixation","","","img/fixation.png","null","","","test","","","","","","","","","","","","","","","","","","","",""
"367","165304","SARL_v6","SARL_v6p199xw4x","6473bd2d95a488b826bc24c4","freq","","","img/orange_2bandit_a2.png","70","","70","test","1","","9","","","","square","circle","9","9","1","0.8888888888888888","","","","","","","",""
"null","165739","SARL_v6","SARL_v6p199xw4x","6473bd2d95a488b826bc24c4","freq_resp","","","img/orange_2bandit_a.png","70","img/orange_2bandit_a.png","70","test","","","","","","","","","","","1","","","","","","","","",""
"null","165895","SARL_v6","SARL_v6p199xw4x","6473bd2d95a488b826bc24c4","fixation","","","img/fixation.png","null","","","test","","","","","","","","","","","","","","","","","","","",""
"336","166232","SARL_v6","SARL_v6p199xw4x","6473bd2d95a488b826bc24c4","freq","","","img/orange_2bandit_a2.png","70","","70","test","1","","10","","","","square","circle","10","10","1","0.9","","","","","","","",""
"null","166698","SARL_v6","SARL_v6p199xw4x","6473bd2d95a488b826bc24c4","freq_resp","","","img/orange_2bandit_a.png","70","img/orange_2bandit_a.png","70","test","","","","","","","","","","","1","","","","","","","","",""
"null","166854","SARL_v6","SARL_v6p199xw4x","6473bd2d95a488b826bc24c4","fixation","","","img/fixation.png","null","","","test","","","","","","","","","","","","","","","","","","","",""
"336","167192","SARL_v6","SARL_v6p199xw4x","6473bd2d95a488b826bc24c4","freq","","","img/orange_2bandit_a2.png","70","","70","test","1","","11","","","","square","circle","11","11","1","0.9090909090909091","","","","","","","",""
"null","167671","SARL_v6","SARL_v6p199xw4x","6473bd2d95a488b826bc24c4","freq_resp","","","img/orange_2bandit_a.png","70","img/orange_2bandit_a.png","70","test","","","","","","","","","","","1","","","","","","","","",""
"null","167828","SARL_v6","SARL_v6p199xw4x","6473bd2d95a488b826bc24c4","fixation","","","img/fixation.png","null","","","test","","","","","","","","","","","","","","","","","","","",""
"299","168128","SARL_v6","SARL_v6p199xw4x","6473bd2d95a488b826bc24c4","infreq","","","img/blue_2bandit_a2.png","70","","68","test","0","","12","","","","square","circle","12","12","1","0.8333333333333334","","","","","","","",""
"null","168645","SARL_v6","SARL_v6p199xw4x","6473bd2d95a488b826bc24c4","infreq_resp","","","img/blue_2bandit_a.png","70","img/blue_2bandit_a.png","68","test","","","","","","","","","","","1","","","","","","","","",""
"null","168802","SARL_v6","SARL_v6p199xw4x","6473bd2d95a488b826bc24c4","fixation","","","img/fixation.png","null","","","test","","","","","","","","","","","","","","","","","","","",""
"413","169216","SARL_v6","SARL_v6p199xw4x","6473bd2d95a488b826bc24c4","freq","","","img/orange_2bandit_a2.png","70","","70","test","1","","13","","","","square","circle","13","13","1","0.8461538461538461","","","","","","","",""
"null","169619","SARL_v6","SARL_v6p199xw4x","6473bd2d95a488b826bc24c4","freq_resp","","","img/orange_2bandit_a.png","70","img/orange_2bandit_a.png","70","test","","","","","","","","","","","1","","","","","","","","",""
"null","169776","SARL_v6","SARL_v6p199xw4x","6473bd2d95a488b826bc24c4","fixation","","","img/fixation.png","null","","","test","","","","","","","","","","","","","","","","","","","",""
"368","170144","SARL_v6","SARL_v6p199xw4x","6473bd2d95a488b826bc24c4","freq","","","img/orange_2bandit_a2.png","70","","70","test","1","","14","","","","square","circle","14","14","1","0.8571428571428571","","","","","","","",""
"null","170577","SARL_v6","SARL_v6p199xw4x","6473bd2d95a488b826bc24c4","freq_resp","","","img/orange_2bandit_a.png","70","img/orange_2bandit_a.png","70","test","","","","","","","","","","","1","","","","","","","","",""
"null","170734","SARL_v6","SARL_v6p199xw4x","6473bd2d95a488b826bc24c4","fixation","","","img/fixation.png","null","","","test","","","","","","","","","","","","","","","","","","","",""
"369","171104","SARL_v6","SARL_v6p199xw4x","6473bd2d95a488b826bc24c4","freq","","","img/orange_2bandit_a2.png","70","","70","test","1","","15","","","","square","circle","15","15","1","0.8666666666666667","","","","","","","",""
"null","171552","SARL_v6","SARL_v6p199xw4x","6473bd2d95a488b826bc24c4","freq_resp","","","img/orange_2bandit_a.png","70","img/orange_2bandit_a.png","70","test","","","","","","","","","","","1","","","","","","","","",""
"null","171708","SARL_v6","SARL_v6p199xw4x","6473bd2d95a488b826bc24c4","fixation","","","img/fixation.png","null","","","test","","","","","","","","","","","","","","","","","","","",""
"355","172064","SARL_v6","SARL_v6p199xw4x","6473bd2d95a488b826bc24c4","freq","","","img/orange_2bandit_a2.png","70","","70","test","1","","16","","","","square","circle","16","16","1","0.875","","","","","","","",""
"null","172526","SARL_v6","SARL_v6p199xw4x","6473bd2d95a488b826bc24c4","freq_resp","","","img/orange_2bandit_a.png","70","img/orange_2bandit_a.png","70","test","","","","","","","","","","","1","","","","","","","","",""
"null","172682","SARL_v6","SARL_v6p199xw4x","6473bd2d95a488b826bc24c4","fixation","","","img/fixation.png","null","","","test","","","","","","","","","","","","","","","","","","","",""
"373","173056","SARL_v6","SARL_v6p199xw4x","6473bd2d95a488b826bc24c4","freq","","","img/orange_2bandit_a2.png","70","","70","test","1","","17","","","","square","circle","17","17","1","0.8823529411764706","","","","","","","",""
"null","173485","SARL_v6","SARL_v6p199xw4x","6473bd2d95a488b826bc24c4","freq_resp","","","img/orange_2bandit_a.png","70","img/orange_2bandit_a.png","70","test","","","","","","","","","","","1","","","","","","","","",""
"null","173642","SARL_v6","SARL_v6p199xw4x","6473bd2d95a488b826bc24c4","fixation","","","img/fixation.png","null","","","test","","","","","","","","","","","","","","","","","","","",""
"341","173984","SARL_v6","SARL_v6p199xw4x","6473bd2d95a488b826bc24c4","freq","","","img/orange_2bandit_a2.png","70","","70","test","1","","18","","","","square","circle","18","18","1","0.8888888888888888","","","","","","","",""
"null","174458","SARL_v6","SARL_v6p199xw4x","6473bd2d95a488b826bc24c4","freq_resp","","","img/orange_2bandit_a.png","70","img/orange_2bandit_a.png","70","test","","","","","","","","","","","1","","","","","","","","",""
"null","174614","SARL_v6","SARL_v6p199xw4x","6473bd2d95a488b826bc24c4","fixation","","","img/fixation.png","null","","","test","","","","","","","","","","","","","","","","","","","",""
"520","175136","SARL_v6","SARL_v6p199xw4x","6473bd2d95a488b826bc24c4","freq","","","img/orange_2bandit_a2.png","70","","70","test","1","","19","","","","square","circle","19","19","1","0.8947368421052632","","","","","","","",""
"null","175432","SARL_v6","SARL_v6p199xw4x","6473bd2d95a488b826bc24c4","freq_resp","","","img/orange_2bandit_a.png","70","img/orange_2bandit_a.png","70","test","","","","","","","","","","","1","","","","","","","","",""
"null","175589","SARL_v6","SARL_v6p199xw4x","6473bd2d95a488b826bc24c4","fixation","","","img/fixation.png","null","","","test","","","","","","","","","","","","","","","","","","","",""
"474","176064","SARL_v6","SARL_v6p199xw4x","6473bd2d95a488b826bc24c4","freq","","","img/orange_2bandit_a2.png","70","","70","test","1","","20","","","","square","circle","20","20","1","0.9","","","","","","","",""
"null","176402","SARL_v6","SARL_v6p199xw4x","6473bd2d95a488b826bc24c4","freq_resp","","","img/orange_2bandit_a.png","70","img/orange_2bandit_a.png","70","test","","","","","","","","","","","1","","","","","","","","",""
"null","176559","SARL_v6","SARL_v6p199xw4x","6473bd2d95a488b826bc24c4","fixation","","","img/fixation.png","null","","","test","","","","","","","","","","","","","","","","","","","",""
"399","176960","SARL_v6","SARL_v6p199xw4x","6473bd2d95a488b826bc24c4","freq","","","img/orange_2bandit_a2.png","70","","70","test","1","","21","","","","square","circle","21","21","1","0.9047619047619048","","","","","","","",""
"null","177376","SARL_v6","SARL_v6p199xw4x","6473bd2d95a488b826bc24c4","freq_resp","","","img/orange_2bandit_a.png","70","img/orange_2bandit_a.png","70","test","","","","","","","","","","","1","","","","","","","","",""
"null","177533","SARL_v6","SARL_v6p199xw4x","6473bd2d95a488b826bc24c4","fixation","","","img/fixation.png","null","","","test","","","","","","","","","","","","","","","","","","","",""
"354","177888","SARL_v6","SARL_v6p199xw4x","6473bd2d95a488b826bc24c4","infreq","","","img/blue_2bandit_a2.png","70","","68","test","0","","22","","","","square","circle","22","22","1","0.8636363636363636","","","","","","","",""
"null","178336","SARL_v6","SARL_v6p199xw4x","6473bd2d95a488b826bc24c4","infreq_resp","","","img/blue_2bandit_a.png","70","img/blue_2bandit_a.png","68","test","","","","","","","","","","","1","","","","","","","","",""
"null","178492","SARL_v6","SARL_v6p199xw4x","6473bd2d95a488b826bc24c4","fixation","","","img/fixation.png","null","","","test","","","","","","","","","","","","","","","","","","","",""
"354","178848","SARL_v6","SARL_v6p199xw4x","6473bd2d95a488b826bc24c4","freq","","","img/orange_2bandit_a2.png","70","","70","test","1","","23","","","","square","circle","23","23","1","0.8695652173913043","","","","","","","",""
"null","179309","SARL_v6","SARL_v6p199xw4x","6473bd2d95a488b826bc24c4","freq_resp","","","img/orange_2bandit_a.png","70","img/orange_2bandit_a.png","70","test","","","","","","","","","","","1","","","","","","","","",""
"null","179466","SARL_v6","SARL_v6p199xw4x","6473bd2d95a488b826bc24c4","fixation","","","img/fixation.png","null","","","test","","","","","","","","","","","","","","","","","","","",""
"404","179872","SARL_v6","SARL_v6p199xw4x","6473bd2d95a488b826bc24c4","freq","","","img/orange_2bandit_a2.png","70","","70","test","1","","24","","","","square","circle","24","24","1","0.875","","","","","","","",""
"null","180283","SARL_v6","SARL_v6p199xw4x","6473bd2d95a488b826bc24c4","freq_resp","","","img/orange_2bandit_a.png","70","img/orange_2bandit_a.png","70","test","","","","","","","","","","","1","","","","","","","","",""
"null","180440","SARL_v6","SARL_v6p199xw4x","6473bd2d95a488b826bc24c4","fixation","","","img/fixation.png","null","","","test","","","","","","","","","","","","","","","","","","","",""
"390","180833","SARL_v6","SARL_v6p199xw4x","6473bd2d95a488b826bc24c4","freq","","","img/orange_2bandit_a2.png","70","","70","test","1","","25","","","","square","circle","25","25","1","0.88","","","","","","","",""
"null","181257","SARL_v6","SARL_v6p199xw4x","6473bd2d95a488b826bc24c4","freq_resp","","","img/orange_2bandit_a.png","70","img/orange_2bandit_a.png","70","test","","","","","","","","","","","1","","","","","","","","",""
"null","181414","SARL_v6","SARL_v6p199xw4x","6473bd2d95a488b826bc24c4","fixation","","","img/fixation.png","null","","","test","","","","","","","","","","","","","","","","","","","",""
"409","181824","SARL_v6","SARL_v6p199xw4x","6473bd2d95a488b826bc24c4","freq","","","img/orange_2bandit_a2.png","70","","70","test","1","","26","","","","square","circle","26","26","1","0.8846153846153846","","","","","","","",""
"null","182231","SARL_v6","SARL_v6p199xw4x","6473bd2d95a488b826bc24c4","freq_resp","","","img/orange_2bandit_a.png","70","img/orange_2bandit_a.png","70","test","","","","","","","","","","","1","","","","","","","","",""
"null","182387","SARL_v6","SARL_v6p199xw4x","6473bd2d95a488b826bc24c4","fixation","","","img/fixation.png","null","","","test","","","","","","","","","","","","","","","","","","","",""
"555","182944","SARL_v6","SARL_v6p199xw4x","6473bd2d95a488b826bc24c4","rl","","","img/black_2bandit_a2.png","74","","0","test","","","27","","","-3","square","circle","","0","1","","74","-3","-3","-3","-3","square","1","0"
"null","183709","SARL_v6","SARL_v6p199xw4x","6473bd2d95a488b826bc24c4","feedback","","","<div class=""verylowPoints_sq""> -3 </div>","null","","na","test","","","NaN","","","","","","","","1","","74","","","","","","1",""
"610","184320","SARL_v6","SARL_v6p199xw4x","6473bd2d95a488b826bc24c4","freq","","","img/orange_2bandit_a2.png","70","","70","test","1","","28","","","","square","circle","27","1","2","0.8888888888888888","","","","","","","",""
"null","184525","SARL_v6","SARL_v6p199xw4x","6473bd2d95a488b826bc24c4","freq_resp","","","img/orange_2bandit_a.png","70","img/orange_2bandit_a.png","70","test","","","","","","","","","","","2","","","","","","","","",""
"null","184681","SARL_v6","SARL_v6p199xw4x","6473bd2d95a488b826bc24c4","fixation","","","img/fixation.png","null","","","test","","","","","","","","","","","","","","","","","","","",""
"406","185088","SARL_v6","SARL_v6p199xw4x","6473bd2d95a488b826bc24c4","freq","","","img/orange_2bandit_a2.png","70","","70","test","1","","29","","","","square","circle","28","2","2","0.8928571428571429","","","","","","","",""
"null","185499","SARL_v6","SARL_v6p199xw4x","6473bd2d95a488b826bc24c4","freq_resp","","","img/orange_2bandit_a.png","70","img/orange_2bandit_a.png","70","test","","","","","","","","","","","2","","","","","","","","",""
"null","185655","SARL_v6","SARL_v6p199xw4x","6473bd2d95a488b826bc24c4","fixation","","","img/fixation.png","null","","","test","","","","","","","","","","","","","","","","","","","",""
"295","185952","SARL_v6","SARL_v6p199xw4x","6473bd2d95a488b826bc24c4","freq","","","img/orange_2bandit_a2.png","70","","70","test","1","","30","","","","square","circle","29","3","2","0.896551724137931","","","","","","","",""
"null","186473","SARL_v6","SARL_v6p199xw4x","6473bd2d95a488b826bc24c4","freq_resp","","","img/orange_2bandit_a.png","70","img/orange_2bandit_a.png","70","test","","","","","","","","","","","2","","","","","","","","",""
"null","186629","SARL_v6","SARL_v6p199xw4x","6473bd2d95a488b826bc24c4","fixation","","","img/fixation.png","null","","","test","","","","","","","","","","","","","","","","","","","",""
"378","187009","SARL_v6","SARL_v6p199xw4x","6473bd2d95a488b826bc24c4","freq","","","img/orange_2bandit_a2.png","70","","70","test","1","","31","","","","square","circle","30","4","2","0.9","","","","","","","",""
"null","187447","SARL_v6","SARL_v6p199xw4x","6473bd2d95a488b826bc24c4","freq_resp","","","img/orange_2bandit_a.png","70","img/orange_2bandit_a.png","70","test","","","","","","","","","","","2","","","","","","","","",""
"null","187603","SARL_v6","SARL_v6p199xw4x","6473bd2d95a488b826bc24c4","fixation","","","img/fixation.png","null","","","test","","","","","","","","","","","","","","","","","","","",""
"396","188000","SARL_v6","SARL_v6p199xw4x","6473bd2d95a488b826bc24c4","freq","","","img/orange_2bandit_a2.png","70","","70","test","1","","32","","","","square","circle","31","5","2","0.9032258064516129","","","","","","","",""
"null","188421","SARL_v6","SARL_v6p199xw4x","6473bd2d95a488b826bc24c4","freq_resp","","","img/orange_2bandit_a.png","70","img/orange_2bandit_a.png","70","test","","","","","","","","","","","2","","","","","","","","",""
"null","188578","SARL_v6","SARL_v6p199xw4x","6473bd2d95a488b826bc24c4","fixation","","","img/fixation.png","null","","","test","","","","","","","","","","","","","","","","","","","",""
"380","188960","SARL_v6","SARL_v6p199xw4x","6473bd2d95a488b826bc24c4","freq","","","img/orange_2bandit_a2.png","70","","70","test","1","","33","","","","square","circle","32","6","2","0.90625","","","","","","","",""
"null","189395","SARL_v6","SARL_v6p199xw4x","6473bd2d95a488b826bc24c4","freq_resp","","","img/orange_2bandit_a.png","70","img/orange_2bandit_a.png","70","test","","","","","","","","","","","2","","","","","","","","",""
"null","189552","SARL_v6","SARL_v6p199xw4x","6473bd2d95a488b826bc24c4","fixation","","","img/fixation.png","null","","","test","","","","","","","","","","","","","","","","","","","",""
"366","189920","SARL_v6","SARL_v6p199xw4x","6473bd2d95a488b826bc24c4","freq","","","img/orange_2bandit_a2.png","70","","70","test","1","","34","","","","square","circle","33","7","2","0.9090909090909091","","","","","","","",""
"null","190369","SARL_v6","SARL_v6p199xw4x","6473bd2d95a488b826bc24c4","freq_resp","","","img/orange_2bandit_a.png","70","img/orange_2bandit_a.png","70","test","","","","","","","","","","","2","","","","","","","","",""
"null","190526","SARL_v6","SARL_v6p199xw4x","6473bd2d95a488b826bc24c4","fixation","","","img/fixation.png","null","","","test","","","","","","","","","","","","","","","","","","","",""
"609","191136","SARL_v6","SARL_v6p199xw4x","6473bd2d95a488b826bc24c4","infreq","","","img/blue_2bandit_a2.png","68","","68","test","1","","35","","","","square","circle","34","8","2","0.9117647058823529","","","","","","","",""
"null","191329","SARL_v6","SARL_v6p199xw4x","6473bd2d95a488b826bc24c4","infreq_resp","","","img/blue_2bandit_a.png","68","img/blue_2bandit_a.png","68","test","","","","","","","","","","","2","","","","","","","","",""
"null","191486","SARL_v6","SARL_v6p199xw4x","6473bd2d95a488b826bc24c4","fixation","","","img/fixation.png","null","","","test","","","","","","","","","","","","","","","","","","","",""
"480","191968","SARL_v6","SARL_v6p199xw4x","6473bd2d95a488b826bc24c4","freq","","","img/orange_2bandit_a2.png","70","","70","test","1","","36","","","","square","circle","35","9","2","0.9142857142857143","","","","","","","",""
"null","192305","SARL_v6","SARL_v6p199xw4x","6473bd2d95a488b826bc24c4","freq_resp","","","img/orange_2bandit_a.png","70","img/orange_2bandit_a.png","70","test","","","","","","","","","","","2","","","","","","","","",""
"null","192460","SARL_v6","SARL_v6p199xw4x","6473bd2d95a488b826bc24c4","fixation","","","img/fixation.png","null","","","test","","","","","","","","","","","","","","","","","","","",""
"370","192832","SARL_v6","SARL_v6p199xw4x","6473bd2d95a488b826bc24c4","freq","","","img/orange_2bandit_a2.png","70","","70","test","1","","37","","","","square","circle","36","10","2","0.9166666666666666","","","","","","","",""
"null","193279","SARL_v6","SARL_v6p199xw4x","6473bd2d95a488b826bc24c4","freq_resp","","","img/orange_2bandit_a.png","70","img/orange_2bandit_a.png","70","test","","","","","","","","","","","2","","","","","","","","",""
"null","193435","SARL_v6","SARL_v6p199xw4x","6473bd2d95a488b826bc24c4","fixation","","","img/fixation.png","null","","","test","","","","","","","","","","","","","","","","","","","",""
"356","193792","SARL_v6","SARL_v6p199xw4x","6473bd2d95a488b826bc24c4","freq","","","img/orange_2bandit_a2.png","70","","70","test","1","","38","","","","square","circle","37","11","2","0.918918918918919","","","","","","","",""
"null","194252","SARL_v6","SARL_v6p199xw4x","6473bd2d95a488b826bc24c4","freq_resp","","","img/orange_2bandit_a.png","70","img/orange_2bandit_a.png","70","test","","","","","","","","","","","2","","","","","","","","",""
"null","194409","SARL_v6","SARL_v6p199xw4x","6473bd2d95a488b826bc24c4","fixation","","","img/fixation.png","null","","","test","","","","","","","","","","","","","","","","","","","",""
"373","194784","SARL_v6","SARL_v6p199xw4x","6473bd2d95a488b826bc24c4","freq","","","img/orange_2bandit_a2.png","70","","70","test","1","","39","","","","square","circle","38","12","2","0.9210526315789473","","","","","","","",""
"null","195226","SARL_v6","SARL_v6p199xw4x","6473bd2d95a488b826bc24c4","freq_resp","","","img/orange_2bandit_a.png","70","img/orange_2bandit_a.png","70","test","","","","","","","","","","","2","","","","","","","","",""
"null","195383","SARL_v6","SARL_v6p199xw4x","6473bd2d95a488b826bc24c4","fixation","","","img/fixation.png","null","","","test","","","","","","","","","","","","","","","","","","","",""
"359","195744","SARL_v6","SARL_v6p199xw4x","6473bd2d95a488b826bc24c4","freq","","","img/orange_2bandit_a2.png","70","","70","test","1","","40","","","","square","circle","39","13","2","0.9230769230769231","","","","","","","",""
"null","196200","SARL_v6","SARL_v6p199xw4x","6473bd2d95a488b826bc24c4","freq_resp","","","img/orange_2bandit_a.png","70","img/orange_2bandit_a.png","70","test","","","","","","","","","","","2","","","","","","","","",""
"null","196357","SARL_v6","SARL_v6p199xw4x","6473bd2d95a488b826bc24c4","fixation","","","img/fixation.png","null","","","test","","","","","","","","","","","","","","","","","","","",""
"345","196704","SARL_v6","SARL_v6p199xw4x","6473bd2d95a488b826bc24c4","freq","","","img/orange_2bandit_a2.png","70","","70","test","1","","41","","","","square","circle","40","14","2","0.925","","","","","","","",""
"null","197175","SARL_v6","SARL_v6p199xw4x","6473bd2d95a488b826bc24c4","freq_resp","","","img/orange_2bandit_a.png","70","img/orange_2bandit_a.png","70","test","","","","","","","","","","","2","","","","","","","","",""
"null","197330","SARL_v6","SARL_v6p199xw4x","6473bd2d95a488b826bc24c4","fixation","","","img/fixation.png","null","","","test","","","","","","","","","","","","","","","","","","","",""
"492","197824","SARL_v6","SARL_v6p199xw4x","6473bd2d95a488b826bc24c4","infreq","","","img/blue_2bandit_a2.png","68","","68","test","1","","42","","","","square","circle","41","15","2","0.926829268292683","","","","","","","",""
"null","198134","SARL_v6","SARL_v6p199xw4x","6473bd2d95a488b826bc24c4","infreq_resp","","","img/blue_2bandit_a.png","68","img/blue_2bandit_a.png","68","test","","","","","","","","","","","2","","","","","","","","",""
"null","198291","SARL_v6","SARL_v6p199xw4x","6473bd2d95a488b826bc24c4","fixation","","","img/fixation.png","null","","","test","","","","","","","","","","","","","","","","","","","",""
"460","198752","SARL_v6","SARL_v6p199xw4x","6473bd2d95a488b826bc24c4","freq","","","img/orange_2bandit_a2.png","70","","70","test","1","","43","","","","square","circle","42","16","2","0.9285714285714286","","","","","","","",""
"null","199107","SARL_v6","SARL_v6p199xw4x","6473bd2d95a488b826bc24c4","freq_resp","","","img/orange_2bandit_a.png","70","img/orange_2bandit_a.png","70","test","","","","","","","","","","","2","","","","","","","","",""
"null","199264","SARL_v6","SARL_v6p199xw4x","6473bd2d95a488b826bc24c4","fixation","","","img/fixation.png","null","","","test","","","","","","","","","","","","","","","","","","","",""
"351","199616","SARL_v6","SARL_v6p199xw4x","6473bd2d95a488b826bc24c4","freq","","","img/orange_2bandit_a2.png","70","","70","test","1","","44","","","","square","circle","43","17","2","0.9302325581395349","","","","","","","",""
"null","200082","SARL_v6","SARL_v6p199xw4x","6473bd2d95a488b826bc24c4","freq_resp","","","img/orange_2bandit_a.png","70","img/orange_2bandit_a.png","70","test","","","","","","","","","","","2","","","","","","","","",""
"null","200238","SARL_v6","SARL_v6p199xw4x","6473bd2d95a488b826bc24c4","fixation","","","img/fixation.png","null","","","test","","","","","","","","","","","","","","","","","","","",""
"337","200576","SARL_v6","SARL_v6p199xw4x","6473bd2d95a488b826bc24c4","freq","","","img/orange_2bandit_a2.png","70","","70","test","1","","45","","","","square","circle","44","18","2","0.9318181818181818","","","","","","","",""
"null","201055","SARL_v6","SARL_v6p199xw4x","6473bd2d95a488b826bc24c4","freq_resp","","","img/orange_2bandit_a.png","70","img/orange_2bandit_a.png","70","test","","","","","","","","","","","2","","","","","","","","",""
"null","201213","SARL_v6","SARL_v6p199xw4x","6473bd2d95a488b826bc24c4","fixation","","","img/fixation.png","null","","","test","","","","","","","","","","","","","","","","","","","",""
"321","201536","SARL_v6","SARL_v6p199xw4x","6473bd2d95a488b826bc24c4","freq","","","img/orange_2bandit_a2.png","70","","70","test","1","","46","","","","square","circle","45","19","2","0.9333333333333333","","","","","","","",""
"null","202017","SARL_v6","SARL_v6p199xw4x","6473bd2d95a488b826bc24c4","freq_resp","","","img/orange_2bandit_a.png","70","img/orange_2bandit_a.png","70","test","","","","","","","","","","","2","","","","","","","","",""
"null","202174","SARL_v6","SARL_v6p199xw4x","6473bd2d95a488b826bc24c4","fixation","","","img/fixation.png","null","","","test","","","","","","","","","","","","","","","","","","","",""
"387","202560","SARL_v6","SARL_v6p199xw4x","6473bd2d95a488b826bc24c4","freq","","","img/orange_2bandit_a2.png","70","","70","test","1","","47","","","","square","circle","46","20","2","0.9347826086956522","","","","","","","",""
"null","202976","SARL_v6","SARL_v6p199xw4x","6473bd2d95a488b826bc24c4","freq_resp","","","img/orange_2bandit_a.png","70","img/orange_2bandit_a.png","70","test","","","","","","","","","","","2","","","","","","","","",""
"null","203133","SARL_v6","SARL_v6p199xw4x","6473bd2d95a488b826bc24c4","fixation","","","img/fixation.png","null","","","test","","","","","","","","","","","","","","","","","","","",""
"450","203584","SARL_v6","SARL_v6p199xw4x","6473bd2d95a488b826bc24c4","freq","","","img/orange_2bandit_a2.png","70","","70","test","1","","48","","","","square","circle","47","21","2","0.9361702127659575","","","","","","","",""
"null","203950","SARL_v6","SARL_v6p199xw4x","6473bd2d95a488b826bc24c4","freq_resp","","","img/orange_2bandit_a.png","70","img/orange_2bandit_a.png","70","test","","","","","","","","","","","2","","","","","","","","",""
"null","204106","SARL_v6","SARL_v6p199xw4x","6473bd2d95a488b826bc24c4","fixation","","","img/fixation.png","null","","","test","","","","","","","","","","","","","","","","","","","",""
"405","204512","SARL_v6","SARL_v6p199xw4x","6473bd2d95a488b826bc24c4","freq","","","img/orange_2bandit_a2.png","70","","70","test","1","","49","","","","square","circle","48","22","2","0.9375","","","","","","","",""
"null","204924","SARL_v6","SARL_v6p199xw4x","6473bd2d95a488b826bc24c4","freq_resp","","","img/orange_2bandit_a.png","70","img/orange_2bandit_a.png","70","test","","","","","","","","","","","2","","","","","","","","",""
"null","205080","SARL_v6","SARL_v6p199xw4x","6473bd2d95a488b826bc24c4","fixation","","","img/fixation.png","null","","","test","","","","","","","","","","","","","","","","","","","",""
"423","205505","SARL_v6","SARL_v6p199xw4x","6473bd2d95a488b826bc24c4","freq","","","img/orange_2bandit_a2.png","70","","70","test","1","","50","","","","square","circle","49","23","2","0.9387755102040817","","","","","","","",""
"null","205896","SARL_v6","SARL_v6p199xw4x","6473bd2d95a488b826bc24c4","freq_resp","","","img/orange_2bandit_a.png","70","img/orange_2bandit_a.png","70","test","","","","","","","","","","","2","","","","","","","","",""
"null","206055","SARL_v6","SARL_v6p199xw4x","6473bd2d95a488b826bc24c4","fixation","","","img/fixation.png","null","","","test","","","","","","","","","","","","","","","","","","","",""
"313","206368","SARL_v6","SARL_v6p199xw4x","6473bd2d95a488b826bc24c4","freq","","","img/orange_2bandit_a2.png","70","","70","test","1","","51","","","","square","circle","50","24","2","0.94","","","","","","","",""
"null","206871","SARL_v6","SARL_v6p199xw4x","6473bd2d95a488b826bc24c4","freq_resp","","","img/orange_2bandit_a.png","70","img/orange_2bandit_a.png","70","test","","","","","","","","","","","2","","","","","","","","",""
"null","207028","SARL_v6","SARL_v6p199xw4x","6473bd2d95a488b826bc24c4","fixation","","","img/fixation.png","null","","","test","","","","","","","","","","","","","","","","","","","",""
"619","207648","SARL_v6","SARL_v6p199xw4x","6473bd2d95a488b826bc24c4","rl","","","img/black_2bandit_a2.png","75","","0","test","","","52","","","-8","square","circle","","0","2","","75","-8","-5","-5","-8","circle","2","0"
"null","208412","SARL_v6","SARL_v6p199xw4x","6473bd2d95a488b826bc24c4","feedback","","","<div class=""verylowPoints""> -8 </div>","null","","na","test","","","NaN","","","","","","","","2","","75","","","","","","2",""
"387","208800","SARL_v6","SARL_v6p199xw4x","6473bd2d95a488b826bc24c4","freq","","","img/orange_2bandit_a2.png","70","","70","test","1","","53","","","","square","circle","51","1","3","0.9411764705882353","","","","","","","",""
"null","209228","SARL_v6","SARL_v6p199xw4x","6473bd2d95a488b826bc24c4","freq_resp","","","img/orange_2bandit_a.png","70","img/orange_2bandit_a.png","70","test","","","","","","","","","","","3","","","","","","","","",""
"null","209386","SARL_v6","SARL_v6p199xw4x","6473bd2d95a488b826bc24c4","fixation","","","img/fixation.png","null","","","test","","","","","","","","","","","","","","","","","","","",""
"374","209761","SARL_v6","SARL_v6p199xw4x","6473bd2d95a488b826bc24c4","freq","","","img/orange_2bandit_a2.png","70","","70","test","1","","54","","","","square","circle","52","2","3","0.9423076923076923","","","","","","","",""
"null","210203","SARL_v6","SARL_v6p199xw4x","6473bd2d95a488b826bc24c4","freq_resp","","","img/orange_2bandit_a.png","70","img/orange_2bandit_a.png","70","test","","","","","","","","","","","3","","","","","","","","",""
"null","210359","SARL_v6","SARL_v6p199xw4x","6473bd2d95a488b826bc24c4","fixation","","","img/fixation.png","null","","","test","","","","","","","","","","","","","","","","","","","",""
"359","210720","SARL_v6","SARL_v6p199xw4x","6473bd2d95a488b826bc24c4","freq","","","img/orange_2bandit_a2.png","70","","70","test","1","","55","","","","square","circle","53","3","3","0.9433962264150944","","","","","","","",""
"null","211176","SARL_v6","SARL_v6p199xw4x","6473bd2d95a488b826bc24c4","freq_resp","","","img/orange_2bandit_a.png","70","img/orange_2bandit_a.png","70","test","","","","","","","","","","","3","","","","","","","","",""
"null","211332","SARL_v6","SARL_v6p199xw4x","6473bd2d95a488b826bc24c4","fixation","","","img/fixation.png","null","","","test","","","","","","","","","","","","","","","","","","","",""
"315","211648","SARL_v6","SARL_v6p199xw4x","6473bd2d95a488b826bc24c4","freq","","","img/orange_2bandit_a2.png","70","","70","test","1","","56","","","","square","circle","54","4","3","0.9444444444444444","","","","","","","",""
"null","212150","SARL_v6","SARL_v6p199xw4x","6473bd2d95a488b826bc24c4","freq_resp","","","img/orange_2bandit_a.png","70","img/orange_2bandit_a.png","70","test","","","","","","","","","","","3","","","","","","","","",""
"null","212306","SARL_v6","SARL_v6p199xw4x","6473bd2d95a488b826bc24c4","fixation","","","img/fixation.png","null","","","test","","","","","","","","","","","","","","","","","","","",""
"333","212640","SARL_v6","SARL_v6p199xw4x","6473bd2d95a488b826bc24c4","freq","","","img/orange_2bandit_a2.png","70","","70","test","1","","57","","","","square","circle","55","5","3","0.9454545454545454","","","","","","","",""
"null","213123","SARL_v6","SARL_v6p199xw4x","6473bd2d95a488b826bc24c4","freq_resp","","","img/orange_2bandit_a.png","70","img/orange_2bandit_a.png","70","test","","","","","","","","","","","3","","","","","","","","",""
"null","213280","SARL_v6","SARL_v6p199xw4x","6473bd2d95a488b826bc24c4","fixation","","","img/fixation.png","null","","","test","","","","","","","","","","","","","","","","","","","",""
"319","213601","SARL_v6","SARL_v6p199xw4x","6473bd2d95a488b826bc24c4","freq","","","img/orange_2bandit_a2.png","70","","70","test","1","","58","","","","square","circle","56","6","3","0.9464285714285714","","","","","","","",""
"null","214097","SARL_v6","SARL_v6p199xw4x","6473bd2d95a488b826bc24c4","freq_resp","","","img/orange_2bandit_a.png","70","img/orange_2bandit_a.png","70","test","","","","","","","","","","","3","","","","","","","","",""
"null","214254","SARL_v6","SARL_v6p199xw4x","6473bd2d95a488b826bc24c4","fixation","","","img/fixation.png","null","","","test","","","","","","","","","","","","","","","","","","","",""
"273","214527","SARL_v6","SARL_v6p199xw4x","6473bd2d95a488b826bc24c4","freq","","","img/orange_2bandit_a2.png","70","","70","test","1","","59","","","","square","circle","57","7","3","0.9473684210526315","","","","","","","",""
"null","215070","SARL_v6","SARL_v6p199xw4x","6473bd2d95a488b826bc24c4","freq_resp","","","img/orange_2bandit_a.png","70","img/orange_2bandit_a.png","70","test","","","","","","","","","","","3","","","","","","","","",""
"null","215228","SARL_v6","SARL_v6p199xw4x","6473bd2d95a488b826bc24c4","fixation","","","img/fixation.png","null","","","test","","","","","","","","","","","","","","","","","","","",""
"228","215455","SARL_v6","SARL_v6p199xw4x","6473bd2d95a488b826bc24c4","infreq","","","img/blue_2bandit_a2.png","70","","68","test","0","","60","","","","square","circle","58","8","3","0.9310344827586207","","","","","","","",""
"null","216030","SARL_v6","SARL_v6p199xw4x","6473bd2d95a488b826bc24c4","infreq_resp","","","img/blue_2bandit_a.png","70","img/blue_2bandit_a.png","68","test","","","","","","","","","","","3","","","","","","","","",""
"null","216185","SARL_v6","SARL_v6p199xw4x","6473bd2d95a488b826bc24c4","fixation","","","img/fixation.png","null","","","test","","","","","","","","","","","","","","","","","","","",""
"549","216736","SARL_v6","SARL_v6p199xw4x","6473bd2d95a488b826bc24c4","infreq","","","img/blue_2bandit_a2.png","68","","68","test","1","","61","","","","square","circle","59","9","3","0.9322033898305084","","","","","","","",""
"null","217003","SARL_v6","SARL_v6p199xw4x","6473bd2d95a488b826bc24c4","infreq_resp","","","img/blue_2bandit_a.png","68","img/blue_2bandit_a.png","68","test","","","","","","","","","","","3","","","","","","","","",""
"null","217159","SARL_v6","SARL_v6p199xw4x","6473bd2d95a488b826bc24c4","fixation","","","img/fixation.png","null","","","test","","","","","","","","","","","","","","","","","","","",""
"440","217600","SARL_v6","SARL_v6p199xw4x","6473bd2d95a488b826bc24c4","freq","","","img/orange_2bandit_a2.png","70","","70","test","1","","62","","","","square","circle","60","10","3","0.9333333333333333","","","","","","","",""
"null","217962","SARL_v6","SARL_v6p199xw4x","6473bd2d95a488b826bc24c4","freq_resp","","","img/orange_2bandit_a.png","70","img/orange_2bandit_a.png","70","test","","","","","","","","","","","3","","","","","","","","",""
"null","218119","SARL_v6","SARL_v6p199xw4x","6473bd2d95a488b826bc24c4","fixation","","","img/fixation.png","null","","","test","","","","","","","","","","","","","","","","","","","",""
"408","218528","SARL_v6","SARL_v6p199xw4x","6473bd2d95a488b826bc24c4","freq","","","img/orange_2bandit_a2.png","70","","70","test","1","","63","","","","square","circle","61","11","3","0.9344262295081968","","","","","","","",""
"null","218937","SARL_v6","SARL_v6p199xw4x","6473bd2d95a488b826bc24c4","freq_resp","","","img/orange_2bandit_a.png","70","img/orange_2bandit_a.png","70","test","","","","","","","","","","","3","","","","","","","","",""
"null","219093","SARL_v6","SARL_v6p199xw4x","6473bd2d95a488b826bc24c4","fixation","","","img/fixation.png","null","","","test","","","","","","","","","","","","","","","","","","","",""
"362","219456","SARL_v6","SARL_v6p199xw4x","6473bd2d95a488b826bc24c4","freq","","","img/orange_2bandit_a2.png","70","","70","test","1","","64","","","","square","circle","62","12","3","0.9354838709677419","","","","","","","",""
"null","219910","SARL_v6","SARL_v6p199xw4x","6473bd2d95a488b826bc24c4","freq_resp","","","img/orange_2bandit_a.png","70","img/orange_2bandit_a.png","70","test","","","","","","","","","","","3","","","","","","","","",""
"null","220066","SARL_v6","SARL_v6p199xw4x","6473bd2d95a488b826bc24c4","fixation","","","img/fixation.png","null","","","test","","","","","","","","","","","","","","","","","","","",""
"316","220384","SARL_v6","SARL_v6p199xw4x","6473bd2d95a488b826bc24c4","freq","","","img/orange_2bandit_a2.png","70","","70","test","1","","65","","","","square","circle","63","13","3","0.9365079365079365","","","","","","","",""
"null","220883","SARL_v6","SARL_v6p199xw4x","6473bd2d95a488b826bc24c4","freq_resp","","","img/orange_2bandit_a.png","70","img/orange_2bandit_a.png","70","test","","","","","","","","","","","3","","","","","","","","",""
"null","221042","SARL_v6","SARL_v6p199xw4x","6473bd2d95a488b826bc24c4","fixation","","","img/fixation.png","null","","","test","","","","","","","","","","","","","","","","","","","",""
"366","221409","SARL_v6","SARL_v6p199xw4x","6473bd2d95a488b826bc24c4","freq","","","img/orange_2bandit_a2.png","70","","70","test","1","","66","","","","square","circle","64","14","3","0.9375","","","","","","","",""
"null","221859","SARL_v6","SARL_v6p199xw4x","6473bd2d95a488b826bc24c4","freq_resp","","","img/orange_2bandit_a.png","70","img/orange_2bandit_a.png","70","test","","","","","","","","","","","3","","","","","","","","",""
"null","222014","SARL_v6","SARL_v6p199xw4x","6473bd2d95a488b826bc24c4","fixation","","","img/fixation.png","null","","","test","","","","","","","","","","","","","","","","","","","",""
"321","222336","SARL_v6","SARL_v6p199xw4x","6473bd2d95a488b826bc24c4","freq","","","img/orange_2bandit_a2.png","70","","70","test","1","","67","","","","square","circle","65","15","3","0.9384615384615385","","","","","","","",""
"null","222817","SARL_v6","SARL_v6p199xw4x","6473bd2d95a488b826bc24c4","freq_resp","","","img/orange_2bandit_a.png","70","img/orange_2bandit_a.png","70","test","","","","","","","","","","","3","","","","","","","","",""
"null","222975","SARL_v6","SARL_v6p199xw4x","6473bd2d95a488b826bc24c4","fixation","","","img/fixation.png","null","","","test","","","","","","","","","","","","","","","","","","","",""
"353","223328","SARL_v6","SARL_v6p199xw4x","6473bd2d95a488b826bc24c4","freq","","","img/orange_2bandit_a2.png","70","","70","test","1","","68","","","","square","circle","66","16","3","0.9393939393939394","","","","","","","",""
"null","223791","SARL_v6","SARL_v6p199xw4x","6473bd2d95a488b826bc24c4","freq_resp","","","img/orange_2bandit_a.png","70","img/orange_2bandit_a.png","70","test","","","","","","","","","","","3","","","","","","","","",""
"null","223947","SARL_v6","SARL_v6p199xw4x","6473bd2d95a488b826bc24c4","fixation","","","img/fixation.png","null","","","test","","","","","","","","","","","","","","","","","","","",""
"370","224320","SARL_v6","SARL_v6p199xw4x","6473bd2d95a488b826bc24c4","freq","","","img/orange_2bandit_a2.png","70","","70","test","1","","69","","","","square","circle","67","17","3","0.9402985074626866","","","","","","","",""
"null","224766","SARL_v6","SARL_v6p199xw4x","6473bd2d95a488b826bc24c4","freq_resp","","","img/orange_2bandit_a.png","70","img/orange_2bandit_a.png","70","test","","","","","","","","","","","3","","","","","","","","",""
"null","224923","SARL_v6","SARL_v6p199xw4x","6473bd2d95a488b826bc24c4","fixation","","","img/fixation.png","null","","","test","","","","","","","","","","","","","","","","","","","",""
"324","225248","SARL_v6","SARL_v6p199xw4x","6473bd2d95a488b826bc24c4","freq","","","img/orange_2bandit_a2.png","70","","70","test","1","","70","","","","square","circle","68","18","3","0.9411764705882353","","","","","","","",""
"null","225741","SARL_v6","SARL_v6p199xw4x","6473bd2d95a488b826bc24c4","freq_resp","","","img/orange_2bandit_a.png","70","img/orange_2bandit_a.png","70","test","","","","","","","","","","","3","","","","","","","","",""
"null","225896","SARL_v6","SARL_v6p199xw4x","6473bd2d95a488b826bc24c4","fixation","","","img/fixation.png","null","","","test","","","","","","","","","","","","","","","","","","","",""
"311","226208","SARL_v6","SARL_v6p199xw4x","6473bd2d95a488b826bc24c4","freq","","","img/orange_2bandit_a2.png","70","","70","test","1","","71","","","","square","circle","69","19","3","0.9420289855072463","","","","","","","",""
"null","226713","SARL_v6","SARL_v6p199xw4x","6473bd2d95a488b826bc24c4","freq_resp","","","img/orange_2bandit_a.png","70","img/orange_2bandit_a.png","70","test","","","","","","","","","","","3","","","","","","","","",""
"null","226870","SARL_v6","SARL_v6p199xw4x","6473bd2d95a488b826bc24c4","fixation","","","img/fixation.png","null","","","test","","","","","","","","","","","","","","","","","","","",""
"265","227136","SARL_v6","SARL_v6p199xw4x","6473bd2d95a488b826bc24c4","freq","","","img/orange_2bandit_a2.png","70","","70","test","1","","72","","","","square","circle","70","20","3","0.9428571428571428","","","","","","","",""
"null","227672","SARL_v6","SARL_v6p199xw4x","6473bd2d95a488b826bc24c4","freq_resp","","","img/orange_2bandit_a.png","70","img/orange_2bandit_a.png","70","test","","","","","","","","","","","3","","","","","","","","",""
"null","227828","SARL_v6","SARL_v6p199xw4x","6473bd2d95a488b826bc24c4","fixation","","","img/fixation.png","null","","","test","","","","","","","","","","","","","","","","","","","",""
"331","228160","SARL_v6","SARL_v6p199xw4x","6473bd2d95a488b826bc24c4","freq","","","img/orange_2bandit_a2.png","70","","70","test","1","","73","","","","square","circle","71","21","3","0.9436619718309859","","","","","","","",""
"null","228644","SARL_v6","SARL_v6p199xw4x","6473bd2d95a488b826bc24c4","freq_resp","","","img/orange_2bandit_a.png","70","img/orange_2bandit_a.png","70","test","","","","","","","","","","","3","","","","","","","","",""
"null","228801","SARL_v6","SARL_v6p199xw4x","6473bd2d95a488b826bc24c4","fixation","","","img/fixation.png","null","","","test","","","","","","","","","","","","","","","","","","","",""
"285","229088","SARL_v6","SARL_v6p199xw4x","6473bd2d95a488b826bc24c4","freq","","","img/orange_2bandit_a2.png","70","","70","test","1","","74","","","","square","circle","72","22","3","0.9444444444444444","","","","","","","",""
"null","229619","SARL_v6","SARL_v6p199xw4x","6473bd2d95a488b826bc24c4","freq_resp","","","img/orange_2bandit_a.png","70","img/orange_2bandit_a.png","70","test","","","","","","","","","","","3","","","","","","","","",""
"null","229776","SARL_v6","SARL_v6p199xw4x","6473bd2d95a488b826bc24c4","fixation","","","img/fixation.png","null","","","test","","","","","","","","","","","","","","","","","","","",""
"1041","230817","SARL_v6","SARL_v6p199xw4x","6473bd2d95a488b826bc24c4","rl","","","img/black_2bandit_a2.png","74","","0","test","","","75","","","-4","square","circle","","0","3","","74","-8","-4","-4","-8","square","3","0"
"null","231569","SARL_v6","SARL_v6p199xw4x","6473bd2d95a488b826bc24c4","feedback","","","<div class=""verylowPoints_sq""> -4 </div>","null","","na","test","","","NaN","","","","","","","","3","","74","","","","","","3",""
"429","232000","SARL_v6","SARL_v6p199xw4x","6473bd2d95a488b826bc24c4","freq","","","img/orange_2bandit_a2.png","70","","70","test","1","","76","","","","square","circle","73","1","4","0.9452054794520548","","","","","","","",""
"null","232386","SARL_v6","SARL_v6p199xw4x","6473bd2d95a488b826bc24c4","freq_resp","","","img/orange_2bandit_a.png","70","img/orange_2bandit_a.png","70","test","","","","","","","","","","","4","","","","","","","","",""
"null","232543","SARL_v6","SARL_v6p199xw4x","6473bd2d95a488b826bc24c4","fixation","","","img/fixation.png","null","","","test","","","","","","","","","","","","","","","","","","","",""
"350","232895","SARL_v6","SARL_v6p199xw4x","6473bd2d95a488b826bc24c4","freq","","","img/orange_2bandit_a2.png","70","","70","test","1","","77","","","","square","circle","74","2","4","0.9459459459459459","","","","","","","",""
"null","233360","SARL_v6","SARL_v6p199xw4x","6473bd2d95a488b826bc24c4","freq_resp","","","img/orange_2bandit_a.png","70","img/orange_2bandit_a.png","70","test","","","","","","","","","","","4","","","","","","","","",""
"null","233517","SARL_v6","SARL_v6p199xw4x","6473bd2d95a488b826bc24c4","fixation","","","img/fixation.png","null","","","test","","","","","","","","","","","","","","","","","","","",""
"337","233856","SARL_v6","SARL_v6p199xw4x","6473bd2d95a488b826bc24c4","freq","","","img/orange_2bandit_a2.png","70","","70","test","1","","78","","","","square","circle","75","3","4","0.9466666666666667","","","","","","","",""
"null","234334","SARL_v6","SARL_v6p199xw4x","6473bd2d95a488b826bc24c4","freq_resp","","","img/orange_2bandit_a.png","70","img/orange_2bandit_a.png","70","test","","","","","","","","","","","4","","","","","","","","",""
"null","234492","SARL_v6","SARL_v6p199xw4x","6473bd2d95a488b826bc24c4","fixation","","","img/fixation.png","null","","","test","","","","","","","","","","","","","","","","","","","",""
"291","234784","SARL_v6","SARL_v6p199xw4x","6473bd2d95a488b826bc24c4","freq","","","img/orange_2bandit_a2.png","70","","70","test","1","","79","","","","square","circle","76","4","4","0.9473684210526315","","","","","","","",""
"null","235309","SARL_v6","SARL_v6p199xw4x","6473bd2d95a488b826bc24c4","freq_resp","","","img/orange_2bandit_a.png","70","img/orange_2bandit_a.png","70","test","","","","","","","","","","","4","","","","","","","","",""
"null","235466","SARL_v6","SARL_v6p199xw4x","6473bd2d95a488b826bc24c4","fixation","","","img/fixation.png","null","","","test","","","","","","","","","","","","","","","","","","","",""
"278","235744","SARL_v6","SARL_v6p199xw4x","6473bd2d95a488b826bc24c4","freq","","","img/orange_2bandit_a2.png","70","","70","test","1","","80","","","","square","circle","77","5","4","0.948051948051948","","","","","","","",""
"null","236269","SARL_v6","SARL_v6p199xw4x","6473bd2d95a488b826bc24c4","freq_resp","","","img/orange_2bandit_a.png","70","img/orange_2bandit_a.png","70","test","","","","","","","","","","","4","","","","","","","","",""
"null","236425","SARL_v6","SARL_v6p199xw4x","6473bd2d95a488b826bc24c4","fixation","","","img/fixation.png","null","","","test","","","","","","","","","","","","","","","","","","","",""
"534","236960","SARL_v6","SARL_v6p199xw4x","6473bd2d95a488b826bc24c4","infreq","","","img/blue_2bandit_a2.png","68","","68","test","1","","81","","","","square","circle","78","6","4","0.9487179487179487","","","","","","","",""
"null","237242","SARL_v6","SARL_v6p199xw4x","6473bd2d95a488b826bc24c4","infreq_resp","","","img/blue_2bandit_a.png","68","img/blue_2bandit_a.png","68","test","","","","","","","","","","","4","","","","","","","","",""
"null","237399","SARL_v6","SARL_v6p199xw4x","6473bd2d95a488b826bc24c4","fixation","","","img/fixation.png","null","","","test","","","","","","","","","","","","","","","","","","","",""
"359","237760","SARL_v6","SARL_v6p199xw4x","6473bd2d95a488b826bc24c4","freq","","","img/orange_2bandit_a2.png","70","","70","test","1","","82","","","","square","circle","79","7","4","0.9493670886075949","","","","","","","",""
"null","238215","SARL_v6","SARL_v6p199xw4x","6473bd2d95a488b826bc24c4","freq_resp","","","img/orange_2bandit_a.png","70","img/orange_2bandit_a.png","70","test","","","","","","","","","","","4","","","","","","","","",""
"null","238373","SARL_v6","SARL_v6p199xw4x","6473bd2d95a488b826bc24c4","fixation","","","img/fixation.png","null","","","test","","","","","","","","","","","","","","","","","","","",""
"313","238688","SARL_v6","SARL_v6p199xw4x","6473bd2d95a488b826bc24c4","freq","","","img/orange_2bandit_a2.png","70","","70","test","1","","83","","","","square","circle","80","8","4","0.95","","","","","","","",""
"null","239189","SARL_v6","SARL_v6p199xw4x","6473bd2d95a488b826bc24c4","freq_resp","","","img/orange_2bandit_a.png","70","img/orange_2bandit_a.png","70","test","","","","","","","","","","","4","","","","","","","","",""
"null","239346","SARL_v6","SARL_v6p199xw4x","6473bd2d95a488b826bc24c4","fixation","","","img/fixation.png","null","","","test","","","","","","","","","","","","","","","","","","","",""
"299","239648","SARL_v6","SARL_v6p199xw4x","6473bd2d95a488b826bc24c4","freq","","","img/orange_2bandit_a2.png","70","","70","test","1","","84","","","","square","circle","81","9","4","0.9506172839506173","","","","","","","",""
"null","240164","SARL_v6","SARL_v6p199xw4x","6473bd2d95a488b826bc24c4","freq_resp","","","img/orange_2bandit_a.png","70","img/orange_2bandit_a.png","70","test","","","","","","","","","","","4","","","","","","","","",""
"null","240320","SARL_v6","SARL_v6p199xw4x","6473bd2d95a488b826bc24c4","fixation","","","img/fixation.png","null","","","test","","","","","","","","","","","","","","","","","","","",""
"288","240608","SARL_v6","SARL_v6p199xw4x","6473bd2d95a488b826bc24c4","freq","","","img/orange_2bandit_a2.png","70","","70","test","1","","85","","","","square","circle","82","10","4","0.9512195121951219","","","","","","","",""
"null","241137","SARL_v6","SARL_v6p199xw4x","6473bd2d95a488b826bc24c4","freq_resp","","","img/orange_2bandit_a.png","70","img/orange_2bandit_a.png","70","test","","","","","","","","","","","4","","","","","","","","",""
"null","241294","SARL_v6","SARL_v6p199xw4x","6473bd2d95a488b826bc24c4","fixation","","","img/fixation.png","null","","","test","","","","","","","","","","","","","","","","","","","",""
"337","241632","SARL_v6","SARL_v6p199xw4x","6473bd2d95a488b826bc24c4","freq","","","img/orange_2bandit_a2.png","70","","70","test","1","","86","","","","square","circle","83","11","4","0.9518072289156626","","","","","","","",""
"null","242110","SARL_v6","SARL_v6p199xw4x","6473bd2d95a488b826bc24c4","freq_resp","","","img/orange_2bandit_a.png","70","img/orange_2bandit_a.png","70","test","","","","","","","","","","","4","","","","","","","","",""
"null","242268","SARL_v6","SARL_v6p199xw4x","6473bd2d95a488b826bc24c4","fixation","","","img/fixation.png","null","","","test","","","","","","","","","","","","","","","","","","","",""
"387","242655","SARL_v6","SARL_v6p199xw4x","6473bd2d95a488b826bc24c4","freq","","","img/orange_2bandit_a2.png","70","","70","test","1","","87","","","","square","circle","84","12","4","0.9523809523809523","","","","","","","",""
"null","243086","SARL_v6","SARL_v6p199xw4x","6473bd2d95a488b826bc24c4","freq_resp","","","img/orange_2bandit_a.png","70","img/orange_2bandit_a.png","70","test","","","","","","","","","","","4","","","","","","","","",""
"null","243243","SARL_v6","SARL_v6p199xw4x","6473bd2d95a488b826bc24c4","fixation","","","img/fixation.png","null","","","test","","","","","","","","","","","","","","","","","","","",""
"340","243584","SARL_v6","SARL_v6p199xw4x","6473bd2d95a488b826bc24c4","infreq","","","img/blue_2bandit_a2.png","70","","68","test","0","","88","","","","square","circle","85","13","4","0.9411764705882353","","","","","","","",""
"null","244060","SARL_v6","SARL_v6p199xw4x","6473bd2d95a488b826bc24c4","infreq_resp","","","img/blue_2bandit_a.png","70","img/blue_2bandit_a.png","68","test","","","","","","","","","","","4","","","","","","","","",""
"null","244216","SARL_v6","SARL_v6p199xw4x","6473bd2d95a488b826bc24c4","fixation","","","img/fixation.png","null","","","test","","","","","","","","","","","","","","","","","","","",""
"423","244640","SARL_v6","SARL_v6p199xw4x","6473bd2d95a488b826bc24c4","freq","","","img/orange_2bandit_a2.png","70","","70","test","1","","89","","","","square","circle","86","14","4","0.9418604651162791","","","","","","","",""
"null","245033","SARL_v6","SARL_v6p199xw4x","6473bd2d95a488b826bc24c4","freq_resp","","","img/orange_2bandit_a.png","70","img/orange_2bandit_a.png","70","test","","","","","","","","","","","4","","","","","","","","",""
"null","245190","SARL_v6","SARL_v6p199xw4x","6473bd2d95a488b826bc24c4","fixation","","","img/fixation.png","null","","","test","","","","","","","","","","","","","","","","","","","",""
"440","245632","SARL_v6","SARL_v6p199xw4x","6473bd2d95a488b826bc24c4","freq","","","img/orange_2bandit_a2.png","70","","70","test","1","","90","","","","square","circle","87","15","4","0.9425287356321839","","","","","","","",""
"null","246008","SARL_v6","SARL_v6p199xw4x","6473bd2d95a488b826bc24c4","freq_resp","","","img/orange_2bandit_a.png","70","img/orange_2bandit_a.png","70","test","","","","","","","","","","","4","","","","","","","","",""
"null","246165","SARL_v6","SARL_v6p199xw4x","6473bd2d95a488b826bc24c4","fixation","","","img/fixation.png","null","","","test","","","","","","","","","","","","","","","","","","","",""
"459","246624","SARL_v6","SARL_v6p199xw4x","6473bd2d95a488b826bc24c4","freq","","","img/orange_2bandit_a2.png","70","","70","test","1","","91","","","","square","circle","88","16","4","0.9431818181818182","","","","","","","",""
"null","246982","SARL_v6","SARL_v6p199xw4x","6473bd2d95a488b826bc24c4","freq_resp","","","img/orange_2bandit_a.png","70","img/orange_2bandit_a.png","70","test","","","","","","","","","","","4","","","","","","","","",""
"null","247138","SARL_v6","SARL_v6p199xw4x","6473bd2d95a488b826bc24c4","fixation","","","img/fixation.png","null","","","test","","","","","","","","","","","","","","","","","","","",""
"381","247520","SARL_v6","SARL_v6p199xw4x","6473bd2d95a488b826bc24c4","freq","","","img/orange_2bandit_a2.png","70","","70","test","1","","92","","","","square","circle","89","17","4","0.9438202247191011","","","","","","","",""
"null","247941","SARL_v6","SARL_v6p199xw4x","6473bd2d95a488b826bc24c4","freq_resp","","","img/orange_2bandit_a.png","70","img/orange_2bandit_a.png","70","test","","","","","","","","","","","4","","","","","","","","",""
"null","248097","SARL_v6","SARL_v6p199xw4x","6473bd2d95a488b826bc24c4","fixation","","","img/fixation.png","null","","","test","","","","","","","","","","","","","","","","","","","",""
"414","248512","SARL_v6","SARL_v6p199xw4x","6473bd2d95a488b826bc24c4","freq","","","img/orange_2bandit_a2.png","70","","70","test","1","","93","","","","square","circle","90","18","4","0.9444444444444444","","","","","","","",""
"null","248915","SARL_v6","SARL_v6p199xw4x","6473bd2d95a488b826bc24c4","freq_resp","","","img/orange_2bandit_a.png","70","img/orange_2bandit_a.png","70","test","","","","","","","","","","","4","","","","","","","","",""
"null","249072","SARL_v6","SARL_v6p199xw4x","6473bd2d95a488b826bc24c4","fixation","","","img/fixation.png","null","","","test","","","","","","","","","","","","","","","","","","","",""
"335","249408","SARL_v6","SARL_v6p199xw4x","6473bd2d95a488b826bc24c4","freq","","","img/orange_2bandit_a2.png","70","","70","test","1","","94","","","","square","circle","91","19","4","0.945054945054945","","","","","","","",""
"null","249887","SARL_v6","SARL_v6p199xw4x","6473bd2d95a488b826bc24c4","freq_resp","","","img/orange_2bandit_a.png","70","img/orange_2bandit_a.png","70","test","","","","","","","","","","","4","","","","","","","","",""
"null","250044","SARL_v6","SARL_v6p199xw4x","6473bd2d95a488b826bc24c4","fixation","","","img/fixation.png","null","","","test","","","","","","","","","","","","","","","","","","","",""
"515","250560","SARL_v6","SARL_v6p199xw4x","6473bd2d95a488b826bc24c4","rl","","","img/black_2bandit_a2.png","74","","0","test","","","95","","","0","square","circle","","0","4","","74","-12","0","0","-12","square","4","0"
"null","251319","SARL_v6","SARL_v6p199xw4x","6473bd2d95a488b826bc24c4","feedback","","","<div class=""verylowPoints_sq""> 0 </div>","null","","na","test","","","NaN","","","","","","","","4","","74","","","","","","4",""
"424","251744","SARL_v6","SARL_v6p199xw4x","6473bd2d95a488b826bc24c4","freq","","","img/orange_2bandit_a2.png","70","","70","test","1","","96","","","","square","circle","92","1","5","0.9456521739130435","","","","","","","",""
"null","252136","SARL_v6","SARL_v6p199xw4x","6473bd2d95a488b826bc24c4","freq_resp","","","img/orange_2bandit_a.png","70","img/orange_2bandit_a.png","70","test","","","","","","","","","","","5","","","","","","","","",""
"null","252293","SARL_v6","SARL_v6p199xw4x","6473bd2d95a488b826bc24c4","fixation","","","img/fixation.png","null","","","test","","","","","","","","","","","","","","","","","","","",""
"345","252640","SARL_v6","SARL_v6p199xw4x","6473bd2d95a488b826bc24c4","freq","","","img/orange_2bandit_a2.png","70","","70","test","1","","97","","","","square","circle","93","2","5","0.946236559139785","","","","","","","",""
"null","253110","SARL_v6","SARL_v6p199xw4x","6473bd2d95a488b826bc24c4","freq_resp","","","img/orange_2bandit_a.png","70","img/orange_2bandit_a.png","70","test","","","","","","","","","","","5","","","","","","","","",""
"null","253267","SARL_v6","SARL_v6p199xw4x","6473bd2d95a488b826bc24c4","fixation","","","img/fixation.png","null","","","test","","","","","","","","","","","","","","","","","","","",""
"332","253600","SARL_v6","SARL_v6p199xw4x","6473bd2d95a488b826bc24c4","freq","","","img/orange_2bandit_a2.png","70","","70","test","1","","98","","","","square","circle","94","3","5","0.9468085106382979","","","","","","","",""
"null","254084","SARL_v6","SARL_v6p199xw4x","6473bd2d95a488b826bc24c4","freq_resp","","","img/orange_2bandit_a.png","70","img/orange_2bandit_a.png","70","test","","","","","","","","","","","5","","","","","","","","",""
"null","254240","SARL_v6","SARL_v6p199xw4x","6473bd2d95a488b826bc24c4","fixation","","","img/fixation.png","null","","","test","","","","","","","","","","","","","","","","","","","",""
"223","254464","SARL_v6","SARL_v6p199xw4x","6473bd2d95a488b826bc24c4","freq","","","img/orange_2bandit_a2.png","70","","70","test","1","","99","","","","square","circle","95","4","5","0.9473684210526315","","","","","","","",""
"null","255043","SARL_v6","SARL_v6p199xw4x","6473bd2d95a488b826bc24c4","freq_resp","","","img/orange_2bandit_a.png","70","img/orange_2bandit_a.png","70","test","","","","","","","","","","","5","","","","","","","","",""
"null","255199","SARL_v6","SARL_v6p199xw4x","6473bd2d95a488b826bc24c4","fixation","","","img/fixation.png","null","","","test","","","","","","","","","","","","","","","","","","","",""
"128","255328","SARL_v6","SARL_v6p199xw4x","6473bd2d95a488b826bc24c4","freq","","","img/orange_2bandit_a2.png","70","","70","test","1","","100","","","","square","circle","96","5","5","0.9479166666666666","","","","","","","",""
"null","256002","SARL_v6","SARL_v6p199xw4x","6473bd2d95a488b826bc24c4","freq_resp","","","img/orange_2bandit_a.png","70","img/orange_2bandit_a.png","70","test","","","","","","","","","","","5","","","","","","","","",""
"null","256159","SARL_v6","SARL_v6p199xw4x","6473bd2d95a488b826bc24c4","fixation","","","img/fixation.png","null","","","test","","","","","","","","","","","","","","","","","","","",""
"159","256320","SARL_v6","SARL_v6p199xw4x","6473bd2d95a488b826bc24c4","freq","","","img/orange_2bandit_a2.png","70","","70","test","1","","101","","","","square","circle","97","6","5","0.9484536082474226","","","","","","","",""
"null","256976","SARL_v6","SARL_v6p199xw4x","6473bd2d95a488b826bc24c4","freq_resp","","","img/orange_2bandit_a.png","70","img/orange_2bandit_a.png","70","test","","","","","","","","","","","5","","","","","","","","",""
"null","257133","SARL_v6","SARL_v6p199xw4x","6473bd2d95a488b826bc24c4","fixation","","","img/fixation.png","null","","","test","","","","","","","","","","","","","","","","","","","",""
"114","257248","SARL_v6","SARL_v6p199xw4x","6473bd2d95a488b826bc24c4","freq","","","img/orange_2bandit_a2.png","70","","70","test","1","","102","","","","square","circle","98","7","5","0.9489795918367347","","","","","","","",""
"null","257950","SARL_v6","SARL_v6p199xw4x","6473bd2d95a488b826bc24c4","freq_resp","","","img/orange_2bandit_a.png","70","img/orange_2bandit_a.png","70","test","","","","","","","","","","","5","","","","","","","","",""
"null","258106","SARL_v6","SARL_v6p199xw4x","6473bd2d95a488b826bc24c4","fixation","","","img/fixation.png","null","","","test","","","","","","","","","","","","","","","","","","","",""
"99","258207","SARL_v6","SARL_v6p199xw4x","6473bd2d95a488b826bc24c4","freq","","","img/orange_2bandit_a2.png","70","","70","test","1","","103","","","","square","circle","99","8","5","0.9494949494949495","","","","","","","",""
"null","258925","SARL_v6","SARL_v6p199xw4x","6473bd2d95a488b826bc24c4","freq_resp","","","img/orange_2bandit_a.png","70","img/orange_2bandit_a.png","70","test","","","","","","","","","","","5","","","","","","","","",""
"null","259081","SARL_v6","SARL_v6p199xw4x","6473bd2d95a488b826bc24c4","fixation","","","img/fixation.png","null","","","test","","","","","","","","","","","","","","","","","","","",""
"116","259199","SARL_v6","SARL_v6p199xw4x","6473bd2d95a488b826bc24c4","freq","","","img/orange_2bandit_a2.png","70","","70","test","1","","104","","","","square","circle","100","9","5","0.95","","","","","","","",""
"null","259898","SARL_v6","SARL_v6p199xw4x","6473bd2d95a488b826bc24c4","freq_resp","","","img/orange_2bandit_a.png","70","img/orange_2bandit_a.png","70","test","","","","","","","","","","","5","","","","","","","","",""
"null","260055","SARL_v6","SARL_v6p199xw4x","6473bd2d95a488b826bc24c4","fixation","","","img/fixation.png","null","","","test","","","","","","","","","","","","","","","","","","","",""
"145","260201","SARL_v6","SARL_v6p199xw4x","6473bd2d95a488b826bc24c4","freq","","","img/orange_2bandit_a2.png","70","","70","test","1","","105","","","","square","circle","101","10","5","0.9504950495049505","","","","","","","",""
"null","260872","SARL_v6","SARL_v6p199xw4x","6473bd2d95a488b826bc24c4","freq_resp","","","img/orange_2bandit_a.png","70","img/orange_2bandit_a.png","70","test","","","","","","","","","","","5","","","","","","","","",""
"null","261030","SARL_v6","SARL_v6p199xw4x","6473bd2d95a488b826bc24c4","fixation","","","img/fixation.png","null","","","test","","","","","","","","","","","","","","","","","","","",""
"193","261224","SARL_v6","SARL_v6p199xw4x","6473bd2d95a488b826bc24c4","infreq","","","img/blue_2bandit_a2.png","70","","68","test","0","","106","","","","square","circle","102","11","5","0.9411764705882353","","","","","","","",""
"null","261847","SARL_v6","SARL_v6p199xw4x","6473bd2d95a488b826bc24c4","infreq_resp","","","img/blue_2bandit_a.png","70","img/blue_2bandit_a.png","68","test","","","","","","","","","","","5","","","","","","","","",""
"null","262003","SARL_v6","SARL_v6p199xw4x","6473bd2d95a488b826bc24c4","fixation","","","img/fixation.png","null","","","test","","","","","","","","","","","","","","","","","","","",""
"340","262344","SARL_v6","SARL_v6p199xw4x","6473bd2d95a488b826bc24c4","freq","","","img/orange_2bandit_a2.png","70","","70","test","1","","107","","","","square","circle","103","12","5","0.941747572815534","","","","","","","",""
"null","262820","SARL_v6","SARL_v6p199xw4x","6473bd2d95a488b826bc24c4","freq_resp","","","img/orange_2bandit_a.png","70","img/orange_2bandit_a.png","70","test","","","","","","","","","","","5","","","","","","","","",""
"null","262976","SARL_v6","SARL_v6p199xw4x","6473bd2d95a488b826bc24c4","fixation","","","img/fixation.png","null","","","test","","","","","","","","","","","","","","","","","","","",""
"294","263272","SARL_v6","SARL_v6p199xw4x","6473bd2d95a488b826bc24c4","freq","","","img/orange_2bandit_a2.png","70","","70","test","1","","108","","","","square","circle","104","13","5","0.9423076923076923","","","","","","","",""
"null","263780","SARL_v6","SARL_v6p199xw4x","6473bd2d95a488b826bc24c4","freq_resp","","","img/orange_2bandit_a.png","70","img/orange_2bandit_a.png","70","test","","","","","","","","","","","5","","","","","","","","",""
"null","263936","SARL_v6","SARL_v6p199xw4x","6473bd2d95a488b826bc24c4","fixation","","","img/fixation.png","null","","","test","","","","","","","","","","","","","","","","","","","",""
"360","264296","SARL_v6","SARL_v6p199xw4x","6473bd2d95a488b826bc24c4","freq","","","img/orange_2bandit_a2.png","70","","70","test","1","","109","","","","square","circle","105","14","5","0.9428571428571428","","","","","","","",""
"null","264738","SARL_v6","SARL_v6p199xw4x","6473bd2d95a488b826bc24c4","freq_resp","","","img/orange_2bandit_a.png","70","img/orange_2bandit_a.png","70","test","","","","","","","","","","","5","","","","","","","","",""
"null","264895","SARL_v6","SARL_v6p199xw4x","6473bd2d95a488b826bc24c4","fixation","","","img/fixation.png","null","","","test","","","","","","","","","","","","","","","","","","","",""
"360","265256","SARL_v6","SARL_v6p199xw4x","6473bd2d95a488b826bc24c4","freq","","","img/orange_2bandit_a2.png","70","","70","test","1","","110","","","","square","circle","106","15","5","0.9433962264150944","","","","","","","",""
"null","265712","SARL_v6","SARL_v6p199xw4x","6473bd2d95a488b826bc24c4","freq_resp","","","img/orange_2bandit_a.png","70","img/orange_2bandit_a.png","70","test","","","","","","","","","","","5","","","","","","","","",""
"null","265868","SARL_v6","SARL_v6p199xw4x","6473bd2d95a488b826bc24c4","fixation","","","img/fixation.png","null","","","test","","","","","","","","","","","","","","","","","","","",""
"443","266312","SARL_v6","SARL_v6p199xw4x","6473bd2d95a488b826bc24c4","infreq","","","img/blue_2bandit_a2.png","68","","68","test","1","","111","","","","square","circle","107","16","5","0.9439252336448598","","","","","","","",""
"null","266687","SARL_v6","SARL_v6p199xw4x","6473bd2d95a488b826bc24c4","infreq_resp","","","img/blue_2bandit_a.png","68","img/blue_2bandit_a.png","68","test","","","","","","","","","","","5","","","","","","","","",""
"null","266843","SARL_v6","SARL_v6p199xw4x","6473bd2d95a488b826bc24c4","fixation","","","img/fixation.png","null","","","test","","","","","","","","","","","","","","","","","","","",""
"396","267240","SARL_v6","SARL_v6p199xw4x","6473bd2d95a488b826bc24c4","freq","","","img/orange_2bandit_a2.png","70","","70","test","1","","112","","","","square","circle","108","17","5","0.9444444444444444","","","","","","","",""
"null","267660","SARL_v6","SARL_v6p199xw4x","6473bd2d95a488b826bc24c4","freq_resp","","","img/orange_2bandit_a.png","70","img/orange_2bandit_a.png","70","test","","","","","","","","","","","5","","","","","","","","",""
"null","267817","SARL_v6","SARL_v6p199xw4x","6473bd2d95a488b826bc24c4","fixation","","","img/fixation.png","null","","","test","","","","","","","","","","","","","","","","","","","",""
"415","268232","SARL_v6","SARL_v6p199xw4x","6473bd2d95a488b826bc24c4","freq","","","img/orange_2bandit_a2.png","70","","70","test","1","","113","","","","square","circle","109","18","5","0.944954128440367","","","","","","","",""
"null","268618","SARL_v6","SARL_v6p199xw4x","6473bd2d95a488b826bc24c4","freq_resp","","","img/orange_2bandit_a.png","70","img/orange_2bandit_a.png","70","test","","","","","","","","","","","5","","","","","","","","",""
"null","268774","SARL_v6","SARL_v6p199xw4x","6473bd2d95a488b826bc24c4","fixation","","","img/fixation.png","null","","","test","","","","","","","","","","","","","","","","","","","",""
"288","269064","SARL_v6","SARL_v6p199xw4x","6473bd2d95a488b826bc24c4","freq","","","img/orange_2bandit_a2.png","70","","70","test","1","","114","","","","square","circle","110","19","5","0.9454545454545454","","","","","","","",""
"null","269593","SARL_v6","SARL_v6p199xw4x","6473bd2d95a488b826bc24c4","freq_resp","","","img/orange_2bandit_a.png","70","img/orange_2bandit_a.png","70","test","","","","","","","","","","","5","","","","","","","","",""
"null","269749","SARL_v6","SARL_v6p199xw4x","6473bd2d95a488b826bc24c4","fixation","","","img/fixation.png","null","","","test","","","","","","","","","","","","","","","","","","","",""
"210","269960","SARL_v6","SARL_v6p199xw4x","6473bd2d95a488b826bc24c4","freq","","","img/orange_2bandit_a2.png","70","","70","test","1","","115","","","","square","circle","111","20","5","0.9459459459459459","","","","","","","",""
"null","270566","SARL_v6","SARL_v6p199xw4x","6473bd2d95a488b826bc24c4","freq_resp","","","img/orange_2bandit_a.png","70","img/orange_2bandit_a.png","70","test","","","","","","","","","","","5","","","","","","","","",""
"null","270722","SARL_v6","SARL_v6p199xw4x","6473bd2d95a488b826bc24c4","fixation","","","img/fixation.png","null","","","test","","","","","","","","","","","","","","","","","","","",""
"325","271048","SARL_v6","SARL_v6p199xw4x","6473bd2d95a488b826bc24c4","freq","","","img/orange_2bandit_a2.png","70","","70","test","1","","116","","","","square","circle","112","21","5","0.9464285714285714","","","","","","","",""
"null","271539","SARL_v6","SARL_v6p199xw4x","6473bd2d95a488b826bc24c4","freq_resp","","","img/orange_2bandit_a.png","70","img/orange_2bandit_a.png","70","test","","","","","","","","","","","5","","","","","","","","",""
"null","271696","SARL_v6","SARL_v6p199xw4x","6473bd2d95a488b826bc24c4","fixation","","","img/fixation.png","null","","","test","","","","","","","","","","","","","","","","","","","",""
"312","272008","SARL_v6","SARL_v6p199xw4x","6473bd2d95a488b826bc24c4","freq","","","img/orange_2bandit_a2.png","70","","70","test","1","","117","","","","square","circle","113","22","5","0.9469026548672567","","","","","","","",""
"null","272498","SARL_v6","SARL_v6p199xw4x","6473bd2d95a488b826bc24c4","freq_resp","","","img/orange_2bandit_a.png","70","img/orange_2bandit_a.png","70","test","","","","","","","","","","","5","","","","","","","","",""
"null","272654","SARL_v6","SARL_v6p199xw4x","6473bd2d95a488b826bc24c4","fixation","","","img/fixation.png","null","","","test","","","","","","","","","","","","","","","","","","","",""
"216","272872","SARL_v6","SARL_v6p199xw4x","6473bd2d95a488b826bc24c4","freq","","","img/orange_2bandit_a2.png","70","","70","test","1","","118","","","","square","circle","114","23","5","0.9473684210526315","","","","","","","",""
"null","273472","SARL_v6","SARL_v6p199xw4x","6473bd2d95a488b826bc24c4","freq_resp","","","img/orange_2bandit_a.png","70","img/orange_2bandit_a.png","70","test","","","","","","","","","","","5","","","","","","","","",""
"null","273629","SARL_v6","SARL_v6p199xw4x","6473bd2d95a488b826bc24c4","fixation","","","img/fixation.png","null","","","test","","","","","","","","","","","","","","","","","","","",""
"554","274184","SARL_v6","SARL_v6p199xw4x","6473bd2d95a488b826bc24c4","rl","","","img/black_2bandit_a2.png","75","","0","test","","","119","","","-7","square","circle","","0","5","","75","-7","4","4","-7","circle","5","0"
"null","274949","SARL_v6","SARL_v6p199xw4x","6473bd2d95a488b826bc24c4","feedback","","","<div class=""verylowPoints""> -7 </div>","null","","na","test","","","NaN","","","","","","","","5","","75","","","","","","5",""
"449","275400","SARL_v6","SARL_v6p199xw4x","6473bd2d95a488b826bc24c4","freq","","","img/orange_2bandit_a2.png","70","","70","test","1","","120","","","","square","circle","115","1","6","0.9478260869565217","","","","","","","",""
"null","275766","SARL_v6","SARL_v6p199xw4x","6473bd2d95a488b826bc24c4","freq_resp","","","img/orange_2bandit_a.png","70","img/orange_2bandit_a.png","70","test","","","","","","","","","","","6","","","","","","","","",""
"null","275924","SARL_v6","SARL_v6p199xw4x","6473bd2d95a488b826bc24c4","fixation","","","img/fixation.png","null","","","test","","","","","","","","","","","","","","","","","","","",""
"307","276232","SARL_v6","SARL_v6p199xw4x","6473bd2d95a488b826bc24c4","freq","","","img/orange_2bandit_a2.png","70","","70","test","1","","121","","","","square","circle","116","2","6","0.9482758620689655","","","","","","","",""
"null","276739","SARL_v6","SARL_v6p199xw4x","6473bd2d95a488b826bc24c4","freq_resp","","","img/orange_2bandit_a.png","70","img/orange_2bandit_a.png","70","test","","","","","","","","","","","6","","","","","","","","",""
"null","276896","SARL_v6","SARL_v6p199xw4x","6473bd2d95a488b826bc24c4","fixation","","","img/fixation.png","null","","","test","","","","","","","","","","","","","","","","","","","",""
"167","277064","SARL_v6","SARL_v6p199xw4x","6473bd2d95a488b826bc24c4","freq","","","img/orange_2bandit_a2.png","70","","70","test","1","","122","","","","square","circle","117","3","6","0.9487179487179487","","","","","","","",""
"null","277714","SARL_v6","SARL_v6p199xw4x","6473bd2d95a488b826bc24c4","freq_resp","","","img/orange_2bandit_a.png","70","img/orange_2bandit_a.png","70","test","","","","","","","","","","","6","","","","","","","","",""
"null","277870","SARL_v6","SARL_v6p199xw4x","6473bd2d95a488b826bc24c4","fixation","","","img/fixation.png","null","","","test","","","","","","","","","","","","","","","","","","","",""
"121","277992","SARL_v6","SARL_v6p199xw4x","6473bd2d95a488b826bc24c4","freq","","","img/orange_2bandit_a2.png","70","","70","test","1","","123","","","","square","circle","118","4","6","0.9491525423728814","","","","","","","",""
"null","278687","SARL_v6","SARL_v6p199xw4x","6473bd2d95a488b826bc24c4","freq_resp","","","img/orange_2bandit_a.png","70","img/orange_2bandit_a.png","70","test","","","","","","","","","","","6","","","","","","","","",""
"null","278844","SARL_v6","SARL_v6p199xw4x","6473bd2d95a488b826bc24c4","fixation","","","img/fixation.png","null","","","test","","","","","","","","","","","","","","","","","","","",""
"106","278951","SARL_v6","SARL_v6p199xw4x","6473bd2d95a488b826bc24c4","freq","","","img/orange_2bandit_a2.png","70","","70","test","1","","124","","","","square","circle","119","5","6","0.9495798319327731","","","","","","","",""
"null","279662","SARL_v6","SARL_v6p199xw4x","6473bd2d95a488b826bc24c4","freq_resp","","","img/orange_2bandit_a.png","70","img/orange_2bandit_a.png","70","test","","","","","","","","","","","6","","","","","","","","",""
"null","279818","SARL_v6","SARL_v6p199xw4x","6473bd2d95a488b826bc24c4","fixation","","","img/fixation.png","null","","","test","","","","","","","","","","","","","","","","","","","",""
"125","279944","SARL_v6","SARL_v6p199xw4x","6473bd2d95a488b826bc24c4","freq","","","img/orange_2bandit_a2.png","70","","70","test","1","","125","","","","square","circle","120","6","6","0.95","","","","","","","",""
"null","280619","SARL_v6","SARL_v6p199xw4x","6473bd2d95a488b826bc24c4","freq_resp","","","img/orange_2bandit_a.png","70","img/orange_2bandit_a.png","70","test","","","","","","","","","","","6","","","","","","","","",""
"null","280776","SARL_v6","SARL_v6p199xw4x","6473bd2d95a488b826bc24c4","fixation","","","img/fixation.png","null","","","test","","","","","","","","","","","","","","","","","","","",""
"126","280903","SARL_v6","SARL_v6p199xw4x","6473bd2d95a488b826bc24c4","freq","","","img/orange_2bandit_a2.png","70","","70","test","1","","126","","","","square","circle","121","7","6","0.9504132231404959","","","","","","","",""
"null","281580","SARL_v6","SARL_v6p199xw4x","6473bd2d95a488b826bc24c4","freq_resp","","","img/orange_2bandit_a.png","70","img/orange_2bandit_a.png","70","test","","","","","","","","","","","6","","","","","","","","",""
"null","281736","SARL_v6","SARL_v6p199xw4x","6473bd2d95a488b826bc24c4","fixation","","","img/fixation.png","null","","","test","","","","","","","","","","","","","","","","","","","",""
"159","281895","SARL_v6","SARL_v6p199xw4x","6473bd2d95a488b826bc24c4","freq","","","img/orange_2bandit_a2.png","70","","70","test","1","","127","","","","square","circle","122","8","6","0.9508196721311475","","","","","","","",""
"null","282538","SARL_v6","SARL_v6p199xw4x","6473bd2d95a488b826bc24c4","freq_resp","","","img/orange_2bandit_a.png","70","img/orange_2bandit_a.png","70","test","","","","","","","","","","","6","","","","","","","","",""
"null","282696","SARL_v6","SARL_v6p199xw4x","6473bd2d95a488b826bc24c4","fixation","","","img/fixation.png","null","","","test","","","","","","","","","","","","","","","","","","","",""
"126","282824","SARL_v6","SARL_v6p199xw4x","6473bd2d95a488b826bc24c4","freq","","","img/orange_2bandit_a2.png","70","","70","test","1","","128","","","","square","circle","123","9","6","0.9512195121951219","","","","","","","",""
"null","283513","SARL_v6","SARL_v6p199xw4x","6473bd2d95a488b826bc24c4","freq_resp","","","img/orange_2bandit_a.png","70","img/orange_2bandit_a.png","70","test","","","","","","","","","","","6","","","","","","","","",""
"null","283671","SARL_v6","SARL_v6p199xw4x","6473bd2d95a488b826bc24c4","fixation","","","img/fixation.png","null","","","test","","","","","","","","","","","","","","","","","","","",""
"135","283808","SARL_v6","SARL_v6p199xw4x","6473bd2d95a488b826bc24c4","infreq","","","img/blue_2bandit_a2.png","70","","68","test","0","","129","","","","square","circle","124","10","6","0.9435483870967742","","","","","","","",""
"null","284489","SARL_v6","SARL_v6p199xw4x","6473bd2d95a488b826bc24c4","infreq_resp","","","img/blue_2bandit_a.png","70","img/blue_2bandit_a.png","68","test","","","","","","","","","","","6","","","","","","","","",""
"null","284646","SARL_v6","SARL_v6p199xw4x","6473bd2d95a488b826bc24c4","fixation","","","img/fixation.png","null","","","test","","","","","","","","","","","","","","","","","","","",""
"249","284896","SARL_v6","SARL_v6p199xw4x","6473bd2d95a488b826bc24c4","freq","","","img/orange_2bandit_a2.png","70","","70","test","1","","130","","","","square","circle","125","11","6","0.944","","","","","","","",""
"null","285462","SARL_v6","SARL_v6p199xw4x","6473bd2d95a488b826bc24c4","freq_resp","","","img/orange_2bandit_a.png","70","img/orange_2bandit_a.png","70","test","","","","","","","","","","","6","","","","","","","","",""
"null","285619","SARL_v6","SARL_v6p199xw4x","6473bd2d95a488b826bc24c4","fixation","","","img/fixation.png","null","","","test","","","","","","","","","","","","","","","","","","","",""
"397","286016","SARL_v6","SARL_v6p199xw4x","6473bd2d95a488b826bc24c4","freq","","","img/orange_2bandit_a2.png","70","","70","test","1","","131","","","","square","circle","126","12","6","0.9444444444444444","","","","","","","",""
"null","286420","SARL_v6","SARL_v6p199xw4x","6473bd2d95a488b826bc24c4","freq_resp","","","img/orange_2bandit_a.png","70","img/orange_2bandit_a.png","70","test","","","","","","","","","","","6","","","","","","","","",""
"null","286578","SARL_v6","SARL_v6p199xw4x","6473bd2d95a488b826bc24c4","fixation","","","img/fixation.png","null","","","test","","","","","","","","","","","","","","","","","","","",""
