"rt","time_elapsed","expId","subject","prolificID","trialType","rlType","attType","stimulus","key_press","stim","corrresp","phase","corr","pracCounter","trialNum","rewardOne","rewardTwo","reward","bandOne","bandTwo","attentionNum","attentionRunNum","blockNum","performance","bandChosen","circleVal","squareVal","bandOneVal","bandTwoVal","shapeChosen","rlNum","badFlag"
"1310.199999988079","1326","SARL_v6","SARL_v665f25knq","5eb5f6d5e38e9f4e6c8dde3f","","","","","","","","","","","","","","","","","","","","","","","","","","","",""
"","3338","SARL_v6","SARL_v665f25knq","5eb5f6d5e38e9f4e6c8dde3f","fullscreen","fullscreen","fullscreen","","","","","","","","","","","","","","","","","","","","","","","","",""
"22685.5","26034","SARL_v6","SARL_v665f25knq","5eb5f6d5e38e9f4e6c8dde3f","","","","","","","","","","","","","","","","","","","","","","","","","","","",""
"null","26856","SARL_v6","SARL_v665f25knq","5eb5f6d5e38e9f4e6c8dde3f","freqPrac","","","img/orange_2bandit_a2.png","null","img/orange_2bandit_a2.png","70","prac","0","1","","","","","","","","","","","","","","","","","",""
"null","27869","SARL_v6","SARL_v665f25knq","5eb5f6d5e38e9f4e6c8dde3f","feedback","","","img/tooSlow.png","null","","na","prac","","","","","","","","","","","","","","","","","","","",""
"null","28040","SARL_v6","SARL_v665f25knq","5eb5f6d5e38e9f4e6c8dde3f","fixation","","","img/fixation.png","null","","","prac","","","","","","","","","","","","","","","","","","","",""
"429.30000001192093","28479","SARL_v6","SARL_v665f25knq","5eb5f6d5e38e9f4e6c8dde3f","infreqPrac","","","img/blue_2bandit_a2.png","70","img/blue_2bandit_a2.png","68","prac","0","2","","","","","","","","","","","","","","","","","",""
"429.30000001192093","28860","SARL_v6","SARL_v665f25knq","5eb5f6d5e38e9f4e6c8dde3f","infreqPrac_resp","","","img/blue_2bandit_a.png","70","img/blue_2bandit_a.png","68","prac","","","","","","","","","","","","","","","","","","","",""
"null","29871","SARL_v6","SARL_v665f25knq","5eb5f6d5e38e9f4e6c8dde3f","feedback","","","img/wrongKey.png","null","","na","prac","","","","","","","","","","","","","","","","","","","",""
"null","30041","SARL_v6","SARL_v665f25knq","5eb5f6d5e38e9f4e6c8dde3f","fixation","","","img/fixation.png","null","","","prac","","","","","","","","","","","","","","","","","","","",""
"423.30000001192093","30474","SARL_v6","SARL_v665f25knq","5eb5f6d5e38e9f4e6c8dde3f","freqPrac","","","img/orange_2bandit_a2.png","70","img/orange_2bandit_a2.png","70","prac","1","2","","","","","","","","","","","","","","","","","",""
"423.30000001192093","30876","SARL_v6","SARL_v665f25knq","5eb5f6d5e38e9f4e6c8dde3f","freqPrac_resp","","","img/orange_2bandit_a.png","70","img/orange_2bandit_a.png","70","prac","","","","","","","","","","","","","","","","","","","",""
"null","31038","SARL_v6","SARL_v665f25knq","5eb5f6d5e38e9f4e6c8dde3f","fixation","","","img/fixation.png","null","","","prac","","","","","","","","","","","","","","","","","","","",""
"525.9000000059605","31574","SARL_v6","SARL_v665f25knq","5eb5f6d5e38e9f4e6c8dde3f","infreqPrac","","","img/blue_2bandit_a2.png","68","img/blue_2bandit_a2.png","68","prac","1","2","","","","","","","","","","","","","","","","","",""
"525.9000000059605","31864","SARL_v6","SARL_v665f25knq","5eb5f6d5e38e9f4e6c8dde3f","infreqPrac_resp","","","img/blue_2bandit_a.png","68","img/blue_2bandit_a.png","68","prac","","","","","","","","","","","","","","","","","","","",""
"null","32039","SARL_v6","SARL_v665f25knq","5eb5f6d5e38e9f4e6c8dde3f","fixation","","","img/fixation.png","null","","","prac","","","","","","","","","","","","","","","","","","","",""
"435.40000000596046","32484","SARL_v6","SARL_v665f25knq","5eb5f6d5e38e9f4e6c8dde3f","infreqPrac","","","img/blue_2bandit_a2.png","68","img/blue_2bandit_a2.png","68","prac","1","2","","","","","","","","","","","","","","","","","",""
"435.40000000596046","32874","SARL_v6","SARL_v665f25knq","5eb5f6d5e38e9f4e6c8dde3f","infreqPrac_resp","","","img/blue_2bandit_a.png","68","img/blue_2bandit_a.png","68","prac","","","","","","","","","","","","","","","","","","","",""
"null","33035","SARL_v6","SARL_v665f25knq","5eb5f6d5e38e9f4e6c8dde3f","fixation","","","img/fixation.png","null","","","prac","","","","","","","","","","","","","","","","","","","",""
"376.80000001192093","33420","SARL_v6","SARL_v665f25knq","5eb5f6d5e38e9f4e6c8dde3f","infreqPrac","","","img/blue_2bandit_a2.png","68","img/blue_2bandit_a2.png","68","prac","1","2","","","","","","","","","","","","","","","","","",""
"376.80000001192093","33867","SARL_v6","SARL_v665f25knq","5eb5f6d5e38e9f4e6c8dde3f","infreqPrac_resp","","","img/blue_2bandit_a.png","68","img/blue_2bandit_a.png","68","prac","","","","","","","","","","","","","","","","","","","",""
"null","34036","SARL_v6","SARL_v665f25knq","5eb5f6d5e38e9f4e6c8dde3f","fixation","","","img/fixation.png","null","","","prac","","","","","","","","","","","","","","","","","","","",""
"363.80000001192093","34409","SARL_v6","SARL_v665f25knq","5eb5f6d5e38e9f4e6c8dde3f","freqPrac","","","img/orange_2bandit_a2.png","70","img/orange_2bandit_a2.png","70","prac","1","2","","","","","","","","","","","","","","","","","",""
"363.80000001192093","34868","SARL_v6","SARL_v665f25knq","5eb5f6d5e38e9f4e6c8dde3f","freqPrac_resp","","","img/orange_2bandit_a.png","70","img/orange_2bandit_a.png","70","prac","","","","","","","","","","","","","","","","","","","",""
"null","35035","SARL_v6","SARL_v665f25knq","5eb5f6d5e38e9f4e6c8dde3f","fixation","","","img/fixation.png","null","","","prac","","","","","","","","","","","","","","","","","","","",""
"416.69999998807907","35461","SARL_v6","SARL_v665f25knq","5eb5f6d5e38e9f4e6c8dde3f","infreqPrac","","","img/blue_2bandit_a2.png","68","img/blue_2bandit_a2.png","68","prac","1","2","","","","","","","","","","","","","","","","","",""
"416.69999998807907","35869","SARL_v6","SARL_v665f25knq","5eb5f6d5e38e9f4e6c8dde3f","infreqPrac_resp","","","img/blue_2bandit_a.png","68","img/blue_2bandit_a.png","68","prac","","","","","","","","","","","","","","","","","","","",""
"null","36034","SARL_v6","SARL_v665f25knq","5eb5f6d5e38e9f4e6c8dde3f","fixation","","","img/fixation.png","null","","","prac","","","","","","","","","","","","","","","","","","","",""
"411.2000000178814","36455","SARL_v6","SARL_v665f25knq","5eb5f6d5e38e9f4e6c8dde3f","freqPrac","","","img/orange_2bandit_a2.png","70","img/orange_2bandit_a2.png","70","prac","1","2","","","","","","","","","","","","","","","","","",""
"411.2000000178814","36858","SARL_v6","SARL_v665f25knq","5eb5f6d5e38e9f4e6c8dde3f","freqPrac_resp","","","img/orange_2bandit_a.png","70","img/orange_2bandit_a.png","70","prac","","","","","","","","","","","","","","","","","","","",""
"null","37032","SARL_v6","SARL_v665f25knq","5eb5f6d5e38e9f4e6c8dde3f","fixation","","","img/fixation.png","null","","","prac","","","","","","","","","","","","","","","","","","","",""
"353.80000001192093","37395","SARL_v6","SARL_v665f25knq","5eb5f6d5e38e9f4e6c8dde3f","freqPrac","","","img/orange_2bandit_a2.png","70","img/orange_2bandit_a2.png","70","prac","1","2","","","","","","","","","","","","","","","","","",""
"353.80000001192093","37860","SARL_v6","SARL_v665f25knq","5eb5f6d5e38e9f4e6c8dde3f","freqPrac_resp","","","img/orange_2bandit_a.png","70","img/orange_2bandit_a.png","70","prac","","","","","","","","","","","","","","","","","","","",""
"null","38031","SARL_v6","SARL_v665f25knq","5eb5f6d5e38e9f4e6c8dde3f","fixation","","","img/fixation.png","null","","","prac","","","","","","","","","","","","","","","","","","","",""
"3067.899999976158","41105","SARL_v6","SARL_v665f25knq","5eb5f6d5e38e9f4e6c8dde3f","","","","","","","","prac","","","","","","","","","","","","","","","","","","","",""
"null","42617","SARL_v6","SARL_v665f25knq","5eb5f6d5e38e9f4e6c8dde3f","rlPractice","","","img/black_2bandit_a2.png","null","img/black_2bandit_a2.png","","prac","","","0","","","","","","","","","","","","","","","","",""
"null","43387","SARL_v6","SARL_v665f25knq","5eb5f6d5e38e9f4e6c8dde3f","feedback","","","<div font size = 80> TOO SLOW  </div>","null","","na","prac","","","1","10","-14","10","","","","","","","","","","","","","",""
"null","43558","SARL_v6","SARL_v665f25knq","5eb5f6d5e38e9f4e6c8dde3f","fixation","","","img/fixation.png","null","","","prac","","","","","","","","","","","","","","","","","","","",""
"null","45083","SARL_v6","SARL_v665f25knq","5eb5f6d5e38e9f4e6c8dde3f","rlPractice","","","img/black_2bandit_a2.png","null","img/black_2bandit_a2.png","","prac","","","1","","","","","","","","","","","","","","","","",""
"null","45854","SARL_v6","SARL_v665f25knq","5eb5f6d5e38e9f4e6c8dde3f","feedback","","","<div font size = 80> TOO SLOW  </div>","null","","na","prac","","","2","5","-5","5","","","","","","","","","","","","","",""
"null","46022","SARL_v6","SARL_v665f25knq","5eb5f6d5e38e9f4e6c8dde3f","fixation","","","img/fixation.png","null","","","prac","","","","","","","","","","","","","","","","","","","",""
"null","47534","SARL_v6","SARL_v665f25knq","5eb5f6d5e38e9f4e6c8dde3f","rlPractice","","","img/black_2bandit_a2.png","null","img/black_2bandit_a2.png","","prac","","","2","","","","","","","","","","","","","","","","",""
"null","48298","SARL_v6","SARL_v665f25knq","5eb5f6d5e38e9f4e6c8dde3f","feedback","","","<div font size = 80> TOO SLOW  </div>","null","","na","prac","","","3","30","2","30","","","","","","","","","","","","","",""
"null","48470","SARL_v6","SARL_v665f25knq","5eb5f6d5e38e9f4e6c8dde3f","fixation","","","img/fixation.png","null","","","prac","","","","","","","","","","","","","","","","","","","",""
"968.2000000178814","49448","SARL_v6","SARL_v665f25knq","5eb5f6d5e38e9f4e6c8dde3f","rlPractice","","","img/black_2bandit_a2.png","75","img/black_2bandit_a2.png","","prac","","","3","","","","","","","","","","","","","","","","",""
"null","50210","SARL_v6","SARL_v665f25knq","5eb5f6d5e38e9f4e6c8dde3f","feedback","","","<div class=""verylowPoints""> -2 </div>","null","","na","prac","","","4","-2","20","-2","","","","","","","","","","","","","",""
"null","50384","SARL_v6","SARL_v665f25knq","5eb5f6d5e38e9f4e6c8dde3f","fixation","","","img/fixation.png","null","","","prac","","","","","","","","","","","","","","","","","","","",""
"36018.09999999404","86412","SARL_v6","SARL_v665f25knq","5eb5f6d5e38e9f4e6c8dde3f","","","","","","","","prac","","","","","","","","","","","","","","","","","","","",""
"null","87233","SARL_v6","SARL_v665f25knq","5eb5f6d5e38e9f4e6c8dde3f","mixAttFreqPrac","","","img/orange_2bandit_a2.png","null","img/orange_2bandit_a2.png","70","prac","","","1","","","","","","","","","","","","","","","","",""
"122","87394","SARL_v6","SARL_v665f25knq","5eb5f6d5e38e9f4e6c8dde3f","fixation","","","img/fixation.png","68","","","prac","","","","","","","","","","","","","","","","","","","",""
"null","88204","SARL_v6","SARL_v665f25knq","5eb5f6d5e38e9f4e6c8dde3f","mixAttInfreqPrac","","","img/blue_2bandit_a2.png","null","img/blue_2bandit_a2.png","68","prac","","","2","","","","","","","","","","","","","","","","",""
"56.80000001192093","88372","SARL_v6","SARL_v665f25knq","5eb5f6d5e38e9f4e6c8dde3f","fixation","","","img/fixation.png","68","","","prac","","","","","","","","","","","","","","","","","","","",""
"540.6999999880791","88921","SARL_v6","SARL_v665f25knq","5eb5f6d5e38e9f4e6c8dde3f","mixAttInfreqPrac","","","img/blue_2bandit_a2.png","68","img/blue_2bandit_a2.png","68","prac","","","3","","","","","","","","","","","","","","","","",""
"540.6999999880791","89199","SARL_v6","SARL_v665f25knq","5eb5f6d5e38e9f4e6c8dde3f","infreqPrac_resp","","","img/blue_2bandit_a.png","68","img/orange_2bandit_a.png","68","prac","","","3","","","","","","","","","","","","","","","","",""
"null","89372","SARL_v6","SARL_v665f25knq","5eb5f6d5e38e9f4e6c8dde3f","fixation","","","img/fixation.png","null","","","prac","","","","","","","","","","","","","","","","","","","",""
"617.8000000119209","89999","SARL_v6","SARL_v665f25knq","5eb5f6d5e38e9f4e6c8dde3f","mixAttInfreqPrac","","","img/blue_2bandit_a2.png","68","img/blue_2bandit_a2.png","68","prac","","","4","","","","","","","","","","","","","","","","",""
"617.8000000119209","90203","SARL_v6","SARL_v665f25knq","5eb5f6d5e38e9f4e6c8dde3f","infreqPrac_resp","","","img/blue_2bandit_a.png","68","img/orange_2bandit_a.png","68","prac","","","4","","","","","","","","","","","","","","","","",""
"null","90370","SARL_v6","SARL_v665f25knq","5eb5f6d5e38e9f4e6c8dde3f","fixation","","","img/fixation.png","null","","","prac","","","","","","","","","","","","","","","","","","","",""
"469.69999998807907","90849","SARL_v6","SARL_v665f25knq","5eb5f6d5e38e9f4e6c8dde3f","mixAttFreqPrac","","","img/orange_2bandit_a2.png","70","img/orange_2bandit_a2.png","70","prac","","","5","","","","","","","","","","","","","","","","",""
"469.69999998807907","91193","SARL_v6","SARL_v665f25knq","5eb5f6d5e38e9f4e6c8dde3f","freqPrac_resp","","","img/orange_2bandit_a.png","70","img/orange_2bandit_a.png","70","prac","","","5","","","","","","","","","","","","","","","","",""
"null","91371","SARL_v6","SARL_v665f25knq","5eb5f6d5e38e9f4e6c8dde3f","fixation","","","img/fixation.png","null","","","prac","","","","","","","","","","","","","","","","","","","",""
"610.7000000178814","91990","SARL_v6","SARL_v665f25knq","5eb5f6d5e38e9f4e6c8dde3f","mixRLPractice","","","img/black_2bandit_a2.png","74","img/black_2bandit_a2.png","","prac","","","5","","","","","","","","","","","","","","","","",""
"null","92751","SARL_v6","SARL_v665f25knq","5eb5f6d5e38e9f4e6c8dde3f","feedback","","","<div class=""veryhighPoints_sq""> 10 </div>","null","","na","prac","","","6","-14","10","-14","","","","","","","","","","","","","",""
"null","92918","SARL_v6","SARL_v665f25knq","5eb5f6d5e38e9f4e6c8dde3f","fixation","","","img/fixation.png","null","","","prac","","","","","","","","","","","","","","","","","","","",""
"736.5","93663","SARL_v6","SARL_v665f25knq","5eb5f6d5e38e9f4e6c8dde3f","mixAttFreqPrac","","","img/orange_2bandit_a2.png","68","img/orange_2bandit_a2.png","70","prac","","","7","","","","","","","","","","","","","","","","",""
"736.5","93738","SARL_v6","SARL_v665f25knq","5eb5f6d5e38e9f4e6c8dde3f","freqPrac_resp","","","img/orange_2bandit_a.png","68","img/orange_2bandit_a.png","70","prac","","","7","","","","","","","","","","","","","","","","",""
"null","93900","SARL_v6","SARL_v665f25knq","5eb5f6d5e38e9f4e6c8dde3f","fixation","","","img/fixation.png","null","","","prac","","","","","","","","","","","","","","","","","","","",""
"null","94717","SARL_v6","SARL_v665f25knq","5eb5f6d5e38e9f4e6c8dde3f","mixAttInfreqPrac","","","img/blue_2bandit_a2.png","null","img/blue_2bandit_a2.png","68","prac","","","8","","","","","","","","","","","","","","","","",""
"40.5","94886","SARL_v6","SARL_v665f25knq","5eb5f6d5e38e9f4e6c8dde3f","fixation","","","img/fixation.png","70","","","prac","","","","","","","","","","","","","","","","","","","",""
"527.5999999940395","95423","SARL_v6","SARL_v665f25knq","5eb5f6d5e38e9f4e6c8dde3f","mixAttFreqPrac","","","img/orange_2bandit_a2.png","68","img/orange_2bandit_a2.png","70","prac","","","9","","","","","","","","","","","","","","","","",""
"527.5999999940395","95715","SARL_v6","SARL_v665f25knq","5eb5f6d5e38e9f4e6c8dde3f","freqPrac_resp","","","img/orange_2bandit_a.png","68","img/orange_2bandit_a.png","70","prac","","","9","","","","","","","","","","","","","","","","",""
"null","95882","SARL_v6","SARL_v665f25knq","5eb5f6d5e38e9f4e6c8dde3f","fixation","","","img/fixation.png","null","","","prac","","","","","","","","","","","","","","","","","","","",""
"440.7000000178814","96332","SARL_v6","SARL_v665f25knq","5eb5f6d5e38e9f4e6c8dde3f","mixAttFreqPrac","","","img/orange_2bandit_a2.png","68","img/orange_2bandit_a2.png","70","prac","","","10","","","","","","","","","","","","","","","","",""
"440.7000000178814","96718","SARL_v6","SARL_v665f25knq","5eb5f6d5e38e9f4e6c8dde3f","freqPrac_resp","","","img/orange_2bandit_a.png","68","img/orange_2bandit_a.png","70","prac","","","10","","","","","","","","","","","","","","","","",""
"null","96882","SARL_v6","SARL_v665f25knq","5eb5f6d5e38e9f4e6c8dde3f","fixation","","","img/fixation.png","null","","","prac","","","","","","","","","","","","","","","","","","","",""
"430.40000000596046","97322","SARL_v6","SARL_v665f25knq","5eb5f6d5e38e9f4e6c8dde3f","mixAttInfreqPrac","","","img/blue_2bandit_a2.png","70","img/blue_2bandit_a2.png","68","prac","","","11","","","","","","","","","","","","","","","","",""
"430.40000000596046","97716","SARL_v6","SARL_v665f25knq","5eb5f6d5e38e9f4e6c8dde3f","infreqPrac_resp","","","img/blue_2bandit_a.png","70","img/orange_2bandit_a.png","68","prac","","","11","","","","","","","","","","","","","","","","",""
"null","97883","SARL_v6","SARL_v665f25knq","5eb5f6d5e38e9f4e6c8dde3f","fixation","","","img/fixation.png","null","","","prac","","","","","","","","","","","","","","","","","","","",""
"628.9000000059605","98521","SARL_v6","SARL_v665f25knq","5eb5f6d5e38e9f4e6c8dde3f","mixRLPractice","","","img/black_2bandit_a2.png","74","img/black_2bandit_a2.png","","prac","","","11","","","","","","","","","","","","","","","","",""
"null","99290","SARL_v6","SARL_v665f25knq","5eb5f6d5e38e9f4e6c8dde3f","feedback","","","<div class=""verylowPoints_sq""> -5 </div>","null","","na","prac","","","12","5","-5","5","","","","","","","","","","","","","",""
"null","99461","SARL_v6","SARL_v665f25knq","5eb5f6d5e38e9f4e6c8dde3f","fixation","","","img/fixation.png","null","","","prac","","","","","","","","","","","","","","","","","","","",""
"7035.699999988079","106504","SARL_v6","SARL_v665f25knq","5eb5f6d5e38e9f4e6c8dde3f","","","","","","","","prac","","","","","","","","","","","","","","","","","","","",""
"775","107289","SARL_v6","SARL_v665f25knq","5eb5f6d5e38e9f4e6c8dde3f","freq","","","img/orange_2bandit_a2.png","68","","70","test","0","","1","","","","square","circle","1","1","1","0","","","","","","","",""
"null","107322","SARL_v6","SARL_v665f25knq","5eb5f6d5e38e9f4e6c8dde3f","freq_resp","","","img/orange_2bandit_a.png","68","img/orange_2bandit_a.png","70","test","","","","","","","","","","","1","","","","","","","","",""
"null","107485","SARL_v6","SARL_v665f25knq","5eb5f6d5e38e9f4e6c8dde3f","fixation","","","img/fixation.png","null","","","test","","","","","","","","","","","","","","","","","","","",""
"464.09999999403954","107958","SARL_v6","SARL_v665f25knq","5eb5f6d5e38e9f4e6c8dde3f","freq","","","img/orange_2bandit_a2.png","68","","70","test","0","","2","","","","square","circle","2","2","1","0","","","","","","","",""
"null","108313","SARL_v6","SARL_v665f25knq","5eb5f6d5e38e9f4e6c8dde3f","freq_resp","","","img/orange_2bandit_a.png","68","img/orange_2bandit_a.png","70","test","","","","","","","","","","","1","","","","","","","","",""
"null","108484","SARL_v6","SARL_v665f25knq","5eb5f6d5e38e9f4e6c8dde3f","fixation","","","img/fixation.png","null","","","test","","","","","","","","","","","","","","","","","","","",""
"531.5999999940395","109024","SARL_v6","SARL_v665f25knq","5eb5f6d5e38e9f4e6c8dde3f","infreq","","","img/blue_2bandit_a2.png","70","","68","test","0","","3","","","","square","circle","3","3","1","0","","","","","","","",""
"null","109309","SARL_v6","SARL_v665f25knq","5eb5f6d5e38e9f4e6c8dde3f","infreq_resp","","","img/blue_2bandit_a.png","70","img/blue_2bandit_a.png","68","test","","","","","","","","","","","1","","","","","","","","",""
"null","109483","SARL_v6","SARL_v665f25knq","5eb5f6d5e38e9f4e6c8dde3f","fixation","","","img/fixation.png","null","","","test","","","","","","","","","","","","","","","","","","","",""
"546","110038","SARL_v6","SARL_v665f25knq","5eb5f6d5e38e9f4e6c8dde3f","freq","","","img/orange_2bandit_a2.png","68","","70","test","0","","4","","","","square","circle","4","4","1","0","","","","","","","",""
"null","110316","SARL_v6","SARL_v665f25knq","5eb5f6d5e38e9f4e6c8dde3f","freq_resp","","","img/orange_2bandit_a.png","68","img/orange_2bandit_a.png","70","test","","","","","","","","","","","1","","","","","","","","",""
"null","110482","SARL_v6","SARL_v665f25knq","5eb5f6d5e38e9f4e6c8dde3f","fixation","","","img/fixation.png","null","","","test","","","","","","","","","","","","","","","","","","","",""
"406.40000000596046","110898","SARL_v6","SARL_v665f25knq","5eb5f6d5e38e9f4e6c8dde3f","freq","","","img/orange_2bandit_a2.png","68","","70","test","0","","5","","","","square","circle","5","5","1","0","","","","","","","",""
"null","111316","SARL_v6","SARL_v665f25knq","5eb5f6d5e38e9f4e6c8dde3f","freq_resp","","","img/orange_2bandit_a.png","68","img/orange_2bandit_a.png","70","test","","","","","","","","","","","1","","","","","","","","",""
"null","111482","SARL_v6","SARL_v665f25knq","5eb5f6d5e38e9f4e6c8dde3f","fixation","","","img/fixation.png","null","","","test","","","","","","","","","","","","","","","","","","","",""
"440","111932","SARL_v6","SARL_v665f25knq","5eb5f6d5e38e9f4e6c8dde3f","freq","","","img/orange_2bandit_a2.png","68","","70","test","0","","6","","","","square","circle","6","6","1","0","","","","","","","",""
"null","112303","SARL_v6","SARL_v665f25knq","5eb5f6d5e38e9f4e6c8dde3f","freq_resp","","","img/orange_2bandit_a.png","68","img/orange_2bandit_a.png","70","test","","","","","","","","","","","1","","","","","","","","",""
"null","112478","SARL_v6","SARL_v665f25knq","5eb5f6d5e38e9f4e6c8dde3f","fixation","","","img/fixation.png","null","","","test","","","","","","","","","","","","","","","","","","","",""
"422.09999999403954","112910","SARL_v6","SARL_v665f25knq","5eb5f6d5e38e9f4e6c8dde3f","freq","","","img/orange_2bandit_a2.png","68","","70","test","0","","7","","","","square","circle","7","7","1","0","","","","","","","",""
"null","113311","SARL_v6","SARL_v665f25knq","5eb5f6d5e38e9f4e6c8dde3f","freq_resp","","","img/orange_2bandit_a.png","68","img/orange_2bandit_a.png","70","test","","","","","","","","","","","1","","","","","","","","",""
"null","113478","SARL_v6","SARL_v665f25knq","5eb5f6d5e38e9f4e6c8dde3f","fixation","","","img/fixation.png","null","","","test","","","","","","","","","","","","","","","","","","","",""
"386.69999998807907","113874","SARL_v6","SARL_v665f25knq","5eb5f6d5e38e9f4e6c8dde3f","freq","","","img/orange_2bandit_a2.png","68","","70","test","0","","8","","","","square","circle","8","8","1","0","","","","","","","",""
"null","114312","SARL_v6","SARL_v665f25knq","5eb5f6d5e38e9f4e6c8dde3f","freq_resp","","","img/orange_2bandit_a.png","68","img/orange_2bandit_a.png","70","test","","","","","","","","","","","1","","","","","","","","",""
"null","114477","SARL_v6","SARL_v665f25knq","5eb5f6d5e38e9f4e6c8dde3f","fixation","","","img/fixation.png","null","","","test","","","","","","","","","","","","","","","","","","","",""
"448.89999997615814","114935","SARL_v6","SARL_v665f25knq","5eb5f6d5e38e9f4e6c8dde3f","freq","","","img/orange_2bandit_a2.png","68","","70","test","0","","9","","","","square","circle","9","9","1","0","","","","","","","",""
"null","115297","SARL_v6","SARL_v665f25knq","5eb5f6d5e38e9f4e6c8dde3f","freq_resp","","","img/orange_2bandit_a.png","68","img/orange_2bandit_a.png","70","test","","","","","","","","","","","1","","","","","","","","",""
"null","115464","SARL_v6","SARL_v665f25knq","5eb5f6d5e38e9f4e6c8dde3f","fixation","","","img/fixation.png","null","","","test","","","","","","","","","","","","","","","","","","","",""
"495","115969","SARL_v6","SARL_v665f25knq","5eb5f6d5e38e9f4e6c8dde3f","infreq","","","img/blue_2bandit_a2.png","70","","68","test","0","","10","","","","square","circle","10","10","1","0","","","","","","","",""
"null","116298","SARL_v6","SARL_v665f25knq","5eb5f6d5e38e9f4e6c8dde3f","infreq_resp","","","img/blue_2bandit_a.png","70","img/blue_2bandit_a.png","68","test","","","","","","","","","","","1","","","","","","","","",""
"null","116473","SARL_v6","SARL_v665f25knq","5eb5f6d5e38e9f4e6c8dde3f","fixation","","","img/fixation.png","null","","","test","","","","","","","","","","","","","","","","","","","",""
"446","116928","SARL_v6","SARL_v665f25knq","5eb5f6d5e38e9f4e6c8dde3f","freq","","","img/orange_2bandit_a2.png","70","","70","test","1","","11","","","","square","circle","11","11","1","0.09090909090909091","","","","","","","",""
"null","117294","SARL_v6","SARL_v665f25knq","5eb5f6d5e38e9f4e6c8dde3f","freq_resp","","","img/orange_2bandit_a.png","70","img/orange_2bandit_a.png","70","test","","","","","","","","","","","1","","","","","","","","",""
"null","117457","SARL_v6","SARL_v665f25knq","5eb5f6d5e38e9f4e6c8dde3f","fixation","","","img/fixation.png","null","","","test","","","","","","","","","","","","","","","","","","","",""
"null","118264","SARL_v6","SARL_v665f25knq","5eb5f6d5e38e9f4e6c8dde3f","freq","","","img/orange_2bandit_a2.png","null","","70","test","0","","12","","","","square","circle","12","12","1","0.08333333333333333","","","","","","","",""
"null","118436","SARL_v6","SARL_v665f25knq","5eb5f6d5e38e9f4e6c8dde3f","fixation","","","img/fixation.png","null","","","test","","","","","","","","","","","","","","","","","","","",""
"782.5","119228","SARL_v6","SARL_v665f25knq","5eb5f6d5e38e9f4e6c8dde3f","freq","","","img/orange_2bandit_a2.png","70","","70","test","1","","13","","","","square","circle","13","13","1","0.15384615384615385","","","","","","","",""
"null","119253","SARL_v6","SARL_v665f25knq","5eb5f6d5e38e9f4e6c8dde3f","freq_resp","","","img/orange_2bandit_a.png","70","img/orange_2bandit_a.png","70","test","","","","","","","","","","","1","","","","","","","","",""
"null","119421","SARL_v6","SARL_v665f25knq","5eb5f6d5e38e9f4e6c8dde3f","fixation","","","img/fixation.png","null","","","test","","","","","","","","","","","","","","","","","","","",""
"693","120123","SARL_v6","SARL_v665f25knq","5eb5f6d5e38e9f4e6c8dde3f","infreq","","","img/blue_2bandit_a2.png","68","","68","test","1","","14","","","","square","circle","14","14","1","0.21428571428571427","","","","","","","",""
"null","120243","SARL_v6","SARL_v665f25knq","5eb5f6d5e38e9f4e6c8dde3f","infreq_resp","","","img/blue_2bandit_a.png","68","img/blue_2bandit_a.png","68","test","","","","","","","","","","","1","","","","","","","","",""
"null","120419","SARL_v6","SARL_v665f25knq","5eb5f6d5e38e9f4e6c8dde3f","fixation","","","img/fixation.png","null","","","test","","","","","","","","","","","","","","","","","","","",""
"558.9000000059605","120988","SARL_v6","SARL_v665f25knq","5eb5f6d5e38e9f4e6c8dde3f","freq","","","img/orange_2bandit_a2.png","70","","70","test","1","","15","","","","square","circle","15","15","1","0.26666666666666666","","","","","","","",""
"null","121245","SARL_v6","SARL_v665f25knq","5eb5f6d5e38e9f4e6c8dde3f","freq_resp","","","img/orange_2bandit_a.png","70","img/orange_2bandit_a.png","70","test","","","","","","","","","","","1","","","","","","","","",""
"null","121419","SARL_v6","SARL_v665f25knq","5eb5f6d5e38e9f4e6c8dde3f","fixation","","","img/fixation.png","null","","","test","","","","","","","","","","","","","","","","","","","",""
"400.40000000596046","121829","SARL_v6","SARL_v665f25knq","5eb5f6d5e38e9f4e6c8dde3f","freq","","","img/orange_2bandit_a2.png","70","","70","test","1","","16","","","","square","circle","16","16","1","0.3125","","","","","","","",""
"null","122253","SARL_v6","SARL_v665f25knq","5eb5f6d5e38e9f4e6c8dde3f","freq_resp","","","img/orange_2bandit_a.png","70","img/orange_2bandit_a.png","70","test","","","","","","","","","","","1","","","","","","","","",""
"null","122417","SARL_v6","SARL_v665f25knq","5eb5f6d5e38e9f4e6c8dde3f","fixation","","","img/fixation.png","null","","","test","","","","","","","","","","","","","","","","","","","",""
"410.59999999403954","122838","SARL_v6","SARL_v665f25knq","5eb5f6d5e38e9f4e6c8dde3f","freq","","","img/orange_2bandit_a2.png","70","","70","test","1","","17","","","","square","circle","17","17","1","0.35294117647058826","","","","","","","",""
"null","123267","SARL_v6","SARL_v665f25knq","5eb5f6d5e38e9f4e6c8dde3f","freq_resp","","","img/orange_2bandit_a.png","70","img/orange_2bandit_a.png","70","test","","","","","","","","","","","1","","","","","","","","",""
"null","123433","SARL_v6","SARL_v665f25knq","5eb5f6d5e38e9f4e6c8dde3f","fixation","","","img/fixation.png","null","","","test","","","","","","","","","","","","","","","","","","","",""
"372.40000000596046","123815","SARL_v6","SARL_v665f25knq","5eb5f6d5e38e9f4e6c8dde3f","freq","","","img/orange_2bandit_a2.png","70","","70","test","1","","18","","","","square","circle","18","18","1","0.3888888888888889","","","","","","","",""
"null","124266","SARL_v6","SARL_v665f25knq","5eb5f6d5e38e9f4e6c8dde3f","freq_resp","","","img/orange_2bandit_a.png","70","img/orange_2bandit_a.png","70","test","","","","","","","","","","","1","","","","","","","","",""
"null","124432","SARL_v6","SARL_v665f25knq","5eb5f6d5e38e9f4e6c8dde3f","fixation","","","img/fixation.png","null","","","test","","","","","","","","","","","","","","","","","","","",""
"501.80000001192093","124946","SARL_v6","SARL_v665f25knq","5eb5f6d5e38e9f4e6c8dde3f","freq","","","img/orange_2bandit_a2.png","70","","70","test","1","","19","","","","square","circle","19","19","1","0.42105263157894735","","","","","","","",""
"null","125256","SARL_v6","SARL_v665f25knq","5eb5f6d5e38e9f4e6c8dde3f","freq_resp","","","img/orange_2bandit_a.png","70","img/orange_2bandit_a.png","70","test","","","","","","","","","","","1","","","","","","","","",""
"null","125431","SARL_v6","SARL_v665f25knq","5eb5f6d5e38e9f4e6c8dde3f","fixation","","","img/fixation.png","null","","","test","","","","","","","","","","","","","","","","","","","",""
"431.80000001192093","125872","SARL_v6","SARL_v665f25knq","5eb5f6d5e38e9f4e6c8dde3f","freq","","","img/orange_2bandit_a2.png","70","","70","test","1","","20","","","","square","circle","20","20","1","0.45","","","","","","","",""
"null","126259","SARL_v6","SARL_v665f25knq","5eb5f6d5e38e9f4e6c8dde3f","freq_resp","","","img/orange_2bandit_a.png","70","img/orange_2bandit_a.png","70","test","","","","","","","","","","","1","","","","","","","","",""
"null","126430","SARL_v6","SARL_v665f25knq","5eb5f6d5e38e9f4e6c8dde3f","fixation","","","img/fixation.png","null","","","test","","","","","","","","","","","","","","","","","","","",""
"412.80000001192093","126852","SARL_v6","SARL_v665f25knq","5eb5f6d5e38e9f4e6c8dde3f","freq","","","img/orange_2bandit_a2.png","70","","70","test","1","","21","","","","square","circle","21","21","1","0.47619047619047616","","","","","","","",""
"null","127264","SARL_v6","SARL_v665f25knq","5eb5f6d5e38e9f4e6c8dde3f","freq_resp","","","img/orange_2bandit_a.png","70","img/orange_2bandit_a.png","70","test","","","","","","","","","","","1","","","","","","","","",""
"null","127428","SARL_v6","SARL_v665f25knq","5eb5f6d5e38e9f4e6c8dde3f","fixation","","","img/fixation.png","null","","","test","","","","","","","","","","","","","","","","","","","",""
"359.40000000596046","127797","SARL_v6","SARL_v665f25knq","5eb5f6d5e38e9f4e6c8dde3f","freq","","","img/orange_2bandit_a2.png","70","","70","test","1","","22","","","","square","circle","22","22","1","0.5","","","","","","","",""
"null","128271","SARL_v6","SARL_v665f25knq","5eb5f6d5e38e9f4e6c8dde3f","freq_resp","","","img/orange_2bandit_a.png","70","img/orange_2bandit_a.png","70","test","","","","","","","","","","","1","","","","","","","","",""
"null","128440","SARL_v6","SARL_v665f25knq","5eb5f6d5e38e9f4e6c8dde3f","fixation","","","img/fixation.png","null","","","test","","","","","","","","","","","","","","","","","","","",""
"422.90000000596046","128871","SARL_v6","SARL_v665f25knq","5eb5f6d5e38e9f4e6c8dde3f","freq","","","img/orange_2bandit_a2.png","70","","70","test","1","","23","","","","square","circle","23","23","1","0.5217391304347826","","","","","","","",""
"null","129263","SARL_v6","SARL_v665f25knq","5eb5f6d5e38e9f4e6c8dde3f","freq_resp","","","img/orange_2bandit_a.png","70","img/orange_2bandit_a.png","70","test","","","","","","","","","","","1","","","","","","","","",""
"null","129427","SARL_v6","SARL_v665f25knq","5eb5f6d5e38e9f4e6c8dde3f","fixation","","","img/fixation.png","null","","","test","","","","","","","","","","","","","","","","","","","",""
"630.4000000059605","130067","SARL_v6","SARL_v665f25knq","5eb5f6d5e38e9f4e6c8dde3f","rl","","","img/black_2bandit_a2.png","74","","0","test","","","24","","","-3","square","circle","","0","1","","74","-3","-3","-3","-3","square","1","0"
"null","130838","SARL_v6","SARL_v665f25knq","5eb5f6d5e38e9f4e6c8dde3f","feedback","","","<div class=""verylowPoints_sq""> -3 </div>","null","","na","test","","","NaN","","","","","","","","1","","74","","","","","","1",""
"524.6999999880791","131374","SARL_v6","SARL_v665f25knq","5eb5f6d5e38e9f4e6c8dde3f","freq","","","img/orange_2bandit_a2.png","70","","70","test","1","","25","","","","square","circle","24","1","2","0.5416666666666666","","","","","","","",""
"null","131665","SARL_v6","SARL_v665f25knq","5eb5f6d5e38e9f4e6c8dde3f","freq_resp","","","img/orange_2bandit_a.png","70","img/orange_2bandit_a.png","70","test","","","","","","","","","","","2","","","","","","","","",""
"null","131838","SARL_v6","SARL_v665f25knq","5eb5f6d5e38e9f4e6c8dde3f","fixation","","","img/fixation.png","null","","","test","","","","","","","","","","","","","","","","","","","",""
"375.59999999403954","132224","SARL_v6","SARL_v665f25knq","5eb5f6d5e38e9f4e6c8dde3f","freq","","","img/orange_2bandit_a2.png","70","","70","test","1","","26","","","","square","circle","25","2","2","0.56","","","","","","","",""
"null","132673","SARL_v6","SARL_v665f25knq","5eb5f6d5e38e9f4e6c8dde3f","freq_resp","","","img/orange_2bandit_a.png","70","img/orange_2bandit_a.png","70","test","","","","","","","","","","","2","","","","","","","","",""
"null","132840","SARL_v6","SARL_v665f25knq","5eb5f6d5e38e9f4e6c8dde3f","fixation","","","img/fixation.png","null","","","test","","","","","","","","","","","","","","","","","","","",""
"445.69999998807907","133292","SARL_v6","SARL_v665f25knq","5eb5f6d5e38e9f4e6c8dde3f","infreq","","","img/blue_2bandit_a2.png","68","","68","test","1","","27","","","","square","circle","26","3","2","0.5769230769230769","","","","","","","",""
"null","133659","SARL_v6","SARL_v665f25knq","5eb5f6d5e38e9f4e6c8dde3f","infreq_resp","","","img/blue_2bandit_a.png","68","img/blue_2bandit_a.png","68","test","","","","","","","","","","","2","","","","","","","","",""
"null","133822","SARL_v6","SARL_v665f25knq","5eb5f6d5e38e9f4e6c8dde3f","fixation","","","img/fixation.png","null","","","test","","","","","","","","","","","","","","","","","","","",""
"481.90000000596046","134314","SARL_v6","SARL_v665f25knq","5eb5f6d5e38e9f4e6c8dde3f","freq","","","img/orange_2bandit_a2.png","70","","70","test","1","","28","","","","square","circle","27","4","2","0.5925925925925926","","","","","","","",""
"null","134643","SARL_v6","SARL_v665f25knq","5eb5f6d5e38e9f4e6c8dde3f","freq_resp","","","img/orange_2bandit_a.png","70","img/orange_2bandit_a.png","70","test","","","","","","","","","","","2","","","","","","","","",""
"null","134818","SARL_v6","SARL_v665f25knq","5eb5f6d5e38e9f4e6c8dde3f","fixation","","","img/fixation.png","null","","","test","","","","","","","","","","","","","","","","","","","",""
"402.7000000178814","135231","SARL_v6","SARL_v665f25knq","5eb5f6d5e38e9f4e6c8dde3f","freq","","","img/orange_2bandit_a2.png","70","","70","test","1","","29","","","","square","circle","28","5","2","0.6071428571428571","","","","","","","",""
"null","135638","SARL_v6","SARL_v665f25knq","5eb5f6d5e38e9f4e6c8dde3f","freq_resp","","","img/orange_2bandit_a.png","70","img/orange_2bandit_a.png","70","test","","","","","","","","","","","2","","","","","","","","",""
"null","135803","SARL_v6","SARL_v665f25knq","5eb5f6d5e38e9f4e6c8dde3f","fixation","","","img/fixation.png","null","","","test","","","","","","","","","","","","","","","","","","","",""
"427.5","136240","SARL_v6","SARL_v665f25knq","5eb5f6d5e38e9f4e6c8dde3f","freq","","","img/orange_2bandit_a2.png","70","","70","test","1","","30","","","","square","circle","29","6","2","0.6206896551724138","","","","","","","",""
"null","136622","SARL_v6","SARL_v665f25knq","5eb5f6d5e38e9f4e6c8dde3f","freq_resp","","","img/orange_2bandit_a.png","70","img/orange_2bandit_a.png","70","test","","","","","","","","","","","2","","","","","","","","",""
"null","136786","SARL_v6","SARL_v665f25knq","5eb5f6d5e38e9f4e6c8dde3f","fixation","","","img/fixation.png","null","","","test","","","","","","","","","","","","","","","","","","","",""
"366.19999998807907","137162","SARL_v6","SARL_v665f25knq","5eb5f6d5e38e9f4e6c8dde3f","freq","","","img/orange_2bandit_a2.png","70","","70","test","1","","31","","","","square","circle","30","7","2","0.6333333333333333","","","","","","","",""
"null","137615","SARL_v6","SARL_v665f25knq","5eb5f6d5e38e9f4e6c8dde3f","freq_resp","","","img/orange_2bandit_a.png","70","img/orange_2bandit_a.png","70","test","","","","","","","","","","","2","","","","","","","","",""
"null","137784","SARL_v6","SARL_v665f25knq","5eb5f6d5e38e9f4e6c8dde3f","fixation","","","img/fixation.png","null","","","test","","","","","","","","","","","","","","","","","","","",""
"457.09999999403954","138249","SARL_v6","SARL_v665f25knq","5eb5f6d5e38e9f4e6c8dde3f","freq","","","img/orange_2bandit_a2.png","70","","70","test","1","","32","","","","square","circle","31","8","2","0.6451612903225806","","","","","","","",""
"null","138604","SARL_v6","SARL_v665f25knq","5eb5f6d5e38e9f4e6c8dde3f","freq_resp","","","img/orange_2bandit_a.png","70","img/orange_2bandit_a.png","70","test","","","","","","","","","","","2","","","","","","","","",""
"null","138772","SARL_v6","SARL_v665f25knq","5eb5f6d5e38e9f4e6c8dde3f","fixation","","","img/fixation.png","null","","","test","","","","","","","","","","","","","","","","","","","",""
"433.69999998807907","139216","SARL_v6","SARL_v665f25knq","5eb5f6d5e38e9f4e6c8dde3f","freq","","","img/orange_2bandit_a2.png","70","","70","test","1","","33","","","","square","circle","32","9","2","0.65625","","","","","","","",""
"null","139603","SARL_v6","SARL_v665f25knq","5eb5f6d5e38e9f4e6c8dde3f","freq_resp","","","img/orange_2bandit_a.png","70","img/orange_2bandit_a.png","70","test","","","","","","","","","","","2","","","","","","","","",""
"null","139764","SARL_v6","SARL_v665f25knq","5eb5f6d5e38e9f4e6c8dde3f","fixation","","","img/fixation.png","null","","","test","","","","","","","","","","","","","","","","","","","",""
"415.59999999403954","140189","SARL_v6","SARL_v665f25knq","5eb5f6d5e38e9f4e6c8dde3f","freq","","","img/orange_2bandit_a2.png","70","","70","test","1","","34","","","","square","circle","33","10","2","0.6666666666666666","","","","","","","",""
"null","140599","SARL_v6","SARL_v665f25knq","5eb5f6d5e38e9f4e6c8dde3f","freq_resp","","","img/orange_2bandit_a.png","70","img/orange_2bandit_a.png","70","test","","","","","","","","","","","2","","","","","","","","",""
"null","140763","SARL_v6","SARL_v665f25knq","5eb5f6d5e38e9f4e6c8dde3f","fixation","","","img/fixation.png","null","","","test","","","","","","","","","","","","","","","","","","","",""
"442.2999999821186","141218","SARL_v6","SARL_v665f25knq","5eb5f6d5e38e9f4e6c8dde3f","freq","","","img/orange_2bandit_a2.png","70","","70","test","1","","35","","","","square","circle","34","11","2","0.6764705882352942","","","","","","","",""
"null","141599","SARL_v6","SARL_v665f25knq","5eb5f6d5e38e9f4e6c8dde3f","freq_resp","","","img/orange_2bandit_a.png","70","img/orange_2bandit_a.png","70","test","","","","","","","","","","","2","","","","","","","","",""
"null","141762","SARL_v6","SARL_v665f25knq","5eb5f6d5e38e9f4e6c8dde3f","fixation","","","img/fixation.png","null","","","test","","","","","","","","","","","","","","","","","","","",""
"385.40000000596046","142157","SARL_v6","SARL_v665f25knq","5eb5f6d5e38e9f4e6c8dde3f","freq","","","img/orange_2bandit_a2.png","70","","70","test","1","","36","","","","square","circle","35","12","2","0.6857142857142857","","","","","","","",""
"null","142597","SARL_v6","SARL_v665f25knq","5eb5f6d5e38e9f4e6c8dde3f","freq_resp","","","img/orange_2bandit_a.png","70","img/orange_2bandit_a.png","70","test","","","","","","","","","","","2","","","","","","","","",""
"null","142760","SARL_v6","SARL_v665f25knq","5eb5f6d5e38e9f4e6c8dde3f","fixation","","","img/fixation.png","null","","","test","","","","","","","","","","","","","","","","","","","",""
"534.3000000119209","143301","SARL_v6","SARL_v665f25knq","5eb5f6d5e38e9f4e6c8dde3f","freq","","","img/orange_2bandit_a2.png","70","","70","test","1","","37","","","","square","circle","36","13","2","0.6944444444444444","","","","","","","",""
"null","143584","SARL_v6","SARL_v665f25knq","5eb5f6d5e38e9f4e6c8dde3f","freq_resp","","","img/orange_2bandit_a.png","70","img/orange_2bandit_a.png","70","test","","","","","","","","","","","2","","","","","","","","",""
"null","143755","SARL_v6","SARL_v665f25knq","5eb5f6d5e38e9f4e6c8dde3f","fixation","","","img/fixation.png","null","","","test","","","","","","","","","","","","","","","","","","","",""
"538.3000000119209","144302","SARL_v6","SARL_v665f25knq","5eb5f6d5e38e9f4e6c8dde3f","freq","","","img/orange_2bandit_a2.png","70","","70","test","1","","38","","","","square","circle","37","14","2","0.7027027027027027","","","","","","","",""
"null","144585","SARL_v6","SARL_v665f25knq","5eb5f6d5e38e9f4e6c8dde3f","freq_resp","","","img/orange_2bandit_a.png","70","img/orange_2bandit_a.png","70","test","","","","","","","","","","","2","","","","","","","","",""
"null","144754","SARL_v6","SARL_v665f25knq","5eb5f6d5e38e9f4e6c8dde3f","fixation","","","img/fixation.png","null","","","test","","","","","","","","","","","","","","","","","","","",""
"466.39999997615814","145230","SARL_v6","SARL_v665f25knq","5eb5f6d5e38e9f4e6c8dde3f","freq","","","img/orange_2bandit_a2.png","70","","70","test","1","","39","","","","square","circle","38","15","2","0.7105263157894737","","","","","","","",""
"null","145580","SARL_v6","SARL_v665f25knq","5eb5f6d5e38e9f4e6c8dde3f","freq_resp","","","img/orange_2bandit_a.png","70","img/orange_2bandit_a.png","70","test","","","","","","","","","","","2","","","","","","","","",""
"null","145741","SARL_v6","SARL_v665f25knq","5eb5f6d5e38e9f4e6c8dde3f","fixation","","","img/fixation.png","null","","","test","","","","","","","","","","","","","","","","","","","",""
"333.30000001192093","146084","SARL_v6","SARL_v665f25knq","5eb5f6d5e38e9f4e6c8dde3f","freq","","","img/orange_2bandit_a2.png","70","","70","test","1","","40","","","","square","circle","39","16","2","0.717948717948718","","","","","","","",""
"null","146570","SARL_v6","SARL_v665f25knq","5eb5f6d5e38e9f4e6c8dde3f","freq_resp","","","img/orange_2bandit_a.png","70","img/orange_2bandit_a.png","70","test","","","","","","","","","","","2","","","","","","","","",""
"null","146740","SARL_v6","SARL_v665f25knq","5eb5f6d5e38e9f4e6c8dde3f","fixation","","","img/fixation.png","null","","","test","","","","","","","","","","","","","","","","","","","",""
"369.5","147118","SARL_v6","SARL_v665f25knq","5eb5f6d5e38e9f4e6c8dde3f","freq","","","img/orange_2bandit_a2.png","70","","70","test","1","","41","","","","square","circle","40","17","2","0.725","","","","","","","",""
"null","147573","SARL_v6","SARL_v665f25knq","5eb5f6d5e38e9f4e6c8dde3f","freq_resp","","","img/orange_2bandit_a.png","70","img/orange_2bandit_a.png","70","test","","","","","","","","","","","2","","","","","","","","",""
"null","147739","SARL_v6","SARL_v665f25knq","5eb5f6d5e38e9f4e6c8dde3f","fixation","","","img/fixation.png","null","","","test","","","","","","","","","","","","","","","","","","","",""
"263","148012","SARL_v6","SARL_v665f25knq","5eb5f6d5e38e9f4e6c8dde3f","freq","","","img/orange_2bandit_a2.png","70","","70","test","1","","42","","","","square","circle","41","18","2","0.7317073170731707","","","","","","","",""
"null","148573","SARL_v6","SARL_v665f25knq","5eb5f6d5e38e9f4e6c8dde3f","freq_resp","","","img/orange_2bandit_a.png","70","img/orange_2bandit_a.png","70","test","","","","","","","","","","","2","","","","","","","","",""
"null","148744","SARL_v6","SARL_v665f25knq","5eb5f6d5e38e9f4e6c8dde3f","fixation","","","img/fixation.png","null","","","test","","","","","","","","","","","","","","","","","","","",""
"164.10000002384186","148918","SARL_v6","SARL_v665f25knq","5eb5f6d5e38e9f4e6c8dde3f","infreq","","","img/blue_2bandit_a2.png","70","","68","test","0","","43","","","","square","circle","42","19","2","0.7142857142857143","","","","","","","",""
"null","149575","SARL_v6","SARL_v665f25knq","5eb5f6d5e38e9f4e6c8dde3f","infreq_resp","","","img/blue_2bandit_a.png","70","img/blue_2bandit_a.png","68","test","","","","","","","","","","","2","","","","","","","","",""
"null","149737","SARL_v6","SARL_v665f25knq","5eb5f6d5e38e9f4e6c8dde3f","fixation","","","img/fixation.png","null","","","test","","","","","","","","","","","","","","","","","","","",""
"600.4000000059605","150346","SARL_v6","SARL_v665f25knq","5eb5f6d5e38e9f4e6c8dde3f","freq","","","img/orange_2bandit_a2.png","70","","70","test","1","","44","","","","square","circle","43","20","2","0.7209302325581395","","","","","","","",""
"null","150566","SARL_v6","SARL_v665f25knq","5eb5f6d5e38e9f4e6c8dde3f","freq_resp","","","img/orange_2bandit_a.png","70","img/orange_2bandit_a.png","70","test","","","","","","","","","","","2","","","","","","","","",""
"null","150735","SARL_v6","SARL_v665f25knq","5eb5f6d5e38e9f4e6c8dde3f","fixation","","","img/fixation.png","null","","","test","","","","","","","","","","","","","","","","","","","",""
"946.3000000119209","151692","SARL_v6","SARL_v665f25knq","5eb5f6d5e38e9f4e6c8dde3f","rl","","","img/black_2bandit_a2.png","75","","0","test","","","45","","","-8","square","circle","","0","2","","75","-8","-5","-5","-8","circle","2","0"
"null","152463","SARL_v6","SARL_v665f25knq","5eb5f6d5e38e9f4e6c8dde3f","feedback","","","<div class=""verylowPoints""> -8 </div>","null","","na","test","","","NaN","","","","","","","","2","","75","","","","","","2",""
"null","153274","SARL_v6","SARL_v665f25knq","5eb5f6d5e38e9f4e6c8dde3f","freq","","","img/orange_2bandit_a2.png","null","","70","test","0","","46","","","","square","circle","44","1","3","0.7045454545454546","","","","","","","",""
"null","153449","SARL_v6","SARL_v665f25knq","5eb5f6d5e38e9f4e6c8dde3f","fixation","","","img/fixation.png","null","","","test","","","","","","","","","","","","","","","","","","","",""
"674.9000000059605","154134","SARL_v6","SARL_v665f25knq","5eb5f6d5e38e9f4e6c8dde3f","freq","","","img/orange_2bandit_a2.png","70","","70","test","1","","47","","","","square","circle","45","2","3","0.7111111111111111","","","","","","","",""
"null","154280","SARL_v6","SARL_v665f25knq","5eb5f6d5e38e9f4e6c8dde3f","freq_resp","","","img/orange_2bandit_a.png","70","img/orange_2bandit_a.png","70","test","","","","","","","","","","","3","","","","","","","","",""
"null","154449","SARL_v6","SARL_v665f25knq","5eb5f6d5e38e9f4e6c8dde3f","fixation","","","img/fixation.png","null","","","test","","","","","","","","","","","","","","","","","","","",""
"478.80000001192093","154937","SARL_v6","SARL_v665f25knq","5eb5f6d5e38e9f4e6c8dde3f","freq","","","img/orange_2bandit_a2.png","70","","70","test","1","","48","","","","square","circle","46","3","3","0.717391304347826","","","","","","","",""
"null","155270","SARL_v6","SARL_v665f25knq","5eb5f6d5e38e9f4e6c8dde3f","freq_resp","","","img/orange_2bandit_a.png","70","img/orange_2bandit_a.png","70","test","","","","","","","","","","","3","","","","","","","","",""
"null","155438","SARL_v6","SARL_v665f25knq","5eb5f6d5e38e9f4e6c8dde3f","fixation","","","img/fixation.png","null","","","test","","","","","","","","","","","","","","","","","","","",""
"589.5","156037","SARL_v6","SARL_v665f25knq","5eb5f6d5e38e9f4e6c8dde3f","infreq","","","img/blue_2bandit_a2.png","68","","68","test","1","","49","","","","square","circle","47","4","3","0.723404255319149","","","","","","","",""
"null","156262","SARL_v6","SARL_v665f25knq","5eb5f6d5e38e9f4e6c8dde3f","infreq_resp","","","img/blue_2bandit_a.png","68","img/blue_2bandit_a.png","68","test","","","","","","","","","","","3","","","","","","","","",""
"null","156430","SARL_v6","SARL_v665f25knq","5eb5f6d5e38e9f4e6c8dde3f","fixation","","","img/fixation.png","null","","","test","","","","","","","","","","","","","","","","","","","",""
"609.0999999940395","157049","SARL_v6","SARL_v665f25knq","5eb5f6d5e38e9f4e6c8dde3f","freq","","","img/orange_2bandit_a2.png","70","","70","test","1","","50","","","","square","circle","48","5","3","0.7291666666666666","","","","","","","",""
"null","157261","SARL_v6","SARL_v665f25knq","5eb5f6d5e38e9f4e6c8dde3f","freq_resp","","","img/orange_2bandit_a.png","70","img/orange_2bandit_a.png","70","test","","","","","","","","","","","3","","","","","","","","",""
"null","157428","SARL_v6","SARL_v665f25knq","5eb5f6d5e38e9f4e6c8dde3f","fixation","","","img/fixation.png","null","","","test","","","","","","","","","","","","","","","","","","","",""
"398.09999999403954","157836","SARL_v6","SARL_v665f25knq","5eb5f6d5e38e9f4e6c8dde3f","freq","","","img/orange_2bandit_a2.png","70","","70","test","1","","51","","","","square","circle","49","6","3","0.7346938775510204","","","","","","","",""
"null","158260","SARL_v6","SARL_v665f25knq","5eb5f6d5e38e9f4e6c8dde3f","freq_resp","","","img/orange_2bandit_a.png","70","img/orange_2bandit_a.png","70","test","","","","","","","","","","","3","","","","","","","","",""
"null","158426","SARL_v6","SARL_v665f25knq","5eb5f6d5e38e9f4e6c8dde3f","fixation","","","img/fixation.png","null","","","test","","","","","","","","","","","","","","","","","","","",""
"345.10000002384186","158780","SARL_v6","SARL_v665f25knq","5eb5f6d5e38e9f4e6c8dde3f","freq","","","img/orange_2bandit_a2.png","70","","70","test","1","","52","","","","square","circle","50","7","3","0.74","","","","","","","",""
"null","159260","SARL_v6","SARL_v665f25knq","5eb5f6d5e38e9f4e6c8dde3f","freq_resp","","","img/orange_2bandit_a.png","70","img/orange_2bandit_a.png","70","test","","","","","","","","","","","3","","","","","","","","",""
"null","159426","SARL_v6","SARL_v665f25knq","5eb5f6d5e38e9f4e6c8dde3f","fixation","","","img/fixation.png","null","","","test","","","","","","","","","","","","","","","","","","","",""
"314.40000000596046","159750","SARL_v6","SARL_v665f25knq","5eb5f6d5e38e9f4e6c8dde3f","freq","","","img/orange_2bandit_a2.png","70","","70","test","1","","53","","","","square","circle","51","8","3","0.7450980392156863","","","","","","","",""
"null","160254","SARL_v6","SARL_v665f25knq","5eb5f6d5e38e9f4e6c8dde3f","freq_resp","","","img/orange_2bandit_a.png","70","img/orange_2bandit_a.png","70","test","","","","","","","","","","","3","","","","","","","","",""
"null","160424","SARL_v6","SARL_v665f25knq","5eb5f6d5e38e9f4e6c8dde3f","fixation","","","img/fixation.png","null","","","test","","","","","","","","","","","","","","","","","","","",""
"331.2999999821186","160765","SARL_v6","SARL_v665f25knq","5eb5f6d5e38e9f4e6c8dde3f","freq","","","img/orange_2bandit_a2.png","70","","70","test","1","","54","","","","square","circle","52","9","3","0.75","","","","","","","",""
"null","161254","SARL_v6","SARL_v665f25knq","5eb5f6d5e38e9f4e6c8dde3f","freq_resp","","","img/orange_2bandit_a.png","70","img/orange_2bandit_a.png","70","test","","","","","","","","","","","3","","","","","","","","",""
"null","161424","SARL_v6","SARL_v665f25knq","5eb5f6d5e38e9f4e6c8dde3f","fixation","","","img/fixation.png","null","","","test","","","","","","","","","","","","","","","","","","","",""
"344.2000000178814","161778","SARL_v6","SARL_v665f25knq","5eb5f6d5e38e9f4e6c8dde3f","freq","","","img/orange_2bandit_a2.png","70","","70","test","1","","55","","","","square","circle","53","10","3","0.7547169811320755","","","","","","","",""
"null","162244","SARL_v6","SARL_v665f25knq","5eb5f6d5e38e9f4e6c8dde3f","freq_resp","","","img/orange_2bandit_a.png","70","img/orange_2bandit_a.png","70","test","","","","","","","","","","","3","","","","","","","","",""
"null","162410","SARL_v6","SARL_v665f25knq","5eb5f6d5e38e9f4e6c8dde3f","fixation","","","img/fixation.png","null","","","test","","","","","","","","","","","","","","","","","","","",""
"312.40000000596046","162732","SARL_v6","SARL_v665f25knq","5eb5f6d5e38e9f4e6c8dde3f","freq","","","img/orange_2bandit_a2.png","70","","70","test","1","","56","","","","square","circle","54","11","3","0.7592592592592593","","","","","","","",""
"null","163261","SARL_v6","SARL_v665f25knq","5eb5f6d5e38e9f4e6c8dde3f","freq_resp","","","img/orange_2bandit_a.png","70","img/orange_2bandit_a.png","70","test","","","","","","","","","","","3","","","","","","","","",""
"null","163418","SARL_v6","SARL_v665f25knq","5eb5f6d5e38e9f4e6c8dde3f","fixation","","","img/fixation.png","null","","","test","","","","","","","","","","","","","","","","","","","",""
"364","163791","SARL_v6","SARL_v665f25knq","5eb5f6d5e38e9f4e6c8dde3f","freq","","","img/orange_2bandit_a2.png","70","","70","test","1","","57","","","","square","circle","55","12","3","0.7636363636363637","","","","","","","",""
"null","164239","SARL_v6","SARL_v665f25knq","5eb5f6d5e38e9f4e6c8dde3f","freq_resp","","","img/orange_2bandit_a.png","70","img/orange_2bandit_a.png","70","test","","","","","","","","","","","3","","","","","","","","",""
"null","164403","SARL_v6","SARL_v665f25knq","5eb5f6d5e38e9f4e6c8dde3f","fixation","","","img/fixation.png","null","","","test","","","","","","","","","","","","","","","","","","","",""
"312.80000001192093","164726","SARL_v6","SARL_v665f25knq","5eb5f6d5e38e9f4e6c8dde3f","freq","","","img/orange_2bandit_a2.png","70","","70","test","1","","58","","","","square","circle","56","13","3","0.7678571428571429","","","","","","","",""
"null","165231","SARL_v6","SARL_v665f25knq","5eb5f6d5e38e9f4e6c8dde3f","freq_resp","","","img/orange_2bandit_a.png","70","img/orange_2bandit_a.png","70","test","","","","","","","","","","","3","","","","","","","","",""
"null","165401","SARL_v6","SARL_v665f25knq","5eb5f6d5e38e9f4e6c8dde3f","fixation","","","img/fixation.png","null","","","test","","","","","","","","","","","","","","","","","","","",""
"326.09999999403954","165738","SARL_v6","SARL_v665f25knq","5eb5f6d5e38e9f4e6c8dde3f","freq","","","img/orange_2bandit_a2.png","70","","70","test","1","","59","","","","square","circle","57","14","3","0.7719298245614035","","","","","","","",""
"null","166237","SARL_v6","SARL_v665f25knq","5eb5f6d5e38e9f4e6c8dde3f","freq_resp","","","img/orange_2bandit_a.png","70","img/orange_2bandit_a.png","70","test","","","","","","","","","","","3","","","","","","","","",""
"null","166400","SARL_v6","SARL_v665f25knq","5eb5f6d5e38e9f4e6c8dde3f","fixation","","","img/fixation.png","null","","","test","","","","","","","","","","","","","","","","","","","",""
"367.09999999403954","166777","SARL_v6","SARL_v665f25knq","5eb5f6d5e38e9f4e6c8dde3f","freq","","","img/orange_2bandit_a2.png","70","","70","test","1","","60","","","","square","circle","58","15","3","0.7758620689655172","","","","","","","",""
"null","167234","SARL_v6","SARL_v665f25knq","5eb5f6d5e38e9f4e6c8dde3f","freq_resp","","","img/orange_2bandit_a.png","70","img/orange_2bandit_a.png","70","test","","","","","","","","","","","3","","","","","","","","",""
"null","167401","SARL_v6","SARL_v665f25knq","5eb5f6d5e38e9f4e6c8dde3f","fixation","","","img/fixation.png","null","","","test","","","","","","","","","","","","","","","","","","","",""
"394.30000001192093","167805","SARL_v6","SARL_v665f25knq","5eb5f6d5e38e9f4e6c8dde3f","freq","","","img/orange_2bandit_a2.png","70","","70","test","1","","61","","","","square","circle","59","16","3","0.7796610169491526","","","","","","","",""
"null","168257","SARL_v6","SARL_v665f25knq","5eb5f6d5e38e9f4e6c8dde3f","freq_resp","","","img/orange_2bandit_a.png","70","img/orange_2bandit_a.png","70","test","","","","","","","","","","","3","","","","","","","","",""
"null","168429","SARL_v6","SARL_v665f25knq","5eb5f6d5e38e9f4e6c8dde3f","fixation","","","img/fixation.png","null","","","test","","","","","","","","","","","","","","","","","","","",""
"304.40000000596046","168743","SARL_v6","SARL_v665f25knq","5eb5f6d5e38e9f4e6c8dde3f","freq","","","img/orange_2bandit_a2.png","70","","70","test","1","","62","","","","square","circle","60","17","3","0.7833333333333333","","","","","","","",""
"null","169260","SARL_v6","SARL_v665f25knq","5eb5f6d5e38e9f4e6c8dde3f","freq_resp","","","img/orange_2bandit_a.png","70","img/orange_2bandit_a.png","70","test","","","","","","","","","","","3","","","","","","","","",""
"null","169430","SARL_v6","SARL_v665f25knq","5eb5f6d5e38e9f4e6c8dde3f","fixation","","","img/fixation.png","null","","","test","","","","","","","","","","","","","","","","","","","",""
"355.19999998807907","169796","SARL_v6","SARL_v665f25knq","5eb5f6d5e38e9f4e6c8dde3f","freq","","","img/orange_2bandit_a2.png","70","","70","test","1","","63","","","","square","circle","61","18","3","0.7868852459016393","","","","","","","",""
"null","170262","SARL_v6","SARL_v665f25knq","5eb5f6d5e38e9f4e6c8dde3f","freq_resp","","","img/orange_2bandit_a.png","70","img/orange_2bandit_a.png","70","test","","","","","","","","","","","3","","","","","","","","",""
"null","170429","SARL_v6","SARL_v665f25knq","5eb5f6d5e38e9f4e6c8dde3f","fixation","","","img/fixation.png","null","","","test","","","","","","","","","","","","","","","","","","","",""
"373.90000000596046","170813","SARL_v6","SARL_v665f25knq","5eb5f6d5e38e9f4e6c8dde3f","freq","","","img/orange_2bandit_a2.png","70","","70","test","1","","64","","","","square","circle","62","19","3","0.7903225806451613","","","","","","","",""
"null","171262","SARL_v6","SARL_v665f25knq","5eb5f6d5e38e9f4e6c8dde3f","freq_resp","","","img/orange_2bandit_a.png","70","img/orange_2bandit_a.png","70","test","","","","","","","","","","","3","","","","","","","","",""
"null","171429","SARL_v6","SARL_v665f25knq","5eb5f6d5e38e9f4e6c8dde3f","fixation","","","img/fixation.png","null","","","test","","","","","","","","","","","","","","","","","","","",""
"292.5","171732","SARL_v6","SARL_v665f25knq","5eb5f6d5e38e9f4e6c8dde3f","freq","","","img/orange_2bandit_a2.png","70","","70","test","1","","65","","","","square","circle","63","20","3","0.7936507936507936","","","","","","","",""
"null","172262","SARL_v6","SARL_v665f25knq","5eb5f6d5e38e9f4e6c8dde3f","freq_resp","","","img/orange_2bandit_a.png","70","img/orange_2bandit_a.png","70","test","","","","","","","","","","","3","","","","","","","","",""
"null","172427","SARL_v6","SARL_v665f25knq","5eb5f6d5e38e9f4e6c8dde3f","fixation","","","img/fixation.png","null","","","test","","","","","","","","","","","","","","","","","","","",""
"331.90000000596046","172769","SARL_v6","SARL_v665f25knq","5eb5f6d5e38e9f4e6c8dde3f","freq","","","img/orange_2bandit_a2.png","70","","70","test","1","","66","","","","square","circle","64","21","3","0.796875","","","","","","","",""
"null","173256","SARL_v6","SARL_v665f25knq","5eb5f6d5e38e9f4e6c8dde3f","freq_resp","","","img/orange_2bandit_a.png","70","img/orange_2bandit_a.png","70","test","","","","","","","","","","","3","","","","","","","","",""
"null","173426","SARL_v6","SARL_v665f25knq","5eb5f6d5e38e9f4e6c8dde3f","fixation","","","img/fixation.png","null","","","test","","","","","","","","","","","","","","","","","","","",""
"309.09999999403954","173745","SARL_v6","SARL_v665f25knq","5eb5f6d5e38e9f4e6c8dde3f","freq","","","img/orange_2bandit_a2.png","70","","70","test","1","","67","","","","square","circle","65","22","3","0.8","","","","","","","",""
"null","174254","SARL_v6","SARL_v665f25knq","5eb5f6d5e38e9f4e6c8dde3f","freq_resp","","","img/orange_2bandit_a.png","70","img/orange_2bandit_a.png","70","test","","","","","","","","","","","3","","","","","","","","",""
"null","174425","SARL_v6","SARL_v665f25knq","5eb5f6d5e38e9f4e6c8dde3f","fixation","","","img/fixation.png","null","","","test","","","","","","","","","","","","","","","","","","","",""
"303.7999999821186","174738","SARL_v6","SARL_v665f25knq","5eb5f6d5e38e9f4e6c8dde3f","freq","","","img/orange_2bandit_a2.png","70","","70","test","1","","68","","","","square","circle","66","23","3","0.803030303030303","","","","","","","",""
"null","175253","SARL_v6","SARL_v665f25knq","5eb5f6d5e38e9f4e6c8dde3f","freq_resp","","","img/orange_2bandit_a.png","70","img/orange_2bandit_a.png","70","test","","","","","","","","","","","3","","","","","","","","",""
"null","175426","SARL_v6","SARL_v665f25knq","5eb5f6d5e38e9f4e6c8dde3f","fixation","","","img/fixation.png","null","","","test","","","","","","","","","","","","","","","","","","","",""
"200.90000000596046","175636","SARL_v6","SARL_v665f25knq","5eb5f6d5e38e9f4e6c8dde3f","infreq","","","img/blue_2bandit_a2.png","70","","68","test","0","","69","","","","square","circle","67","24","3","0.7910447761194029","","","","","","","",""
"null","176246","SARL_v6","SARL_v665f25knq","5eb5f6d5e38e9f4e6c8dde3f","infreq_resp","","","img/blue_2bandit_a.png","70","img/blue_2bandit_a.png","68","test","","","","","","","","","","","3","","","","","","","","",""
"null","176408","SARL_v6","SARL_v665f25knq","5eb5f6d5e38e9f4e6c8dde3f","fixation","","","img/fixation.png","null","","","test","","","","","","","","","","","","","","","","","","","",""
"390.2000000178814","176808","SARL_v6","SARL_v665f25knq","5eb5f6d5e38e9f4e6c8dde3f","freq","","","img/orange_2bandit_a2.png","70","","70","test","1","","70","","","","square","circle","68","25","3","0.7941176470588235","","","","","","","",""
"null","177228","SARL_v6","SARL_v665f25knq","5eb5f6d5e38e9f4e6c8dde3f","freq_resp","","","img/orange_2bandit_a.png","70","img/orange_2bandit_a.png","70","test","","","","","","","","","","","3","","","","","","","","",""
"null","177394","SARL_v6","SARL_v665f25knq","5eb5f6d5e38e9f4e6c8dde3f","fixation","","","img/fixation.png","null","","","test","","","","","","","","","","","","","","","","","","","",""
"373.5","177777","SARL_v6","SARL_v665f25knq","5eb5f6d5e38e9f4e6c8dde3f","freq","","","img/orange_2bandit_a2.png","70","","70","test","1","","71","","","","square","circle","69","26","3","0.7971014492753623","","","","","","","",""
"null","178225","SARL_v6","SARL_v665f25knq","5eb5f6d5e38e9f4e6c8dde3f","freq_resp","","","img/orange_2bandit_a.png","70","img/orange_2bandit_a.png","70","test","","","","","","","","","","","3","","","","","","","","",""
"null","178387","SARL_v6","SARL_v665f25knq","5eb5f6d5e38e9f4e6c8dde3f","fixation","","","img/fixation.png","null","","","test","","","","","","","","","","","","","","","","","","","",""
"488.59999999403954","178884","SARL_v6","SARL_v665f25knq","5eb5f6d5e38e9f4e6c8dde3f","rl","","","img/black_2bandit_a2.png","75","","0","test","","","72","","","-8","square","circle","","0","3","","75","-8","-4","-4","-8","circle","3","0"
"null","179650","SARL_v6","SARL_v665f25knq","5eb5f6d5e38e9f4e6c8dde3f","feedback","","","<div class=""verylowPoints""> -8 </div>","null","","na","test","","","NaN","","","","","","","","3","","75","","","","","","3",""
"null","180463","SARL_v6","SARL_v665f25knq","5eb5f6d5e38e9f4e6c8dde3f","freq","","","img/orange_2bandit_a2.png","null","","70","test","0","","73","","","","square","circle","70","1","4","0.7857142857142857","","","","","","","",""
"null","180635","SARL_v6","SARL_v665f25knq","5eb5f6d5e38e9f4e6c8dde3f","fixation","","","img/fixation.png","null","","","test","","","","","","","","","","","","","","","","","","","",""
"234.2999999821186","180877","SARL_v6","SARL_v665f25knq","5eb5f6d5e38e9f4e6c8dde3f","infreq","","","img/blue_2bandit_a2.png","70","","68","test","0","","74","","","","square","circle","71","2","4","0.7746478873239436","","","","","","","",""
"null","181458","SARL_v6","SARL_v665f25knq","5eb5f6d5e38e9f4e6c8dde3f","infreq_resp","","","img/blue_2bandit_a.png","70","img/blue_2bandit_a.png","68","test","","","","","","","","","","","4","","","","","","","","",""
"null","181616","SARL_v6","SARL_v665f25knq","5eb5f6d5e38e9f4e6c8dde3f","fixation","","","img/fixation.png","null","","","test","","","","","","","","","","","","","","","","","","","",""
"656","182281","SARL_v6","SARL_v665f25knq","5eb5f6d5e38e9f4e6c8dde3f","freq","","","img/orange_2bandit_a2.png","70","","70","test","1","","75","","","","square","circle","72","3","4","0.7777777777777778","","","","","","","",""
"null","182450","SARL_v6","SARL_v665f25knq","5eb5f6d5e38e9f4e6c8dde3f","freq_resp","","","img/orange_2bandit_a.png","70","img/orange_2bandit_a.png","70","test","","","","","","","","","","","4","","","","","","","","",""
"null","182616","SARL_v6","SARL_v665f25knq","5eb5f6d5e38e9f4e6c8dde3f","fixation","","","img/fixation.png","null","","","test","","","","","","","","","","","","","","","","","","","",""
"511.59999999403954","183135","SARL_v6","SARL_v665f25knq","5eb5f6d5e38e9f4e6c8dde3f","freq","","","img/orange_2bandit_a2.png","70","","70","test","1","","76","","","","square","circle","73","4","4","0.7808219178082192","","","","","","","",""
"null","183439","SARL_v6","SARL_v665f25knq","5eb5f6d5e38e9f4e6c8dde3f","freq_resp","","","img/orange_2bandit_a.png","70","img/orange_2bandit_a.png","70","test","","","","","","","","","","","4","","","","","","","","",""
"null","183612","SARL_v6","SARL_v665f25knq","5eb5f6d5e38e9f4e6c8dde3f","fixation","","","img/fixation.png","null","","","test","","","","","","","","","","","","","","","","","","","",""
"355.69999998807907","183977","SARL_v6","SARL_v665f25knq","5eb5f6d5e38e9f4e6c8dde3f","freq","","","img/orange_2bandit_a2.png","70","","70","test","1","","77","","","","square","circle","74","5","4","0.7837837837837838","","","","","","","",""
"null","184445","SARL_v6","SARL_v665f25knq","5eb5f6d5e38e9f4e6c8dde3f","freq_resp","","","img/orange_2bandit_a.png","70","img/orange_2bandit_a.png","70","test","","","","","","","","","","","4","","","","","","","","",""
"null","184614","SARL_v6","SARL_v665f25knq","5eb5f6d5e38e9f4e6c8dde3f","fixation","","","img/fixation.png","null","","","test","","","","","","","","","","","","","","","","","","","",""
"294.90000000596046","184918","SARL_v6","SARL_v665f25knq","5eb5f6d5e38e9f4e6c8dde3f","freq","","","img/orange_2bandit_a2.png","70","","70","test","1","","78","","","","square","circle","75","6","4","0.7866666666666666","","","","","","","",""
"null","185441","SARL_v6","SARL_v665f25knq","5eb5f6d5e38e9f4e6c8dde3f","freq_resp","","","img/orange_2bandit_a.png","70","img/orange_2bandit_a.png","70","test","","","","","","","","","","","4","","","","","","","","",""
"null","185613","SARL_v6","SARL_v665f25knq","5eb5f6d5e38e9f4e6c8dde3f","fixation","","","img/fixation.png","null","","","test","","","","","","","","","","","","","","","","","","","",""
"null","186438","SARL_v6","SARL_v665f25knq","5eb5f6d5e38e9f4e6c8dde3f","freq","","","img/orange_2bandit_a2.png","null","","70","test","0","","79","","","","square","circle","76","7","4","0.7763157894736842","","","","","","","",""
"null","186610","SARL_v6","SARL_v665f25knq","5eb5f6d5e38e9f4e6c8dde3f","fixation","","","img/fixation.png","null","","","test","","","","","","","","","","","","","","","","","","","",""
"null","187422","SARL_v6","SARL_v665f25knq","5eb5f6d5e38e9f4e6c8dde3f","freq","","","img/orange_2bandit_a2.png","null","","70","test","0","","80","","","","square","circle","77","8","4","0.7662337662337663","","","","","","","",""
"null","187594","SARL_v6","SARL_v665f25knq","5eb5f6d5e38e9f4e6c8dde3f","fixation","","","img/fixation.png","null","","","test","","","","","","","","","","","","","","","","","","","",""
"null","188412","SARL_v6","SARL_v665f25knq","5eb5f6d5e38e9f4e6c8dde3f","freq","","","img/orange_2bandit_a2.png","null","","70","test","0","","81","","","","square","circle","78","9","4","0.7564102564102564","","","","","","","",""
"null","188576","SARL_v6","SARL_v665f25knq","5eb5f6d5e38e9f4e6c8dde3f","fixation","","","img/fixation.png","null","","","test","","","","","","","","","","","","","","","","","","","",""
"85.90000000596046","188671","SARL_v6","SARL_v665f25knq","5eb5f6d5e38e9f4e6c8dde3f","freq","","","img/orange_2bandit_a2.png","70","","70","test","1","","82","","","","square","circle","79","10","4","0.759493670886076","","","","","","","",""
"null","189408","SARL_v6","SARL_v665f25knq","5eb5f6d5e38e9f4e6c8dde3f","freq_resp","","","img/orange_2bandit_a.png","70","img/orange_2bandit_a.png","70","test","","","","","","","","","","","4","","","","","","","","",""
"null","189579","SARL_v6","SARL_v665f25knq","5eb5f6d5e38e9f4e6c8dde3f","fixation","","","img/fixation.png","null","","","test","","","","","","","","","","","","","","","","","","","",""
"93.40000000596046","189682","SARL_v6","SARL_v665f25knq","5eb5f6d5e38e9f4e6c8dde3f","freq","","","img/orange_2bandit_a2.png","70","","70","test","1","","83","","","","square","circle","80","11","4","0.7625","","","","","","","",""
"null","190409","SARL_v6","SARL_v665f25knq","5eb5f6d5e38e9f4e6c8dde3f","freq_resp","","","img/orange_2bandit_a.png","70","img/orange_2bandit_a.png","70","test","","","","","","","","","","","4","","","","","","","","",""
"null","190573","SARL_v6","SARL_v665f25knq","5eb5f6d5e38e9f4e6c8dde3f","fixation","","","img/fixation.png","null","","","test","","","","","","","","","","","","","","","","","","","",""
"64.90000000596046","190647","SARL_v6","SARL_v665f25knq","5eb5f6d5e38e9f4e6c8dde3f","freq","","","img/orange_2bandit_a2.png","70","","70","test","1","","84","","","","square","circle","81","12","4","0.7654320987654321","","","","","","","",""
"null","191404","SARL_v6","SARL_v665f25knq","5eb5f6d5e38e9f4e6c8dde3f","freq_resp","","","img/orange_2bandit_a.png","70","img/orange_2bandit_a.png","70","test","","","","","","","","","","","4","","","","","","","","",""
"null","191573","SARL_v6","SARL_v665f25knq","5eb5f6d5e38e9f4e6c8dde3f","fixation","","","img/fixation.png","null","","","test","","","","","","","","","","","","","","","","","","","",""
"28.69999998807907","191611","SARL_v6","SARL_v665f25knq","5eb5f6d5e38e9f4e6c8dde3f","freq","","","img/orange_2bandit_a2.png","70","","70","test","1","","85","","","","square","circle","82","13","4","0.7682926829268293","","","","","","","",""
"null","192401","SARL_v6","SARL_v665f25knq","5eb5f6d5e38e9f4e6c8dde3f","freq_resp","","","img/orange_2bandit_a.png","70","img/orange_2bandit_a.png","70","test","","","","","","","","","","","4","","","","","","","","",""
"null","192570","SARL_v6","SARL_v665f25knq","5eb5f6d5e38e9f4e6c8dde3f","fixation","","","img/fixation.png","null","","","test","","","","","","","","","","","","","","","","","","","",""
"79.90000000596046","192659","SARL_v6","SARL_v665f25knq","5eb5f6d5e38e9f4e6c8dde3f","infreq","","","img/blue_2bandit_a2.png","70","","68","test","0","","86","","","","square","circle","83","14","4","0.7590361445783133","","","","","","","",""
"null","193400","SARL_v6","SARL_v665f25knq","5eb5f6d5e38e9f4e6c8dde3f","infreq_resp","","","img/blue_2bandit_a.png","70","img/blue_2bandit_a.png","68","test","","","","","","","","","","","4","","","","","","","","",""
"null","193571","SARL_v6","SARL_v665f25knq","5eb5f6d5e38e9f4e6c8dde3f","fixation","","","img/fixation.png","null","","","test","","","","","","","","","","","","","","","","","","","",""
"267.2000000178814","193847","SARL_v6","SARL_v665f25knq","5eb5f6d5e38e9f4e6c8dde3f","freq","","","img/orange_2bandit_a2.png","70","","70","test","1","","87","","","","square","circle","84","15","4","0.7619047619047619","","","","","","","",""
"null","194392","SARL_v6","SARL_v665f25knq","5eb5f6d5e38e9f4e6c8dde3f","freq_resp","","","img/orange_2bandit_a.png","70","img/orange_2bandit_a.png","70","test","","","","","","","","","","","4","","","","","","","","",""
"null","194568","SARL_v6","SARL_v665f25knq","5eb5f6d5e38e9f4e6c8dde3f","fixation","","","img/fixation.png","null","","","test","","","","","","","","","","","","","","","","","","","",""
"null","195378","SARL_v6","SARL_v665f25knq","5eb5f6d5e38e9f4e6c8dde3f","freq","","","img/orange_2bandit_a2.png","null","","70","test","0","","88","","","","square","circle","85","16","4","0.7529411764705882","","","","","","","",""
"null","195552","SARL_v6","SARL_v665f25knq","5eb5f6d5e38e9f4e6c8dde3f","fixation","","","img/fixation.png","null","","","test","","","","","","","","","","","","","","","","","","","",""
"null","196376","SARL_v6","SARL_v665f25knq","5eb5f6d5e38e9f4e6c8dde3f","freq","","","img/orange_2bandit_a2.png","null","","70","test","0","","89","","","","square","circle","86","17","4","0.7441860465116279","","","","","","","",""
"null","196549","SARL_v6","SARL_v665f25knq","5eb5f6d5e38e9f4e6c8dde3f","fixation","","","img/fixation.png","null","","","test","","","","","","","","","","","","","","","","","","","",""
"null","197360","SARL_v6","SARL_v665f25knq","5eb5f6d5e38e9f4e6c8dde3f","freq","","","img/orange_2bandit_a2.png","null","","70","test","0","","90","","","","square","circle","87","18","4","0.735632183908046","","","","","","","",""
"null","197535","SARL_v6","SARL_v665f25knq","5eb5f6d5e38e9f4e6c8dde3f","fixation","","","img/fixation.png","null","","","test","","","","","","","","","","","","","","","","","","","",""
"51.5","197596","SARL_v6","SARL_v665f25knq","5eb5f6d5e38e9f4e6c8dde3f","freq","","","img/orange_2bandit_a2.png","70","","70","test","1","","91","","","","square","circle","88","19","4","0.7386363636363636","","","","","","","",""
"null","198359","SARL_v6","SARL_v665f25knq","5eb5f6d5e38e9f4e6c8dde3f","freq_resp","","","img/orange_2bandit_a.png","70","img/orange_2bandit_a.png","70","test","","","","","","","","","","","4","","","","","","","","",""
"null","198527","SARL_v6","SARL_v665f25knq","5eb5f6d5e38e9f4e6c8dde3f","fixation","","","img/fixation.png","null","","","test","","","","","","","","","","","","","","","","","","","",""
"273.60000002384186","198809","SARL_v6","SARL_v665f25knq","5eb5f6d5e38e9f4e6c8dde3f","freq","","","img/orange_2bandit_a2.png","70","","70","test","1","","92","","","","square","circle","89","20","4","0.7415730337078652","","","","","","","",""
"null","199358","SARL_v6","SARL_v665f25knq","5eb5f6d5e38e9f4e6c8dde3f","freq_resp","","","img/orange_2bandit_a.png","70","img/orange_2bandit_a.png","70","test","","","","","","","","","","","4","","","","","","","","",""
"null","199530","SARL_v6","SARL_v665f25knq","5eb5f6d5e38e9f4e6c8dde3f","fixation","","","img/fixation.png","null","","","test","","","","","","","","","","","","","","","","","","","",""
"522.6000000238419","200063","SARL_v6","SARL_v665f25knq","5eb5f6d5e38e9f4e6c8dde3f","rl","","","img/black_2bandit_a2.png","75","","0","test","","","93","","","-12","square","circle","","0","4","","75","-12","0","0","-12","circle","4","0"
"null","200828","SARL_v6","SARL_v665f25knq","5eb5f6d5e38e9f4e6c8dde3f","feedback","","","<div class=""verylowPoints""> -12 </div>","null","","na","test","","","NaN","","","","","","","","4","","75","","","","","","4",""
"null","201639","SARL_v6","SARL_v665f25knq","5eb5f6d5e38e9f4e6c8dde3f","freq","","","img/orange_2bandit_a2.png","null","","70","test","0","","94","","","","square","circle","90","1","5","0.7333333333333333","","","","","","","",""
"null","201811","SARL_v6","SARL_v665f25knq","5eb5f6d5e38e9f4e6c8dde3f","fixation","","","img/fixation.png","null","","","test","","","","","","","","","","","","","","","","","","","",""
"791.8000000119209","202613","SARL_v6","SARL_v665f25knq","5eb5f6d5e38e9f4e6c8dde3f","freq","","","img/orange_2bandit_a2.png","70","","70","test","1","","95","","","","square","circle","91","2","5","0.7362637362637363","","","","","","","",""
"null","202632","SARL_v6","SARL_v665f25knq","5eb5f6d5e38e9f4e6c8dde3f","freq_resp","","","img/orange_2bandit_a.png","70","img/orange_2bandit_a.png","70","test","","","","","","","","","","","5","","","","","","","","",""
"null","202795","SARL_v6","SARL_v665f25knq","5eb5f6d5e38e9f4e6c8dde3f","fixation","","","img/fixation.png","null","","","test","","","","","","","","","","","","","","","","","","","",""
"735.8000000119209","203540","SARL_v6","SARL_v665f25knq","5eb5f6d5e38e9f4e6c8dde3f","freq","","","img/orange_2bandit_a2.png","70","","70","test","1","","96","","","","square","circle","92","3","5","0.7391304347826086","","","","","","","",""
"null","203628","SARL_v6","SARL_v665f25knq","5eb5f6d5e38e9f4e6c8dde3f","freq_resp","","","img/orange_2bandit_a.png","70","img/orange_2bandit_a.png","70","test","","","","","","","","","","","5","","","","","","","","",""
"null","203792","SARL_v6","SARL_v665f25knq","5eb5f6d5e38e9f4e6c8dde3f","fixation","","","img/fixation.png","null","","","test","","","","","","","","","","","","","","","","","","","",""
"672.5","204475","SARL_v6","SARL_v665f25knq","5eb5f6d5e38e9f4e6c8dde3f","freq","","","img/orange_2bandit_a2.png","70","","70","test","1","","97","","","","square","circle","93","4","5","0.7419354838709677","","","","","","","",""
"null","204624","SARL_v6","SARL_v665f25knq","5eb5f6d5e38e9f4e6c8dde3f","freq_resp","","","img/orange_2bandit_a.png","70","img/orange_2bandit_a.png","70","test","","","","","","","","","","","5","","","","","","","","",""
"null","204794","SARL_v6","SARL_v665f25knq","5eb5f6d5e38e9f4e6c8dde3f","fixation","","","img/fixation.png","null","","","test","","","","","","","","","","","","","","","","","","","",""
"581.0999999940395","205385","SARL_v6","SARL_v665f25knq","5eb5f6d5e38e9f4e6c8dde3f","freq","","","img/orange_2bandit_a2.png","70","","70","test","1","","98","","","","square","circle","94","5","5","0.7446808510638298","","","","","","","",""
"null","205618","SARL_v6","SARL_v665f25knq","5eb5f6d5e38e9f4e6c8dde3f","freq_resp","","","img/orange_2bandit_a.png","70","img/orange_2bandit_a.png","70","test","","","","","","","","","","","5","","","","","","","","",""
"null","205789","SARL_v6","SARL_v665f25knq","5eb5f6d5e38e9f4e6c8dde3f","fixation","","","img/fixation.png","null","","","test","","","","","","","","","","","","","","","","","","","",""
"419","206217","SARL_v6","SARL_v665f25knq","5eb5f6d5e38e9f4e6c8dde3f","infreq","","","img/blue_2bandit_a2.png","68","","68","test","1","","99","","","","square","circle","95","6","5","0.7473684210526316","","","","","","","",""
"null","206609","SARL_v6","SARL_v665f25knq","5eb5f6d5e38e9f4e6c8dde3f","infreq_resp","","","img/blue_2bandit_a.png","68","img/blue_2bandit_a.png","68","test","","","","","","","","","","","5","","","","","","","","",""
"null","206773","SARL_v6","SARL_v665f25knq","5eb5f6d5e38e9f4e6c8dde3f","fixation","","","img/fixation.png","null","","","test","","","","","","","","","","","","","","","","","","","",""
"379.09999999403954","207162","SARL_v6","SARL_v665f25knq","5eb5f6d5e38e9f4e6c8dde3f","freq","","","img/orange_2bandit_a2.png","70","","70","test","1","","100","","","","square","circle","96","7","5","0.75","","","","","","","",""
"null","207605","SARL_v6","SARL_v665f25knq","5eb5f6d5e38e9f4e6c8dde3f","freq_resp","","","img/orange_2bandit_a.png","70","img/orange_2bandit_a.png","70","test","","","","","","","","","","","5","","","","","","","","",""
"null","207770","SARL_v6","SARL_v665f25knq","5eb5f6d5e38e9f4e6c8dde3f","fixation","","","img/fixation.png","null","","","test","","","","","","","","","","","","","","","","","","","",""
"null","208587","SARL_v6","SARL_v665f25knq","5eb5f6d5e38e9f4e6c8dde3f","freq","","","img/orange_2bandit_a2.png","null","","70","test","0","","101","","","","square","circle","97","8","5","0.7422680412371134","","","","","","","",""
"null","208752","SARL_v6","SARL_v665f25knq","5eb5f6d5e38e9f4e6c8dde3f","fixation","","","img/fixation.png","null","","","test","","","","","","","","","","","","","","","","","","","",""
"400.69999998807907","209163","SARL_v6","SARL_v665f25knq","5eb5f6d5e38e9f4e6c8dde3f","freq","","","img/orange_2bandit_a2.png","70","","70","test","1","","102","","","","square","circle","98","9","5","0.7448979591836735","","","","","","","",""
"null","209587","SARL_v6","SARL_v665f25knq","5eb5f6d5e38e9f4e6c8dde3f","freq_resp","","","img/orange_2bandit_a.png","70","img/orange_2bandit_a.png","70","test","","","","","","","","","","","5","","","","","","","","",""
"null","209752","SARL_v6","SARL_v665f25knq","5eb5f6d5e38e9f4e6c8dde3f","fixation","","","img/fixation.png","null","","","test","","","","","","","","","","","","","","","","","","","",""
"663.7000000178814","210425","SARL_v6","SARL_v665f25knq","5eb5f6d5e38e9f4e6c8dde3f","infreq","","","img/blue_2bandit_a2.png","70","","68","test","0","","103","","","","square","circle","99","10","5","0.7373737373737373","","","","","","","",""
"null","210585","SARL_v6","SARL_v665f25knq","5eb5f6d5e38e9f4e6c8dde3f","infreq_resp","","","img/blue_2bandit_a.png","70","img/blue_2bandit_a.png","68","test","","","","","","","","","","","5","","","","","","","","",""
"null","210752","SARL_v6","SARL_v665f25knq","5eb5f6d5e38e9f4e6c8dde3f","fixation","","","img/fixation.png","null","","","test","","","","","","","","","","","","","","","","","","","",""
"690","211452","SARL_v6","SARL_v665f25knq","5eb5f6d5e38e9f4e6c8dde3f","freq","","","img/orange_2bandit_a2.png","70","","70","test","1","","104","","","","square","circle","100","11","5","0.74","","","","","","","",""
"null","211584","SARL_v6","SARL_v665f25knq","5eb5f6d5e38e9f4e6c8dde3f","freq_resp","","","img/orange_2bandit_a.png","70","img/orange_2bandit_a.png","70","test","","","","","","","","","","","5","","","","","","","","",""
"null","211748","SARL_v6","SARL_v665f25knq","5eb5f6d5e38e9f4e6c8dde3f","fixation","","","img/fixation.png","null","","","test","","","","","","","","","","","","","","","","","","","",""
"690.4000000059605","212449","SARL_v6","SARL_v665f25knq","5eb5f6d5e38e9f4e6c8dde3f","freq","","","img/orange_2bandit_a2.png","70","","70","test","1","","105","","","","square","circle","101","12","5","0.7425742574257426","","","","","","","",""
"null","212584","SARL_v6","SARL_v665f25knq","5eb5f6d5e38e9f4e6c8dde3f","freq_resp","","","img/orange_2bandit_a.png","70","img/orange_2bandit_a.png","70","test","","","","","","","","","","","5","","","","","","","","",""
"null","212748","SARL_v6","SARL_v665f25knq","5eb5f6d5e38e9f4e6c8dde3f","fixation","","","img/fixation.png","null","","","test","","","","","","","","","","","","","","","","","","","",""
"684.3000000119209","213441","SARL_v6","SARL_v665f25knq","5eb5f6d5e38e9f4e6c8dde3f","freq","","","img/orange_2bandit_a2.png","70","","70","test","1","","106","","","","square","circle","102","13","5","0.7450980392156863","","","","","","","",""
"null","213584","SARL_v6","SARL_v665f25knq","5eb5f6d5e38e9f4e6c8dde3f","freq_resp","","","img/orange_2bandit_a.png","70","img/orange_2bandit_a.png","70","test","","","","","","","","","","","5","","","","","","","","",""
"null","213751","SARL_v6","SARL_v665f25knq","5eb5f6d5e38e9f4e6c8dde3f","fixation","","","img/fixation.png","null","","","test","","","","","","","","","","","","","","","","","","","",""
"628.5999999940395","214390","SARL_v6","SARL_v665f25knq","5eb5f6d5e38e9f4e6c8dde3f","freq","","","img/orange_2bandit_a2.png","70","","70","test","1","","107","","","","square","circle","103","14","5","0.7475728155339806","","","","","","","",""
"null","214578","SARL_v6","SARL_v665f25knq","5eb5f6d5e38e9f4e6c8dde3f","freq_resp","","","img/orange_2bandit_a.png","70","img/orange_2bandit_a.png","70","test","","","","","","","","","","","5","","","","","","","","",""
"null","214746","SARL_v6","SARL_v665f25knq","5eb5f6d5e38e9f4e6c8dde3f","fixation","","","img/fixation.png","null","","","test","","","","","","","","","","","","","","","","","","","",""
"null","215572","SARL_v6","SARL_v665f25knq","5eb5f6d5e38e9f4e6c8dde3f","freq","","","img/orange_2bandit_a2.png","null","","70","test","0","","108","","","","square","circle","104","15","5","0.7403846153846154","","","","","","","",""
"null","215745","SARL_v6","SARL_v665f25knq","5eb5f6d5e38e9f4e6c8dde3f","fixation","","","img/fixation.png","null","","","test","","","","","","","","","","","","","","","","","","","",""
"54","215808","SARL_v6","SARL_v665f25knq","5eb5f6d5e38e9f4e6c8dde3f","freq","","","img/orange_2bandit_a2.png","70","","70","test","1","","109","","","","square","circle","105","16","5","0.7428571428571429","","","","","","","",""
"null","216573","SARL_v6","SARL_v665f25knq","5eb5f6d5e38e9f4e6c8dde3f","freq_resp","","","img/orange_2bandit_a.png","70","img/orange_2bandit_a.png","70","test","","","","","","","","","","","5","","","","","","","","",""
"null","216743","SARL_v6","SARL_v665f25knq","5eb5f6d5e38e9f4e6c8dde3f","fixation","","","img/fixation.png","null","","","test","","","","","","","","","","","","","","","","","","","",""
"307.2999999821186","217061","SARL_v6","SARL_v665f25knq","5eb5f6d5e38e9f4e6c8dde3f","freq","","","img/orange_2bandit_a2.png","70","","70","test","1","","110","","","","square","circle","106","17","5","0.7452830188679245","","","","","","","",""
"null","217569","SARL_v6","SARL_v665f25knq","5eb5f6d5e38e9f4e6c8dde3f","freq_resp","","","img/orange_2bandit_a.png","70","img/orange_2bandit_a.png","70","test","","","","","","","","","","","5","","","","","","","","",""
"null","217740","SARL_v6","SARL_v665f25knq","5eb5f6d5e38e9f4e6c8dde3f","fixation","","","img/fixation.png","null","","","test","","","","","","","","","","","","","","","","","","","",""
"650.5999999940395","218398","SARL_v6","SARL_v665f25knq","5eb5f6d5e38e9f4e6c8dde3f","infreq","","","img/blue_2bandit_a2.png","68","","68","test","1","","111","","","","square","circle","107","18","5","0.7476635514018691","","","","","","","",""
"null","218557","SARL_v6","SARL_v665f25knq","5eb5f6d5e38e9f4e6c8dde3f","infreq_resp","","","img/blue_2bandit_a.png","68","img/blue_2bandit_a.png","68","test","","","","","","","","","","","5","","","","","","","","",""
"null","218725","SARL_v6","SARL_v665f25knq","5eb5f6d5e38e9f4e6c8dde3f","fixation","","","img/fixation.png","null","","","test","","","","","","","","","","","","","","","","","","","",""
"646.0999999940395","219381","SARL_v6","SARL_v665f25knq","5eb5f6d5e38e9f4e6c8dde3f","freq","","","img/orange_2bandit_a2.png","70","","70","test","1","","112","","","","square","circle","108","19","5","0.75","","","","","","","",""
"null","219555","SARL_v6","SARL_v665f25knq","5eb5f6d5e38e9f4e6c8dde3f","freq_resp","","","img/orange_2bandit_a.png","70","img/orange_2bandit_a.png","70","test","","","","","","","","","","","5","","","","","","","","",""
"null","219723","SARL_v6","SARL_v665f25knq","5eb5f6d5e38e9f4e6c8dde3f","fixation","","","img/fixation.png","null","","","test","","","","","","","","","","","","","","","","","","","",""
"512.6999999880791","220245","SARL_v6","SARL_v665f25knq","5eb5f6d5e38e9f4e6c8dde3f","freq","","","img/orange_2bandit_a2.png","70","","70","test","1","","113","","","","square","circle","109","20","5","0.7522935779816514","","","","","","","",""
"null","220553","SARL_v6","SARL_v665f25knq","5eb5f6d5e38e9f4e6c8dde3f","freq_resp","","","img/orange_2bandit_a.png","70","img/orange_2bandit_a.png","70","test","","","","","","","","","","","5","","","","","","","","",""
"null","220723","SARL_v6","SARL_v665f25knq","5eb5f6d5e38e9f4e6c8dde3f","fixation","","","img/fixation.png","null","","","test","","","","","","","","","","","","","","","","","","","",""
"420.09999999403954","221153","SARL_v6","SARL_v665f25knq","5eb5f6d5e38e9f4e6c8dde3f","freq","","","img/orange_2bandit_a2.png","70","","70","test","1","","114","","","","square","circle","110","21","5","0.7545454545454545","","","","","","","",""
"null","221558","SARL_v6","SARL_v665f25knq","5eb5f6d5e38e9f4e6c8dde3f","freq_resp","","","img/orange_2bandit_a.png","70","img/orange_2bandit_a.png","70","test","","","","","","","","","","","5","","","","","","","","",""
"null","221725","SARL_v6","SARL_v665f25knq","5eb5f6d5e38e9f4e6c8dde3f","fixation","","","img/fixation.png","null","","","test","","","","","","","","","","","","","","","","","","","",""
"381.90000000596046","222116","SARL_v6","SARL_v665f25knq","5eb5f6d5e38e9f4e6c8dde3f","freq","","","img/orange_2bandit_a2.png","70","","70","test","1","","115","","","","square","circle","111","22","5","0.7567567567567568","","","","","","","",""
"null","222553","SARL_v6","SARL_v665f25knq","5eb5f6d5e38e9f4e6c8dde3f","freq_resp","","","img/orange_2bandit_a.png","70","img/orange_2bandit_a.png","70","test","","","","","","","","","","","5","","","","","","","","",""
"null","222720","SARL_v6","SARL_v665f25knq","5eb5f6d5e38e9f4e6c8dde3f","fixation","","","img/fixation.png","null","","","test","","","","","","","","","","","","","","","","","","","",""
"333.09999999403954","223060","SARL_v6","SARL_v665f25knq","5eb5f6d5e38e9f4e6c8dde3f","freq","","","img/orange_2bandit_a2.png","70","","70","test","1","","116","","","","square","circle","112","23","5","0.7589285714285714","","","","","","","",""
"null","223549","SARL_v6","SARL_v665f25knq","5eb5f6d5e38e9f4e6c8dde3f","freq_resp","","","img/orange_2bandit_a.png","70","img/orange_2bandit_a.png","70","test","","","","","","","","","","","5","","","","","","","","",""
"null","223719","SARL_v6","SARL_v665f25knq","5eb5f6d5e38e9f4e6c8dde3f","fixation","","","img/fixation.png","null","","","test","","","","","","","","","","","","","","","","","","","",""
"515","224244","SARL_v6","SARL_v665f25knq","5eb5f6d5e38e9f4e6c8dde3f","rl","","","img/black_2bandit_a2.png","75","","0","test","","","117","","","-7","square","circle","","0","5","","75","-7","4","4","-7","circle","5","0"
"null","225017","SARL_v6","SARL_v665f25knq","5eb5f6d5e38e9f4e6c8dde3f","feedback","","","<div class=""verylowPoints""> -7 </div>","null","","na","test","","","NaN","","","","","","","","5","","75","","","","","","5",""
"645.0999999940395","225672","SARL_v6","SARL_v665f25knq","5eb5f6d5e38e9f4e6c8dde3f","freq","","","img/orange_2bandit_a2.png","70","","70","test","1","","118","","","","square","circle","113","1","6","0.7610619469026548","","","","","","","",""
"null","225850","SARL_v6","SARL_v665f25knq","5eb5f6d5e38e9f4e6c8dde3f","freq_resp","","","img/orange_2bandit_a.png","70","img/orange_2bandit_a.png","70","test","","","","","","","","","","","6","","","","","","","","",""
"null","226016","SARL_v6","SARL_v665f25knq","5eb5f6d5e38e9f4e6c8dde3f","fixation","","","img/fixation.png","null","","","test","","","","","","","","","","","","","","","","","","","",""
"790.0999999940395","226817","SARL_v6","SARL_v665f25knq","5eb5f6d5e38e9f4e6c8dde3f","freq","","","img/orange_2bandit_a2.png","70","","70","test","1","","119","","","","square","circle","114","2","6","0.7631578947368421","","","","","","","",""
"null","226836","SARL_v6","SARL_v665f25knq","5eb5f6d5e38e9f4e6c8dde3f","freq_resp","","","img/orange_2bandit_a.png","70","img/orange_2bandit_a.png","70","test","","","","","","","","","","","6","","","","","","","","",""
"null","227005","SARL_v6","SARL_v665f25knq","5eb5f6d5e38e9f4e6c8dde3f","fixation","","","img/fixation.png","null","","","test","","","","","","","","","","","","","","","","","","","",""
"610","227624","SARL_v6","SARL_v665f25knq","5eb5f6d5e38e9f4e6c8dde3f","freq","","","img/orange_2bandit_a2.png","70","","70","test","1","","120","","","","square","circle","115","3","6","0.7652173913043478","","","","","","","",""
"null","227829","SARL_v6","SARL_v665f25knq","5eb5f6d5e38e9f4e6c8dde3f","freq_resp","","","img/orange_2bandit_a.png","70","img/orange_2bandit_a.png","70","test","","","","","","","","","","","6","","","","","","","","",""
"null","227997","SARL_v6","SARL_v665f25knq","5eb5f6d5e38e9f4e6c8dde3f","fixation","","","img/fixation.png","null","","","test","","","","","","","","","","","","","","","","","","","",""
"451","228457","SARL_v6","SARL_v665f25knq","5eb5f6d5e38e9f4e6c8dde3f","freq","","","img/orange_2bandit_a2.png","70","","70","test","1","","121","","","","square","circle","116","4","6","0.7672413793103449","","","","","","","",""
"null","228818","SARL_v6","SARL_v665f25knq","5eb5f6d5e38e9f4e6c8dde3f","freq_resp","","","img/orange_2bandit_a.png","70","img/orange_2bandit_a.png","70","test","","","","","","","","","","","6","","","","","","","","",""
"null","228996","SARL_v6","SARL_v665f25knq","5eb5f6d5e38e9f4e6c8dde3f","fixation","","","img/fixation.png","null","","","test","","","","","","","","","","","","","","","","","","","",""
"328","229334","SARL_v6","SARL_v665f25knq","5eb5f6d5e38e9f4e6c8dde3f","infreq","","","img/blue_2bandit_a2.png","68","","68","test","1","","122","","","","square","circle","117","5","6","0.7692307692307693","","","","","","","",""
"null","229832","SARL_v6","SARL_v665f25knq","5eb5f6d5e38e9f4e6c8dde3f","infreq_resp","","","img/blue_2bandit_a.png","68","img/blue_2bandit_a.png","68","test","","","","","","","","","","","6","","","","","","","","",""
"null","229998","SARL_v6","SARL_v665f25knq","5eb5f6d5e38e9f4e6c8dde3f","fixation","","","img/fixation.png","null","","","test","","","","","","","","","","","","","","","","","","","",""
"450.90000000596046","230459","SARL_v6","SARL_v665f25knq","5eb5f6d5e38e9f4e6c8dde3f","infreq","","","img/blue_2bandit_a2.png","68","","68","test","1","","123","","","","square","circle","118","6","6","0.7711864406779662","","","","","","","",""
"null","230830","SARL_v6","SARL_v665f25knq","5eb5f6d5e38e9f4e6c8dde3f","infreq_resp","","","img/blue_2bandit_a.png","68","img/blue_2bandit_a.png","68","test","","","","","","","","","","","6","","","","","","","","",""
"null","230997","SARL_v6","SARL_v665f25knq","5eb5f6d5e38e9f4e6c8dde3f","fixation","","","img/fixation.png","null","","","test","","","","","","","","","","","","","","","","","","","",""
"369.10000002384186","231379","SARL_v6","SARL_v665f25knq","5eb5f6d5e38e9f4e6c8dde3f","freq","","","img/orange_2bandit_a2.png","70","","70","test","1","","124","","","","square","circle","119","7","6","0.773109243697479","","","","","","","",""
"null","231831","SARL_v6","SARL_v665f25knq","5eb5f6d5e38e9f4e6c8dde3f","freq_resp","","","img/orange_2bandit_a.png","70","img/orange_2bandit_a.png","70","test","","","","","","","","","","","6","","","","","","","","",""
"null","231992","SARL_v6","SARL_v665f25knq","5eb5f6d5e38e9f4e6c8dde3f","fixation","","","img/fixation.png","null","","","test","","","","","","","","","","","","","","","","","","","",""
"309.2999999821186","232312","SARL_v6","SARL_v665f25knq","5eb5f6d5e38e9f4e6c8dde3f","freq","","","img/orange_2bandit_a2.png","70","","70","test","1","","125","","","","square","circle","120","8","6","0.775","","","","","","","",""
"null","232819","SARL_v6","SARL_v665f25knq","5eb5f6d5e38e9f4e6c8dde3f","freq_resp","","","img/orange_2bandit_a.png","70","img/orange_2bandit_a.png","70","test","","","","","","","","","","","6","","","","","","","","",""
"null","232992","SARL_v6","SARL_v665f25knq","5eb5f6d5e38e9f4e6c8dde3f","fixation","","","img/fixation.png","null","","","test","","","","","","","","","","","","","","","","","","","",""
"156.2000000178814","233156","SARL_v6","SARL_v665f25knq","5eb5f6d5e38e9f4e6c8dde3f","freq","","","img/orange_2bandit_a2.png","70","","70","test","1","","126","","","","square","circle","121","9","6","0.7768595041322314","","","","","","","",""
"null","233811","SARL_v6","SARL_v665f25knq","5eb5f6d5e38e9f4e6c8dde3f","freq_resp","","","img/orange_2bandit_a.png","70","img/orange_2bandit_a.png","70","test","","","","","","","","","","","6","","","","","","","","",""
"null","233975","SARL_v6","SARL_v665f25knq","5eb5f6d5e38e9f4e6c8dde3f","fixation","","","img/fixation.png","null","","","test","","","","","","","","","","","","","","","","","","","",""
"329.19999998807907","234314","SARL_v6","SARL_v665f25knq","5eb5f6d5e38e9f4e6c8dde3f","freq","","","img/orange_2bandit_a2.png","70","","70","test","1","","127","","","","square","circle","122","10","6","0.7786885245901639","","","","","","","",""
"null","234804","SARL_v6","SARL_v665f25knq","5eb5f6d5e38e9f4e6c8dde3f","freq_resp","","","img/orange_2bandit_a.png","70","img/orange_2bandit_a.png","70","test","","","","","","","","","","","6","","","","","","","","",""
"null","234972","SARL_v6","SARL_v665f25knq","5eb5f6d5e38e9f4e6c8dde3f","fixation","","","img/fixation.png","null","","","test","","","","","","","","","","","","","","","","","","","",""
"394.39999997615814","235376","SARL_v6","SARL_v665f25knq","5eb5f6d5e38e9f4e6c8dde3f","freq","","","img/orange_2bandit_a2.png","70","","70","test","1","","128","","","","square","circle","123","11","6","0.7804878048780488","","","","","","","",""
"null","235792","SARL_v6","SARL_v665f25knq","5eb5f6d5e38e9f4e6c8dde3f","freq_resp","","","img/orange_2bandit_a.png","70","img/orange_2bandit_a.png","70","test","","","","","","","","","","","6","","","","","","","","",""
"null","235957","SARL_v6","SARL_v665f25knq","5eb5f6d5e38e9f4e6c8dde3f","fixation","","","img/fixation.png","null","","","test","","","","","","","","","","","","","","","","","","","",""
"527.5","236492","SARL_v6","SARL_v665f25knq","5eb5f6d5e38e9f4e6c8dde3f","freq","","","img/orange_2bandit_a2.png","70","","70","test","1","","129","","","","square","circle","124","12","6","0.782258064516129","","","","","","","",""
"null","236783","SARL_v6","SARL_v665f25knq","5eb5f6d5e38e9f4e6c8dde3f","freq_resp","","","img/orange_2bandit_a.png","70","img/orange_2bandit_a.png","70","test","","","","","","","","","","","6","","","","","","","","",""
"null","236955","SARL_v6","SARL_v665f25knq","5eb5f6d5e38e9f4e6c8dde3f","fixation","","","img/fixation.png","null","","","test","","","","","","","","","","","","","","","","","","","",""
"481.90000000596046","237446","SARL_v6","SARL_v665f25knq","5eb5f6d5e38e9f4e6c8dde3f","freq","","","img/orange_2bandit_a2.png","70","","70","test","1","","130","","","","square","circle","125","13","6","0.784","","","","","","","",""
"null","237777","SARL_v6","SARL_v665f25knq","5eb5f6d5e38e9f4e6c8dde3f","freq_resp","","","img/orange_2bandit_a.png","70","img/orange_2bandit_a.png","70","test","","","","","","","","","","","6","","","","","","","","",""
"null","237951","SARL_v6","SARL_v665f25knq","5eb5f6d5e38e9f4e6c8dde3f","fixation","","","img/fixation.png","null","","","test","","","","","","","","","","","","","","","","","","","",""
"400.69999998807907","238359","SARL_v6","SARL_v665f25knq","5eb5f6d5e38e9f4e6c8dde3f","freq","","","img/orange_2bandit_a2.png","70","","70","test","1","","131","","","","square","circle","126","14","6","0.7857142857142857","","","","","","","",""
"null","238769","SARL_v6","SARL_v665f25knq","5eb5f6d5e38e9f4e6c8dde3f","freq_resp","","","img/orange_2bandit_a.png","70","img/orange_2bandit_a.png","70","test","","","","","","","","","","","6","","","","","","","","",""
"null","238935","SARL_v6","SARL_v665f25knq","5eb5f6d5e38e9f4e6c8dde3f","fixation","","","img/fixation.png","null","","","test","","","","","","","","","","","","","","","","","","","",""
"308.09999999403954","239253","SARL_v6","SARL_v665f25knq","5eb5f6d5e38e9f4e6c8dde3f","freq","","","img/orange_2bandit_a2.png","70","","70","test","1","","132","","","","square","circle","127","15","6","0.7874015748031497","","","","","","","",""
"null","239762","SARL_v6","SARL_v665f25knq","5eb5f6d5e38e9f4e6c8dde3f","freq_resp","","","img/orange_2bandit_a.png","70","img/orange_2bandit_a.png","70","test","","","","","","","","","","","6","","","","","","","","",""
"null","239934","SARL_v6","SARL_v665f25knq","5eb5f6d5e38e9f4e6c8dde3f","fixation","","","img/fixation.png","null","","","test","","","","","","","","","","","","","","","","","","","",""
"323","240268","SARL_v6","SARL_v665f25knq","5eb5f6d5e38e9f4e6c8dde3f","freq","","","img/orange_2bandit_a2.png","70","","70","test","1","","133","","","","square","circle","128","16","6","0.7890625","","","","","","","",""
"null","240763","SARL_v6","SARL_v665f25knq","5eb5f6d5e38e9f4e6c8dde3f","freq_resp","","","img/orange_2bandit_a.png","70","img/orange_2bandit_a.png","70","test","","","","","","","","","","","6","","","","","","","","",""
"null","240933","SARL_v6","SARL_v665f25knq","5eb5f6d5e38e9f4e6c8dde3f","fixation","","","img/fixation.png","null","","","test","","","","","","","","","","","","","","","","","","","",""
