"rt","time_elapsed","expId","subject","prolificID","trialType","rlType","attType","stimulus","key_press","stim","corrresp","phase","corr","pracCounter","trialNum","rewardOne","rewardTwo","reward","bandOne","bandTwo","attentionNum","attentionRunNum","blockNum","performance","bandChosen","circleVal","squareVal","bandOneVal","bandTwoVal","shapeChosen","rlNum","badFlag"
"6132.799999982119","6144","SARL_v6","SARL_v60mytxduf","58d165dff7a08b000176c54c","","","","","","","","","","","","","","","","","","","","","","","","","","","",""
"","8945","SARL_v6","SARL_v60mytxduf","58d165dff7a08b000176c54c","fullscreen","fullscreen","fullscreen","","","","","","","","","","","","","","","","","","","","","","","","",""
"52805.29999998212","61763","SARL_v6","SARL_v60mytxduf","58d165dff7a08b000176c54c","","","","","","","","","","","","","","","","","","","","","","","","","","","",""
"null","62575","SARL_v6","SARL_v60mytxduf","58d165dff7a08b000176c54c","freqPrac","","","img/orange_2bandit_b2.png","null","img/orange_2bandit_b2.png","70","prac","0","1","","","","","","","","","","","","","","","","","",""
"null","63589","SARL_v6","SARL_v60mytxduf","58d165dff7a08b000176c54c","feedback","","","img/tooSlow.png","null","","na","prac","","","","","","","","","","","","","","","","","","","",""
"null","63748","SARL_v6","SARL_v60mytxduf","58d165dff7a08b000176c54c","fixation","","","img/fixation.png","null","","","prac","","","","","","","","","","","","","","","","","","","",""
"410","64165","SARL_v6","SARL_v60mytxduf","58d165dff7a08b000176c54c","infreqPrac","","","img/blue_2bandit_b2.png","68","img/blue_2bandit_b2.png","68","prac","1","1","","","","","","","","","","","","","","","","","",""
"410","64564","SARL_v6","SARL_v60mytxduf","58d165dff7a08b000176c54c","infreqPrac_resp","","","img/blue_2bandit_b.png","68","img/blue_2bandit_b.png","68","prac","","","","","","","","","","","","","","","","","","","",""
"null","64724","SARL_v6","SARL_v60mytxduf","58d165dff7a08b000176c54c","fixation","","","img/fixation.png","null","","","prac","","","","","","","","","","","","","","","","","","","",""
"366","65097","SARL_v6","SARL_v60mytxduf","58d165dff7a08b000176c54c","freqPrac","","","img/orange_2bandit_b2.png","68","img/orange_2bandit_b2.png","70","prac","0","2","","","","","","","","","","","","","","","","","",""
"366","65540","SARL_v6","SARL_v60mytxduf","58d165dff7a08b000176c54c","freqPrac_resp","","","img/orange_2bandit_b.png","68","img/orange_2bandit_b.png","70","prac","","","","","","","","","","","","","","","","","","","",""
"null","66547","SARL_v6","SARL_v60mytxduf","58d165dff7a08b000176c54c","feedback","","","img/wrongKey.png","null","","na","prac","","","","","","","","","","","","","","","","","","","",""
"null","66708","SARL_v6","SARL_v60mytxduf","58d165dff7a08b000176c54c","fixation","","","img/fixation.png","null","","","prac","","","","","","","","","","","","","","","","","","","",""
"640.9000000059605","67356","SARL_v6","SARL_v60mytxduf","58d165dff7a08b000176c54c","infreqPrac","","","img/blue_2bandit_b2.png","70","img/blue_2bandit_b2.png","68","prac","0","3","","","","","","","","","","","","","","","","","",""
"640.9000000059605","67524","SARL_v6","SARL_v60mytxduf","58d165dff7a08b000176c54c","infreqPrac_resp","","","img/blue_2bandit_b.png","70","img/blue_2bandit_b.png","68","prac","","","","","","","","","","","","","","","","","","","",""
"null","68531","SARL_v6","SARL_v60mytxduf","58d165dff7a08b000176c54c","feedback","","","img/wrongKey.png","null","","na","prac","","","","","","","","","","","","","","","","","","","",""
"null","68692","SARL_v6","SARL_v60mytxduf","58d165dff7a08b000176c54c","fixation","","","img/fixation.png","null","","","prac","","","","","","","","","","","","","","","","","","","",""
"524.4000000059605","69223","SARL_v6","SARL_v60mytxduf","58d165dff7a08b000176c54c","infreqPrac","","","img/blue_2bandit_b2.png","68","img/blue_2bandit_b2.png","68","prac","1","3","","","","","","","","","","","","","","","","","",""
"524.4000000059605","69507","SARL_v6","SARL_v60mytxduf","58d165dff7a08b000176c54c","infreqPrac_resp","","","img/blue_2bandit_b.png","68","img/blue_2bandit_b.png","68","prac","","","","","","","","","","","","","","","","","","","",""
"null","69667","SARL_v6","SARL_v60mytxduf","58d165dff7a08b000176c54c","fixation","","","img/fixation.png","null","","","prac","","","","","","","","","","","","","","","","","","","",""
"364.5","70038","SARL_v6","SARL_v60mytxduf","58d165dff7a08b000176c54c","infreqPrac","","","img/blue_2bandit_b2.png","68","img/blue_2bandit_b2.png","68","prac","1","3","","","","","","","","","","","","","","","","","",""
"364.5","70483","SARL_v6","SARL_v60mytxduf","58d165dff7a08b000176c54c","infreqPrac_resp","","","img/blue_2bandit_b.png","68","img/blue_2bandit_b.png","68","prac","","","","","","","","","","","","","","","","","","","",""
"118.5","70644","SARL_v6","SARL_v60mytxduf","58d165dff7a08b000176c54c","fixation","","","img/fixation.png","68","","","prac","","","","","","","","","","","","","","","","","","","",""
"440.90000000596046","71091","SARL_v6","SARL_v60mytxduf","58d165dff7a08b000176c54c","freqPrac","","","img/orange_2bandit_b2.png","70","img/orange_2bandit_b2.png","70","prac","1","3","","","","","","","","","","","","","","","","","",""
"440.90000000596046","71460","SARL_v6","SARL_v60mytxduf","58d165dff7a08b000176c54c","freqPrac_resp","","","img/orange_2bandit_b.png","70","img/orange_2bandit_b.png","70","prac","","","","","","","","","","","","","","","","","","","",""
"null","71619","SARL_v6","SARL_v60mytxduf","58d165dff7a08b000176c54c","fixation","","","img/fixation.png","null","","","prac","","","","","","","","","","","","","","","","","","","",""
"528.3000000119209","72154","SARL_v6","SARL_v60mytxduf","58d165dff7a08b000176c54c","infreqPrac","","","img/blue_2bandit_b2.png","68","img/blue_2bandit_b2.png","68","prac","1","3","","","","","","","","","","","","","","","","","",""
"528.3000000119209","72435","SARL_v6","SARL_v60mytxduf","58d165dff7a08b000176c54c","infreqPrac_resp","","","img/blue_2bandit_b.png","68","img/blue_2bandit_b.png","68","prac","","","","","","","","","","","","","","","","","","","",""
"null","72595","SARL_v6","SARL_v60mytxduf","58d165dff7a08b000176c54c","fixation","","","img/fixation.png","null","","","prac","","","","","","","","","","","","","","","","","","","",""
"582.6999999880791","73185","SARL_v6","SARL_v60mytxduf","58d165dff7a08b000176c54c","freqPrac","","","img/orange_2bandit_b2.png","70","img/orange_2bandit_b2.png","70","prac","1","3","","","","","","","","","","","","","","","","","",""
"582.6999999880791","73411","SARL_v6","SARL_v60mytxduf","58d165dff7a08b000176c54c","freqPrac_resp","","","img/orange_2bandit_b.png","70","img/orange_2bandit_b.png","70","prac","","","","","","","","","","","","","","","","","","","",""
"null","73571","SARL_v6","SARL_v60mytxduf","58d165dff7a08b000176c54c","fixation","","","img/fixation.png","null","","","prac","","","","","","","","","","","","","","","","","","","",""
"396.40000000596046","73974","SARL_v6","SARL_v60mytxduf","58d165dff7a08b000176c54c","freqPrac","","","img/orange_2bandit_b2.png","70","img/orange_2bandit_b2.png","70","prac","1","3","","","","","","","","","","","","","","","","","",""
"396.40000000596046","74387","SARL_v6","SARL_v60mytxduf","58d165dff7a08b000176c54c","freqPrac_resp","","","img/orange_2bandit_b.png","70","img/orange_2bandit_b.png","70","prac","","","","","","","","","","","","","","","","","","","",""
"null","74547","SARL_v6","SARL_v60mytxduf","58d165dff7a08b000176c54c","fixation","","","img/fixation.png","null","","","prac","","","","","","","","","","","","","","","","","","","",""
"42972.79999998212","117526","SARL_v6","SARL_v60mytxduf","58d165dff7a08b000176c54c","","","","","","","","prac","","","","","","","","","","","","","","","","","","","",""
"1171.6000000238419","118705","SARL_v6","SARL_v60mytxduf","58d165dff7a08b000176c54c","rlPractice","","","img/black_2bandit_b2.png","74","img/black_2bandit_b2.png","","prac","","","0","","","","","","","","","","","","","","","","",""
"null","119468","SARL_v6","SARL_v60mytxduf","58d165dff7a08b000176c54c","feedback","","","<div class=""veryhighPoints""> 10 </div>","null","","na","prac","","","1","10","-14","10","","","","","","","","","","","","","",""
"null","119627","SARL_v6","SARL_v60mytxduf","58d165dff7a08b000176c54c","fixation","","","img/fixation.png","null","","","prac","","","","","","","","","","","","","","","","","","","",""
"1200.7999999821186","120835","SARL_v6","SARL_v60mytxduf","58d165dff7a08b000176c54c","rlPractice","","","img/black_2bandit_b2.png","74","img/black_2bandit_b2.png","","prac","","","1","","","","","","","","","","","","","","","","",""
"null","121595","SARL_v6","SARL_v60mytxduf","58d165dff7a08b000176c54c","feedback","","","<div class=""veryhighPoints""> 5 </div>","null","","na","prac","","","2","5","-5","5","","","","","","","","","","","","","",""
"null","121755","SARL_v6","SARL_v60mytxduf","58d165dff7a08b000176c54c","fixation","","","img/fixation.png","null","","","prac","","","","","","","","","","","","","","","","","","","",""
"817.2000000178814","122579","SARL_v6","SARL_v60mytxduf","58d165dff7a08b000176c54c","rlPractice","","","img/black_2bandit_b2.png","74","img/black_2bandit_b2.png","","prac","","","2","","","","","","","","","","","","","","","","",""
"null","123339","SARL_v6","SARL_v60mytxduf","58d165dff7a08b000176c54c","feedback","","","<div class=""veryhighPoints""> 30 </div>","null","","na","prac","","","3","30","2","30","","","","","","","","","","","","","",""
"null","123499","SARL_v6","SARL_v60mytxduf","58d165dff7a08b000176c54c","fixation","","","img/fixation.png","null","","","prac","","","","","","","","","","","","","","","","","","","",""
"651.6000000238419","124158","SARL_v6","SARL_v60mytxduf","58d165dff7a08b000176c54c","rlPractice","","","img/black_2bandit_b2.png","74","img/black_2bandit_b2.png","","prac","","","3","","","","","","","","","","","","","","","","",""
"null","124916","SARL_v6","SARL_v60mytxduf","58d165dff7a08b000176c54c","feedback","","","<div class=""verylowPoints""> -2 </div>","null","","na","prac","","","4","-2","20","-2","","","","","","","","","","","","","",""
"null","125075","SARL_v6","SARL_v60mytxduf","58d165dff7a08b000176c54c","fixation","","","img/fixation.png","null","","","prac","","","","","","","","","","","","","","","","","","","",""
"41251","166332","SARL_v6","SARL_v60mytxduf","58d165dff7a08b000176c54c","","","","","","","","prac","","","","","","","","","","","","","","","","","","","",""
"758.5","167097","SARL_v6","SARL_v60mytxduf","58d165dff7a08b000176c54c","mixAttFreqPrac","","","img/orange_2bandit_b2.png","70","img/orange_2bandit_b2.png","70","prac","","","1","","","","","","","","","","","","","","","","",""
"758.5","167147","SARL_v6","SARL_v60mytxduf","58d165dff7a08b000176c54c","freqPrac_resp","","","img/orange_2bandit_b.png","70","img/orange_2bandit_b.png","70","prac","","","1","","","","","","","","","","","","","","","","",""
"null","167308","SARL_v6","SARL_v60mytxduf","58d165dff7a08b000176c54c","fixation","","","img/fixation.png","null","","","prac","","","","","","","","","","","","","","","","","","","",""
"683.4000000059605","167997","SARL_v6","SARL_v60mytxduf","58d165dff7a08b000176c54c","mixAttInfreqPrac","","","img/blue_2bandit_b2.png","68","img/blue_2bandit_b2.png","68","prac","","","2","","","","","","","","","","","","","","","","",""
"683.4000000059605","168124","SARL_v6","SARL_v60mytxduf","58d165dff7a08b000176c54c","infreqPrac_resp","","","img/blue_2bandit_b.png","68","img/orange_2bandit_b.png","68","prac","","","2","","","","","","","","","","","","","","","","",""
"null","168283","SARL_v6","SARL_v60mytxduf","58d165dff7a08b000176c54c","fixation","","","img/fixation.png","null","","","prac","","","","","","","","","","","","","","","","","","","",""
"502.40000000596046","168792","SARL_v6","SARL_v60mytxduf","58d165dff7a08b000176c54c","mixAttInfreqPrac","","","img/blue_2bandit_b2.png","68","img/blue_2bandit_b2.png","68","prac","","","3","","","","","","","","","","","","","","","","",""
"502.40000000596046","169099","SARL_v6","SARL_v60mytxduf","58d165dff7a08b000176c54c","infreqPrac_resp","","","img/blue_2bandit_b.png","68","img/orange_2bandit_b.png","68","prac","","","3","","","","","","","","","","","","","","","","",""
"null","169259","SARL_v6","SARL_v60mytxduf","58d165dff7a08b000176c54c","fixation","","","img/fixation.png","null","","","prac","","","","","","","","","","","","","","","","","","","",""
"434.90000000596046","169701","SARL_v6","SARL_v60mytxduf","58d165dff7a08b000176c54c","mixAttInfreqPrac","","","img/blue_2bandit_b2.png","68","img/blue_2bandit_b2.png","68","prac","","","4","","","","","","","","","","","","","","","","",""
"434.90000000596046","170075","SARL_v6","SARL_v60mytxduf","58d165dff7a08b000176c54c","infreqPrac_resp","","","img/blue_2bandit_b.png","68","img/orange_2bandit_b.png","68","prac","","","4","","","","","","","","","","","","","","","","",""
"null","170235","SARL_v6","SARL_v60mytxduf","58d165dff7a08b000176c54c","fixation","","","img/fixation.png","null","","","prac","","","","","","","","","","","","","","","","","","","",""
"604.8000000119209","170846","SARL_v6","SARL_v60mytxduf","58d165dff7a08b000176c54c","mixAttFreqPrac","","","img/orange_2bandit_b2.png","70","img/orange_2bandit_b2.png","70","prac","","","5","","","","","","","","","","","","","","","","",""
"604.8000000119209","171052","SARL_v6","SARL_v60mytxduf","58d165dff7a08b000176c54c","freqPrac_resp","","","img/orange_2bandit_b.png","70","img/orange_2bandit_b.png","70","prac","","","5","","","","","","","","","","","","","","","","",""
"null","171211","SARL_v6","SARL_v60mytxduf","58d165dff7a08b000176c54c","fixation","","","img/fixation.png","null","","","prac","","","","","","","","","","","","","","","","","","","",""
"689.0999999940395","171907","SARL_v6","SARL_v60mytxduf","58d165dff7a08b000176c54c","mixRLPractice","","","img/black_2bandit_b2.png","74","img/black_2bandit_b2.png","","prac","","","5","","","","","","","","","","","","","","","","",""
"null","172667","SARL_v6","SARL_v60mytxduf","58d165dff7a08b000176c54c","feedback","","","<div class=""verylowPoints""> -14 </div>","null","","na","prac","","","6","-14","10","-14","","","","","","","","","","","","","",""
"null","172827","SARL_v6","SARL_v60mytxduf","58d165dff7a08b000176c54c","fixation","","","img/fixation.png","null","","","prac","","","","","","","","","","","","","","","","","","","",""
"778.7999999821186","173612","SARL_v6","SARL_v60mytxduf","58d165dff7a08b000176c54c","mixAttFreqPrac","","","img/orange_2bandit_b2.png","70","img/orange_2bandit_b2.png","70","prac","","","7","","","","","","","","","","","","","","","","",""
"778.7999999821186","173643","SARL_v6","SARL_v60mytxduf","58d165dff7a08b000176c54c","freqPrac_resp","","","img/orange_2bandit_b.png","70","img/orange_2bandit_b.png","70","prac","","","7","","","","","","","","","","","","","","","","",""
"null","173803","SARL_v6","SARL_v60mytxduf","58d165dff7a08b000176c54c","fixation","","","img/fixation.png","null","","","prac","","","","","","","","","","","","","","","","","","","",""
"519.0999999940395","174329","SARL_v6","SARL_v60mytxduf","58d165dff7a08b000176c54c","mixAttInfreqPrac","","","img/blue_2bandit_b2.png","68","img/blue_2bandit_b2.png","68","prac","","","8","","","","","","","","","","","","","","","","",""
"519.0999999940395","174619","SARL_v6","SARL_v60mytxduf","58d165dff7a08b000176c54c","infreqPrac_resp","","","img/blue_2bandit_b.png","68","img/orange_2bandit_b.png","68","prac","","","8","","","","","","","","","","","","","","","","",""
"null","174779","SARL_v6","SARL_v60mytxduf","58d165dff7a08b000176c54c","fixation","","","img/fixation.png","null","","","prac","","","","","","","","","","","","","","","","","","","",""
"640.8000000119209","175426","SARL_v6","SARL_v60mytxduf","58d165dff7a08b000176c54c","mixAttFreqPrac","","","img/orange_2bandit_b2.png","70","img/orange_2bandit_b2.png","70","prac","","","9","","","","","","","","","","","","","","","","",""
"640.8000000119209","175595","SARL_v6","SARL_v60mytxduf","58d165dff7a08b000176c54c","freqPrac_resp","","","img/orange_2bandit_b.png","70","img/orange_2bandit_b.png","70","prac","","","9","","","","","","","","","","","","","","","","",""
"null","175756","SARL_v6","SARL_v60mytxduf","58d165dff7a08b000176c54c","fixation","","","img/fixation.png","null","","","prac","","","","","","","","","","","","","","","","","","","",""
"401.59999999403954","176164","SARL_v6","SARL_v60mytxduf","58d165dff7a08b000176c54c","mixAttFreqPrac","","","img/orange_2bandit_b2.png","70","img/orange_2bandit_b2.png","70","prac","","","10","","","","","","","","","","","","","","","","",""
"401.59999999403954","176571","SARL_v6","SARL_v60mytxduf","58d165dff7a08b000176c54c","freqPrac_resp","","","img/orange_2bandit_b.png","70","img/orange_2bandit_b.png","70","prac","","","10","","","","","","","","","","","","","","","","",""
"null","176732","SARL_v6","SARL_v60mytxduf","58d165dff7a08b000176c54c","fixation","","","img/fixation.png","null","","","prac","","","","","","","","","","","","","","","","","","","",""
"570.8000000119209","177309","SARL_v6","SARL_v60mytxduf","58d165dff7a08b000176c54c","mixAttInfreqPrac","","","img/blue_2bandit_b2.png","68","img/blue_2bandit_b2.png","68","prac","","","11","","","","","","","","","","","","","","","","",""
"570.8000000119209","177547","SARL_v6","SARL_v60mytxduf","58d165dff7a08b000176c54c","infreqPrac_resp","","","img/blue_2bandit_b.png","68","img/orange_2bandit_b.png","68","prac","","","11","","","","","","","","","","","","","","","","",""
"null","177707","SARL_v6","SARL_v60mytxduf","58d165dff7a08b000176c54c","fixation","","","img/fixation.png","null","","","prac","","","","","","","","","","","","","","","","","","","",""
"699.1000000238419","178414","SARL_v6","SARL_v60mytxduf","58d165dff7a08b000176c54c","mixRLPractice","","","img/black_2bandit_b2.png","74","img/black_2bandit_b2.png","","prac","","","11","","","","","","","","","","","","","","","","",""
"null","179172","SARL_v6","SARL_v60mytxduf","58d165dff7a08b000176c54c","feedback","","","<div class=""veryhighPoints""> 5 </div>","null","","na","prac","","","12","5","-5","5","","","","","","","","","","","","","",""
"null","179331","SARL_v6","SARL_v60mytxduf","58d165dff7a08b000176c54c","fixation","","","img/fixation.png","null","","","prac","","","","","","","","","","","","","","","","","","","",""
"19316.5","198653","SARL_v6","SARL_v60mytxduf","58d165dff7a08b000176c54c","","","","","","","","prac","","","","","","","","","","","","","","","","","","","",""
"665.7999999821186","199326","SARL_v6","SARL_v60mytxduf","58d165dff7a08b000176c54c","freq","","","img/orange_2bandit_b2.png","70","","70","test","1","","1","","","","circle","square","1","1","1","1","","","","","","","",""
"null","199468","SARL_v6","SARL_v60mytxduf","58d165dff7a08b000176c54c","freq_resp","","","img/orange_2bandit_b.png","70","img/orange_2bandit_b.png","70","test","","","","","","","","","","","1","","","","","","","","",""
"null","199628","SARL_v6","SARL_v60mytxduf","58d165dff7a08b000176c54c","fixation","","","img/fixation.png","null","","","test","","","","","","","","","","","","","","","","","","","",""
"370.09999999403954","200004","SARL_v6","SARL_v60mytxduf","58d165dff7a08b000176c54c","freq","","","img/orange_2bandit_b2.png","70","","70","test","1","","2","","","","circle","square","2","2","1","1","","","","","","","",""
"null","200444","SARL_v6","SARL_v60mytxduf","58d165dff7a08b000176c54c","freq_resp","","","img/orange_2bandit_b.png","70","img/orange_2bandit_b.png","70","test","","","","","","","","","","","1","","","","","","","","",""
"null","200603","SARL_v6","SARL_v60mytxduf","58d165dff7a08b000176c54c","fixation","","","img/fixation.png","null","","","test","","","","","","","","","","","","","","","","","","","",""
"465.5","201075","SARL_v6","SARL_v60mytxduf","58d165dff7a08b000176c54c","infreq","","","img/blue_2bandit_b2.png","68","","68","test","1","","3","","","","circle","square","3","3","1","1","","","","","","","",""
"null","201419","SARL_v6","SARL_v60mytxduf","58d165dff7a08b000176c54c","infreq_resp","","","img/blue_2bandit_b.png","68","img/blue_2bandit_b.png","68","test","","","","","","","","","","","1","","","","","","","","",""
"null","201580","SARL_v6","SARL_v60mytxduf","58d165dff7a08b000176c54c","fixation","","","img/fixation.png","null","","","test","","","","","","","","","","","","","","","","","","","",""
"538.8000000119209","202128","SARL_v6","SARL_v60mytxduf","58d165dff7a08b000176c54c","freq","","","img/orange_2bandit_b2.png","70","","70","test","1","","4","","","","circle","square","4","4","1","1","","","","","","","",""
"null","202403","SARL_v6","SARL_v60mytxduf","58d165dff7a08b000176c54c","freq_resp","","","img/orange_2bandit_b.png","70","img/orange_2bandit_b.png","70","test","","","","","","","","","","","1","","","","","","","","",""
"null","202563","SARL_v6","SARL_v60mytxduf","58d165dff7a08b000176c54c","fixation","","","img/fixation.png","null","","","test","","","","","","","","","","","","","","","","","","","",""
"402","202972","SARL_v6","SARL_v60mytxduf","58d165dff7a08b000176c54c","freq","","","img/orange_2bandit_b2.png","70","","70","test","1","","5","","","","circle","square","5","5","1","1","","","","","","","",""
"null","203380","SARL_v6","SARL_v60mytxduf","58d165dff7a08b000176c54c","freq_resp","","","img/orange_2bandit_b.png","70","img/orange_2bandit_b.png","70","test","","","","","","","","","","","1","","","","","","","","",""
"null","203539","SARL_v6","SARL_v60mytxduf","58d165dff7a08b000176c54c","fixation","","","img/fixation.png","null","","","test","","","","","","","","","","","","","","","","","","","",""
"358.7000000178814","203904","SARL_v6","SARL_v60mytxduf","58d165dff7a08b000176c54c","freq","","","img/orange_2bandit_b2.png","70","","70","test","1","","6","","","","circle","square","6","6","1","1","","","","","","","",""
"null","204355","SARL_v6","SARL_v60mytxduf","58d165dff7a08b000176c54c","freq_resp","","","img/orange_2bandit_b.png","70","img/orange_2bandit_b.png","70","test","","","","","","","","","","","1","","","","","","","","",""
"null","204515","SARL_v6","SARL_v60mytxduf","58d165dff7a08b000176c54c","fixation","","","img/fixation.png","null","","","test","","","","","","","","","","","","","","","","","","","",""
"375.09999999403954","204897","SARL_v6","SARL_v60mytxduf","58d165dff7a08b000176c54c","freq","","","img/orange_2bandit_b2.png","70","","70","test","1","","7","","","","circle","square","7","7","1","1","","","","","","","",""
"null","205332","SARL_v6","SARL_v60mytxduf","58d165dff7a08b000176c54c","freq_resp","","","img/orange_2bandit_b.png","70","img/orange_2bandit_b.png","70","test","","","","","","","","","","","1","","","","","","","","",""
"null","205491","SARL_v6","SARL_v60mytxduf","58d165dff7a08b000176c54c","fixation","","","img/fixation.png","null","","","test","","","","","","","","","","","","","","","","","","","",""
"339.5","205838","SARL_v6","SARL_v60mytxduf","58d165dff7a08b000176c54c","freq","","","img/orange_2bandit_b2.png","70","","70","test","1","","8","","","","circle","square","8","8","1","1","","","","","","","",""
"null","206307","SARL_v6","SARL_v60mytxduf","58d165dff7a08b000176c54c","freq_resp","","","img/orange_2bandit_b.png","70","img/orange_2bandit_b.png","70","test","","","","","","","","","","","1","","","","","","","","",""
"null","206468","SARL_v6","SARL_v60mytxduf","58d165dff7a08b000176c54c","fixation","","","img/fixation.png","null","","","test","","","","","","","","","","","","","","","","","","","",""
"350.89999997615814","206826","SARL_v6","SARL_v60mytxduf","58d165dff7a08b000176c54c","freq","","","img/orange_2bandit_b2.png","70","","70","test","1","","9","","","","circle","square","9","9","1","1","","","","","","","",""
"null","207283","SARL_v6","SARL_v60mytxduf","58d165dff7a08b000176c54c","freq_resp","","","img/orange_2bandit_b.png","70","img/orange_2bandit_b.png","70","test","","","","","","","","","","","1","","","","","","","","",""
"null","207444","SARL_v6","SARL_v60mytxduf","58d165dff7a08b000176c54c","fixation","","","img/fixation.png","null","","","test","","","","","","","","","","","","","","","","","","","",""
"370.09999999403954","207820","SARL_v6","SARL_v60mytxduf","58d165dff7a08b000176c54c","freq","","","img/orange_2bandit_b2.png","70","","70","test","1","","10","","","","circle","square","10","10","1","1","","","","","","","",""
"null","208259","SARL_v6","SARL_v60mytxduf","58d165dff7a08b000176c54c","freq_resp","","","img/orange_2bandit_b.png","70","img/orange_2bandit_b.png","70","test","","","","","","","","","","","1","","","","","","","","",""
"null","208419","SARL_v6","SARL_v60mytxduf","58d165dff7a08b000176c54c","fixation","","","img/fixation.png","null","","","test","","","","","","","","","","","","","","","","","","","",""
"354.5","208780","SARL_v6","SARL_v60mytxduf","58d165dff7a08b000176c54c","freq","","","img/orange_2bandit_b2.png","70","","70","test","1","","11","","","","circle","square","11","11","1","1","","","","","","","",""
"null","209235","SARL_v6","SARL_v60mytxduf","58d165dff7a08b000176c54c","freq_resp","","","img/orange_2bandit_b.png","70","img/orange_2bandit_b.png","70","test","","","","","","","","","","","1","","","","","","","","",""
"null","209396","SARL_v6","SARL_v60mytxduf","58d165dff7a08b000176c54c","fixation","","","img/fixation.png","null","","","test","","","","","","","","","","","","","","","","","","","",""
"321.69999998807907","209724","SARL_v6","SARL_v60mytxduf","58d165dff7a08b000176c54c","freq","","","img/orange_2bandit_b2.png","70","","70","test","1","","12","","","","circle","square","12","12","1","1","","","","","","","",""
"null","210212","SARL_v6","SARL_v60mytxduf","58d165dff7a08b000176c54c","freq_resp","","","img/orange_2bandit_b.png","70","img/orange_2bandit_b.png","70","test","","","","","","","","","","","1","","","","","","","","",""
"null","210371","SARL_v6","SARL_v60mytxduf","58d165dff7a08b000176c54c","fixation","","","img/fixation.png","null","","","test","","","","","","","","","","","","","","","","","","","",""
"351.5","210731","SARL_v6","SARL_v60mytxduf","58d165dff7a08b000176c54c","freq","","","img/orange_2bandit_b2.png","70","","70","test","1","","13","","","","circle","square","13","13","1","1","","","","","","","",""
"null","211196","SARL_v6","SARL_v60mytxduf","58d165dff7a08b000176c54c","freq_resp","","","img/orange_2bandit_b.png","70","img/orange_2bandit_b.png","70","test","","","","","","","","","","","1","","","","","","","","",""
"null","211356","SARL_v6","SARL_v60mytxduf","58d165dff7a08b000176c54c","fixation","","","img/fixation.png","null","","","test","","","","","","","","","","","","","","","","","","","",""
"327.09999999403954","211689","SARL_v6","SARL_v60mytxduf","58d165dff7a08b000176c54c","freq","","","img/orange_2bandit_b2.png","70","","70","test","1","","14","","","","circle","square","14","14","1","1","","","","","","","",""
"null","212171","SARL_v6","SARL_v60mytxduf","58d165dff7a08b000176c54c","freq_resp","","","img/orange_2bandit_b.png","70","img/orange_2bandit_b.png","70","test","","","","","","","","","","","1","","","","","","","","",""
"null","212332","SARL_v6","SARL_v60mytxduf","58d165dff7a08b000176c54c","fixation","","","img/fixation.png","null","","","test","","","","","","","","","","","","","","","","","","","",""
"303.10000002384186","212641","SARL_v6","SARL_v60mytxduf","58d165dff7a08b000176c54c","freq","","","img/orange_2bandit_b2.png","70","","70","test","1","","15","","","","circle","square","15","15","1","1","","","","","","","",""
"null","213148","SARL_v6","SARL_v60mytxduf","58d165dff7a08b000176c54c","freq_resp","","","img/orange_2bandit_b.png","70","img/orange_2bandit_b.png","70","test","","","","","","","","","","","1","","","","","","","","",""
"null","213307","SARL_v6","SARL_v60mytxduf","58d165dff7a08b000176c54c","fixation","","","img/fixation.png","null","","","test","","","","","","","","","","","","","","","","","","","",""
"292.5","213606","SARL_v6","SARL_v60mytxduf","58d165dff7a08b000176c54c","freq","","","img/orange_2bandit_b2.png","70","","70","test","1","","16","","","","circle","square","16","16","1","1","","","","","","","",""
"null","214123","SARL_v6","SARL_v60mytxduf","58d165dff7a08b000176c54c","freq_resp","","","img/orange_2bandit_b.png","70","img/orange_2bandit_b.png","70","test","","","","","","","","","","","1","","","","","","","","",""
"null","214283","SARL_v6","SARL_v60mytxduf","58d165dff7a08b000176c54c","fixation","","","img/fixation.png","null","","","test","","","","","","","","","","","","","","","","","","","",""
"294.59999999403954","214584","SARL_v6","SARL_v60mytxduf","58d165dff7a08b000176c54c","freq","","","img/orange_2bandit_b2.png","70","","70","test","1","","17","","","","circle","square","17","17","1","1","","","","","","","",""
"null","215099","SARL_v6","SARL_v60mytxduf","58d165dff7a08b000176c54c","freq_resp","","","img/orange_2bandit_b.png","70","img/orange_2bandit_b.png","70","test","","","","","","","","","","","1","","","","","","","","",""
"null","215259","SARL_v6","SARL_v60mytxduf","58d165dff7a08b000176c54c","fixation","","","img/fixation.png","null","","","test","","","","","","","","","","","","","","","","","","","",""
"570.5","215836","SARL_v6","SARL_v60mytxduf","58d165dff7a08b000176c54c","infreq","","","img/blue_2bandit_b2.png","68","","68","test","1","","18","","","","circle","square","18","18","1","1","","","","","","","",""
"null","216075","SARL_v6","SARL_v60mytxduf","58d165dff7a08b000176c54c","infreq_resp","","","img/blue_2bandit_b.png","68","img/blue_2bandit_b.png","68","test","","","","","","","","","","","1","","","","","","","","",""
"null","216235","SARL_v6","SARL_v60mytxduf","58d165dff7a08b000176c54c","fixation","","","img/fixation.png","null","","","test","","","","","","","","","","","","","","","","","","","",""
"456.7000000178814","216699","SARL_v6","SARL_v60mytxduf","58d165dff7a08b000176c54c","freq","","","img/orange_2bandit_b2.png","70","","70","test","1","","19","","","","circle","square","19","19","1","1","","","","","","","",""
"null","217051","SARL_v6","SARL_v60mytxduf","58d165dff7a08b000176c54c","freq_resp","","","img/orange_2bandit_b.png","70","img/orange_2bandit_b.png","70","test","","","","","","","","","","","1","","","","","","","","",""
"null","217212","SARL_v6","SARL_v60mytxduf","58d165dff7a08b000176c54c","fixation","","","img/fixation.png","null","","","test","","","","","","","","","","","","","","","","","","","",""
"449.5","217668","SARL_v6","SARL_v60mytxduf","58d165dff7a08b000176c54c","freq","","","img/orange_2bandit_b2.png","70","","70","test","1","","20","","","","circle","square","20","20","1","1","","","","","","","",""
"null","218027","SARL_v6","SARL_v60mytxduf","58d165dff7a08b000176c54c","freq_resp","","","img/orange_2bandit_b.png","70","img/orange_2bandit_b.png","70","test","","","","","","","","","","","1","","","","","","","","",""
"null","218187","SARL_v6","SARL_v60mytxduf","58d165dff7a08b000176c54c","fixation","","","img/fixation.png","null","","","test","","","","","","","","","","","","","","","","","","","",""
"427.09999999403954","218621","SARL_v6","SARL_v60mytxduf","58d165dff7a08b000176c54c","freq","","","img/orange_2bandit_b2.png","70","","70","test","1","","21","","","","circle","square","21","21","1","1","","","","","","","",""
"null","219003","SARL_v6","SARL_v60mytxduf","58d165dff7a08b000176c54c","freq_resp","","","img/orange_2bandit_b.png","70","img/orange_2bandit_b.png","70","test","","","","","","","","","","","1","","","","","","","","",""
"null","219164","SARL_v6","SARL_v60mytxduf","58d165dff7a08b000176c54c","fixation","","","img/fixation.png","null","","","test","","","","","","","","","","","","","","","","","","","",""
"489.69999998807907","219660","SARL_v6","SARL_v60mytxduf","58d165dff7a08b000176c54c","freq","","","img/orange_2bandit_b2.png","70","","70","test","1","","22","","","","circle","square","22","22","1","1","","","","","","","",""
"null","219979","SARL_v6","SARL_v60mytxduf","58d165dff7a08b000176c54c","freq_resp","","","img/orange_2bandit_b.png","70","img/orange_2bandit_b.png","70","test","","","","","","","","","","","1","","","","","","","","",""
"null","220139","SARL_v6","SARL_v60mytxduf","58d165dff7a08b000176c54c","fixation","","","img/fixation.png","null","","","test","","","","","","","","","","","","","","","","","","","",""
"384.5","220530","SARL_v6","SARL_v60mytxduf","58d165dff7a08b000176c54c","freq","","","img/orange_2bandit_b2.png","70","","70","test","1","","23","","","","circle","square","23","23","1","1","","","","","","","",""
"null","220955","SARL_v6","SARL_v60mytxduf","58d165dff7a08b000176c54c","freq_resp","","","img/orange_2bandit_b.png","70","img/orange_2bandit_b.png","70","test","","","","","","","","","","","1","","","","","","","","",""
"null","221116","SARL_v6","SARL_v60mytxduf","58d165dff7a08b000176c54c","fixation","","","img/fixation.png","null","","","test","","","","","","","","","","","","","","","","","","","",""
"700.4000000059605","221822","SARL_v6","SARL_v60mytxduf","58d165dff7a08b000176c54c","rl","","","img/black_2bandit_b2.png","74","","0","test","","","24","","","-3","circle","square","","0","1","","74","-3","-3","-3","-3","circle","1","0"
"null","222589","SARL_v6","SARL_v60mytxduf","58d165dff7a08b000176c54c","feedback","","","<div class=""verylowPoints""> -3 </div>","null","","na","test","","","NaN","","","","","","","","1","","74","","","","","","1",""
"719.6999999880791","223316","SARL_v6","SARL_v60mytxduf","58d165dff7a08b000176c54c","freq","","","img/orange_2bandit_b2.png","70","","70","test","1","","25","","","","circle","square","24","1","2","1","","","","","","","",""
"null","223404","SARL_v6","SARL_v60mytxduf","58d165dff7a08b000176c54c","freq_resp","","","img/orange_2bandit_b.png","70","img/orange_2bandit_b.png","70","test","","","","","","","","","","","2","","","","","","","","",""
"null","223563","SARL_v6","SARL_v60mytxduf","58d165dff7a08b000176c54c","fixation","","","img/fixation.png","null","","","test","","","","","","","","","","","","","","","","","","","",""
"449.59999999403954","224020","SARL_v6","SARL_v60mytxduf","58d165dff7a08b000176c54c","freq","","","img/orange_2bandit_b2.png","70","","70","test","1","","26","","","","circle","square","25","2","2","1","","","","","","","",""
"null","224379","SARL_v6","SARL_v60mytxduf","58d165dff7a08b000176c54c","freq_resp","","","img/orange_2bandit_b.png","70","img/orange_2bandit_b.png","70","test","","","","","","","","","","","2","","","","","","","","",""
"null","224539","SARL_v6","SARL_v60mytxduf","58d165dff7a08b000176c54c","fixation","","","img/fixation.png","null","","","test","","","","","","","","","","","","","","","","","","","",""
"365.90000000596046","224912","SARL_v6","SARL_v60mytxduf","58d165dff7a08b000176c54c","freq","","","img/orange_2bandit_b2.png","70","","70","test","1","","27","","","","circle","square","26","3","2","1","","","","","","","",""
"null","225355","SARL_v6","SARL_v60mytxduf","58d165dff7a08b000176c54c","freq_resp","","","img/orange_2bandit_b.png","70","img/orange_2bandit_b.png","70","test","","","","","","","","","","","2","","","","","","","","",""
"null","225516","SARL_v6","SARL_v60mytxduf","58d165dff7a08b000176c54c","fixation","","","img/fixation.png","null","","","test","","","","","","","","","","","","","","","","","","","",""
"399.90000000596046","225922","SARL_v6","SARL_v60mytxduf","58d165dff7a08b000176c54c","freq","","","img/orange_2bandit_b2.png","70","","70","test","1","","28","","","","circle","square","27","4","2","1","","","","","","","",""
"null","226332","SARL_v6","SARL_v60mytxduf","58d165dff7a08b000176c54c","freq_resp","","","img/orange_2bandit_b.png","70","img/orange_2bandit_b.png","70","test","","","","","","","","","","","2","","","","","","","","",""
"null","226491","SARL_v6","SARL_v60mytxduf","58d165dff7a08b000176c54c","fixation","","","img/fixation.png","null","","","test","","","","","","","","","","","","","","","","","","","",""
"520.3000000119209","227018","SARL_v6","SARL_v60mytxduf","58d165dff7a08b000176c54c","infreq","","","img/blue_2bandit_b2.png","68","","68","test","1","","29","","","","circle","square","28","5","2","1","","","","","","","",""
"null","227307","SARL_v6","SARL_v60mytxduf","58d165dff7a08b000176c54c","infreq_resp","","","img/blue_2bandit_b.png","68","img/blue_2bandit_b.png","68","test","","","","","","","","","","","2","","","","","","","","",""
"null","227467","SARL_v6","SARL_v60mytxduf","58d165dff7a08b000176c54c","fixation","","","img/fixation.png","null","","","test","","","","","","","","","","","","","","","","","","","",""
"494.7999999821186","227969","SARL_v6","SARL_v60mytxduf","58d165dff7a08b000176c54c","freq","","","img/orange_2bandit_b2.png","70","","70","test","1","","30","","","","circle","square","29","6","2","1","","","","","","","",""
"null","228284","SARL_v6","SARL_v60mytxduf","58d165dff7a08b000176c54c","freq_resp","","","img/orange_2bandit_b.png","70","img/orange_2bandit_b.png","70","test","","","","","","","","","","","2","","","","","","","","",""
"null","228443","SARL_v6","SARL_v60mytxduf","58d165dff7a08b000176c54c","fixation","","","img/fixation.png","null","","","test","","","","","","","","","","","","","","","","","","","",""
"436.2999999821186","228886","SARL_v6","SARL_v60mytxduf","58d165dff7a08b000176c54c","freq","","","img/orange_2bandit_b2.png","70","","70","test","1","","31","","","","circle","square","30","7","2","1","","","","","","","",""
"null","229259","SARL_v6","SARL_v60mytxduf","58d165dff7a08b000176c54c","freq_resp","","","img/orange_2bandit_b.png","70","img/orange_2bandit_b.png","70","test","","","","","","","","","","","2","","","","","","","","",""
"null","229419","SARL_v6","SARL_v60mytxduf","58d165dff7a08b000176c54c","fixation","","","img/fixation.png","null","","","test","","","","","","","","","","","","","","","","","","","",""
"372.30000001192093","229798","SARL_v6","SARL_v60mytxduf","58d165dff7a08b000176c54c","freq","","","img/orange_2bandit_b2.png","70","","70","test","1","","32","","","","circle","square","31","8","2","1","","","","","","","",""
"null","230235","SARL_v6","SARL_v60mytxduf","58d165dff7a08b000176c54c","freq_resp","","","img/orange_2bandit_b.png","70","img/orange_2bandit_b.png","70","test","","","","","","","","","","","2","","","","","","","","",""
"null","230395","SARL_v6","SARL_v60mytxduf","58d165dff7a08b000176c54c","fixation","","","img/fixation.png","null","","","test","","","","","","","","","","","","","","","","","","","",""
"383.09999999403954","230785","SARL_v6","SARL_v60mytxduf","58d165dff7a08b000176c54c","freq","","","img/orange_2bandit_b2.png","70","","70","test","1","","33","","","","circle","square","32","9","2","1","","","","","","","",""
"null","231211","SARL_v6","SARL_v60mytxduf","58d165dff7a08b000176c54c","freq_resp","","","img/orange_2bandit_b.png","70","img/orange_2bandit_b.png","70","test","","","","","","","","","","","2","","","","","","","","",""
"null","231371","SARL_v6","SARL_v60mytxduf","58d165dff7a08b000176c54c","fixation","","","img/fixation.png","null","","","test","","","","","","","","","","","","","","","","","","","",""
"347.10000002384186","231725","SARL_v6","SARL_v60mytxduf","58d165dff7a08b000176c54c","freq","","","img/orange_2bandit_b2.png","70","","70","test","1","","34","","","","circle","square","33","10","2","1","","","","","","","",""
"null","232187","SARL_v6","SARL_v60mytxduf","58d165dff7a08b000176c54c","freq_resp","","","img/orange_2bandit_b.png","70","img/orange_2bandit_b.png","70","test","","","","","","","","","","","2","","","","","","","","",""
"null","232349","SARL_v6","SARL_v60mytxduf","58d165dff7a08b000176c54c","fixation","","","img/fixation.png","null","","","test","","","","","","","","","","","","","","","","","","","",""
"360.60000002384186","232716","SARL_v6","SARL_v60mytxduf","58d165dff7a08b000176c54c","freq","","","img/orange_2bandit_b2.png","70","","70","test","1","","35","","","","circle","square","34","11","2","1","","","","","","","",""
"null","233163","SARL_v6","SARL_v60mytxduf","58d165dff7a08b000176c54c","freq_resp","","","img/orange_2bandit_b.png","70","img/orange_2bandit_b.png","70","test","","","","","","","","","","","2","","","","","","","","",""
"null","233323","SARL_v6","SARL_v60mytxduf","58d165dff7a08b000176c54c","fixation","","","img/fixation.png","null","","","test","","","","","","","","","","","","","","","","","","","",""
"332","233662","SARL_v6","SARL_v60mytxduf","58d165dff7a08b000176c54c","freq","","","img/orange_2bandit_b2.png","70","","70","test","1","","36","","","","circle","square","35","12","2","1","","","","","","","",""
"null","234139","SARL_v6","SARL_v60mytxduf","58d165dff7a08b000176c54c","freq_resp","","","img/orange_2bandit_b.png","70","img/orange_2bandit_b.png","70","test","","","","","","","","","","","2","","","","","","","","",""
"null","234300","SARL_v6","SARL_v60mytxduf","58d165dff7a08b000176c54c","fixation","","","img/fixation.png","null","","","test","","","","","","","","","","","","","","","","","","","",""
"590.0999999940395","234896","SARL_v6","SARL_v60mytxduf","58d165dff7a08b000176c54c","freq","","","img/orange_2bandit_b2.png","70","","70","test","1","","37","","","","circle","square","36","13","2","1","","","","","","","",""
"null","235116","SARL_v6","SARL_v60mytxduf","58d165dff7a08b000176c54c","freq_resp","","","img/orange_2bandit_b.png","70","img/orange_2bandit_b.png","70","test","","","","","","","","","","","2","","","","","","","","",""
"null","235275","SARL_v6","SARL_v60mytxduf","58d165dff7a08b000176c54c","fixation","","","img/fixation.png","null","","","test","","","","","","","","","","","","","","","","","","","",""
"347","235629","SARL_v6","SARL_v60mytxduf","58d165dff7a08b000176c54c","freq","","","img/orange_2bandit_b2.png","70","","70","test","1","","38","","","","circle","square","37","14","2","1","","","","","","","",""
"null","236091","SARL_v6","SARL_v60mytxduf","58d165dff7a08b000176c54c","freq_resp","","","img/orange_2bandit_b.png","70","img/orange_2bandit_b.png","70","test","","","","","","","","","","","2","","","","","","","","",""
"null","236252","SARL_v6","SARL_v60mytxduf","58d165dff7a08b000176c54c","fixation","","","img/fixation.png","null","","","test","","","","","","","","","","","","","","","","","","","",""
"493","236752","SARL_v6","SARL_v60mytxduf","58d165dff7a08b000176c54c","infreq","","","img/blue_2bandit_b2.png","68","","68","test","1","","39","","","","circle","square","38","15","2","1","","","","","","","",""
"null","237068","SARL_v6","SARL_v60mytxduf","58d165dff7a08b000176c54c","infreq_resp","","","img/blue_2bandit_b.png","68","img/blue_2bandit_b.png","68","test","","","","","","","","","","","2","","","","","","","","",""
"null","237227","SARL_v6","SARL_v60mytxduf","58d165dff7a08b000176c54c","fixation","","","img/fixation.png","null","","","test","","","","","","","","","","","","","","","","","","","",""
"434.7999999821186","237669","SARL_v6","SARL_v60mytxduf","58d165dff7a08b000176c54c","freq","","","img/orange_2bandit_b2.png","70","","70","test","1","","40","","","","circle","square","39","16","2","1","","","","","","","",""
"null","238043","SARL_v6","SARL_v60mytxduf","58d165dff7a08b000176c54c","freq_resp","","","img/orange_2bandit_b.png","70","img/orange_2bandit_b.png","70","test","","","","","","","","","","","2","","","","","","","","",""
"null","238203","SARL_v6","SARL_v60mytxduf","58d165dff7a08b000176c54c","fixation","","","img/fixation.png","null","","","test","","","","","","","","","","","","","","","","","","","",""
"409.59999999403954","238619","SARL_v6","SARL_v60mytxduf","58d165dff7a08b000176c54c","freq","","","img/orange_2bandit_b2.png","70","","70","test","1","","41","","","","circle","square","40","17","2","1","","","","","","","",""
"null","239019","SARL_v6","SARL_v60mytxduf","58d165dff7a08b000176c54c","freq_resp","","","img/orange_2bandit_b.png","70","img/orange_2bandit_b.png","70","test","","","","","","","","","","","2","","","","","","","","",""
"null","239179","SARL_v6","SARL_v60mytxduf","58d165dff7a08b000176c54c","fixation","","","img/fixation.png","null","","","test","","","","","","","","","","","","","","","","","","","",""
"381.90000000596046","239568","SARL_v6","SARL_v60mytxduf","58d165dff7a08b000176c54c","freq","","","img/orange_2bandit_b2.png","70","","70","test","1","","42","","","","circle","square","41","18","2","1","","","","","","","",""
"null","239995","SARL_v6","SARL_v60mytxduf","58d165dff7a08b000176c54c","freq_resp","","","img/orange_2bandit_b.png","70","img/orange_2bandit_b.png","70","test","","","","","","","","","","","2","","","","","","","","",""
"null","240155","SARL_v6","SARL_v60mytxduf","58d165dff7a08b000176c54c","fixation","","","img/fixation.png","null","","","test","","","","","","","","","","","","","","","","","","","",""
"338.19999998807907","240500","SARL_v6","SARL_v60mytxduf","58d165dff7a08b000176c54c","freq","","","img/orange_2bandit_b2.png","70","","70","test","1","","43","","","","circle","square","42","19","2","1","","","","","","","",""
"null","240971","SARL_v6","SARL_v60mytxduf","58d165dff7a08b000176c54c","freq_resp","","","img/orange_2bandit_b.png","70","img/orange_2bandit_b.png","70","test","","","","","","","","","","","2","","","","","","","","",""
"null","241132","SARL_v6","SARL_v60mytxduf","58d165dff7a08b000176c54c","fixation","","","img/fixation.png","null","","","test","","","","","","","","","","","","","","","","","","","",""
"313.2000000178814","241452","SARL_v6","SARL_v60mytxduf","58d165dff7a08b000176c54c","freq","","","img/orange_2bandit_b2.png","70","","70","test","1","","44","","","","circle","square","43","20","2","1","","","","","","","",""
"null","241947","SARL_v6","SARL_v60mytxduf","58d165dff7a08b000176c54c","freq_resp","","","img/orange_2bandit_b.png","70","img/orange_2bandit_b.png","70","test","","","","","","","","","","","2","","","","","","","","",""
"null","242107","SARL_v6","SARL_v60mytxduf","58d165dff7a08b000176c54c","fixation","","","img/fixation.png","null","","","test","","","","","","","","","","","","","","","","","","","",""
"277.10000002384186","242391","SARL_v6","SARL_v60mytxduf","58d165dff7a08b000176c54c","freq","","","img/orange_2bandit_b2.png","70","","70","test","1","","45","","","","circle","square","44","21","2","1","","","","","","","",""
"null","242923","SARL_v6","SARL_v60mytxduf","58d165dff7a08b000176c54c","freq_resp","","","img/orange_2bandit_b.png","70","img/orange_2bandit_b.png","70","test","","","","","","","","","","","2","","","","","","","","",""
"null","243084","SARL_v6","SARL_v60mytxduf","58d165dff7a08b000176c54c","fixation","","","img/fixation.png","null","","","test","","","","","","","","","","","","","","","","","","","",""
"302.40000000596046","243393","SARL_v6","SARL_v60mytxduf","58d165dff7a08b000176c54c","freq","","","img/orange_2bandit_b2.png","70","","70","test","1","","46","","","","circle","square","45","22","2","1","","","","","","","",""
"null","243900","SARL_v6","SARL_v60mytxduf","58d165dff7a08b000176c54c","freq_resp","","","img/orange_2bandit_b.png","70","img/orange_2bandit_b.png","70","test","","","","","","","","","","","2","","","","","","","","",""
"null","244059","SARL_v6","SARL_v60mytxduf","58d165dff7a08b000176c54c","fixation","","","img/fixation.png","null","","","test","","","","","","","","","","","","","","","","","","","",""
"328.59999999403954","244394","SARL_v6","SARL_v60mytxduf","58d165dff7a08b000176c54c","freq","","","img/orange_2bandit_b2.png","70","","70","test","1","","47","","","","circle","square","46","23","2","1","","","","","","","",""
"null","244875","SARL_v6","SARL_v60mytxduf","58d165dff7a08b000176c54c","freq_resp","","","img/orange_2bandit_b.png","70","img/orange_2bandit_b.png","70","test","","","","","","","","","","","2","","","","","","","","",""
"null","245036","SARL_v6","SARL_v60mytxduf","58d165dff7a08b000176c54c","fixation","","","img/fixation.png","null","","","test","","","","","","","","","","","","","","","","","","","",""
"288.90000000596046","245332","SARL_v6","SARL_v60mytxduf","58d165dff7a08b000176c54c","freq","","","img/orange_2bandit_b2.png","70","","70","test","1","","48","","","","circle","square","47","24","2","1","","","","","","","",""
"null","245852","SARL_v6","SARL_v60mytxduf","58d165dff7a08b000176c54c","freq_resp","","","img/orange_2bandit_b.png","70","img/orange_2bandit_b.png","70","test","","","","","","","","","","","2","","","","","","","","",""
"null","246012","SARL_v6","SARL_v60mytxduf","58d165dff7a08b000176c54c","fixation","","","img/fixation.png","null","","","test","","","","","","","","","","","","","","","","","","","",""
"669.1000000238419","246687","SARL_v6","SARL_v60mytxduf","58d165dff7a08b000176c54c","rl","","","img/black_2bandit_b2.png","74","","0","test","","","49","","","-5","circle","square","","0","2","","74","-5","-8","-5","-8","circle","2","0"
"null","247451","SARL_v6","SARL_v60mytxduf","58d165dff7a08b000176c54c","feedback","","","<div class=""verylowPoints""> -5 </div>","null","","na","test","","","NaN","","","","","","","","2","","74","","","","","","2",""
"461.5","247920","SARL_v6","SARL_v60mytxduf","58d165dff7a08b000176c54c","freq","","","img/orange_2bandit_b2.png","70","","70","test","1","","50","","","","circle","square","48","1","3","1","","","","","","","",""
"null","248268","SARL_v6","SARL_v60mytxduf","58d165dff7a08b000176c54c","freq_resp","","","img/orange_2bandit_b.png","70","img/orange_2bandit_b.png","70","test","","","","","","","","","","","3","","","","","","","","",""
"null","248427","SARL_v6","SARL_v60mytxduf","58d165dff7a08b000176c54c","fixation","","","img/fixation.png","null","","","test","","","","","","","","","","","","","","","","","","","",""
"414.30000001192093","248848","SARL_v6","SARL_v60mytxduf","58d165dff7a08b000176c54c","freq","","","img/orange_2bandit_b2.png","70","","70","test","1","","51","","","","circle","square","49","2","3","1","","","","","","","",""
"null","249243","SARL_v6","SARL_v60mytxduf","58d165dff7a08b000176c54c","freq_resp","","","img/orange_2bandit_b.png","70","img/orange_2bandit_b.png","70","test","","","","","","","","","","","3","","","","","","","","",""
"null","249404","SARL_v6","SARL_v60mytxduf","58d165dff7a08b000176c54c","fixation","","","img/fixation.png","null","","","test","","","","","","","","","","","","","","","","","","","",""
"453.30000001192093","249863","SARL_v6","SARL_v60mytxduf","58d165dff7a08b000176c54c","freq","","","img/orange_2bandit_b2.png","70","","70","test","1","","52","","","","circle","square","50","3","3","1","","","","","","","",""
"null","250220","SARL_v6","SARL_v60mytxduf","58d165dff7a08b000176c54c","freq_resp","","","img/orange_2bandit_b.png","70","img/orange_2bandit_b.png","70","test","","","","","","","","","","","3","","","","","","","","",""
"null","250379","SARL_v6","SARL_v60mytxduf","58d165dff7a08b000176c54c","fixation","","","img/fixation.png","null","","","test","","","","","","","","","","","","","","","","","","","",""
"447.80000001192093","250834","SARL_v6","SARL_v60mytxduf","58d165dff7a08b000176c54c","freq","","","img/orange_2bandit_b2.png","70","","70","test","1","","53","","","","circle","square","51","4","3","1","","","","","","","",""
"null","251195","SARL_v6","SARL_v60mytxduf","58d165dff7a08b000176c54c","freq_resp","","","img/orange_2bandit_b.png","70","img/orange_2bandit_b.png","70","test","","","","","","","","","","","3","","","","","","","","",""
"null","251355","SARL_v6","SARL_v60mytxduf","58d165dff7a08b000176c54c","fixation","","","img/fixation.png","null","","","test","","","","","","","","","","","","","","","","","","","",""
"397.69999998807907","251759","SARL_v6","SARL_v60mytxduf","58d165dff7a08b000176c54c","freq","","","img/orange_2bandit_b2.png","70","","70","test","1","","54","","","","circle","square","52","5","3","1","","","","","","","",""
"null","252172","SARL_v6","SARL_v60mytxduf","58d165dff7a08b000176c54c","freq_resp","","","img/orange_2bandit_b.png","70","img/orange_2bandit_b.png","70","test","","","","","","","","","","","3","","","","","","","","",""
"null","252331","SARL_v6","SARL_v60mytxduf","58d165dff7a08b000176c54c","fixation","","","img/fixation.png","null","","","test","","","","","","","","","","","","","","","","","","","",""
"334.40000000596046","252672","SARL_v6","SARL_v60mytxduf","58d165dff7a08b000176c54c","freq","","","img/orange_2bandit_b2.png","70","","70","test","1","","55","","","","circle","square","53","6","3","1","","","","","","","",""
"null","253147","SARL_v6","SARL_v60mytxduf","58d165dff7a08b000176c54c","freq_resp","","","img/orange_2bandit_b.png","70","img/orange_2bandit_b.png","70","test","","","","","","","","","","","3","","","","","","","","",""
"null","253307","SARL_v6","SARL_v60mytxduf","58d165dff7a08b000176c54c","fixation","","","img/fixation.png","null","","","test","","","","","","","","","","","","","","","","","","","",""
"296.59999999403954","253610","SARL_v6","SARL_v60mytxduf","58d165dff7a08b000176c54c","freq","","","img/orange_2bandit_b2.png","70","","70","test","1","","56","","","","circle","square","54","7","3","1","","","","","","","",""
"null","254123","SARL_v6","SARL_v60mytxduf","58d165dff7a08b000176c54c","freq_resp","","","img/orange_2bandit_b.png","70","img/orange_2bandit_b.png","70","test","","","","","","","","","","","3","","","","","","","","",""
"null","254283","SARL_v6","SARL_v60mytxduf","58d165dff7a08b000176c54c","fixation","","","img/fixation.png","null","","","test","","","","","","","","","","","","","","","","","","","",""
"329.09999999403954","254619","SARL_v6","SARL_v60mytxduf","58d165dff7a08b000176c54c","freq","","","img/orange_2bandit_b2.png","70","","70","test","1","","57","","","","circle","square","55","8","3","1","","","","","","","",""
"null","255099","SARL_v6","SARL_v60mytxduf","58d165dff7a08b000176c54c","freq_resp","","","img/orange_2bandit_b.png","70","img/orange_2bandit_b.png","70","test","","","","","","","","","","","3","","","","","","","","",""
"null","255259","SARL_v6","SARL_v60mytxduf","58d165dff7a08b000176c54c","fixation","","","img/fixation.png","null","","","test","","","","","","","","","","","","","","","","","","","",""
"281.10000002384186","255547","SARL_v6","SARL_v60mytxduf","58d165dff7a08b000176c54c","freq","","","img/orange_2bandit_b2.png","70","","70","test","1","","58","","","","circle","square","56","9","3","1","","","","","","","",""
"null","256075","SARL_v6","SARL_v60mytxduf","58d165dff7a08b000176c54c","freq_resp","","","img/orange_2bandit_b.png","70","img/orange_2bandit_b.png","70","test","","","","","","","","","","","3","","","","","","","","",""
"null","256235","SARL_v6","SARL_v60mytxduf","58d165dff7a08b000176c54c","fixation","","","img/fixation.png","null","","","test","","","","","","","","","","","","","","","","","","","",""
"237.90000000596046","256480","SARL_v6","SARL_v60mytxduf","58d165dff7a08b000176c54c","freq","","","img/orange_2bandit_b2.png","70","","70","test","1","","59","","","","circle","square","57","10","3","1","","","","","","","",""
"null","257052","SARL_v6","SARL_v60mytxduf","58d165dff7a08b000176c54c","freq_resp","","","img/orange_2bandit_b.png","70","img/orange_2bandit_b.png","70","test","","","","","","","","","","","3","","","","","","","","",""
"null","257211","SARL_v6","SARL_v60mytxduf","58d165dff7a08b000176c54c","fixation","","","img/fixation.png","null","","","test","","","","","","","","","","","","","","","","","","","",""
"202.30000001192093","257421","SARL_v6","SARL_v60mytxduf","58d165dff7a08b000176c54c","freq","","","img/orange_2bandit_b2.png","70","","70","test","1","","60","","","","circle","square","58","11","3","1","","","","","","","",""
"null","258027","SARL_v6","SARL_v60mytxduf","58d165dff7a08b000176c54c","freq_resp","","","img/orange_2bandit_b.png","70","img/orange_2bandit_b.png","70","test","","","","","","","","","","","3","","","","","","","","",""
"null","258188","SARL_v6","SARL_v60mytxduf","58d165dff7a08b000176c54c","fixation","","","img/fixation.png","null","","","test","","","","","","","","","","","","","","","","","","","",""
"189.90000000596046","258385","SARL_v6","SARL_v60mytxduf","58d165dff7a08b000176c54c","freq","","","img/orange_2bandit_b2.png","70","","70","test","1","","61","","","","circle","square","59","12","3","1","","","","","","","",""
"null","259004","SARL_v6","SARL_v60mytxduf","58d165dff7a08b000176c54c","freq_resp","","","img/orange_2bandit_b.png","70","img/orange_2bandit_b.png","70","test","","","","","","","","","","","3","","","","","","","","",""
"null","259163","SARL_v6","SARL_v60mytxduf","58d165dff7a08b000176c54c","fixation","","","img/fixation.png","null","","","test","","","","","","","","","","","","","","","","","","","",""
"289.5","259459","SARL_v6","SARL_v60mytxduf","58d165dff7a08b000176c54c","freq","","","img/orange_2bandit_b2.png","70","","70","test","1","","62","","","","circle","square","60","13","3","1","","","","","","","",""
"null","259979","SARL_v6","SARL_v60mytxduf","58d165dff7a08b000176c54c","freq_resp","","","img/orange_2bandit_b.png","70","img/orange_2bandit_b.png","70","test","","","","","","","","","","","3","","","","","","","","",""
"null","260139","SARL_v6","SARL_v60mytxduf","58d165dff7a08b000176c54c","fixation","","","img/fixation.png","null","","","test","","","","","","","","","","","","","","","","","","","",""
"290.7999999821186","260437","SARL_v6","SARL_v60mytxduf","58d165dff7a08b000176c54c","freq","","","img/orange_2bandit_b2.png","70","","70","test","1","","63","","","","circle","square","61","14","3","1","","","","","","","",""
"null","260955","SARL_v6","SARL_v60mytxduf","58d165dff7a08b000176c54c","freq_resp","","","img/orange_2bandit_b.png","70","img/orange_2bandit_b.png","70","test","","","","","","","","","","","3","","","","","","","","",""
"null","261115","SARL_v6","SARL_v60mytxduf","58d165dff7a08b000176c54c","fixation","","","img/fixation.png","null","","","test","","","","","","","","","","","","","","","","","","","",""
"298.19999998807907","261420","SARL_v6","SARL_v60mytxduf","58d165dff7a08b000176c54c","freq","","","img/orange_2bandit_b2.png","70","","70","test","1","","64","","","","circle","square","62","15","3","1","","","","","","","",""
"null","261932","SARL_v6","SARL_v60mytxduf","58d165dff7a08b000176c54c","freq_resp","","","img/orange_2bandit_b.png","70","img/orange_2bandit_b.png","70","test","","","","","","","","","","","3","","","","","","","","",""
"null","262091","SARL_v6","SARL_v60mytxduf","58d165dff7a08b000176c54c","fixation","","","img/fixation.png","null","","","test","","","","","","","","","","","","","","","","","","","",""
"534.5","262632","SARL_v6","SARL_v60mytxduf","58d165dff7a08b000176c54c","infreq","","","img/blue_2bandit_b2.png","68","","68","test","1","","65","","","","circle","square","63","16","3","1","","","","","","","",""
"null","262907","SARL_v6","SARL_v60mytxduf","58d165dff7a08b000176c54c","infreq_resp","","","img/blue_2bandit_b.png","68","img/blue_2bandit_b.png","68","test","","","","","","","","","","","3","","","","","","","","",""
"null","263067","SARL_v6","SARL_v60mytxduf","58d165dff7a08b000176c54c","fixation","","","img/fixation.png","null","","","test","","","","","","","","","","","","","","","","","","","",""
"440.09999999403954","263514","SARL_v6","SARL_v60mytxduf","58d165dff7a08b000176c54c","freq","","","img/orange_2bandit_b2.png","70","","70","test","1","","66","","","","circle","square","64","17","3","1","","","","","","","",""
"null","263883","SARL_v6","SARL_v60mytxduf","58d165dff7a08b000176c54c","freq_resp","","","img/orange_2bandit_b.png","70","img/orange_2bandit_b.png","70","test","","","","","","","","","","","3","","","","","","","","",""
"null","264043","SARL_v6","SARL_v60mytxduf","58d165dff7a08b000176c54c","fixation","","","img/fixation.png","null","","","test","","","","","","","","","","","","","","","","","","","",""
"562.6000000238419","264612","SARL_v6","SARL_v60mytxduf","58d165dff7a08b000176c54c","infreq","","","img/blue_2bandit_b2.png","68","","68","test","1","","67","","","","circle","square","65","18","3","1","","","","","","","",""
"null","264860","SARL_v6","SARL_v60mytxduf","58d165dff7a08b000176c54c","infreq_resp","","","img/blue_2bandit_b.png","68","img/blue_2bandit_b.png","68","test","","","","","","","","","","","3","","","","","","","","",""
"null","265020","SARL_v6","SARL_v60mytxduf","58d165dff7a08b000176c54c","fixation","","","img/fixation.png","null","","","test","","","","","","","","","","","","","","","","","","","",""
"541.1999999880791","265567","SARL_v6","SARL_v60mytxduf","58d165dff7a08b000176c54c","freq","","","img/orange_2bandit_b2.png","70","","70","test","1","","68","","","","circle","square","66","19","3","1","","","","","","","",""
"null","265835","SARL_v6","SARL_v60mytxduf","58d165dff7a08b000176c54c","freq_resp","","","img/orange_2bandit_b.png","70","img/orange_2bandit_b.png","70","test","","","","","","","","","","","3","","","","","","","","",""
"null","265995","SARL_v6","SARL_v60mytxduf","58d165dff7a08b000176c54c","fixation","","","img/fixation.png","null","","","test","","","","","","","","","","","","","","","","","","","",""
"477.5","266479","SARL_v6","SARL_v60mytxduf","58d165dff7a08b000176c54c","freq","","","img/orange_2bandit_b2.png","70","","70","test","1","","69","","","","circle","square","67","20","3","1","","","","","","","",""
"null","266811","SARL_v6","SARL_v60mytxduf","58d165dff7a08b000176c54c","freq_resp","","","img/orange_2bandit_b.png","70","img/orange_2bandit_b.png","70","test","","","","","","","","","","","3","","","","","","","","",""
"null","266972","SARL_v6","SARL_v60mytxduf","58d165dff7a08b000176c54c","fixation","","","img/fixation.png","null","","","test","","","","","","","","","","","","","","","","","","","",""
"311","267290","SARL_v6","SARL_v60mytxduf","58d165dff7a08b000176c54c","freq","","","img/orange_2bandit_b2.png","70","","70","test","1","","70","","","","circle","square","68","21","3","1","","","","","","","",""
"null","267788","SARL_v6","SARL_v60mytxduf","58d165dff7a08b000176c54c","freq_resp","","","img/orange_2bandit_b.png","70","img/orange_2bandit_b.png","70","test","","","","","","","","","","","3","","","","","","","","",""
"null","267947","SARL_v6","SARL_v60mytxduf","58d165dff7a08b000176c54c","fixation","","","img/fixation.png","null","","","test","","","","","","","","","","","","","","","","","","","",""
"522.3000000119209","268476","SARL_v6","SARL_v60mytxduf","58d165dff7a08b000176c54c","rl","","","img/black_2bandit_b2.png","74","","0","test","","","71","","","-4","circle","square","","0","3","","74","-4","-8","-4","-8","circle","3","0"
"null","269236","SARL_v6","SARL_v60mytxduf","58d165dff7a08b000176c54c","feedback","","","<div class=""verylowPoints""> -4 </div>","null","","na","test","","","NaN","","","","","","","","3","","74","","","","","","3",""
"null","270043","SARL_v6","SARL_v60mytxduf","58d165dff7a08b000176c54c","freq","","","img/orange_2bandit_b2.png","null","","70","test","0","","72","","","","circle","square","69","1","4","0.9855072463768116","","","","","","","",""
"null","270203","SARL_v6","SARL_v60mytxduf","58d165dff7a08b000176c54c","fixation","","","img/fixation.png","null","","","test","","","","","","","","","","","","","","","","","","","",""
"null","271012","SARL_v6","SARL_v60mytxduf","58d165dff7a08b000176c54c","freq","","","img/orange_2bandit_b2.png","null","","70","test","0","","73","","","","circle","square","70","2","4","0.9714285714285714","","","","","","","",""
"null","271170","SARL_v6","SARL_v60mytxduf","58d165dff7a08b000176c54c","fixation","","","img/fixation.png","null","","","test","","","","","","","","","","","","","","","","","","","",""
"null","271979","SARL_v6","SARL_v60mytxduf","58d165dff7a08b000176c54c","freq","","","img/orange_2bandit_b2.png","null","","70","test","0","","74","","","","circle","square","71","3","4","0.9577464788732394","","","","","","","",""
"null","272140","SARL_v6","SARL_v60mytxduf","58d165dff7a08b000176c54c","fixation","","","img/fixation.png","null","","","test","","","","","","","","","","","","","","","","","","","",""
"84.30000001192093","272231","SARL_v6","SARL_v60mytxduf","58d165dff7a08b000176c54c","infreq","","","img/blue_2bandit_b2.png","70","","68","test","0","","75","","","","circle","square","72","4","4","0.9444444444444444","","","","","","","",""
"null","272956","SARL_v6","SARL_v60mytxduf","58d165dff7a08b000176c54c","infreq_resp","","","img/blue_2bandit_b.png","70","img/blue_2bandit_b.png","68","test","","","","","","","","","","","4","","","","","","","","",""
"null","273116","SARL_v6","SARL_v60mytxduf","58d165dff7a08b000176c54c","fixation","","","img/fixation.png","null","","","test","","","","","","","","","","","","","","","","","","","",""
"null","273925","SARL_v6","SARL_v60mytxduf","58d165dff7a08b000176c54c","freq","","","img/orange_2bandit_b2.png","null","","70","test","0","","76","","","","circle","square","73","5","4","0.9315068493150684","","","","","","","",""
"null","274083","SARL_v6","SARL_v60mytxduf","58d165dff7a08b000176c54c","fixation","","","img/fixation.png","null","","","test","","","","","","","","","","","","","","","","","","","",""
"657.6999999880791","274748","SARL_v6","SARL_v60mytxduf","58d165dff7a08b000176c54c","freq","","","img/orange_2bandit_b2.png","70","","70","test","1","","77","","","","circle","square","74","6","4","0.9324324324324325","","","","","","","",""
"null","274899","SARL_v6","SARL_v60mytxduf","58d165dff7a08b000176c54c","freq_resp","","","img/orange_2bandit_b.png","70","img/orange_2bandit_b.png","70","test","","","","","","","","","","","4","","","","","","","","",""
"null","275059","SARL_v6","SARL_v60mytxduf","58d165dff7a08b000176c54c","fixation","","","img/fixation.png","null","","","test","","","","","","","","","","","","","","","","","","","",""
"442","275508","SARL_v6","SARL_v60mytxduf","58d165dff7a08b000176c54c","freq","","","img/orange_2bandit_b2.png","70","","70","test","1","","78","","","","circle","square","75","7","4","0.9333333333333333","","","","","","","",""
"null","275875","SARL_v6","SARL_v60mytxduf","58d165dff7a08b000176c54c","freq_resp","","","img/orange_2bandit_b.png","70","img/orange_2bandit_b.png","70","test","","","","","","","","","","","4","","","","","","","","",""
"null","276035","SARL_v6","SARL_v60mytxduf","58d165dff7a08b000176c54c","fixation","","","img/fixation.png","null","","","test","","","","","","","","","","","","","","","","","","","",""
"442.39999997615814","276484","SARL_v6","SARL_v60mytxduf","58d165dff7a08b000176c54c","freq","","","img/orange_2bandit_b2.png","70","","70","test","1","","79","","","","circle","square","76","8","4","0.9342105263157895","","","","","","","",""
"null","276851","SARL_v6","SARL_v60mytxduf","58d165dff7a08b000176c54c","freq_resp","","","img/orange_2bandit_b.png","70","img/orange_2bandit_b.png","70","test","","","","","","","","","","","4","","","","","","","","",""
"null","277011","SARL_v6","SARL_v60mytxduf","58d165dff7a08b000176c54c","fixation","","","img/fixation.png","null","","","test","","","","","","","","","","","","","","","","","","","",""
"370.2000000178814","277388","SARL_v6","SARL_v60mytxduf","58d165dff7a08b000176c54c","freq","","","img/orange_2bandit_b2.png","70","","70","test","1","","80","","","","circle","square","77","9","4","0.935064935064935","","","","","","","",""
"null","277827","SARL_v6","SARL_v60mytxduf","58d165dff7a08b000176c54c","freq_resp","","","img/orange_2bandit_b.png","70","img/orange_2bandit_b.png","70","test","","","","","","","","","","","4","","","","","","","","",""
"null","277988","SARL_v6","SARL_v60mytxduf","58d165dff7a08b000176c54c","fixation","","","img/fixation.png","null","","","test","","","","","","","","","","","","","","","","","","","",""
"354.40000000596046","278348","SARL_v6","SARL_v60mytxduf","58d165dff7a08b000176c54c","freq","","","img/orange_2bandit_b2.png","70","","70","test","1","","81","","","","circle","square","78","10","4","0.9358974358974359","","","","","","","",""
"null","278803","SARL_v6","SARL_v60mytxduf","58d165dff7a08b000176c54c","freq_resp","","","img/orange_2bandit_b.png","70","img/orange_2bandit_b.png","70","test","","","","","","","","","","","4","","","","","","","","",""
"null","278963","SARL_v6","SARL_v60mytxduf","58d165dff7a08b000176c54c","fixation","","","img/fixation.png","null","","","test","","","","","","","","","","","","","","","","","","","",""
"335.69999998807907","279305","SARL_v6","SARL_v60mytxduf","58d165dff7a08b000176c54c","freq","","","img/orange_2bandit_b2.png","70","","70","test","1","","82","","","","circle","square","79","11","4","0.9367088607594937","","","","","","","",""
"null","279779","SARL_v6","SARL_v60mytxduf","58d165dff7a08b000176c54c","freq_resp","","","img/orange_2bandit_b.png","70","img/orange_2bandit_b.png","70","test","","","","","","","","","","","4","","","","","","","","",""
"null","279940","SARL_v6","SARL_v60mytxduf","58d165dff7a08b000176c54c","fixation","","","img/fixation.png","null","","","test","","","","","","","","","","","","","","","","","","","",""
"441.59999999403954","280388","SARL_v6","SARL_v60mytxduf","58d165dff7a08b000176c54c","infreq","","","img/blue_2bandit_b2.png","68","","68","test","1","","83","","","","circle","square","80","12","4","0.9375","","","","","","","",""
"null","280756","SARL_v6","SARL_v60mytxduf","58d165dff7a08b000176c54c","infreq_resp","","","img/blue_2bandit_b.png","68","img/blue_2bandit_b.png","68","test","","","","","","","","","","","4","","","","","","","","",""
"null","280915","SARL_v6","SARL_v60mytxduf","58d165dff7a08b000176c54c","fixation","","","img/fixation.png","null","","","test","","","","","","","","","","","","","","","","","","","",""
"421.2000000178814","281343","SARL_v6","SARL_v60mytxduf","58d165dff7a08b000176c54c","freq","","","img/orange_2bandit_b2.png","68","","70","test","0","","84","","","","circle","square","81","13","4","0.9259259259259259","","","","","","","",""
"null","281732","SARL_v6","SARL_v60mytxduf","58d165dff7a08b000176c54c","freq_resp","","","img/orange_2bandit_b.png","68","img/orange_2bandit_b.png","70","test","","","","","","","","","","","4","","","","","","","","",""
"null","281892","SARL_v6","SARL_v60mytxduf","58d165dff7a08b000176c54c","fixation","","","img/fixation.png","null","","","test","","","","","","","","","","","","","","","","","","","",""
"647.1000000238419","282545","SARL_v6","SARL_v60mytxduf","58d165dff7a08b000176c54c","freq","","","img/orange_2bandit_b2.png","70","","70","test","1","","85","","","","circle","square","82","14","4","0.926829268292683","","","","","","","",""
"null","282708","SARL_v6","SARL_v60mytxduf","58d165dff7a08b000176c54c","freq_resp","","","img/orange_2bandit_b.png","70","img/orange_2bandit_b.png","70","test","","","","","","","","","","","4","","","","","","","","",""
"null","282867","SARL_v6","SARL_v60mytxduf","58d165dff7a08b000176c54c","fixation","","","img/fixation.png","null","","","test","","","","","","","","","","","","","","","","","","","",""
"461.69999998807907","283336","SARL_v6","SARL_v60mytxduf","58d165dff7a08b000176c54c","freq","","","img/orange_2bandit_b2.png","70","","70","test","1","","86","","","","circle","square","83","15","4","0.927710843373494","","","","","","","",""
"null","283683","SARL_v6","SARL_v60mytxduf","58d165dff7a08b000176c54c","freq_resp","","","img/orange_2bandit_b.png","70","img/orange_2bandit_b.png","70","test","","","","","","","","","","","4","","","","","","","","",""
"null","283843","SARL_v6","SARL_v60mytxduf","58d165dff7a08b000176c54c","fixation","","","img/fixation.png","null","","","test","","","","","","","","","","","","","","","","","","","",""
"401.10000002384186","284251","SARL_v6","SARL_v60mytxduf","58d165dff7a08b000176c54c","freq","","","img/orange_2bandit_b2.png","70","","70","test","1","","87","","","","circle","square","84","16","4","0.9285714285714286","","","","","","","",""
"null","284659","SARL_v6","SARL_v60mytxduf","58d165dff7a08b000176c54c","freq_resp","","","img/orange_2bandit_b.png","70","img/orange_2bandit_b.png","70","test","","","","","","","","","","","4","","","","","","","","",""
"null","284819","SARL_v6","SARL_v60mytxduf","58d165dff7a08b000176c54c","fixation","","","img/fixation.png","null","","","test","","","","","","","","","","","","","","","","","","","",""
"337.7999999821186","285164","SARL_v6","SARL_v60mytxduf","58d165dff7a08b000176c54c","freq","","","img/orange_2bandit_b2.png","70","","70","test","1","","88","","","","circle","square","85","17","4","0.9294117647058824","","","","","","","",""
"null","285635","SARL_v6","SARL_v60mytxduf","58d165dff7a08b000176c54c","freq_resp","","","img/orange_2bandit_b.png","70","img/orange_2bandit_b.png","70","test","","","","","","","","","","","4","","","","","","","","",""
"null","285795","SARL_v6","SARL_v60mytxduf","58d165dff7a08b000176c54c","fixation","","","img/fixation.png","null","","","test","","","","","","","","","","","","","","","","","","","",""
"282.80000001192093","286085","SARL_v6","SARL_v60mytxduf","58d165dff7a08b000176c54c","freq","","","img/orange_2bandit_b2.png","70","","70","test","1","","89","","","","circle","square","86","18","4","0.9302325581395349","","","","","","","",""
"null","286611","SARL_v6","SARL_v60mytxduf","58d165dff7a08b000176c54c","freq_resp","","","img/orange_2bandit_b.png","70","img/orange_2bandit_b.png","70","test","","","","","","","","","","","4","","","","","","","","",""
"null","286772","SARL_v6","SARL_v60mytxduf","58d165dff7a08b000176c54c","fixation","","","img/fixation.png","null","","","test","","","","","","","","","","","","","","","","","","","",""
"329.7000000178814","287108","SARL_v6","SARL_v60mytxduf","58d165dff7a08b000176c54c","freq","","","img/orange_2bandit_b2.png","70","","70","test","1","","90","","","","circle","square","87","19","4","0.9310344827586207","","","","","","","",""
"null","287587","SARL_v6","SARL_v60mytxduf","58d165dff7a08b000176c54c","freq_resp","","","img/orange_2bandit_b.png","70","img/orange_2bandit_b.png","70","test","","","","","","","","","","","4","","","","","","","","",""
"null","287747","SARL_v6","SARL_v60mytxduf","58d165dff7a08b000176c54c","fixation","","","img/fixation.png","null","","","test","","","","","","","","","","","","","","","","","","","",""
"348.40000000596046","288104","SARL_v6","SARL_v60mytxduf","58d165dff7a08b000176c54c","freq","","","img/orange_2bandit_b2.png","70","","70","test","1","","91","","","","circle","square","88","20","4","0.9318181818181818","","","","","","","",""
"null","288563","SARL_v6","SARL_v60mytxduf","58d165dff7a08b000176c54c","freq_resp","","","img/orange_2bandit_b.png","70","img/orange_2bandit_b.png","70","test","","","","","","","","","","","4","","","","","","","","",""
"null","288723","SARL_v6","SARL_v60mytxduf","58d165dff7a08b000176c54c","fixation","","","img/fixation.png","null","","","test","","","","","","","","","","","","","","","","","","","",""
"348.40000000596046","289078","SARL_v6","SARL_v60mytxduf","58d165dff7a08b000176c54c","freq","","","img/orange_2bandit_b2.png","70","","70","test","1","","92","","","","circle","square","89","21","4","0.9325842696629213","","","","","","","",""
"null","289539","SARL_v6","SARL_v60mytxduf","58d165dff7a08b000176c54c","freq_resp","","","img/orange_2bandit_b.png","70","img/orange_2bandit_b.png","70","test","","","","","","","","","","","4","","","","","","","","",""
"null","289699","SARL_v6","SARL_v60mytxduf","58d165dff7a08b000176c54c","fixation","","","img/fixation.png","null","","","test","","","","","","","","","","","","","","","","","","","",""
"374.7999999821186","290081","SARL_v6","SARL_v60mytxduf","58d165dff7a08b000176c54c","freq","","","img/orange_2bandit_b2.png","70","","70","test","1","","93","","","","circle","square","90","22","4","0.9333333333333333","","","","","","","",""
"null","290515","SARL_v6","SARL_v60mytxduf","58d165dff7a08b000176c54c","freq_resp","","","img/orange_2bandit_b.png","70","img/orange_2bandit_b.png","70","test","","","","","","","","","","","4","","","","","","","","",""
"null","290676","SARL_v6","SARL_v60mytxduf","58d165dff7a08b000176c54c","fixation","","","img/fixation.png","null","","","test","","","","","","","","","","","","","","","","","","","",""
"459.59999999403954","291142","SARL_v6","SARL_v60mytxduf","58d165dff7a08b000176c54c","freq","","","img/orange_2bandit_b2.png","70","","70","test","1","","94","","","","circle","square","91","23","4","0.9340659340659341","","","","","","","",""
"null","291491","SARL_v6","SARL_v60mytxduf","58d165dff7a08b000176c54c","freq_resp","","","img/orange_2bandit_b.png","70","img/orange_2bandit_b.png","70","test","","","","","","","","","","","4","","","","","","","","",""
"null","291651","SARL_v6","SARL_v60mytxduf","58d165dff7a08b000176c54c","fixation","","","img/fixation.png","null","","","test","","","","","","","","","","","","","","","","","","","",""
"404.2000000178814","292062","SARL_v6","SARL_v60mytxduf","58d165dff7a08b000176c54c","freq","","","img/orange_2bandit_b2.png","70","","70","test","1","","95","","","","circle","square","92","24","4","0.9347826086956522","","","","","","","",""
"null","292467","SARL_v6","SARL_v60mytxduf","58d165dff7a08b000176c54c","freq_resp","","","img/orange_2bandit_b.png","70","img/orange_2bandit_b.png","70","test","","","","","","","","","","","4","","","","","","","","",""
"null","292627","SARL_v6","SARL_v60mytxduf","58d165dff7a08b000176c54c","fixation","","","img/fixation.png","null","","","test","","","","","","","","","","","","","","","","","","","",""
"395.5","293029","SARL_v6","SARL_v60mytxduf","58d165dff7a08b000176c54c","freq","","","img/orange_2bandit_b2.png","70","","70","test","1","","96","","","","circle","square","93","25","4","0.9354838709677419","","","","","","","",""
"null","293443","SARL_v6","SARL_v60mytxduf","58d165dff7a08b000176c54c","freq_resp","","","img/orange_2bandit_b.png","70","img/orange_2bandit_b.png","70","test","","","","","","","","","","","4","","","","","","","","",""
"null","293604","SARL_v6","SARL_v60mytxduf","58d165dff7a08b000176c54c","fixation","","","img/fixation.png","null","","","test","","","","","","","","","","","","","","","","","","","",""
"723","294333","SARL_v6","SARL_v60mytxduf","58d165dff7a08b000176c54c","rl","","","img/black_2bandit_b2.png","75","","0","test","","","97","","","-12","circle","square","","0","4","","75","0","-12","0","-12","square","4","0"
"null","295092","SARL_v6","SARL_v60mytxduf","58d165dff7a08b000176c54c","feedback","","","<div class=""verylowPoints_sq""> -12 </div>","null","","na","test","","","NaN","","","","","","","","4","","75","","","","","","4",""
"null","295899","SARL_v6","SARL_v60mytxduf","58d165dff7a08b000176c54c","freq","","","img/orange_2bandit_b2.png","null","","70","test","0","","98","","","","circle","square","94","1","5","0.925531914893617","","","","","","","",""
"null","296060","SARL_v6","SARL_v60mytxduf","58d165dff7a08b000176c54c","fixation","","","img/fixation.png","null","","","test","","","","","","","","","","","","","","","","","","","",""
"null","296867","SARL_v6","SARL_v60mytxduf","58d165dff7a08b000176c54c","infreq","","","img/blue_2bandit_b2.png","null","","68","test","0","","99","","","","circle","square","95","2","5","0.9157894736842105","","","","","","","",""
"null","297027","SARL_v6","SARL_v60mytxduf","58d165dff7a08b000176c54c","fixation","","","img/fixation.png","null","","","test","","","","","","","","","","","","","","","","","","","",""
"800.1999999880791","297834","SARL_v6","SARL_v60mytxduf","58d165dff7a08b000176c54c","freq","","","img/orange_2bandit_b2.png","70","","70","test","1","","100","","","","circle","square","96","3","5","0.9166666666666666","","","","","","","",""
"null","297996","SARL_v6","SARL_v60mytxduf","58d165dff7a08b000176c54c","fixation","","","img/fixation.png","null","","","test","","","","","","","","","","","","","","","","","","","",""
"651.3000000119209","298653","SARL_v6","SARL_v60mytxduf","58d165dff7a08b000176c54c","freq","","","img/orange_2bandit_b2.png","70","","70","test","1","","101","","","","circle","square","97","4","5","0.9175257731958762","","","","","","","",""
"null","298812","SARL_v6","SARL_v60mytxduf","58d165dff7a08b000176c54c","freq_resp","","","img/orange_2bandit_b.png","70","img/orange_2bandit_b.png","70","test","","","","","","","","","","","5","","","","","","","","",""
"null","298971","SARL_v6","SARL_v60mytxduf","58d165dff7a08b000176c54c","fixation","","","img/fixation.png","null","","","test","","","","","","","","","","","","","","","","","","","",""
"539.1999999880791","299517","SARL_v6","SARL_v60mytxduf","58d165dff7a08b000176c54c","freq","","","img/orange_2bandit_b2.png","70","","70","test","1","","102","","","","circle","square","98","5","5","0.9183673469387755","","","","","","","",""
"null","299788","SARL_v6","SARL_v60mytxduf","58d165dff7a08b000176c54c","freq_resp","","","img/orange_2bandit_b.png","70","img/orange_2bandit_b.png","70","test","","","","","","","","","","","5","","","","","","","","",""
"null","299947","SARL_v6","SARL_v60mytxduf","58d165dff7a08b000176c54c","fixation","","","img/fixation.png","null","","","test","","","","","","","","","","","","","","","","","","","",""
"563","300517","SARL_v6","SARL_v60mytxduf","58d165dff7a08b000176c54c","freq","","","img/orange_2bandit_b2.png","70","","70","test","1","","103","","","","circle","square","99","6","5","0.9191919191919192","","","","","","","",""
"null","300763","SARL_v6","SARL_v60mytxduf","58d165dff7a08b000176c54c","freq_resp","","","img/orange_2bandit_b.png","70","img/orange_2bandit_b.png","70","test","","","","","","","","","","","5","","","","","","","","",""
"null","300924","SARL_v6","SARL_v60mytxduf","58d165dff7a08b000176c54c","fixation","","","img/fixation.png","null","","","test","","","","","","","","","","","","","","","","","","","",""
"null","301732","SARL_v6","SARL_v60mytxduf","58d165dff7a08b000176c54c","freq","","","img/orange_2bandit_b2.png","null","","70","test","0","","104","","","","circle","square","100","7","5","0.91","","","","","","","",""
"null","301892","SARL_v6","SARL_v60mytxduf","58d165dff7a08b000176c54c","fixation","","","img/fixation.png","null","","","test","","","","","","","","","","","","","","","","","","","",""
"null","302699","SARL_v6","SARL_v60mytxduf","58d165dff7a08b000176c54c","freq","","","img/orange_2bandit_b2.png","null","","70","test","0","","105","","","","circle","square","101","8","5","0.900990099009901","","","","","","","",""
"null","302860","SARL_v6","SARL_v60mytxduf","58d165dff7a08b000176c54c","fixation","","","img/fixation.png","null","","","test","","","","","","","","","","","","","","","","","","","",""
"100.90000000596046","302967","SARL_v6","SARL_v60mytxduf","58d165dff7a08b000176c54c","freq","","","img/orange_2bandit_b2.png","70","","70","test","1","","106","","","","circle","square","102","9","5","0.9019607843137255","","","","","","","",""
"null","303675","SARL_v6","SARL_v60mytxduf","58d165dff7a08b000176c54c","freq_resp","","","img/orange_2bandit_b.png","70","img/orange_2bandit_b.png","70","test","","","","","","","","","","","5","","","","","","","","",""
"null","303835","SARL_v6","SARL_v60mytxduf","58d165dff7a08b000176c54c","fixation","","","img/fixation.png","null","","","test","","","","","","","","","","","","","","","","","","","",""
"461.09999999403954","304303","SARL_v6","SARL_v60mytxduf","58d165dff7a08b000176c54c","freq","","","img/orange_2bandit_b2.png","70","","70","test","1","","107","","","","circle","square","103","10","5","0.9029126213592233","","","","","","","",""
"null","304651","SARL_v6","SARL_v60mytxduf","58d165dff7a08b000176c54c","freq_resp","","","img/orange_2bandit_b.png","70","img/orange_2bandit_b.png","70","test","","","","","","","","","","","5","","","","","","","","",""
"null","304812","SARL_v6","SARL_v60mytxduf","58d165dff7a08b000176c54c","fixation","","","img/fixation.png","null","","","test","","","","","","","","","","","","","","","","","","","",""
"479.60000002384186","305298","SARL_v6","SARL_v60mytxduf","58d165dff7a08b000176c54c","freq","","","img/orange_2bandit_b2.png","70","","70","test","1","","108","","","","circle","square","104","11","5","0.9038461538461539","","","","","","","",""
"null","305628","SARL_v6","SARL_v60mytxduf","58d165dff7a08b000176c54c","freq_resp","","","img/orange_2bandit_b.png","70","img/orange_2bandit_b.png","70","test","","","","","","","","","","","5","","","","","","","","",""
"null","305787","SARL_v6","SARL_v60mytxduf","58d165dff7a08b000176c54c","fixation","","","img/fixation.png","null","","","test","","","","","","","","","","","","","","","","","","","",""
"473.39999997615814","306269","SARL_v6","SARL_v60mytxduf","58d165dff7a08b000176c54c","infreq","","","img/blue_2bandit_b2.png","68","","68","test","1","","109","","","","circle","square","105","12","5","0.9047619047619048","","","","","","","",""
"null","306603","SARL_v6","SARL_v60mytxduf","58d165dff7a08b000176c54c","infreq_resp","","","img/blue_2bandit_b.png","68","img/blue_2bandit_b.png","68","test","","","","","","","","","","","5","","","","","","","","",""
"null","306764","SARL_v6","SARL_v60mytxduf","58d165dff7a08b000176c54c","fixation","","","img/fixation.png","null","","","test","","","","","","","","","","","","","","","","","","","",""
"466.7000000178814","307237","SARL_v6","SARL_v60mytxduf","58d165dff7a08b000176c54c","freq","","","img/orange_2bandit_b2.png","70","","70","test","1","","110","","","","circle","square","106","13","5","0.9056603773584906","","","","","","","",""
"null","307579","SARL_v6","SARL_v60mytxduf","58d165dff7a08b000176c54c","freq_resp","","","img/orange_2bandit_b.png","70","img/orange_2bandit_b.png","70","test","","","","","","","","","","","5","","","","","","","","",""
"null","307739","SARL_v6","SARL_v60mytxduf","58d165dff7a08b000176c54c","fixation","","","img/fixation.png","null","","","test","","","","","","","","","","","","","","","","","","","",""
"null","308547","SARL_v6","SARL_v60mytxduf","58d165dff7a08b000176c54c","freq","","","img/orange_2bandit_b2.png","null","","70","test","0","","111","","","","circle","square","107","14","5","0.897196261682243","","","","","","","",""
"null","308707","SARL_v6","SARL_v60mytxduf","58d165dff7a08b000176c54c","fixation","","","img/fixation.png","null","","","test","","","","","","","","","","","","","","","","","","","",""
"4.399999976158142","308718","SARL_v6","SARL_v60mytxduf","58d165dff7a08b000176c54c","freq","","","img/orange_2bandit_b2.png","70","","70","test","1","","112","","","","circle","square","108","15","5","0.8981481481481481","","","","","","","",""
"null","309523","SARL_v6","SARL_v60mytxduf","58d165dff7a08b000176c54c","freq_resp","","","img/orange_2bandit_b.png","70","img/orange_2bandit_b.png","70","test","","","","","","","","","","","5","","","","","","","","",""
"null","309683","SARL_v6","SARL_v60mytxduf","58d165dff7a08b000176c54c","fixation","","","img/fixation.png","null","","","test","","","","","","","","","","","","","","","","","","","",""
"378.7000000178814","310069","SARL_v6","SARL_v60mytxduf","58d165dff7a08b000176c54c","freq","","","img/orange_2bandit_b2.png","70","","70","test","1","","113","","","","circle","square","109","16","5","0.8990825688073395","","","","","","","",""
"null","310499","SARL_v6","SARL_v60mytxduf","58d165dff7a08b000176c54c","freq_resp","","","img/orange_2bandit_b.png","70","img/orange_2bandit_b.png","70","test","","","","","","","","","","","5","","","","","","","","",""
"null","310660","SARL_v6","SARL_v60mytxduf","58d165dff7a08b000176c54c","fixation","","","img/fixation.png","null","","","test","","","","","","","","","","","","","","","","","","","",""
"381.7999999821186","311048","SARL_v6","SARL_v60mytxduf","58d165dff7a08b000176c54c","freq","","","img/orange_2bandit_b2.png","70","","70","test","1","","114","","","","circle","square","110","17","5","0.9","","","","","","","",""
"null","311476","SARL_v6","SARL_v60mytxduf","58d165dff7a08b000176c54c","freq_resp","","","img/orange_2bandit_b.png","70","img/orange_2bandit_b.png","70","test","","","","","","","","","","","5","","","","","","","","",""
"null","311635","SARL_v6","SARL_v60mytxduf","58d165dff7a08b000176c54c","fixation","","","img/fixation.png","null","","","test","","","","","","","","","","","","","","","","","","","",""
"439.10000002384186","312081","SARL_v6","SARL_v60mytxduf","58d165dff7a08b000176c54c","freq","","","img/orange_2bandit_b2.png","70","","70","test","1","","115","","","","circle","square","111","18","5","0.9009009009009009","","","","","","","",""
"null","312451","SARL_v6","SARL_v60mytxduf","58d165dff7a08b000176c54c","freq_resp","","","img/orange_2bandit_b.png","70","img/orange_2bandit_b.png","70","test","","","","","","","","","","","5","","","","","","","","",""
"null","312612","SARL_v6","SARL_v60mytxduf","58d165dff7a08b000176c54c","fixation","","","img/fixation.png","null","","","test","","","","","","","","","","","","","","","","","","","",""
"393.2999999821186","313012","SARL_v6","SARL_v60mytxduf","58d165dff7a08b000176c54c","freq","","","img/orange_2bandit_b2.png","70","","70","test","1","","116","","","","circle","square","112","19","5","0.9017857142857143","","","","","","","",""
"null","313428","SARL_v6","SARL_v60mytxduf","58d165dff7a08b000176c54c","freq_resp","","","img/orange_2bandit_b.png","70","img/orange_2bandit_b.png","70","test","","","","","","","","","","","5","","","","","","","","",""
"null","313587","SARL_v6","SARL_v60mytxduf","58d165dff7a08b000176c54c","fixation","","","img/fixation.png","null","","","test","","","","","","","","","","","","","","","","","","","",""
"348","313942","SARL_v6","SARL_v60mytxduf","58d165dff7a08b000176c54c","freq","","","img/orange_2bandit_b2.png","70","","70","test","1","","117","","","","circle","square","113","20","5","0.9026548672566371","","","","","","","",""
"null","314403","SARL_v6","SARL_v60mytxduf","58d165dff7a08b000176c54c","freq_resp","","","img/orange_2bandit_b.png","70","img/orange_2bandit_b.png","70","test","","","","","","","","","","","5","","","","","","","","",""
"null","314564","SARL_v6","SARL_v60mytxduf","58d165dff7a08b000176c54c","fixation","","","img/fixation.png","null","","","test","","","","","","","","","","","","","","","","","","","",""
"413.5","314984","SARL_v6","SARL_v60mytxduf","58d165dff7a08b000176c54c","freq","","","img/orange_2bandit_b2.png","70","","70","test","1","","118","","","","circle","square","114","21","5","0.9035087719298246","","","","","","","",""
"null","315380","SARL_v6","SARL_v60mytxduf","58d165dff7a08b000176c54c","freq_resp","","","img/orange_2bandit_b.png","70","img/orange_2bandit_b.png","70","test","","","","","","","","","","","5","","","","","","","","",""
"null","315539","SARL_v6","SARL_v60mytxduf","58d165dff7a08b000176c54c","fixation","","","img/fixation.png","null","","","test","","","","","","","","","","","","","","","","","","","",""
"722.4000000059605","316268","SARL_v6","SARL_v60mytxduf","58d165dff7a08b000176c54c","rl","","","img/black_2bandit_b2.png","75","","0","test","","","119","","","-7","circle","square","","0","5","","75","4","-7","4","-7","square","5","0"
"null","317028","SARL_v6","SARL_v60mytxduf","58d165dff7a08b000176c54c","feedback","","","<div class=""verylowPoints_sq""> -7 </div>","null","","na","test","","","NaN","","","","","","","","5","","75","","","","","","5",""
"623.5999999940395","317660","SARL_v6","SARL_v60mytxduf","58d165dff7a08b000176c54c","freq","","","img/orange_2bandit_b2.png","70","","70","test","1","","120","","","","circle","square","115","1","6","0.9043478260869565","","","","","","","",""
"null","317844","SARL_v6","SARL_v60mytxduf","58d165dff7a08b000176c54c","freq_resp","","","img/orange_2bandit_b.png","70","img/orange_2bandit_b.png","70","test","","","","","","","","","","","6","","","","","","","","",""
"null","318003","SARL_v6","SARL_v60mytxduf","58d165dff7a08b000176c54c","fixation","","","img/fixation.png","null","","","test","","","","","","","","","","","","","","","","","","","",""
"383","318393","SARL_v6","SARL_v60mytxduf","58d165dff7a08b000176c54c","freq","","","img/orange_2bandit_b2.png","70","","70","test","1","","121","","","","circle","square","116","2","6","0.9051724137931034","","","","","","","",""
"null","318819","SARL_v6","SARL_v60mytxduf","58d165dff7a08b000176c54c","freq_resp","","","img/orange_2bandit_b.png","70","img/orange_2bandit_b.png","70","test","","","","","","","","","","","6","","","","","","","","",""
"null","318980","SARL_v6","SARL_v60mytxduf","58d165dff7a08b000176c54c","fixation","","","img/fixation.png","null","","","test","","","","","","","","","","","","","","","","","","","",""
"424.19999998807907","319410","SARL_v6","SARL_v60mytxduf","58d165dff7a08b000176c54c","freq","","","img/orange_2bandit_b2.png","70","","70","test","1","","122","","","","circle","square","117","3","6","0.905982905982906","","","","","","","",""
"null","319795","SARL_v6","SARL_v60mytxduf","58d165dff7a08b000176c54c","freq_resp","","","img/orange_2bandit_b.png","70","img/orange_2bandit_b.png","70","test","","","","","","","","","","","6","","","","","","","","",""
"null","319955","SARL_v6","SARL_v60mytxduf","58d165dff7a08b000176c54c","fixation","","","img/fixation.png","null","","","test","","","","","","","","","","","","","","","","","","","",""
"367.09999999403954","320330","SARL_v6","SARL_v60mytxduf","58d165dff7a08b000176c54c","freq","","","img/orange_2bandit_b2.png","70","","70","test","1","","123","","","","circle","square","118","4","6","0.9067796610169492","","","","","","","",""
"null","320771","SARL_v6","SARL_v60mytxduf","58d165dff7a08b000176c54c","freq_resp","","","img/orange_2bandit_b.png","70","img/orange_2bandit_b.png","70","test","","","","","","","","","","","6","","","","","","","","",""
"null","320931","SARL_v6","SARL_v60mytxduf","58d165dff7a08b000176c54c","fixation","","","img/fixation.png","null","","","test","","","","","","","","","","","","","","","","","","","",""
"290.59999999403954","321230","SARL_v6","SARL_v60mytxduf","58d165dff7a08b000176c54c","freq","","","img/orange_2bandit_b2.png","70","","70","test","1","","124","","","","circle","square","119","5","6","0.907563025210084","","","","","","","",""
"null","321747","SARL_v6","SARL_v60mytxduf","58d165dff7a08b000176c54c","freq_resp","","","img/orange_2bandit_b.png","70","img/orange_2bandit_b.png","70","test","","","","","","","","","","","6","","","","","","","","",""
"null","321908","SARL_v6","SARL_v60mytxduf","58d165dff7a08b000176c54c","fixation","","","img/fixation.png","null","","","test","","","","","","","","","","","","","","","","","","","",""
"283.60000002384186","322198","SARL_v6","SARL_v60mytxduf","58d165dff7a08b000176c54c","freq","","","img/orange_2bandit_b2.png","70","","70","test","1","","125","","","","circle","square","120","6","6","0.9083333333333333","","","","","","","",""
"null","322723","SARL_v6","SARL_v60mytxduf","58d165dff7a08b000176c54c","freq_resp","","","img/orange_2bandit_b.png","70","img/orange_2bandit_b.png","70","test","","","","","","","","","","","6","","","","","","","","",""
"null","322884","SARL_v6","SARL_v60mytxduf","58d165dff7a08b000176c54c","fixation","","","img/fixation.png","null","","","test","","","","","","","","","","","","","","","","","","","",""
"305.7999999821186","323197","SARL_v6","SARL_v60mytxduf","58d165dff7a08b000176c54c","freq","","","img/orange_2bandit_b2.png","70","","70","test","1","","126","","","","circle","square","121","7","6","0.9090909090909091","","","","","","","",""
"null","323699","SARL_v6","SARL_v60mytxduf","58d165dff7a08b000176c54c","freq_resp","","","img/orange_2bandit_b.png","70","img/orange_2bandit_b.png","70","test","","","","","","","","","","","6","","","","","","","","",""
"null","323859","SARL_v6","SARL_v60mytxduf","58d165dff7a08b000176c54c","fixation","","","img/fixation.png","null","","","test","","","","","","","","","","","","","","","","","","","",""
"254.7000000178814","324120","SARL_v6","SARL_v60mytxduf","58d165dff7a08b000176c54c","freq","","","img/orange_2bandit_b2.png","70","","70","test","1","","127","","","","circle","square","122","8","6","0.9098360655737705","","","","","","","",""
"null","324675","SARL_v6","SARL_v60mytxduf","58d165dff7a08b000176c54c","freq_resp","","","img/orange_2bandit_b.png","70","img/orange_2bandit_b.png","70","test","","","","","","","","","","","6","","","","","","","","",""
"null","324835","SARL_v6","SARL_v60mytxduf","58d165dff7a08b000176c54c","fixation","","","img/fixation.png","null","","","test","","","","","","","","","","","","","","","","","","","",""
"255","325097","SARL_v6","SARL_v60mytxduf","58d165dff7a08b000176c54c","freq","","","img/orange_2bandit_b2.png","70","","70","test","1","","128","","","","circle","square","123","9","6","0.9105691056910569","","","","","","","",""
"null","325651","SARL_v6","SARL_v60mytxduf","58d165dff7a08b000176c54c","freq_resp","","","img/orange_2bandit_b.png","70","img/orange_2bandit_b.png","70","test","","","","","","","","","","","6","","","","","","","","",""
"null","325812","SARL_v6","SARL_v60mytxduf","58d165dff7a08b000176c54c","fixation","","","img/fixation.png","null","","","test","","","","","","","","","","","","","","","","","","","",""
"254","326072","SARL_v6","SARL_v60mytxduf","58d165dff7a08b000176c54c","freq","","","img/orange_2bandit_b2.png","70","","70","test","1","","129","","","","circle","square","124","10","6","0.9112903225806451","","","","","","","",""
"null","326628","SARL_v6","SARL_v60mytxduf","58d165dff7a08b000176c54c","freq_resp","","","img/orange_2bandit_b.png","70","img/orange_2bandit_b.png","70","test","","","","","","","","","","","6","","","","","","","","",""
"null","326787","SARL_v6","SARL_v60mytxduf","58d165dff7a08b000176c54c","fixation","","","img/fixation.png","null","","","test","","","","","","","","","","","","","","","","","","","",""
"246.5","327040","SARL_v6","SARL_v60mytxduf","58d165dff7a08b000176c54c","freq","","","img/orange_2bandit_b2.png","70","","70","test","1","","130","","","","circle","square","125","11","6","0.912","","","","","","","",""
"null","327603","SARL_v6","SARL_v60mytxduf","58d165dff7a08b000176c54c","freq_resp","","","img/orange_2bandit_b.png","70","img/orange_2bandit_b.png","70","test","","","","","","","","","","","6","","","","","","","","",""
"null","327764","SARL_v6","SARL_v60mytxduf","58d165dff7a08b000176c54c","fixation","","","img/fixation.png","null","","","test","","","","","","","","","","","","","","","","","","","",""
"290.40000000596046","328062","SARL_v6","SARL_v60mytxduf","58d165dff7a08b000176c54c","freq","","","img/orange_2bandit_b2.png","70","","70","test","1","","131","","","","circle","square","126","12","6","0.9126984126984127","","","","","","","",""
"null","328580","SARL_v6","SARL_v60mytxduf","58d165dff7a08b000176c54c","freq_resp","","","img/orange_2bandit_b.png","70","img/orange_2bandit_b.png","70","test","","","","","","","","","","","6","","","","","","","","",""
"null","328739","SARL_v6","SARL_v60mytxduf","58d165dff7a08b000176c54c","fixation","","","img/fixation.png","null","","","test","","","","","","","","","","","","","","","","","","","",""
"510.5","329257","SARL_v6","SARL_v60mytxduf","58d165dff7a08b000176c54c","infreq","","","img/blue_2bandit_b2.png","68","","68","test","1","","132","","","","circle","square","127","13","6","0.9133858267716536","","","","","","","",""
"null","329555","SARL_v6","SARL_v60mytxduf","58d165dff7a08b000176c54c","infreq_resp","","","img/blue_2bandit_b.png","68","img/blue_2bandit_b.png","68","test","","","","","","","","","","","6","","","","","","","","",""
"null","329715","SARL_v6","SARL_v60mytxduf","58d165dff7a08b000176c54c","fixation","","","img/fixation.png","null","","","test","","","","","","","","","","","","","","","","","","","",""
"490","330212","SARL_v6","SARL_v60mytxduf","58d165dff7a08b000176c54c","freq","","","img/orange_2bandit_b2.png","70","","70","test","1","","133","","","","circle","square","128","14","6","0.9140625","","","","","","","",""
