"rt","time_elapsed","expId","subject","prolificID","trialType","rlType","attType","stimulus","key_press","stim","corrresp","phase","corr","pracCounter","trialNum","rewardOne","rewardTwo","reward","bandOne","bandTwo","attentionNum","attentionRunNum","blockNum","performance","bandChosen","circleVal","squareVal","bandOneVal","bandTwoVal","shapeChosen","rlNum","badFlag"
"1782.699999988079","1791","SARL_v6","SARL_v6hfc7wqsn","60d3990d793d0ee075314af2","","","","","","","","","","","","","","","","","","","","","","","","","","","",""
"","3800","SARL_v6","SARL_v6hfc7wqsn","60d3990d793d0ee075314af2","fullscreen","fullscreen","fullscreen","","","","","","","","","","","","","","","","","","","","","","","","",""
"34044.10000002384","37850","SARL_v6","SARL_v6hfc7wqsn","60d3990d793d0ee075314af2","","","","","","","","","","","","","","","","","","","","","","","","","","","",""
"null","38665","SARL_v6","SARL_v6hfc7wqsn","60d3990d793d0ee075314af2","freqPrac","","","img/orange_2bandit_a2.png","null","img/orange_2bandit_a2.png","70","prac","0","1","","","","","","","","","","","","","","","","","",""
"null","39689","SARL_v6","SARL_v6hfc7wqsn","60d3990d793d0ee075314af2","feedback","","","img/tooSlow.png","null","","na","prac","","","","","","","","","","","","","","","","","","","",""
"null","39849","SARL_v6","SARL_v6hfc7wqsn","60d3990d793d0ee075314af2","fixation","","","img/fixation.png","null","","","prac","","","","","","","","","","","","","","","","","","","",""
"540","40393","SARL_v6","SARL_v6hfc7wqsn","60d3990d793d0ee075314af2","infreqPrac","","","img/blue_2bandit_a2.png","68","img/blue_2bandit_a2.png","68","prac","1","1","","","","","","","","","","","","","","","","","",""
"540","40665","SARL_v6","SARL_v6hfc7wqsn","60d3990d793d0ee075314af2","infreqPrac_resp","","","img/blue_2bandit_a.png","68","img/blue_2bandit_a.png","68","prac","","","","","","","","","","","","","","","","","","","",""
"null","40825","SARL_v6","SARL_v6hfc7wqsn","60d3990d793d0ee075314af2","fixation","","","img/fixation.png","null","","","prac","","","","","","","","","","","","","","","","","","","",""
"552.8999999761581","41382","SARL_v6","SARL_v6hfc7wqsn","60d3990d793d0ee075314af2","freqPrac","","","img/orange_2bandit_a2.png","70","img/orange_2bandit_a2.png","70","prac","1","1","","","","","","","","","","","","","","","","","",""
"552.8999999761581","41636","SARL_v6","SARL_v6hfc7wqsn","60d3990d793d0ee075314af2","freqPrac_resp","","","img/orange_2bandit_a.png","70","img/orange_2bandit_a.png","70","prac","","","","","","","","","","","","","","","","","","","",""
"null","41796","SARL_v6","SARL_v6hfc7wqsn","60d3990d793d0ee075314af2","fixation","","","img/fixation.png","null","","","prac","","","","","","","","","","","","","","","","","","","",""
"454.09999999403954","42253","SARL_v6","SARL_v6hfc7wqsn","60d3990d793d0ee075314af2","infreqPrac","","","img/blue_2bandit_a2.png","68","img/blue_2bandit_a2.png","68","prac","1","1","","","","","","","","","","","","","","","","","",""
"454.09999999403954","42611","SARL_v6","SARL_v6hfc7wqsn","60d3990d793d0ee075314af2","infreqPrac_resp","","","img/blue_2bandit_a.png","68","img/blue_2bandit_a.png","68","prac","","","","","","","","","","","","","","","","","","","",""
"null","42770","SARL_v6","SARL_v6hfc7wqsn","60d3990d793d0ee075314af2","fixation","","","img/fixation.png","null","","","prac","","","","","","","","","","","","","","","","","","","",""
"388.2000000178814","43161","SARL_v6","SARL_v6hfc7wqsn","60d3990d793d0ee075314af2","infreqPrac","","","img/blue_2bandit_a2.png","68","img/blue_2bandit_a2.png","68","prac","1","1","","","","","","","","","","","","","","","","","",""
"388.2000000178814","43578","SARL_v6","SARL_v6hfc7wqsn","60d3990d793d0ee075314af2","infreqPrac_resp","","","img/blue_2bandit_a.png","68","img/blue_2bandit_a.png","68","prac","","","","","","","","","","","","","","","","","","","",""
"null","43738","SARL_v6","SARL_v6hfc7wqsn","60d3990d793d0ee075314af2","fixation","","","img/fixation.png","null","","","prac","","","","","","","","","","","","","","","","","","","",""
"378.19999998807907","44119","SARL_v6","SARL_v6hfc7wqsn","60d3990d793d0ee075314af2","infreqPrac","","","img/blue_2bandit_a2.png","68","img/blue_2bandit_a2.png","68","prac","1","1","","","","","","","","","","","","","","","","","",""
"378.19999998807907","44548","SARL_v6","SARL_v6hfc7wqsn","60d3990d793d0ee075314af2","infreqPrac_resp","","","img/blue_2bandit_a.png","68","img/blue_2bandit_a.png","68","prac","","","","","","","","","","","","","","","","","","","",""
"null","44708","SARL_v6","SARL_v6hfc7wqsn","60d3990d793d0ee075314af2","fixation","","","img/fixation.png","null","","","prac","","","","","","","","","","","","","","","","","","","",""
"458.59999999403954","45170","SARL_v6","SARL_v6hfc7wqsn","60d3990d793d0ee075314af2","freqPrac","","","img/orange_2bandit_a2.png","70","img/orange_2bandit_a2.png","70","prac","1","1","","","","","","","","","","","","","","","","","",""
"458.59999999403954","45524","SARL_v6","SARL_v6hfc7wqsn","60d3990d793d0ee075314af2","freqPrac_resp","","","img/orange_2bandit_a.png","70","img/orange_2bandit_a.png","70","prac","","","","","","","","","","","","","","","","","","","",""
"null","45682","SARL_v6","SARL_v6hfc7wqsn","60d3990d793d0ee075314af2","fixation","","","img/fixation.png","null","","","prac","","","","","","","","","","","","","","","","","","","",""
"546.8000000119209","46232","SARL_v6","SARL_v6hfc7wqsn","60d3990d793d0ee075314af2","infreqPrac","","","img/blue_2bandit_a2.png","68","img/blue_2bandit_a2.png","68","prac","1","1","","","","","","","","","","","","","","","","","",""
"546.8000000119209","46500","SARL_v6","SARL_v6hfc7wqsn","60d3990d793d0ee075314af2","infreqPrac_resp","","","img/blue_2bandit_a.png","68","img/blue_2bandit_a.png","68","prac","","","","","","","","","","","","","","","","","","","",""
"null","46660","SARL_v6","SARL_v6hfc7wqsn","60d3990d793d0ee075314af2","fixation","","","img/fixation.png","null","","","prac","","","","","","","","","","","","","","","","","","","",""
"408","47071","SARL_v6","SARL_v6hfc7wqsn","60d3990d793d0ee075314af2","freqPrac","","","img/orange_2bandit_a2.png","70","img/orange_2bandit_a2.png","70","prac","1","1","","","","","","","","","","","","","","","","","",""
"408","47476","SARL_v6","SARL_v6hfc7wqsn","60d3990d793d0ee075314af2","freqPrac_resp","","","img/orange_2bandit_a.png","70","img/orange_2bandit_a.png","70","prac","","","","","","","","","","","","","","","","","","","",""
"null","47636","SARL_v6","SARL_v6hfc7wqsn","60d3990d793d0ee075314af2","fixation","","","img/fixation.png","null","","","prac","","","","","","","","","","","","","","","","","","","",""
"379.90000000596046","48019","SARL_v6","SARL_v6hfc7wqsn","60d3990d793d0ee075314af2","freqPrac","","","img/orange_2bandit_a2.png","70","img/orange_2bandit_a2.png","70","prac","1","1","","","","","","","","","","","","","","","","","",""
"379.90000000596046","48452","SARL_v6","SARL_v6hfc7wqsn","60d3990d793d0ee075314af2","freqPrac_resp","","","img/orange_2bandit_a.png","70","img/orange_2bandit_a.png","70","prac","","","","","","","","","","","","","","","","","","","",""
"null","48612","SARL_v6","SARL_v6hfc7wqsn","60d3990d793d0ee075314af2","fixation","","","img/fixation.png","null","","","prac","","","","","","","","","","","","","","","","","","","",""
"12648.700000017881","61264","SARL_v6","SARL_v6hfc7wqsn","60d3990d793d0ee075314af2","","","","","","","","prac","","","","","","","","","","","","","","","","","","","",""
"603.9000000059605","61872","SARL_v6","SARL_v6hfc7wqsn","60d3990d793d0ee075314af2","rlPractice","","","img/black_2bandit_a2.png","74","img/black_2bandit_a2.png","","prac","","","0","","","","","","","","","","","","","","","","",""
"null","62634","SARL_v6","SARL_v6hfc7wqsn","60d3990d793d0ee075314af2","feedback","","","<div class=""verylowPoints_sq""> -14 </div>","null","","na","prac","","","1","10","-14","10","","","","","","","","","","","","","",""
"null","62794","SARL_v6","SARL_v6hfc7wqsn","60d3990d793d0ee075314af2","fixation","","","img/fixation.png","null","","","prac","","","","","","","","","","","","","","","","","","","",""
"441.7000000178814","63239","SARL_v6","SARL_v6hfc7wqsn","60d3990d793d0ee075314af2","rlPractice","","","img/black_2bandit_a2.png","74","img/black_2bandit_a2.png","","prac","","","1","","","","","","","","","","","","","","","","",""
"null","63994","SARL_v6","SARL_v6hfc7wqsn","60d3990d793d0ee075314af2","feedback","","","<div class=""verylowPoints_sq""> -5 </div>","null","","na","prac","","","2","5","-5","5","","","","","","","","","","","","","",""
"null","64154","SARL_v6","SARL_v6hfc7wqsn","60d3990d793d0ee075314af2","fixation","","","img/fixation.png","null","","","prac","","","","","","","","","","","","","","","","","","","",""
"603.4000000059605","64761","SARL_v6","SARL_v6hfc7wqsn","60d3990d793d0ee075314af2","rlPractice","","","img/black_2bandit_a2.png","75","img/black_2bandit_a2.png","","prac","","","2","","","","","","","","","","","","","","","","",""
"null","65525","SARL_v6","SARL_v6hfc7wqsn","60d3990d793d0ee075314af2","feedback","","","<div class=""veryhighPoints""> 30 </div>","null","","na","prac","","","3","30","2","30","","","","","","","","","","","","","",""
"null","65685","SARL_v6","SARL_v6hfc7wqsn","60d3990d793d0ee075314af2","fixation","","","img/fixation.png","null","","","prac","","","","","","","","","","","","","","","","","","","",""
"359.19999998807907","66047","SARL_v6","SARL_v6hfc7wqsn","60d3990d793d0ee075314af2","rlPractice","","","img/black_2bandit_a2.png","75","img/black_2bandit_a2.png","","prac","","","3","","","","","","","","","","","","","","","","",""
"null","66805","SARL_v6","SARL_v6hfc7wqsn","60d3990d793d0ee075314af2","feedback","","","<div class=""verylowPoints""> -2 </div>","null","","na","prac","","","4","-2","20","-2","","","","","","","","","","","","","",""
"null","66965","SARL_v6","SARL_v6hfc7wqsn","60d3990d793d0ee075314af2","fixation","","","img/fixation.png","null","","","prac","","","","","","","","","","","","","","","","","","","",""
"23246","90214","SARL_v6","SARL_v6hfc7wqsn","60d3990d793d0ee075314af2","","","","","","","","prac","","","","","","","","","","","","","","","","","","","",""
"null","91019","SARL_v6","SARL_v6hfc7wqsn","60d3990d793d0ee075314af2","mixAttFreqPrac","","","img/orange_2bandit_a2.png","null","img/orange_2bandit_a2.png","70","prac","","","1","","","","","","","","","","","","","","","","",""
"135.7999999821186","91179","SARL_v6","SARL_v6hfc7wqsn","60d3990d793d0ee075314af2","fixation","","","img/fixation.png","70","","","prac","","","","","","","","","","","","","","","","","","","",""
"521.8000000119209","91704","SARL_v6","SARL_v6hfc7wqsn","60d3990d793d0ee075314af2","mixAttInfreqPrac","","","img/blue_2bandit_a2.png","68","img/blue_2bandit_a2.png","68","prac","","","2","","","","","","","","","","","","","","","","",""
"521.8000000119209","91989","SARL_v6","SARL_v6hfc7wqsn","60d3990d793d0ee075314af2","infreqPrac_resp","","","img/blue_2bandit_a.png","68","img/orange_2bandit_a.png","68","prac","","","2","","","","","","","","","","","","","","","","",""
"null","92150","SARL_v6","SARL_v6hfc7wqsn","60d3990d793d0ee075314af2","fixation","","","img/fixation.png","null","","","prac","","","","","","","","","","","","","","","","","","","",""
"432.2999999821186","92585","SARL_v6","SARL_v6hfc7wqsn","60d3990d793d0ee075314af2","mixAttInfreqPrac","","","img/blue_2bandit_a2.png","68","img/blue_2bandit_a2.png","68","prac","","","3","","","","","","","","","","","","","","","","",""
"432.2999999821186","92966","SARL_v6","SARL_v6hfc7wqsn","60d3990d793d0ee075314af2","infreqPrac_resp","","","img/blue_2bandit_a.png","68","img/orange_2bandit_a.png","68","prac","","","3","","","","","","","","","","","","","","","","",""
"null","93126","SARL_v6","SARL_v6hfc7wqsn","60d3990d793d0ee075314af2","fixation","","","img/fixation.png","null","","","prac","","","","","","","","","","","","","","","","","","","",""
"561.9000000059605","93691","SARL_v6","SARL_v6hfc7wqsn","60d3990d793d0ee075314af2","mixAttInfreqPrac","","","img/blue_2bandit_a2.png","68","img/blue_2bandit_a2.png","68","prac","","","4","","","","","","","","","","","","","","","","",""
"561.9000000059605","93942","SARL_v6","SARL_v6hfc7wqsn","60d3990d793d0ee075314af2","infreqPrac_resp","","","img/blue_2bandit_a.png","68","img/orange_2bandit_a.png","68","prac","","","4","","","","","","","","","","","","","","","","",""
"null","94102","SARL_v6","SARL_v6hfc7wqsn","60d3990d793d0ee075314af2","fixation","","","img/fixation.png","null","","","prac","","","","","","","","","","","","","","","","","","","",""
"500.09999999403954","94605","SARL_v6","SARL_v6hfc7wqsn","60d3990d793d0ee075314af2","mixAttFreqPrac","","","img/orange_2bandit_a2.png","70","img/orange_2bandit_a2.png","70","prac","","","5","","","","","","","","","","","","","","","","",""
"500.09999999403954","94918","SARL_v6","SARL_v6hfc7wqsn","60d3990d793d0ee075314af2","freqPrac_resp","","","img/orange_2bandit_a.png","70","img/orange_2bandit_a.png","70","prac","","","5","","","","","","","","","","","","","","","","",""
"null","95078","SARL_v6","SARL_v6hfc7wqsn","60d3990d793d0ee075314af2","fixation","","","img/fixation.png","null","","","prac","","","","","","","","","","","","","","","","","","","",""
"null","96587","SARL_v6","SARL_v6hfc7wqsn","60d3990d793d0ee075314af2","mixRLPractice","","","img/black_2bandit_a2.png","null","img/black_2bandit_a2.png","","prac","","","5","","","","","","","","","","","","","","","","",""
"null","97350","SARL_v6","SARL_v6hfc7wqsn","60d3990d793d0ee075314af2","feedback","","","<div font size = 80> TOO SLOW  </div>","null","","na","prac","","","6","-14","10","-14","","","","","","","","","","","","","",""
"null","97510","SARL_v6","SARL_v6hfc7wqsn","60d3990d793d0ee075314af2","fixation","","","img/fixation.png","null","","","prac","","","","","","","","","","","","","","","","","","","",""
"644.9000000059605","98158","SARL_v6","SARL_v6hfc7wqsn","60d3990d793d0ee075314af2","mixAttFreqPrac","","","img/orange_2bandit_a2.png","70","img/orange_2bandit_a2.png","70","prac","","","7","","","","","","","","","","","","","","","","",""
"644.9000000059605","98326","SARL_v6","SARL_v6hfc7wqsn","60d3990d793d0ee075314af2","freqPrac_resp","","","img/orange_2bandit_a.png","70","img/orange_2bandit_a.png","70","prac","","","7","","","","","","","","","","","","","","","","",""
"null","98486","SARL_v6","SARL_v6hfc7wqsn","60d3990d793d0ee075314af2","fixation","","","img/fixation.png","null","","","prac","","","","","","","","","","","","","","","","","","","",""
"null","99291","SARL_v6","SARL_v6hfc7wqsn","60d3990d793d0ee075314af2","mixAttInfreqPrac","","","img/blue_2bandit_a2.png","null","img/blue_2bandit_a2.png","68","prac","","","8","","","","","","","","","","","","","","","","",""
"93.39999997615814","99451","SARL_v6","SARL_v6hfc7wqsn","60d3990d793d0ee075314af2","fixation","","","img/fixation.png","68","","","prac","","","","","","","","","","","","","","","","","","","",""
"679.2000000178814","100134","SARL_v6","SARL_v6hfc7wqsn","60d3990d793d0ee075314af2","mixAttFreqPrac","","","img/orange_2bandit_a2.png","70","img/orange_2bandit_a2.png","70","prac","","","9","","","","","","","","","","","","","","","","",""
"679.2000000178814","100257","SARL_v6","SARL_v6hfc7wqsn","60d3990d793d0ee075314af2","freqPrac_resp","","","img/orange_2bandit_a.png","70","img/orange_2bandit_a.png","70","prac","","","9","","","","","","","","","","","","","","","","",""
"null","100422","SARL_v6","SARL_v6hfc7wqsn","60d3990d793d0ee075314af2","fixation","","","img/fixation.png","null","","","prac","","","","","","","","","","","","","","","","","","","",""
"null","101227","SARL_v6","SARL_v6hfc7wqsn","60d3990d793d0ee075314af2","mixAttFreqPrac","","","img/orange_2bandit_a2.png","null","img/orange_2bandit_a2.png","70","prac","","","10","","","","","","","","","","","","","","","","",""
"14.100000023841858","101387","SARL_v6","SARL_v6hfc7wqsn","60d3990d793d0ee075314af2","fixation","","","img/fixation.png","70","","","prac","","","","","","","","","","","","","","","","","","","",""
"572.1999999880791","101963","SARL_v6","SARL_v6hfc7wqsn","60d3990d793d0ee075314af2","mixAttInfreqPrac","","","img/blue_2bandit_a2.png","68","img/blue_2bandit_a2.png","68","prac","","","11","","","","","","","","","","","","","","","","",""
"572.1999999880791","102198","SARL_v6","SARL_v6hfc7wqsn","60d3990d793d0ee075314af2","infreqPrac_resp","","","img/blue_2bandit_a.png","68","img/orange_2bandit_a.png","68","prac","","","11","","","","","","","","","","","","","","","","",""
"null","102358","SARL_v6","SARL_v6hfc7wqsn","60d3990d793d0ee075314af2","fixation","","","img/fixation.png","null","","","prac","","","","","","","","","","","","","","","","","","","",""
"686.4000000059605","103048","SARL_v6","SARL_v6hfc7wqsn","60d3990d793d0ee075314af2","mixRLPractice","","","img/black_2bandit_a2.png","75","img/black_2bandit_a2.png","","prac","","","11","","","","","","","","","","","","","","","","",""
"null","103803","SARL_v6","SARL_v6hfc7wqsn","60d3990d793d0ee075314af2","feedback","","","<div class=""veryhighPoints""> 5 </div>","null","","na","prac","","","12","5","-5","5","","","","","","","","","","","","","",""
"null","103962","SARL_v6","SARL_v6hfc7wqsn","60d3990d793d0ee075314af2","fixation","","","img/fixation.png","null","","","prac","","","","","","","","","","","","","","","","","","","",""
"11783","115748","SARL_v6","SARL_v6hfc7wqsn","60d3990d793d0ee075314af2","","","","","","","","prac","","","","","","","","","","","","","","","","","","","",""
"null","116556","SARL_v6","SARL_v6hfc7wqsn","60d3990d793d0ee075314af2","freq","","","img/orange_2bandit_a2.png","null","","70","test","0","","1","","","","square","circle","1","1","1","0","","","","","","","",""
"null","116716","SARL_v6","SARL_v6hfc7wqsn","60d3990d793d0ee075314af2","fixation","","","img/fixation.png","null","","","test","","","","","","","","","","","","","","","","","","","",""
"266.40000000596046","116985","SARL_v6","SARL_v6hfc7wqsn","60d3990d793d0ee075314af2","freq","","","img/orange_2bandit_a2.png","70","","70","test","1","","2","","","","square","circle","2","2","1","0.5","","","","","","","",""
"null","117527","SARL_v6","SARL_v6hfc7wqsn","60d3990d793d0ee075314af2","freq_resp","","","img/orange_2bandit_a.png","70","img/orange_2bandit_a.png","70","test","","","","","","","","","","","1","","","","","","","","",""
"null","117686","SARL_v6","SARL_v6hfc7wqsn","60d3990d793d0ee075314af2","fixation","","","img/fixation.png","null","","","test","","","","","","","","","","","","","","","","","","","",""
"352.69999998807907","118042","SARL_v6","SARL_v6hfc7wqsn","60d3990d793d0ee075314af2","freq","","","img/orange_2bandit_a2.png","70","","70","test","1","","3","","","","square","circle","3","3","1","0.6666666666666666","","","","","","","",""
"null","118502","SARL_v6","SARL_v6hfc7wqsn","60d3990d793d0ee075314af2","freq_resp","","","img/orange_2bandit_a.png","70","img/orange_2bandit_a.png","70","test","","","","","","","","","","","1","","","","","","","","",""
"null","118662","SARL_v6","SARL_v6hfc7wqsn","60d3990d793d0ee075314af2","fixation","","","img/fixation.png","null","","","test","","","","","","","","","","","","","","","","","","","",""
"307.7000000178814","118973","SARL_v6","SARL_v6hfc7wqsn","60d3990d793d0ee075314af2","freq","","","img/orange_2bandit_a2.png","70","","70","test","1","","4","","","","square","circle","4","4","1","0.75","","","","","","","",""
"null","119478","SARL_v6","SARL_v6hfc7wqsn","60d3990d793d0ee075314af2","freq_resp","","","img/orange_2bandit_a.png","70","img/orange_2bandit_a.png","70","test","","","","","","","","","","","1","","","","","","","","",""
"null","119638","SARL_v6","SARL_v6hfc7wqsn","60d3990d793d0ee075314af2","fixation","","","img/fixation.png","null","","","test","","","","","","","","","","","","","","","","","","","",""
"317.5","119959","SARL_v6","SARL_v6hfc7wqsn","60d3990d793d0ee075314af2","freq","","","img/orange_2bandit_a2.png","70","","70","test","1","","5","","","","square","circle","5","5","1","0.8","","","","","","","",""
"null","120454","SARL_v6","SARL_v6hfc7wqsn","60d3990d793d0ee075314af2","freq_resp","","","img/orange_2bandit_a.png","70","img/orange_2bandit_a.png","70","test","","","","","","","","","","","1","","","","","","","","",""
"null","120614","SARL_v6","SARL_v6hfc7wqsn","60d3990d793d0ee075314af2","fixation","","","img/fixation.png","null","","","test","","","","","","","","","","","","","","","","","","","",""
"290.5","120908","SARL_v6","SARL_v6hfc7wqsn","60d3990d793d0ee075314af2","freq","","","img/orange_2bandit_a2.png","70","","70","test","1","","6","","","","square","circle","6","6","1","0.8333333333333334","","","","","","","",""
"null","121431","SARL_v6","SARL_v6hfc7wqsn","60d3990d793d0ee075314af2","freq_resp","","","img/orange_2bandit_a.png","70","img/orange_2bandit_a.png","70","test","","","","","","","","","","","1","","","","","","","","",""
"null","121590","SARL_v6","SARL_v6hfc7wqsn","60d3990d793d0ee075314af2","fixation","","","img/fixation.png","null","","","test","","","","","","","","","","","","","","","","","","","",""
"288.40000000596046","121882","SARL_v6","SARL_v6hfc7wqsn","60d3990d793d0ee075314af2","freq","","","img/orange_2bandit_a2.png","70","","70","test","1","","7","","","","square","circle","7","7","1","0.8571428571428571","","","","","","","",""
"null","122406","SARL_v6","SARL_v6hfc7wqsn","60d3990d793d0ee075314af2","freq_resp","","","img/orange_2bandit_a.png","70","img/orange_2bandit_a.png","70","test","","","","","","","","","","","1","","","","","","","","",""
"null","122566","SARL_v6","SARL_v6hfc7wqsn","60d3990d793d0ee075314af2","fixation","","","img/fixation.png","null","","","test","","","","","","","","","","","","","","","","","","","",""
"468.59999999403954","123038","SARL_v6","SARL_v6hfc7wqsn","60d3990d793d0ee075314af2","infreq","","","img/blue_2bandit_a2.png","68","","68","test","1","","8","","","","square","circle","8","8","1","0.875","","","","","","","",""
"null","123382","SARL_v6","SARL_v6hfc7wqsn","60d3990d793d0ee075314af2","infreq_resp","","","img/blue_2bandit_a.png","68","img/blue_2bandit_a.png","68","test","","","","","","","","","","","1","","","","","","","","",""
"null","123543","SARL_v6","SARL_v6hfc7wqsn","60d3990d793d0ee075314af2","fixation","","","img/fixation.png","null","","","test","","","","","","","","","","","","","","","","","","","",""
"477.80000001192093","124024","SARL_v6","SARL_v6hfc7wqsn","60d3990d793d0ee075314af2","freq","","","img/orange_2bandit_a2.png","70","","70","test","1","","9","","","","square","circle","9","9","1","0.8888888888888888","","","","","","","",""
"null","124359","SARL_v6","SARL_v6hfc7wqsn","60d3990d793d0ee075314af2","freq_resp","","","img/orange_2bandit_a.png","70","img/orange_2bandit_a.png","70","test","","","","","","","","","","","1","","","","","","","","",""
"null","124519","SARL_v6","SARL_v6hfc7wqsn","60d3990d793d0ee075314af2","fixation","","","img/fixation.png","null","","","test","","","","","","","","","","","","","","","","","","","",""
"410.40000000596046","124932","SARL_v6","SARL_v6hfc7wqsn","60d3990d793d0ee075314af2","freq","","","img/orange_2bandit_a2.png","70","","70","test","1","","10","","","","square","circle","10","10","1","0.9","","","","","","","",""
"null","125334","SARL_v6","SARL_v6hfc7wqsn","60d3990d793d0ee075314af2","freq_resp","","","img/orange_2bandit_a.png","70","img/orange_2bandit_a.png","70","test","","","","","","","","","","","1","","","","","","","","",""
"null","125495","SARL_v6","SARL_v6hfc7wqsn","60d3990d793d0ee075314af2","fixation","","","img/fixation.png","null","","","test","","","","","","","","","","","","","","","","","","","",""
"348.2000000178814","125846","SARL_v6","SARL_v6hfc7wqsn","60d3990d793d0ee075314af2","freq","","","img/orange_2bandit_a2.png","70","","70","test","1","","11","","","","square","circle","11","11","1","0.9090909090909091","","","","","","","",""
"null","126311","SARL_v6","SARL_v6hfc7wqsn","60d3990d793d0ee075314af2","freq_resp","","","img/orange_2bandit_a.png","70","img/orange_2bandit_a.png","70","test","","","","","","","","","","","1","","","","","","","","",""
"null","126471","SARL_v6","SARL_v6hfc7wqsn","60d3990d793d0ee075314af2","fixation","","","img/fixation.png","null","","","test","","","","","","","","","","","","","","","","","","","",""
"368.19999998807907","126842","SARL_v6","SARL_v6hfc7wqsn","60d3990d793d0ee075314af2","freq","","","img/orange_2bandit_a2.png","70","","70","test","1","","12","","","","square","circle","12","12","1","0.9166666666666666","","","","","","","",""
"null","127287","SARL_v6","SARL_v6hfc7wqsn","60d3990d793d0ee075314af2","freq_resp","","","img/orange_2bandit_a.png","70","img/orange_2bandit_a.png","70","test","","","","","","","","","","","1","","","","","","","","",""
"null","127447","SARL_v6","SARL_v6hfc7wqsn","60d3990d793d0ee075314af2","fixation","","","img/fixation.png","null","","","test","","","","","","","","","","","","","","","","","","","",""
"356.2999999821186","127806","SARL_v6","SARL_v6hfc7wqsn","60d3990d793d0ee075314af2","freq","","","img/orange_2bandit_a2.png","70","","70","test","1","","13","","","","square","circle","13","13","1","0.9230769230769231","","","","","","","",""
"null","128263","SARL_v6","SARL_v6hfc7wqsn","60d3990d793d0ee075314af2","freq_resp","","","img/orange_2bandit_a.png","70","img/orange_2bandit_a.png","70","test","","","","","","","","","","","1","","","","","","","","",""
"null","128423","SARL_v6","SARL_v6hfc7wqsn","60d3990d793d0ee075314af2","fixation","","","img/fixation.png","null","","","test","","","","","","","","","","","","","","","","","","","",""
"346.09999999403954","128772","SARL_v6","SARL_v6hfc7wqsn","60d3990d793d0ee075314af2","freq","","","img/orange_2bandit_a2.png","70","","70","test","1","","14","","","","square","circle","14","14","1","0.9285714285714286","","","","","","","",""
"null","129239","SARL_v6","SARL_v6hfc7wqsn","60d3990d793d0ee075314af2","freq_resp","","","img/orange_2bandit_a.png","70","img/orange_2bandit_a.png","70","test","","","","","","","","","","","1","","","","","","","","",""
"null","129399","SARL_v6","SARL_v6hfc7wqsn","60d3990d793d0ee075314af2","fixation","","","img/fixation.png","null","","","test","","","","","","","","","","","","","","","","","","","",""
"474.09999999403954","129876","SARL_v6","SARL_v6hfc7wqsn","60d3990d793d0ee075314af2","infreq","","","img/blue_2bandit_a2.png","68","","68","test","1","","15","","","","square","circle","15","15","1","0.9333333333333333","","","","","","","",""
"null","130215","SARL_v6","SARL_v6hfc7wqsn","60d3990d793d0ee075314af2","infreq_resp","","","img/blue_2bandit_a.png","68","img/blue_2bandit_a.png","68","test","","","","","","","","","","","1","","","","","","","","",""
"null","130375","SARL_v6","SARL_v6hfc7wqsn","60d3990d793d0ee075314af2","fixation","","","img/fixation.png","null","","","test","","","","","","","","","","","","","","","","","","","",""
"380.90000000596046","130759","SARL_v6","SARL_v6hfc7wqsn","60d3990d793d0ee075314af2","freq","","","img/orange_2bandit_a2.png","70","","70","test","1","","16","","","","square","circle","16","16","1","0.9375","","","","","","","",""
"null","131191","SARL_v6","SARL_v6hfc7wqsn","60d3990d793d0ee075314af2","freq_resp","","","img/orange_2bandit_a.png","70","img/orange_2bandit_a.png","70","test","","","","","","","","","","","1","","","","","","","","",""
"null","131350","SARL_v6","SARL_v6hfc7wqsn","60d3990d793d0ee075314af2","fixation","","","img/fixation.png","null","","","test","","","","","","","","","","","","","","","","","","","",""
"385.2000000178814","131739","SARL_v6","SARL_v6hfc7wqsn","60d3990d793d0ee075314af2","freq","","","img/orange_2bandit_a2.png","70","","70","test","1","","17","","","","square","circle","17","17","1","0.9411764705882353","","","","","","","",""
"null","132167","SARL_v6","SARL_v6hfc7wqsn","60d3990d793d0ee075314af2","freq_resp","","","img/orange_2bandit_a.png","70","img/orange_2bandit_a.png","70","test","","","","","","","","","","","1","","","","","","","","",""
"null","132327","SARL_v6","SARL_v6hfc7wqsn","60d3990d793d0ee075314af2","fixation","","","img/fixation.png","null","","","test","","","","","","","","","","","","","","","","","","","",""
"348.60000002384186","132679","SARL_v6","SARL_v6hfc7wqsn","60d3990d793d0ee075314af2","freq","","","img/orange_2bandit_a2.png","70","","70","test","1","","18","","","","square","circle","18","18","1","0.9444444444444444","","","","","","","",""
"null","133143","SARL_v6","SARL_v6hfc7wqsn","60d3990d793d0ee075314af2","freq_resp","","","img/orange_2bandit_a.png","70","img/orange_2bandit_a.png","70","test","","","","","","","","","","","1","","","","","","","","",""
"null","133303","SARL_v6","SARL_v6hfc7wqsn","60d3990d793d0ee075314af2","fixation","","","img/fixation.png","null","","","test","","","","","","","","","","","","","","","","","","","",""
"379.7999999821186","133686","SARL_v6","SARL_v6hfc7wqsn","60d3990d793d0ee075314af2","freq","","","img/orange_2bandit_a2.png","70","","70","test","1","","19","","","","square","circle","19","19","1","0.9473684210526315","","","","","","","",""
"null","134119","SARL_v6","SARL_v6hfc7wqsn","60d3990d793d0ee075314af2","freq_resp","","","img/orange_2bandit_a.png","70","img/orange_2bandit_a.png","70","test","","","","","","","","","","","1","","","","","","","","",""
"null","134279","SARL_v6","SARL_v6hfc7wqsn","60d3990d793d0ee075314af2","fixation","","","img/fixation.png","null","","","test","","","","","","","","","","","","","","","","","","","",""
"302.19999998807907","134584","SARL_v6","SARL_v6hfc7wqsn","60d3990d793d0ee075314af2","freq","","","img/orange_2bandit_a2.png","70","","70","test","1","","20","","","","square","circle","20","20","1","0.95","","","","","","","",""
"null","135095","SARL_v6","SARL_v6hfc7wqsn","60d3990d793d0ee075314af2","freq_resp","","","img/orange_2bandit_a.png","70","img/orange_2bandit_a.png","70","test","","","","","","","","","","","1","","","","","","","","",""
"null","135255","SARL_v6","SARL_v6hfc7wqsn","60d3990d793d0ee075314af2","fixation","","","img/fixation.png","null","","","test","","","","","","","","","","","","","","","","","","","",""
"272.69999998807907","135531","SARL_v6","SARL_v6hfc7wqsn","60d3990d793d0ee075314af2","freq","","","img/orange_2bandit_a2.png","70","","70","test","1","","21","","","","square","circle","21","21","1","0.9523809523809523","","","","","","","",""
"null","136071","SARL_v6","SARL_v6hfc7wqsn","60d3990d793d0ee075314af2","freq_resp","","","img/orange_2bandit_a.png","70","img/orange_2bandit_a.png","70","test","","","","","","","","","","","1","","","","","","","","",""
"null","136231","SARL_v6","SARL_v6hfc7wqsn","60d3990d793d0ee075314af2","fixation","","","img/fixation.png","null","","","test","","","","","","","","","","","","","","","","","","","",""
"302.90000000596046","136537","SARL_v6","SARL_v6hfc7wqsn","60d3990d793d0ee075314af2","freq","","","img/orange_2bandit_a2.png","70","","70","test","1","","22","","","","square","circle","22","22","1","0.9545454545454546","","","","","","","",""
"null","137047","SARL_v6","SARL_v6hfc7wqsn","60d3990d793d0ee075314af2","freq_resp","","","img/orange_2bandit_a.png","70","img/orange_2bandit_a.png","70","test","","","","","","","","","","","1","","","","","","","","",""
"null","137207","SARL_v6","SARL_v6hfc7wqsn","60d3990d793d0ee075314af2","fixation","","","img/fixation.png","null","","","test","","","","","","","","","","","","","","","","","","","",""
"712.3000000119209","137923","SARL_v6","SARL_v6hfc7wqsn","60d3990d793d0ee075314af2","rl","","","img/black_2bandit_a2.png","74","","0","test","","","23","","","-3","square","circle","","0","1","","74","-3","-3","-3","-3","square","1","0"
"null","138684","SARL_v6","SARL_v6hfc7wqsn","60d3990d793d0ee075314af2","feedback","","","<div class=""verylowPoints_sq""> -3 </div>","null","","na","test","","","NaN","","","","","","","","1","","74","","","","","","1",""
"377.7000000178814","139066","SARL_v6","SARL_v6hfc7wqsn","60d3990d793d0ee075314af2","freq","","","img/orange_2bandit_a2.png","70","","70","test","1","","24","","","","square","circle","23","1","2","0.9565217391304348","","","","","","","",""
"null","139495","SARL_v6","SARL_v6hfc7wqsn","60d3990d793d0ee075314af2","freq_resp","","","img/orange_2bandit_a.png","70","img/orange_2bandit_a.png","70","test","","","","","","","","","","","2","","","","","","","","",""
"null","139655","SARL_v6","SARL_v6hfc7wqsn","60d3990d793d0ee075314af2","fixation","","","img/fixation.png","null","","","test","","","","","","","","","","","","","","","","","","","",""
"529.1999999880791","140188","SARL_v6","SARL_v6hfc7wqsn","60d3990d793d0ee075314af2","freq","","","img/orange_2bandit_a2.png","70","","70","test","1","","25","","","","square","circle","24","2","2","0.9583333333333334","","","","","","","",""
"null","140471","SARL_v6","SARL_v6hfc7wqsn","60d3990d793d0ee075314af2","freq_resp","","","img/orange_2bandit_a.png","70","img/orange_2bandit_a.png","70","test","","","","","","","","","","","2","","","","","","","","",""
"null","140631","SARL_v6","SARL_v6hfc7wqsn","60d3990d793d0ee075314af2","fixation","","","img/fixation.png","null","","","test","","","","","","","","","","","","","","","","","","","",""
"739.2999999821186","141373","SARL_v6","SARL_v6hfc7wqsn","60d3990d793d0ee075314af2","freq","","","img/orange_2bandit_a2.png","70","","70","test","1","","26","","","","square","circle","25","3","2","0.96","","","","","","","",""
"null","141447","SARL_v6","SARL_v6hfc7wqsn","60d3990d793d0ee075314af2","freq_resp","","","img/orange_2bandit_a.png","70","img/orange_2bandit_a.png","70","test","","","","","","","","","","","2","","","","","","","","",""
"null","141607","SARL_v6","SARL_v6hfc7wqsn","60d3990d793d0ee075314af2","fixation","","","img/fixation.png","null","","","test","","","","","","","","","","","","","","","","","","","",""
"550.1999999880791","142161","SARL_v6","SARL_v6hfc7wqsn","60d3990d793d0ee075314af2","freq","","","img/orange_2bandit_a2.png","70","","70","test","1","","27","","","","square","circle","26","4","2","0.9615384615384616","","","","","","","",""
"null","142423","SARL_v6","SARL_v6hfc7wqsn","60d3990d793d0ee075314af2","freq_resp","","","img/orange_2bandit_a.png","70","img/orange_2bandit_a.png","70","test","","","","","","","","","","","2","","","","","","","","",""
"null","142583","SARL_v6","SARL_v6hfc7wqsn","60d3990d793d0ee075314af2","fixation","","","img/fixation.png","null","","","test","","","","","","","","","","","","","","","","","","","",""
"401.19999998807907","142987","SARL_v6","SARL_v6hfc7wqsn","60d3990d793d0ee075314af2","freq","","","img/orange_2bandit_a2.png","70","","70","test","1","","28","","","","square","circle","27","5","2","0.9629629629629629","","","","","","","",""
"null","143399","SARL_v6","SARL_v6hfc7wqsn","60d3990d793d0ee075314af2","freq_resp","","","img/orange_2bandit_a.png","70","img/orange_2bandit_a.png","70","test","","","","","","","","","","","2","","","","","","","","",""
"null","143559","SARL_v6","SARL_v6hfc7wqsn","60d3990d793d0ee075314af2","fixation","","","img/fixation.png","null","","","test","","","","","","","","","","","","","","","","","","","",""
"344.09999999403954","143907","SARL_v6","SARL_v6hfc7wqsn","60d3990d793d0ee075314af2","freq","","","img/orange_2bandit_a2.png","70","","70","test","1","","29","","","","square","circle","28","6","2","0.9642857142857143","","","","","","","",""
"null","144375","SARL_v6","SARL_v6hfc7wqsn","60d3990d793d0ee075314af2","freq_resp","","","img/orange_2bandit_a.png","70","img/orange_2bandit_a.png","70","test","","","","","","","","","","","2","","","","","","","","",""
"null","144535","SARL_v6","SARL_v6hfc7wqsn","60d3990d793d0ee075314af2","fixation","","","img/fixation.png","null","","","test","","","","","","","","","","","","","","","","","","","",""
"324.69999998807907","144863","SARL_v6","SARL_v6hfc7wqsn","60d3990d793d0ee075314af2","freq","","","img/orange_2bandit_a2.png","70","","70","test","1","","30","","","","square","circle","29","7","2","0.9655172413793104","","","","","","","",""
"null","145351","SARL_v6","SARL_v6hfc7wqsn","60d3990d793d0ee075314af2","freq_resp","","","img/orange_2bandit_a.png","70","img/orange_2bandit_a.png","70","test","","","","","","","","","","","2","","","","","","","","",""
"null","145511","SARL_v6","SARL_v6hfc7wqsn","60d3990d793d0ee075314af2","fixation","","","img/fixation.png","null","","","test","","","","","","","","","","","","","","","","","","","",""
"460.80000001192093","145975","SARL_v6","SARL_v6hfc7wqsn","60d3990d793d0ee075314af2","freq","","","img/orange_2bandit_a2.png","70","","70","test","1","","31","","","","square","circle","30","8","2","0.9666666666666667","","","","","","","",""
"null","146327","SARL_v6","SARL_v6hfc7wqsn","60d3990d793d0ee075314af2","freq_resp","","","img/orange_2bandit_a.png","70","img/orange_2bandit_a.png","70","test","","","","","","","","","","","2","","","","","","","","",""
"null","146485","SARL_v6","SARL_v6hfc7wqsn","60d3990d793d0ee075314af2","fixation","","","img/fixation.png","null","","","test","","","","","","","","","","","","","","","","","","","",""
"359.7999999821186","146849","SARL_v6","SARL_v6hfc7wqsn","60d3990d793d0ee075314af2","freq","","","img/orange_2bandit_a2.png","70","","70","test","1","","32","","","","square","circle","31","9","2","0.967741935483871","","","","","","","",""
"null","147303","SARL_v6","SARL_v6hfc7wqsn","60d3990d793d0ee075314af2","freq_resp","","","img/orange_2bandit_a.png","70","img/orange_2bandit_a.png","70","test","","","","","","","","","","","2","","","","","","","","",""
"null","147463","SARL_v6","SARL_v6hfc7wqsn","60d3990d793d0ee075314af2","fixation","","","img/fixation.png","null","","","test","","","","","","","","","","","","","","","","","","","",""
"292.80000001192093","147760","SARL_v6","SARL_v6hfc7wqsn","60d3990d793d0ee075314af2","freq","","","img/orange_2bandit_a2.png","70","","70","test","1","","33","","","","square","circle","32","10","2","0.96875","","","","","","","",""
"null","148277","SARL_v6","SARL_v6hfc7wqsn","60d3990d793d0ee075314af2","freq_resp","","","img/orange_2bandit_a.png","70","img/orange_2bandit_a.png","70","test","","","","","","","","","","","2","","","","","","","","",""
"null","148439","SARL_v6","SARL_v6hfc7wqsn","60d3990d793d0ee075314af2","fixation","","","img/fixation.png","null","","","test","","","","","","","","","","","","","","","","","","","",""
"308.69999998807907","148751","SARL_v6","SARL_v6hfc7wqsn","60d3990d793d0ee075314af2","freq","","","img/orange_2bandit_a2.png","70","","70","test","1","","34","","","","square","circle","33","11","2","0.9696969696969697","","","","","","","",""
"null","149255","SARL_v6","SARL_v6hfc7wqsn","60d3990d793d0ee075314af2","freq_resp","","","img/orange_2bandit_a.png","70","img/orange_2bandit_a.png","70","test","","","","","","","","","","","2","","","","","","","","",""
"null","149415","SARL_v6","SARL_v6hfc7wqsn","60d3990d793d0ee075314af2","fixation","","","img/fixation.png","null","","","test","","","","","","","","","","","","","","","","","","","",""
"526.5999999940395","149945","SARL_v6","SARL_v6hfc7wqsn","60d3990d793d0ee075314af2","infreq","","","img/blue_2bandit_a2.png","68","","68","test","1","","35","","","","square","circle","34","12","2","0.9705882352941176","","","","","","","",""
"null","150232","SARL_v6","SARL_v6hfc7wqsn","60d3990d793d0ee075314af2","infreq_resp","","","img/blue_2bandit_a.png","68","img/blue_2bandit_a.png","68","test","","","","","","","","","","","2","","","","","","","","",""
"null","150390","SARL_v6","SARL_v6hfc7wqsn","60d3990d793d0ee075314af2","fixation","","","img/fixation.png","null","","","test","","","","","","","","","","","","","","","","","","","",""
"451.7000000178814","150847","SARL_v6","SARL_v6hfc7wqsn","60d3990d793d0ee075314af2","freq","","","img/orange_2bandit_a2.png","70","","70","test","1","","36","","","","square","circle","35","13","2","0.9714285714285714","","","","","","","",""
"null","151207","SARL_v6","SARL_v6hfc7wqsn","60d3990d793d0ee075314af2","freq_resp","","","img/orange_2bandit_a.png","70","img/orange_2bandit_a.png","70","test","","","","","","","","","","","2","","","","","","","","",""
"null","151364","SARL_v6","SARL_v6hfc7wqsn","60d3990d793d0ee075314af2","fixation","","","img/fixation.png","null","","","test","","","","","","","","","","","","","","","","","","","",""
"602.0999999940395","151969","SARL_v6","SARL_v6hfc7wqsn","60d3990d793d0ee075314af2","freq","","","img/orange_2bandit_a2.png","70","","70","test","1","","37","","","","square","circle","36","14","2","0.9722222222222222","","","","","","","",""
"null","152173","SARL_v6","SARL_v6hfc7wqsn","60d3990d793d0ee075314af2","freq_resp","","","img/orange_2bandit_a.png","70","img/orange_2bandit_a.png","70","test","","","","","","","","","","","2","","","","","","","","",""
"null","152333","SARL_v6","SARL_v6hfc7wqsn","60d3990d793d0ee075314af2","fixation","","","img/fixation.png","null","","","test","","","","","","","","","","","","","","","","","","","",""
"473.59999999403954","152810","SARL_v6","SARL_v6hfc7wqsn","60d3990d793d0ee075314af2","freq","","","img/orange_2bandit_a2.png","70","","70","test","1","","38","","","","square","circle","37","15","2","0.972972972972973","","","","","","","",""
"null","153142","SARL_v6","SARL_v6hfc7wqsn","60d3990d793d0ee075314af2","freq_resp","","","img/orange_2bandit_a.png","70","img/orange_2bandit_a.png","70","test","","","","","","","","","","","2","","","","","","","","",""
"null","153303","SARL_v6","SARL_v6hfc7wqsn","60d3990d793d0ee075314af2","fixation","","","img/fixation.png","null","","","test","","","","","","","","","","","","","","","","","","","",""
"349.40000000596046","153656","SARL_v6","SARL_v6hfc7wqsn","60d3990d793d0ee075314af2","freq","","","img/orange_2bandit_a2.png","70","","70","test","1","","39","","","","square","circle","38","16","2","0.9736842105263158","","","","","","","",""
"null","154119","SARL_v6","SARL_v6hfc7wqsn","60d3990d793d0ee075314af2","freq_resp","","","img/orange_2bandit_a.png","70","img/orange_2bandit_a.png","70","test","","","","","","","","","","","2","","","","","","","","",""
"null","154279","SARL_v6","SARL_v6hfc7wqsn","60d3990d793d0ee075314af2","fixation","","","img/fixation.png","null","","","test","","","","","","","","","","","","","","","","","","","",""
"526.5999999940395","154809","SARL_v6","SARL_v6hfc7wqsn","60d3990d793d0ee075314af2","infreq","","","img/blue_2bandit_a2.png","68","","68","test","1","","40","","","","square","circle","39","17","2","0.9743589743589743","","","","","","","",""
"null","155095","SARL_v6","SARL_v6hfc7wqsn","60d3990d793d0ee075314af2","infreq_resp","","","img/blue_2bandit_a.png","68","img/blue_2bandit_a.png","68","test","","","","","","","","","","","2","","","","","","","","",""
"null","155255","SARL_v6","SARL_v6hfc7wqsn","60d3990d793d0ee075314af2","fixation","","","img/fixation.png","null","","","test","","","","","","","","","","","","","","","","","","","",""
"399.09999999403954","155658","SARL_v6","SARL_v6hfc7wqsn","60d3990d793d0ee075314af2","freq","","","img/orange_2bandit_a2.png","70","","70","test","1","","41","","","","square","circle","40","18","2","0.975","","","","","","","",""
"null","156071","SARL_v6","SARL_v6hfc7wqsn","60d3990d793d0ee075314af2","freq_resp","","","img/orange_2bandit_a.png","70","img/orange_2bandit_a.png","70","test","","","","","","","","","","","2","","","","","","","","",""
"null","156232","SARL_v6","SARL_v6hfc7wqsn","60d3990d793d0ee075314af2","fixation","","","img/fixation.png","null","","","test","","","","","","","","","","","","","","","","","","","",""
"373.60000002384186","156608","SARL_v6","SARL_v6hfc7wqsn","60d3990d793d0ee075314af2","freq","","","img/orange_2bandit_a2.png","70","","70","test","1","","42","","","","square","circle","41","19","2","0.975609756097561","","","","","","","",""
"null","157048","SARL_v6","SARL_v6hfc7wqsn","60d3990d793d0ee075314af2","freq_resp","","","img/orange_2bandit_a.png","70","img/orange_2bandit_a.png","70","test","","","","","","","","","","","2","","","","","","","","",""
"null","157208","SARL_v6","SARL_v6hfc7wqsn","60d3990d793d0ee075314af2","fixation","","","img/fixation.png","null","","","test","","","","","","","","","","","","","","","","","","","",""
"285.40000000596046","157496","SARL_v6","SARL_v6hfc7wqsn","60d3990d793d0ee075314af2","freq","","","img/orange_2bandit_a2.png","70","","70","test","1","","43","","","","square","circle","42","20","2","0.9761904761904762","","","","","","","",""
"null","158024","SARL_v6","SARL_v6hfc7wqsn","60d3990d793d0ee075314af2","freq_resp","","","img/orange_2bandit_a.png","70","img/orange_2bandit_a.png","70","test","","","","","","","","","","","2","","","","","","","","",""
"null","158183","SARL_v6","SARL_v6hfc7wqsn","60d3990d793d0ee075314af2","fixation","","","img/fixation.png","null","","","test","","","","","","","","","","","","","","","","","","","",""
"495.59999999403954","158682","SARL_v6","SARL_v6hfc7wqsn","60d3990d793d0ee075314af2","rl","","","img/black_2bandit_a2.png","75","","0","test","","","44","","","-8","square","circle","","0","2","","75","-8","-5","-5","-8","circle","2","0"
"null","159437","SARL_v6","SARL_v6hfc7wqsn","60d3990d793d0ee075314af2","feedback","","","<div class=""verylowPoints""> -8 </div>","null","","na","test","","","NaN","","","","","","","","2","","75","","","","","","2",""
"547.8999999761581","159988","SARL_v6","SARL_v6hfc7wqsn","60d3990d793d0ee075314af2","freq","","","img/orange_2bandit_a2.png","70","","70","test","1","","45","","","","square","circle","43","1","3","0.9767441860465116","","","","","","","",""
"null","160248","SARL_v6","SARL_v6hfc7wqsn","60d3990d793d0ee075314af2","freq_resp","","","img/orange_2bandit_a.png","70","img/orange_2bandit_a.png","70","test","","","","","","","","","","","3","","","","","","","","",""
"null","160408","SARL_v6","SARL_v6hfc7wqsn","60d3990d793d0ee075314af2","fixation","","","img/fixation.png","null","","","test","","","","","","","","","","","","","","","","","","","",""
"648","161059","SARL_v6","SARL_v6hfc7wqsn","60d3990d793d0ee075314af2","freq","","","img/orange_2bandit_a2.png","70","","70","test","1","","46","","","","square","circle","44","2","3","0.9772727272727273","","","","","","","",""
"null","161218","SARL_v6","SARL_v6hfc7wqsn","60d3990d793d0ee075314af2","freq_resp","","","img/orange_2bandit_a.png","70","img/orange_2bandit_a.png","70","test","","","","","","","","","","","3","","","","","","","","",""
"null","161373","SARL_v6","SARL_v6hfc7wqsn","60d3990d793d0ee075314af2","fixation","","","img/fixation.png","null","","","test","","","","","","","","","","","","","","","","","","","",""
"458.5","161835","SARL_v6","SARL_v6hfc7wqsn","60d3990d793d0ee075314af2","freq","","","img/orange_2bandit_a2.png","70","","70","test","1","","47","","","","square","circle","45","3","3","0.9777777777777777","","","","","","","",""
"null","162184","SARL_v6","SARL_v6hfc7wqsn","60d3990d793d0ee075314af2","freq_resp","","","img/orange_2bandit_a.png","70","img/orange_2bandit_a.png","70","test","","","","","","","","","","","3","","","","","","","","",""
"null","162344","SARL_v6","SARL_v6hfc7wqsn","60d3990d793d0ee075314af2","fixation","","","img/fixation.png","null","","","test","","","","","","","","","","","","","","","","","","","",""
"459.90000000596046","162807","SARL_v6","SARL_v6hfc7wqsn","60d3990d793d0ee075314af2","freq","","","img/orange_2bandit_a2.png","70","","70","test","1","","48","","","","square","circle","46","4","3","0.9782608695652174","","","","","","","",""
"null","163160","SARL_v6","SARL_v6hfc7wqsn","60d3990d793d0ee075314af2","freq_resp","","","img/orange_2bandit_a.png","70","img/orange_2bandit_a.png","70","test","","","","","","","","","","","3","","","","","","","","",""
"null","163319","SARL_v6","SARL_v6hfc7wqsn","60d3990d793d0ee075314af2","fixation","","","img/fixation.png","null","","","test","","","","","","","","","","","","","","","","","","","",""
"651.5","163974","SARL_v6","SARL_v6hfc7wqsn","60d3990d793d0ee075314af2","freq","","","img/orange_2bandit_a2.png","70","","70","test","1","","49","","","","square","circle","47","5","3","0.9787234042553191","","","","","","","",""
"null","164133","SARL_v6","SARL_v6hfc7wqsn","60d3990d793d0ee075314af2","freq_resp","","","img/orange_2bandit_a.png","70","img/orange_2bandit_a.png","70","test","","","","","","","","","","","3","","","","","","","","",""
"null","164296","SARL_v6","SARL_v6hfc7wqsn","60d3990d793d0ee075314af2","fixation","","","img/fixation.png","null","","","test","","","","","","","","","","","","","","","","","","","",""
"713.3999999761581","165012","SARL_v6","SARL_v6hfc7wqsn","60d3990d793d0ee075314af2","freq","","","img/orange_2bandit_a2.png","70","","70","test","1","","50","","","","square","circle","48","6","3","0.9791666666666666","","","","","","","",""
"null","165111","SARL_v6","SARL_v6hfc7wqsn","60d3990d793d0ee075314af2","freq_resp","","","img/orange_2bandit_a.png","70","img/orange_2bandit_a.png","70","test","","","","","","","","","","","3","","","","","","","","",""
"null","165272","SARL_v6","SARL_v6hfc7wqsn","60d3990d793d0ee075314af2","fixation","","","img/fixation.png","null","","","test","","","","","","","","","","","","","","","","","","","",""
"677.6999999880791","165953","SARL_v6","SARL_v6hfc7wqsn","60d3990d793d0ee075314af2","freq","","","img/orange_2bandit_a2.png","70","","70","test","1","","51","","","","square","circle","49","7","3","0.9795918367346939","","","","","","","",""
"null","166087","SARL_v6","SARL_v6hfc7wqsn","60d3990d793d0ee075314af2","freq_resp","","","img/orange_2bandit_a.png","70","img/orange_2bandit_a.png","70","test","","","","","","","","","","","3","","","","","","","","",""
"null","166247","SARL_v6","SARL_v6hfc7wqsn","60d3990d793d0ee075314af2","fixation","","","img/fixation.png","null","","","test","","","","","","","","","","","","","","","","","","","",""
"554.3000000119209","166805","SARL_v6","SARL_v6hfc7wqsn","60d3990d793d0ee075314af2","freq","","","img/orange_2bandit_a2.png","70","","70","test","1","","52","","","","square","circle","50","8","3","0.98","","","","","","","",""
"null","167064","SARL_v6","SARL_v6hfc7wqsn","60d3990d793d0ee075314af2","freq_resp","","","img/orange_2bandit_a.png","70","img/orange_2bandit_a.png","70","test","","","","","","","","","","","3","","","","","","","","",""
"null","167224","SARL_v6","SARL_v6hfc7wqsn","60d3990d793d0ee075314af2","fixation","","","img/fixation.png","null","","","test","","","","","","","","","","","","","","","","","","","",""
"736.8000000119209","167964","SARL_v6","SARL_v6hfc7wqsn","60d3990d793d0ee075314af2","infreq","","","img/blue_2bandit_a2.png","68","","68","test","1","","53","","","","square","circle","51","9","3","0.9803921568627451","","","","","","","",""
"null","168040","SARL_v6","SARL_v6hfc7wqsn","60d3990d793d0ee075314af2","infreq_resp","","","img/blue_2bandit_a.png","68","img/blue_2bandit_a.png","68","test","","","","","","","","","","","3","","","","","","","","",""
"null","168200","SARL_v6","SARL_v6hfc7wqsn","60d3990d793d0ee075314af2","fixation","","","img/fixation.png","null","","","test","","","","","","","","","","","","","","","","","","","",""
"457","168661","SARL_v6","SARL_v6hfc7wqsn","60d3990d793d0ee075314af2","freq","","","img/orange_2bandit_a2.png","70","","70","test","1","","54","","","","square","circle","52","10","3","0.9807692307692307","","","","","","","",""
"null","169016","SARL_v6","SARL_v6hfc7wqsn","60d3990d793d0ee075314af2","freq_resp","","","img/orange_2bandit_a.png","70","img/orange_2bandit_a.png","70","test","","","","","","","","","","","3","","","","","","","","",""
"null","169175","SARL_v6","SARL_v6hfc7wqsn","60d3990d793d0ee075314af2","fixation","","","img/fixation.png","null","","","test","","","","","","","","","","","","","","","","","","","",""
"424.80000001192093","169603","SARL_v6","SARL_v6hfc7wqsn","60d3990d793d0ee075314af2","freq","","","img/orange_2bandit_a2.png","70","","70","test","1","","55","","","","square","circle","53","11","3","0.9811320754716981","","","","","","","",""
"null","169992","SARL_v6","SARL_v6hfc7wqsn","60d3990d793d0ee075314af2","freq_resp","","","img/orange_2bandit_a.png","70","img/orange_2bandit_a.png","70","test","","","","","","","","","","","3","","","","","","","","",""
"null","170152","SARL_v6","SARL_v6hfc7wqsn","60d3990d793d0ee075314af2","fixation","","","img/fixation.png","null","","","test","","","","","","","","","","","","","","","","","","","",""
"470.19999998807907","170625","SARL_v6","SARL_v6hfc7wqsn","60d3990d793d0ee075314af2","infreq","","","img/blue_2bandit_a2.png","68","","68","test","1","","56","","","","square","circle","54","12","3","0.9814814814814815","","","","","","","",""
"null","170968","SARL_v6","SARL_v6hfc7wqsn","60d3990d793d0ee075314af2","infreq_resp","","","img/blue_2bandit_a.png","68","img/blue_2bandit_a.png","68","test","","","","","","","","","","","3","","","","","","","","",""
"null","171127","SARL_v6","SARL_v6hfc7wqsn","60d3990d793d0ee075314af2","fixation","","","img/fixation.png","null","","","test","","","","","","","","","","","","","","","","","","","",""
"411.69999998807907","171543","SARL_v6","SARL_v6hfc7wqsn","60d3990d793d0ee075314af2","freq","","","img/orange_2bandit_a2.png","70","","70","test","1","","57","","","","square","circle","55","13","3","0.9818181818181818","","","","","","","",""
"null","171944","SARL_v6","SARL_v6hfc7wqsn","60d3990d793d0ee075314af2","freq_resp","","","img/orange_2bandit_a.png","70","img/orange_2bandit_a.png","70","test","","","","","","","","","","","3","","","","","","","","",""
"null","172104","SARL_v6","SARL_v6hfc7wqsn","60d3990d793d0ee075314af2","fixation","","","img/fixation.png","null","","","test","","","","","","","","","","","","","","","","","","","",""
"321.2000000178814","172429","SARL_v6","SARL_v6hfc7wqsn","60d3990d793d0ee075314af2","freq","","","img/orange_2bandit_a2.png","70","","70","test","1","","58","","","","square","circle","56","14","3","0.9821428571428571","","","","","","","",""
"null","172920","SARL_v6","SARL_v6hfc7wqsn","60d3990d793d0ee075314af2","freq_resp","","","img/orange_2bandit_a.png","70","img/orange_2bandit_a.png","70","test","","","","","","","","","","","3","","","","","","","","",""
"null","173080","SARL_v6","SARL_v6hfc7wqsn","60d3990d793d0ee075314af2","fixation","","","img/fixation.png","null","","","test","","","","","","","","","","","","","","","","","","","",""
"336.19999998807907","173419","SARL_v6","SARL_v6hfc7wqsn","60d3990d793d0ee075314af2","freq","","","img/orange_2bandit_a2.png","70","","70","test","1","","59","","","","square","circle","57","15","3","0.9824561403508771","","","","","","","",""
"null","173896","SARL_v6","SARL_v6hfc7wqsn","60d3990d793d0ee075314af2","freq_resp","","","img/orange_2bandit_a.png","70","img/orange_2bandit_a.png","70","test","","","","","","","","","","","3","","","","","","","","",""
"null","174056","SARL_v6","SARL_v6hfc7wqsn","60d3990d793d0ee075314af2","fixation","","","img/fixation.png","null","","","test","","","","","","","","","","","","","","","","","","","",""
"265.2000000178814","174325","SARL_v6","SARL_v6hfc7wqsn","60d3990d793d0ee075314af2","freq","","","img/orange_2bandit_a2.png","70","","70","test","1","","60","","","","square","circle","58","16","3","0.9827586206896551","","","","","","","",""
"null","174872","SARL_v6","SARL_v6hfc7wqsn","60d3990d793d0ee075314af2","freq_resp","","","img/orange_2bandit_a.png","70","img/orange_2bandit_a.png","70","test","","","","","","","","","","","3","","","","","","","","",""
"null","175032","SARL_v6","SARL_v6hfc7wqsn","60d3990d793d0ee075314af2","fixation","","","img/fixation.png","null","","","test","","","","","","","","","","","","","","","","","","","",""
"281.09999999403954","175316","SARL_v6","SARL_v6hfc7wqsn","60d3990d793d0ee075314af2","freq","","","img/orange_2bandit_a2.png","70","","70","test","1","","61","","","","square","circle","59","17","3","0.9830508474576272","","","","","","","",""
"null","175847","SARL_v6","SARL_v6hfc7wqsn","60d3990d793d0ee075314af2","freq_resp","","","img/orange_2bandit_a.png","70","img/orange_2bandit_a.png","70","test","","","","","","","","","","","3","","","","","","","","",""
"null","176008","SARL_v6","SARL_v6hfc7wqsn","60d3990d793d0ee075314af2","fixation","","","img/fixation.png","null","","","test","","","","","","","","","","","","","","","","","","","",""
"317.5","176329","SARL_v6","SARL_v6hfc7wqsn","60d3990d793d0ee075314af2","freq","","","img/orange_2bandit_a2.png","70","","70","test","1","","62","","","","square","circle","60","18","3","0.9833333333333333","","","","","","","",""
"null","176824","SARL_v6","SARL_v6hfc7wqsn","60d3990d793d0ee075314af2","freq_resp","","","img/orange_2bandit_a.png","70","img/orange_2bandit_a.png","70","test","","","","","","","","","","","3","","","","","","","","",""
"null","176984","SARL_v6","SARL_v6hfc7wqsn","60d3990d793d0ee075314af2","fixation","","","img/fixation.png","null","","","test","","","","","","","","","","","","","","","","","","","",""
"262.5","177250","SARL_v6","SARL_v6hfc7wqsn","60d3990d793d0ee075314af2","freq","","","img/orange_2bandit_a2.png","70","","70","test","1","","63","","","","square","circle","61","19","3","0.9836065573770492","","","","","","","",""
"null","177800","SARL_v6","SARL_v6hfc7wqsn","60d3990d793d0ee075314af2","freq_resp","","","img/orange_2bandit_a.png","70","img/orange_2bandit_a.png","70","test","","","","","","","","","","","3","","","","","","","","",""
"null","177960","SARL_v6","SARL_v6hfc7wqsn","60d3990d793d0ee075314af2","fixation","","","img/fixation.png","null","","","test","","","","","","","","","","","","","","","","","","","",""
"135.09999999403954","178099","SARL_v6","SARL_v6hfc7wqsn","60d3990d793d0ee075314af2","freq","","","img/orange_2bandit_a2.png","70","","70","test","1","","64","","","","square","circle","62","20","3","0.9838709677419355","","","","","","","",""
"null","178776","SARL_v6","SARL_v6hfc7wqsn","60d3990d793d0ee075314af2","freq_resp","","","img/orange_2bandit_a.png","70","img/orange_2bandit_a.png","70","test","","","","","","","","","","","3","","","","","","","","",""
"null","178936","SARL_v6","SARL_v6hfc7wqsn","60d3990d793d0ee075314af2","fixation","","","img/fixation.png","null","","","test","","","","","","","","","","","","","","","","","","","",""
"130.59999999403954","179070","SARL_v6","SARL_v6hfc7wqsn","60d3990d793d0ee075314af2","freq","","","img/orange_2bandit_a2.png","70","","70","test","1","","65","","","","square","circle","63","21","3","0.9841269841269841","","","","","","","",""
"null","179752","SARL_v6","SARL_v6hfc7wqsn","60d3990d793d0ee075314af2","freq_resp","","","img/orange_2bandit_a.png","70","img/orange_2bandit_a.png","70","test","","","","","","","","","","","3","","","","","","","","",""
"null","179912","SARL_v6","SARL_v6hfc7wqsn","60d3990d793d0ee075314af2","fixation","","","img/fixation.png","null","","","test","","","","","","","","","","","","","","","","","","","",""
"252.5","180168","SARL_v6","SARL_v6hfc7wqsn","60d3990d793d0ee075314af2","freq","","","img/orange_2bandit_a2.png","70","","70","test","1","","66","","","","square","circle","64","22","3","0.984375","","","","","","","",""
"null","180728","SARL_v6","SARL_v6hfc7wqsn","60d3990d793d0ee075314af2","freq_resp","","","img/orange_2bandit_a.png","70","img/orange_2bandit_a.png","70","test","","","","","","","","","","","3","","","","","","","","",""
"null","180888","SARL_v6","SARL_v6hfc7wqsn","60d3990d793d0ee075314af2","fixation","","","img/fixation.png","null","","","test","","","","","","","","","","","","","","","","","","","",""
"296.5","181188","SARL_v6","SARL_v6hfc7wqsn","60d3990d793d0ee075314af2","freq","","","img/orange_2bandit_a2.png","70","","70","test","1","","67","","","","square","circle","65","23","3","0.9846153846153847","","","","","","","",""
"null","181702","SARL_v6","SARL_v6hfc7wqsn","60d3990d793d0ee075314af2","freq_resp","","","img/orange_2bandit_a.png","70","img/orange_2bandit_a.png","70","test","","","","","","","","","","","3","","","","","","","","",""
"null","181864","SARL_v6","SARL_v6hfc7wqsn","60d3990d793d0ee075314af2","fixation","","","img/fixation.png","null","","","test","","","","","","","","","","","","","","","","","","","",""
"429.60000002384186","182298","SARL_v6","SARL_v6hfc7wqsn","60d3990d793d0ee075314af2","rl","","","img/black_2bandit_a2.png","75","","0","test","","","68","","","-8","square","circle","","0","3","","75","-8","-4","-4","-8","circle","3","0"
"null","183054","SARL_v6","SARL_v6hfc7wqsn","60d3990d793d0ee075314af2","feedback","","","<div class=""verylowPoints""> -8 </div>","null","","na","test","","","NaN","","","","","","","","3","","75","","","","","","3",""
"331.19999998807907","183388","SARL_v6","SARL_v6hfc7wqsn","60d3990d793d0ee075314af2","freq","","","img/orange_2bandit_a2.png","70","","70","test","1","","69","","","","square","circle","66","1","4","0.9848484848484849","","","","","","","",""
"null","183864","SARL_v6","SARL_v6hfc7wqsn","60d3990d793d0ee075314af2","freq_resp","","","img/orange_2bandit_a.png","70","img/orange_2bandit_a.png","70","test","","","","","","","","","","","4","","","","","","","","",""
"null","184024","SARL_v6","SARL_v6hfc7wqsn","60d3990d793d0ee075314af2","fixation","","","img/fixation.png","null","","","test","","","","","","","","","","","","","","","","","","","",""
"387.59999999403954","184415","SARL_v6","SARL_v6hfc7wqsn","60d3990d793d0ee075314af2","freq","","","img/orange_2bandit_a2.png","70","","70","test","1","","70","","","","square","circle","67","2","4","0.9850746268656716","","","","","","","",""
"null","184840","SARL_v6","SARL_v6hfc7wqsn","60d3990d793d0ee075314af2","freq_resp","","","img/orange_2bandit_a.png","70","img/orange_2bandit_a.png","70","test","","","","","","","","","","","4","","","","","","","","",""
"null","185000","SARL_v6","SARL_v6hfc7wqsn","60d3990d793d0ee075314af2","fixation","","","img/fixation.png","null","","","test","","","","","","","","","","","","","","","","","","","",""
"415","185418","SARL_v6","SARL_v6hfc7wqsn","60d3990d793d0ee075314af2","freq","","","img/orange_2bandit_a2.png","70","","70","test","1","","71","","","","square","circle","68","3","4","0.9852941176470589","","","","","","","",""
"null","185816","SARL_v6","SARL_v6hfc7wqsn","60d3990d793d0ee075314af2","freq_resp","","","img/orange_2bandit_a.png","70","img/orange_2bandit_a.png","70","test","","","","","","","","","","","4","","","","","","","","",""
"null","185976","SARL_v6","SARL_v6hfc7wqsn","60d3990d793d0ee075314af2","fixation","","","img/fixation.png","null","","","test","","","","","","","","","","","","","","","","","","","",""
"605.0999999940395","186585","SARL_v6","SARL_v6hfc7wqsn","60d3990d793d0ee075314af2","infreq","","","img/blue_2bandit_a2.png","68","","68","test","1","","72","","","","square","circle","69","4","4","0.9855072463768116","","","","","","","",""
"null","186792","SARL_v6","SARL_v6hfc7wqsn","60d3990d793d0ee075314af2","infreq_resp","","","img/blue_2bandit_a.png","68","img/blue_2bandit_a.png","68","test","","","","","","","","","","","4","","","","","","","","",""
"null","186952","SARL_v6","SARL_v6hfc7wqsn","60d3990d793d0ee075314af2","fixation","","","img/fixation.png","null","","","test","","","","","","","","","","","","","","","","","","","",""
"676.4000000059605","187632","SARL_v6","SARL_v6hfc7wqsn","60d3990d793d0ee075314af2","freq","","","img/orange_2bandit_a2.png","70","","70","test","1","","73","","","","square","circle","70","5","4","0.9857142857142858","","","","","","","",""
"null","187768","SARL_v6","SARL_v6hfc7wqsn","60d3990d793d0ee075314af2","freq_resp","","","img/orange_2bandit_a.png","70","img/orange_2bandit_a.png","70","test","","","","","","","","","","","4","","","","","","","","",""
"null","187929","SARL_v6","SARL_v6hfc7wqsn","60d3990d793d0ee075314af2","fixation","","","img/fixation.png","null","","","test","","","","","","","","","","","","","","","","","","","",""
"434.30000001192093","188366","SARL_v6","SARL_v6hfc7wqsn","60d3990d793d0ee075314af2","freq","","","img/orange_2bandit_a2.png","70","","70","test","1","","74","","","","square","circle","71","6","4","0.9859154929577465","","","","","","","",""
"null","188745","SARL_v6","SARL_v6hfc7wqsn","60d3990d793d0ee075314af2","freq_resp","","","img/orange_2bandit_a.png","70","img/orange_2bandit_a.png","70","test","","","","","","","","","","","4","","","","","","","","",""
"null","188904","SARL_v6","SARL_v6hfc7wqsn","60d3990d793d0ee075314af2","fixation","","","img/fixation.png","null","","","test","","","","","","","","","","","","","","","","","","","",""
"411.09999999403954","189318","SARL_v6","SARL_v6hfc7wqsn","60d3990d793d0ee075314af2","freq","","","img/orange_2bandit_a2.png","70","","70","test","1","","75","","","","square","circle","72","7","4","0.9861111111111112","","","","","","","",""
"null","189720","SARL_v6","SARL_v6hfc7wqsn","60d3990d793d0ee075314af2","freq_resp","","","img/orange_2bandit_a.png","70","img/orange_2bandit_a.png","70","test","","","","","","","","","","","4","","","","","","","","",""
"null","189880","SARL_v6","SARL_v6hfc7wqsn","60d3990d793d0ee075314af2","fixation","","","img/fixation.png","null","","","test","","","","","","","","","","","","","","","","","","","",""
"286","190170","SARL_v6","SARL_v6hfc7wqsn","60d3990d793d0ee075314af2","freq","","","img/orange_2bandit_a2.png","70","","70","test","1","","76","","","","square","circle","73","8","4","0.9863013698630136","","","","","","","",""
"null","190697","SARL_v6","SARL_v6hfc7wqsn","60d3990d793d0ee075314af2","freq_resp","","","img/orange_2bandit_a.png","70","img/orange_2bandit_a.png","70","test","","","","","","","","","","","4","","","","","","","","",""
"null","190857","SARL_v6","SARL_v6hfc7wqsn","60d3990d793d0ee075314af2","fixation","","","img/fixation.png","null","","","test","","","","","","","","","","","","","","","","","","","",""
"204.69999998807907","191065","SARL_v6","SARL_v6hfc7wqsn","60d3990d793d0ee075314af2","freq","","","img/orange_2bandit_a2.png","70","","70","test","1","","77","","","","square","circle","74","9","4","0.9864864864864865","","","","","","","",""
"null","191673","SARL_v6","SARL_v6hfc7wqsn","60d3990d793d0ee075314af2","freq_resp","","","img/orange_2bandit_a.png","70","img/orange_2bandit_a.png","70","test","","","","","","","","","","","4","","","","","","","","",""
"null","191832","SARL_v6","SARL_v6hfc7wqsn","60d3990d793d0ee075314af2","fixation","","","img/fixation.png","null","","","test","","","","","","","","","","","","","","","","","","","",""
"240","192076","SARL_v6","SARL_v6hfc7wqsn","60d3990d793d0ee075314af2","freq","","","img/orange_2bandit_a2.png","70","","70","test","1","","78","","","","square","circle","75","10","4","0.9866666666666667","","","","","","","",""
"null","192649","SARL_v6","SARL_v6hfc7wqsn","60d3990d793d0ee075314af2","freq_resp","","","img/orange_2bandit_a.png","70","img/orange_2bandit_a.png","70","test","","","","","","","","","","","4","","","","","","","","",""
"null","192809","SARL_v6","SARL_v6hfc7wqsn","60d3990d793d0ee075314af2","fixation","","","img/fixation.png","null","","","test","","","","","","","","","","","","","","","","","","","",""
"240.90000000596046","193054","SARL_v6","SARL_v6hfc7wqsn","60d3990d793d0ee075314af2","freq","","","img/orange_2bandit_a2.png","70","","70","test","1","","79","","","","square","circle","76","11","4","0.9868421052631579","","","","","","","",""
"null","193625","SARL_v6","SARL_v6hfc7wqsn","60d3990d793d0ee075314af2","freq_resp","","","img/orange_2bandit_a.png","70","img/orange_2bandit_a.png","70","test","","","","","","","","","","","4","","","","","","","","",""
"null","193785","SARL_v6","SARL_v6hfc7wqsn","60d3990d793d0ee075314af2","fixation","","","img/fixation.png","null","","","test","","","","","","","","","","","","","","","","","","","",""
"265.80000001192093","194054","SARL_v6","SARL_v6hfc7wqsn","60d3990d793d0ee075314af2","freq","","","img/orange_2bandit_a2.png","70","","70","test","1","","80","","","","square","circle","77","12","4","0.987012987012987","","","","","","","",""
"null","194601","SARL_v6","SARL_v6hfc7wqsn","60d3990d793d0ee075314af2","freq_resp","","","img/orange_2bandit_a.png","70","img/orange_2bandit_a.png","70","test","","","","","","","","","","","4","","","","","","","","",""
"null","194761","SARL_v6","SARL_v6hfc7wqsn","60d3990d793d0ee075314af2","fixation","","","img/fixation.png","null","","","test","","","","","","","","","","","","","","","","","","","",""
"303.5","195068","SARL_v6","SARL_v6hfc7wqsn","60d3990d793d0ee075314af2","freq","","","img/orange_2bandit_a2.png","70","","70","test","1","","81","","","","square","circle","78","13","4","0.9871794871794872","","","","","","","",""
"null","195577","SARL_v6","SARL_v6hfc7wqsn","60d3990d793d0ee075314af2","freq_resp","","","img/orange_2bandit_a.png","70","img/orange_2bandit_a.png","70","test","","","","","","","","","","","4","","","","","","","","",""
"null","195737","SARL_v6","SARL_v6hfc7wqsn","60d3990d793d0ee075314af2","fixation","","","img/fixation.png","null","","","test","","","","","","","","","","","","","","","","","","","",""
"320.59999999403954","196061","SARL_v6","SARL_v6hfc7wqsn","60d3990d793d0ee075314af2","freq","","","img/orange_2bandit_a2.png","70","","70","test","1","","82","","","","square","circle","79","14","4","0.9873417721518988","","","","","","","",""
"null","196553","SARL_v6","SARL_v6hfc7wqsn","60d3990d793d0ee075314af2","freq_resp","","","img/orange_2bandit_a.png","70","img/orange_2bandit_a.png","70","test","","","","","","","","","","","4","","","","","","","","",""
"null","196713","SARL_v6","SARL_v6hfc7wqsn","60d3990d793d0ee075314af2","fixation","","","img/fixation.png","null","","","test","","","","","","","","","","","","","","","","","","","",""
"348.40000000596046","197065","SARL_v6","SARL_v6hfc7wqsn","60d3990d793d0ee075314af2","freq","","","img/orange_2bandit_a2.png","70","","70","test","1","","83","","","","square","circle","80","15","4","0.9875","","","","","","","",""
"null","197529","SARL_v6","SARL_v6hfc7wqsn","60d3990d793d0ee075314af2","freq_resp","","","img/orange_2bandit_a.png","70","img/orange_2bandit_a.png","70","test","","","","","","","","","","","4","","","","","","","","",""
"null","197689","SARL_v6","SARL_v6hfc7wqsn","60d3990d793d0ee075314af2","fixation","","","img/fixation.png","null","","","test","","","","","","","","","","","","","","","","","","","",""
"389.5","198082","SARL_v6","SARL_v6hfc7wqsn","60d3990d793d0ee075314af2","freq","","","img/orange_2bandit_a2.png","70","","70","test","1","","84","","","","square","circle","81","16","4","0.9876543209876543","","","","","","","",""
"null","198505","SARL_v6","SARL_v6hfc7wqsn","60d3990d793d0ee075314af2","freq_resp","","","img/orange_2bandit_a.png","70","img/orange_2bandit_a.png","70","test","","","","","","","","","","","4","","","","","","","","",""
"null","198665","SARL_v6","SARL_v6hfc7wqsn","60d3990d793d0ee075314af2","fixation","","","img/fixation.png","null","","","test","","","","","","","","","","","","","","","","","","","",""
"562.5999999940395","199231","SARL_v6","SARL_v6hfc7wqsn","60d3990d793d0ee075314af2","infreq","","","img/blue_2bandit_a2.png","68","","68","test","1","","85","","","","square","circle","82","17","4","0.9878048780487805","","","","","","","",""
"null","199481","SARL_v6","SARL_v6hfc7wqsn","60d3990d793d0ee075314af2","infreq_resp","","","img/blue_2bandit_a.png","68","img/blue_2bandit_a.png","68","test","","","","","","","","","","","4","","","","","","","","",""
"null","199641","SARL_v6","SARL_v6hfc7wqsn","60d3990d793d0ee075314af2","fixation","","","img/fixation.png","null","","","test","","","","","","","","","","","","","","","","","","","",""
"429.30000001192093","200073","SARL_v6","SARL_v6hfc7wqsn","60d3990d793d0ee075314af2","freq","","","img/orange_2bandit_a2.png","70","","70","test","1","","86","","","","square","circle","83","18","4","0.9879518072289156","","","","","","","",""
"null","200457","SARL_v6","SARL_v6hfc7wqsn","60d3990d793d0ee075314af2","freq_resp","","","img/orange_2bandit_a.png","70","img/orange_2bandit_a.png","70","test","","","","","","","","","","","4","","","","","","","","",""
"null","200617","SARL_v6","SARL_v6hfc7wqsn","60d3990d793d0ee075314af2","fixation","","","img/fixation.png","null","","","test","","","","","","","","","","","","","","","","","","","",""
"423.09999999403954","201043","SARL_v6","SARL_v6hfc7wqsn","60d3990d793d0ee075314af2","freq","","","img/orange_2bandit_a2.png","70","","70","test","1","","87","","","","square","circle","84","19","4","0.9880952380952381","","","","","","","",""
"null","201433","SARL_v6","SARL_v6hfc7wqsn","60d3990d793d0ee075314af2","freq_resp","","","img/orange_2bandit_a.png","70","img/orange_2bandit_a.png","70","test","","","","","","","","","","","4","","","","","","","","",""
"null","201593","SARL_v6","SARL_v6hfc7wqsn","60d3990d793d0ee075314af2","fixation","","","img/fixation.png","null","","","test","","","","","","","","","","","","","","","","","","","",""
"556.4000000059605","202152","SARL_v6","SARL_v6hfc7wqsn","60d3990d793d0ee075314af2","freq","","","img/orange_2bandit_a2.png","70","","70","test","1","","88","","","","square","circle","85","20","4","0.9882352941176471","","","","","","","",""
"null","202409","SARL_v6","SARL_v6hfc7wqsn","60d3990d793d0ee075314af2","freq_resp","","","img/orange_2bandit_a.png","70","img/orange_2bandit_a.png","70","test","","","","","","","","","","","4","","","","","","","","",""
"null","202568","SARL_v6","SARL_v6hfc7wqsn","60d3990d793d0ee075314af2","fixation","","","img/fixation.png","null","","","test","","","","","","","","","","","","","","","","","","","",""
"373.5","202945","SARL_v6","SARL_v6hfc7wqsn","60d3990d793d0ee075314af2","freq","","","img/orange_2bandit_a2.png","70","","70","test","1","","89","","","","square","circle","86","21","4","0.9883720930232558","","","","","","","",""
"null","203385","SARL_v6","SARL_v6hfc7wqsn","60d3990d793d0ee075314af2","freq_resp","","","img/orange_2bandit_a.png","70","img/orange_2bandit_a.png","70","test","","","","","","","","","","","4","","","","","","","","",""
"null","203545","SARL_v6","SARL_v6hfc7wqsn","60d3990d793d0ee075314af2","fixation","","","img/fixation.png","null","","","test","","","","","","","","","","","","","","","","","","","",""
"388.90000000596046","203937","SARL_v6","SARL_v6hfc7wqsn","60d3990d793d0ee075314af2","freq","","","img/orange_2bandit_a2.png","70","","70","test","1","","90","","","","square","circle","87","22","4","0.9885057471264368","","","","","","","",""
"null","204361","SARL_v6","SARL_v6hfc7wqsn","60d3990d793d0ee075314af2","freq_resp","","","img/orange_2bandit_a.png","70","img/orange_2bandit_a.png","70","test","","","","","","","","","","","4","","","","","","","","",""
"null","204521","SARL_v6","SARL_v6hfc7wqsn","60d3990d793d0ee075314af2","fixation","","","img/fixation.png","null","","","test","","","","","","","","","","","","","","","","","","","",""
"658.0999999940395","205182","SARL_v6","SARL_v6hfc7wqsn","60d3990d793d0ee075314af2","rl","","","img/black_2bandit_a2.png","74","","0","test","","","91","","","0","square","circle","","0","4","","74","-12","0","0","-12","square","4","0"
"null","205945","SARL_v6","SARL_v6hfc7wqsn","60d3990d793d0ee075314af2","feedback","","","<div class=""verylowPoints_sq""> 0 </div>","null","","na","test","","","NaN","","","","","","","","4","","74","","","","","","4",""
"303.69999998807907","206252","SARL_v6","SARL_v6hfc7wqsn","60d3990d793d0ee075314af2","freq","","","img/orange_2bandit_a2.png","70","","70","test","1","","92","","","","square","circle","88","1","5","0.9886363636363636","","","","","","","",""
"null","206761","SARL_v6","SARL_v6hfc7wqsn","60d3990d793d0ee075314af2","freq_resp","","","img/orange_2bandit_a.png","70","img/orange_2bandit_a.png","70","test","","","","","","","","","","","5","","","","","","","","",""
"null","206921","SARL_v6","SARL_v6hfc7wqsn","60d3990d793d0ee075314af2","fixation","","","img/fixation.png","null","","","test","","","","","","","","","","","","","","","","","","","",""
"416.80000001192093","207341","SARL_v6","SARL_v6hfc7wqsn","60d3990d793d0ee075314af2","freq","","","img/orange_2bandit_a2.png","70","","70","test","1","","93","","","","square","circle","89","2","5","0.9887640449438202","","","","","","","",""
"null","207737","SARL_v6","SARL_v6hfc7wqsn","60d3990d793d0ee075314af2","freq_resp","","","img/orange_2bandit_a.png","70","img/orange_2bandit_a.png","70","test","","","","","","","","","","","5","","","","","","","","",""
"null","207897","SARL_v6","SARL_v6hfc7wqsn","60d3990d793d0ee075314af2","fixation","","","img/fixation.png","null","","","test","","","","","","","","","","","","","","","","","","","",""
"371.90000000596046","208272","SARL_v6","SARL_v6hfc7wqsn","60d3990d793d0ee075314af2","freq","","","img/orange_2bandit_a2.png","70","","70","test","1","","94","","","","square","circle","90","3","5","0.9888888888888889","","","","","","","",""
"null","208713","SARL_v6","SARL_v6hfc7wqsn","60d3990d793d0ee075314af2","freq_resp","","","img/orange_2bandit_a.png","70","img/orange_2bandit_a.png","70","test","","","","","","","","","","","5","","","","","","","","",""
"null","208873","SARL_v6","SARL_v6hfc7wqsn","60d3990d793d0ee075314af2","fixation","","","img/fixation.png","null","","","test","","","","","","","","","","","","","","","","","","","",""
"410","209286","SARL_v6","SARL_v6hfc7wqsn","60d3990d793d0ee075314af2","freq","","","img/orange_2bandit_a2.png","70","","70","test","1","","95","","","","square","circle","91","4","5","0.989010989010989","","","","","","","",""
"null","209689","SARL_v6","SARL_v6hfc7wqsn","60d3990d793d0ee075314af2","freq_resp","","","img/orange_2bandit_a.png","70","img/orange_2bandit_a.png","70","test","","","","","","","","","","","5","","","","","","","","",""
"null","209849","SARL_v6","SARL_v6hfc7wqsn","60d3990d793d0ee075314af2","fixation","","","img/fixation.png","null","","","test","","","","","","","","","","","","","","","","","","","",""
"368.59999999403954","210221","SARL_v6","SARL_v6hfc7wqsn","60d3990d793d0ee075314af2","freq","","","img/orange_2bandit_a2.png","70","","70","test","1","","96","","","","square","circle","92","5","5","0.9891304347826086","","","","","","","",""
"null","210665","SARL_v6","SARL_v6hfc7wqsn","60d3990d793d0ee075314af2","freq_resp","","","img/orange_2bandit_a.png","70","img/orange_2bandit_a.png","70","test","","","","","","","","","","","5","","","","","","","","",""
"null","210825","SARL_v6","SARL_v6hfc7wqsn","60d3990d793d0ee075314af2","fixation","","","img/fixation.png","null","","","test","","","","","","","","","","","","","","","","","","","",""
"380.5","211209","SARL_v6","SARL_v6hfc7wqsn","60d3990d793d0ee075314af2","freq","","","img/orange_2bandit_a2.png","70","","70","test","1","","97","","","","square","circle","93","6","5","0.989247311827957","","","","","","","",""
"null","211641","SARL_v6","SARL_v6hfc7wqsn","60d3990d793d0ee075314af2","freq_resp","","","img/orange_2bandit_a.png","70","img/orange_2bandit_a.png","70","test","","","","","","","","","","","5","","","","","","","","",""
"null","211801","SARL_v6","SARL_v6hfc7wqsn","60d3990d793d0ee075314af2","fixation","","","img/fixation.png","null","","","test","","","","","","","","","","","","","","","","","","","",""
"327.5","212132","SARL_v6","SARL_v6hfc7wqsn","60d3990d793d0ee075314af2","freq","","","img/orange_2bandit_a2.png","70","","70","test","1","","98","","","","square","circle","94","7","5","0.9893617021276596","","","","","","","",""
"null","212618","SARL_v6","SARL_v6hfc7wqsn","60d3990d793d0ee075314af2","freq_resp","","","img/orange_2bandit_a.png","70","img/orange_2bandit_a.png","70","test","","","","","","","","","","","5","","","","","","","","",""
"null","212777","SARL_v6","SARL_v6hfc7wqsn","60d3990d793d0ee075314af2","fixation","","","img/fixation.png","null","","","test","","","","","","","","","","","","","","","","","","","",""
"332.40000000596046","213113","SARL_v6","SARL_v6hfc7wqsn","60d3990d793d0ee075314af2","freq","","","img/orange_2bandit_a2.png","70","","70","test","1","","99","","","","square","circle","95","8","5","0.9894736842105263","","","","","","","",""
"null","213593","SARL_v6","SARL_v6hfc7wqsn","60d3990d793d0ee075314af2","freq_resp","","","img/orange_2bandit_a.png","70","img/orange_2bandit_a.png","70","test","","","","","","","","","","","5","","","","","","","","",""
"null","213753","SARL_v6","SARL_v6hfc7wqsn","60d3990d793d0ee075314af2","fixation","","","img/fixation.png","null","","","test","","","","","","","","","","","","","","","","","","","",""
"337.5","214094","SARL_v6","SARL_v6hfc7wqsn","60d3990d793d0ee075314af2","freq","","","img/orange_2bandit_a2.png","70","","70","test","1","","100","","","","square","circle","96","9","5","0.9895833333333334","","","","","","","",""
"null","214569","SARL_v6","SARL_v6hfc7wqsn","60d3990d793d0ee075314af2","freq_resp","","","img/orange_2bandit_a.png","70","img/orange_2bandit_a.png","70","test","","","","","","","","","","","5","","","","","","","","",""
"null","214730","SARL_v6","SARL_v6hfc7wqsn","60d3990d793d0ee075314af2","fixation","","","img/fixation.png","null","","","test","","","","","","","","","","","","","","","","","","","",""
"290.90000000596046","215024","SARL_v6","SARL_v6hfc7wqsn","60d3990d793d0ee075314af2","freq","","","img/orange_2bandit_a2.png","70","","70","test","1","","101","","","","square","circle","97","10","5","0.9896907216494846","","","","","","","",""
"null","215546","SARL_v6","SARL_v6hfc7wqsn","60d3990d793d0ee075314af2","freq_resp","","","img/orange_2bandit_a.png","70","img/orange_2bandit_a.png","70","test","","","","","","","","","","","5","","","","","","","","",""
"null","215705","SARL_v6","SARL_v6hfc7wqsn","60d3990d793d0ee075314af2","fixation","","","img/fixation.png","null","","","test","","","","","","","","","","","","","","","","","","","",""
"316.40000000596046","216025","SARL_v6","SARL_v6hfc7wqsn","60d3990d793d0ee075314af2","freq","","","img/orange_2bandit_a2.png","70","","70","test","1","","102","","","","square","circle","98","11","5","0.9897959183673469","","","","","","","",""
"null","216521","SARL_v6","SARL_v6hfc7wqsn","60d3990d793d0ee075314af2","freq_resp","","","img/orange_2bandit_a.png","70","img/orange_2bandit_a.png","70","test","","","","","","","","","","","5","","","","","","","","",""
"null","216681","SARL_v6","SARL_v6hfc7wqsn","60d3990d793d0ee075314af2","fixation","","","img/fixation.png","null","","","test","","","","","","","","","","","","","","","","","","","",""
"254.30000001192093","216939","SARL_v6","SARL_v6hfc7wqsn","60d3990d793d0ee075314af2","freq","","","img/orange_2bandit_a2.png","70","","70","test","1","","103","","","","square","circle","99","12","5","0.98989898989899","","","","","","","",""
"null","217497","SARL_v6","SARL_v6hfc7wqsn","60d3990d793d0ee075314af2","freq_resp","","","img/orange_2bandit_a.png","70","img/orange_2bandit_a.png","70","test","","","","","","","","","","","5","","","","","","","","",""
"null","217657","SARL_v6","SARL_v6hfc7wqsn","60d3990d793d0ee075314af2","fixation","","","img/fixation.png","null","","","test","","","","","","","","","","","","","","","","","","","",""
"263.09999999403954","217924","SARL_v6","SARL_v6hfc7wqsn","60d3990d793d0ee075314af2","freq","","","img/orange_2bandit_a2.png","70","","70","test","1","","104","","","","square","circle","100","13","5","0.99","","","","","","","",""
"null","218473","SARL_v6","SARL_v6hfc7wqsn","60d3990d793d0ee075314af2","freq_resp","","","img/orange_2bandit_a.png","70","img/orange_2bandit_a.png","70","test","","","","","","","","","","","5","","","","","","","","",""
"null","218633","SARL_v6","SARL_v6hfc7wqsn","60d3990d793d0ee075314af2","fixation","","","img/fixation.png","null","","","test","","","","","","","","","","","","","","","","","","","",""
"345.30000001192093","218982","SARL_v6","SARL_v6hfc7wqsn","60d3990d793d0ee075314af2","freq","","","img/orange_2bandit_a2.png","70","","70","test","1","","105","","","","square","circle","101","14","5","0.9900990099009901","","","","","","","",""
"null","219449","SARL_v6","SARL_v6hfc7wqsn","60d3990d793d0ee075314af2","freq_resp","","","img/orange_2bandit_a.png","70","img/orange_2bandit_a.png","70","test","","","","","","","","","","","5","","","","","","","","",""
"null","219609","SARL_v6","SARL_v6hfc7wqsn","60d3990d793d0ee075314af2","fixation","","","img/fixation.png","null","","","test","","","","","","","","","","","","","","","","","","","",""
"274.30000001192093","219887","SARL_v6","SARL_v6hfc7wqsn","60d3990d793d0ee075314af2","freq","","","img/orange_2bandit_a2.png","70","","70","test","1","","106","","","","square","circle","102","15","5","0.9901960784313726","","","","","","","",""
"null","220425","SARL_v6","SARL_v6hfc7wqsn","60d3990d793d0ee075314af2","freq_resp","","","img/orange_2bandit_a.png","70","img/orange_2bandit_a.png","70","test","","","","","","","","","","","5","","","","","","","","",""
"null","220585","SARL_v6","SARL_v6hfc7wqsn","60d3990d793d0ee075314af2","fixation","","","img/fixation.png","null","","","test","","","","","","","","","","","","","","","","","","","",""
"112.90000000596046","220702","SARL_v6","SARL_v6hfc7wqsn","60d3990d793d0ee075314af2","freq","","","img/orange_2bandit_a2.png","70","","70","test","1","","107","","","","square","circle","103","16","5","0.9902912621359223","","","","","","","",""
"null","221401","SARL_v6","SARL_v6hfc7wqsn","60d3990d793d0ee075314af2","freq_resp","","","img/orange_2bandit_a.png","70","img/orange_2bandit_a.png","70","test","","","","","","","","","","","5","","","","","","","","",""
"null","221562","SARL_v6","SARL_v6hfc7wqsn","60d3990d793d0ee075314af2","fixation","","","img/fixation.png","null","","","test","","","","","","","","","","","","","","","","","","","",""
"273.80000001192093","221839","SARL_v6","SARL_v6hfc7wqsn","60d3990d793d0ee075314af2","infreq","","","img/blue_2bandit_a2.png","70","","68","test","0","","108","","","","square","circle","104","17","5","0.9807692307692307","","","","","","","",""
"null","222377","SARL_v6","SARL_v6hfc7wqsn","60d3990d793d0ee075314af2","infreq_resp","","","img/blue_2bandit_a.png","70","img/blue_2bandit_a.png","68","test","","","","","","","","","","","5","","","","","","","","",""
"null","222538","SARL_v6","SARL_v6hfc7wqsn","60d3990d793d0ee075314af2","fixation","","","img/fixation.png","null","","","test","","","","","","","","","","","","","","","","","","","",""
"561.4000000059605","223103","SARL_v6","SARL_v6hfc7wqsn","60d3990d793d0ee075314af2","infreq","","","img/blue_2bandit_a2.png","68","","68","test","1","","109","","","","square","circle","105","18","5","0.9809523809523809","","","","","","","",""
"null","223353","SARL_v6","SARL_v6hfc7wqsn","60d3990d793d0ee075314af2","infreq_resp","","","img/blue_2bandit_a.png","68","img/blue_2bandit_a.png","68","test","","","","","","","","","","","5","","","","","","","","",""
"null","223514","SARL_v6","SARL_v6hfc7wqsn","60d3990d793d0ee075314af2","fixation","","","img/fixation.png","null","","","test","","","","","","","","","","","","","","","","","","","",""
"479.7000000178814","223997","SARL_v6","SARL_v6hfc7wqsn","60d3990d793d0ee075314af2","freq","","","img/orange_2bandit_a2.png","70","","70","test","1","","110","","","","square","circle","106","19","5","0.9811320754716981","","","","","","","",""
"null","224330","SARL_v6","SARL_v6hfc7wqsn","60d3990d793d0ee075314af2","freq_resp","","","img/orange_2bandit_a.png","70","img/orange_2bandit_a.png","70","test","","","","","","","","","","","5","","","","","","","","",""
"null","224489","SARL_v6","SARL_v6hfc7wqsn","60d3990d793d0ee075314af2","fixation","","","img/fixation.png","null","","","test","","","","","","","","","","","","","","","","","","","",""
"482.80000001192093","224976","SARL_v6","SARL_v6hfc7wqsn","60d3990d793d0ee075314af2","infreq","","","img/blue_2bandit_a2.png","68","","68","test","1","","111","","","","square","circle","107","20","5","0.9813084112149533","","","","","","","",""
"null","225303","SARL_v6","SARL_v6hfc7wqsn","60d3990d793d0ee075314af2","infreq_resp","","","img/blue_2bandit_a.png","68","img/blue_2bandit_a.png","68","test","","","","","","","","","","","5","","","","","","","","",""
"null","225466","SARL_v6","SARL_v6hfc7wqsn","60d3990d793d0ee075314af2","fixation","","","img/fixation.png","null","","","test","","","","","","","","","","","","","","","","","","","",""
"445.80000001192093","225915","SARL_v6","SARL_v6hfc7wqsn","60d3990d793d0ee075314af2","freq","","","img/orange_2bandit_a2.png","70","","70","test","1","","112","","","","square","circle","108","21","5","0.9814814814814815","","","","","","","",""
"null","226281","SARL_v6","SARL_v6hfc7wqsn","60d3990d793d0ee075314af2","freq_resp","","","img/orange_2bandit_a.png","70","img/orange_2bandit_a.png","70","test","","","","","","","","","","","5","","","","","","","","",""
"null","226441","SARL_v6","SARL_v6hfc7wqsn","60d3990d793d0ee075314af2","fixation","","","img/fixation.png","null","","","test","","","","","","","","","","","","","","","","","","","",""
"333.09999999403954","226778","SARL_v6","SARL_v6hfc7wqsn","60d3990d793d0ee075314af2","freq","","","img/orange_2bandit_a2.png","70","","70","test","1","","113","","","","square","circle","109","22","5","0.981651376146789","","","","","","","",""
"null","227258","SARL_v6","SARL_v6hfc7wqsn","60d3990d793d0ee075314af2","freq_resp","","","img/orange_2bandit_a.png","70","img/orange_2bandit_a.png","70","test","","","","","","","","","","","5","","","","","","","","",""
"null","227416","SARL_v6","SARL_v6hfc7wqsn","60d3990d793d0ee075314af2","fixation","","","img/fixation.png","null","","","test","","","","","","","","","","","","","","","","","","","",""
"334.80000001192093","227754","SARL_v6","SARL_v6hfc7wqsn","60d3990d793d0ee075314af2","freq","","","img/orange_2bandit_a2.png","70","","70","test","1","","114","","","","square","circle","110","23","5","0.9818181818181818","","","","","","","",""
"null","228234","SARL_v6","SARL_v6hfc7wqsn","60d3990d793d0ee075314af2","freq_resp","","","img/orange_2bandit_a.png","70","img/orange_2bandit_a.png","70","test","","","","","","","","","","","5","","","","","","","","",""
"null","228394","SARL_v6","SARL_v6hfc7wqsn","60d3990d793d0ee075314af2","fixation","","","img/fixation.png","null","","","test","","","","","","","","","","","","","","","","","","","",""
"316.5","228713","SARL_v6","SARL_v6hfc7wqsn","60d3990d793d0ee075314af2","freq","","","img/orange_2bandit_a2.png","70","","70","test","1","","115","","","","square","circle","111","24","5","0.9819819819819819","","","","","","","",""
"null","229210","SARL_v6","SARL_v6hfc7wqsn","60d3990d793d0ee075314af2","freq_resp","","","img/orange_2bandit_a.png","70","img/orange_2bandit_a.png","70","test","","","","","","","","","","","5","","","","","","","","",""
"null","229370","SARL_v6","SARL_v6hfc7wqsn","60d3990d793d0ee075314af2","fixation","","","img/fixation.png","null","","","test","","","","","","","","","","","","","","","","","","","",""
"368.30000001192093","229741","SARL_v6","SARL_v6hfc7wqsn","60d3990d793d0ee075314af2","freq","","","img/orange_2bandit_a2.png","70","","70","test","1","","116","","","","square","circle","112","25","5","0.9821428571428571","","","","","","","",""
"null","230186","SARL_v6","SARL_v6hfc7wqsn","60d3990d793d0ee075314af2","freq_resp","","","img/orange_2bandit_a.png","70","img/orange_2bandit_a.png","70","test","","","","","","","","","","","5","","","","","","","","",""
"null","230346","SARL_v6","SARL_v6hfc7wqsn","60d3990d793d0ee075314af2","fixation","","","img/fixation.png","null","","","test","","","","","","","","","","","","","","","","","","","",""
"441.39999997615814","230791","SARL_v6","SARL_v6hfc7wqsn","60d3990d793d0ee075314af2","rl","","","img/black_2bandit_a2.png","74","","0","test","","","117","","","4","square","circle","","0","5","","74","-7","4","4","-7","square","5","0"
"null","231551","SARL_v6","SARL_v6hfc7wqsn","60d3990d793d0ee075314af2","feedback","","","<div class=""veryhighPoints_sq""> 4 </div>","null","","na","test","","","NaN","","","","","","","","5","","74","","","","","","5",""
"353.90000000596046","231908","SARL_v6","SARL_v6hfc7wqsn","60d3990d793d0ee075314af2","freq","","","img/orange_2bandit_a2.png","70","","70","test","1","","118","","","","square","circle","113","1","6","0.9823008849557522","","","","","","","",""
"null","232362","SARL_v6","SARL_v6hfc7wqsn","60d3990d793d0ee075314af2","freq_resp","","","img/orange_2bandit_a.png","70","img/orange_2bandit_a.png","70","test","","","","","","","","","","","6","","","","","","","","",""
"null","232522","SARL_v6","SARL_v6hfc7wqsn","60d3990d793d0ee075314af2","fixation","","","img/fixation.png","null","","","test","","","","","","","","","","","","","","","","","","","",""
"612.4000000059605","233137","SARL_v6","SARL_v6hfc7wqsn","60d3990d793d0ee075314af2","freq","","","img/orange_2bandit_a2.png","70","","70","test","1","","119","","","","square","circle","114","2","6","0.9824561403508771","","","","","","","",""
"null","233338","SARL_v6","SARL_v6hfc7wqsn","60d3990d793d0ee075314af2","freq_resp","","","img/orange_2bandit_a.png","70","img/orange_2bandit_a.png","70","test","","","","","","","","","","","6","","","","","","","","",""
"null","233498","SARL_v6","SARL_v6hfc7wqsn","60d3990d793d0ee075314af2","fixation","","","img/fixation.png","null","","","test","","","","","","","","","","","","","","","","","","","",""
"587.0999999940395","234088","SARL_v6","SARL_v6hfc7wqsn","60d3990d793d0ee075314af2","freq","","","img/orange_2bandit_a2.png","70","","70","test","1","","120","","","","square","circle","115","3","6","0.9826086956521739","","","","","","","",""
"null","234314","SARL_v6","SARL_v6hfc7wqsn","60d3990d793d0ee075314af2","freq_resp","","","img/orange_2bandit_a.png","70","img/orange_2bandit_a.png","70","test","","","","","","","","","","","6","","","","","","","","",""
"null","234474","SARL_v6","SARL_v6hfc7wqsn","60d3990d793d0ee075314af2","fixation","","","img/fixation.png","null","","","test","","","","","","","","","","","","","","","","","","","",""
"647.9000000059605","235125","SARL_v6","SARL_v6hfc7wqsn","60d3990d793d0ee075314af2","freq","","","img/orange_2bandit_a2.png","70","","70","test","1","","121","","","","square","circle","116","4","6","0.9827586206896551","","","","","","","",""
"null","235290","SARL_v6","SARL_v6hfc7wqsn","60d3990d793d0ee075314af2","freq_resp","","","img/orange_2bandit_a.png","70","img/orange_2bandit_a.png","70","test","","","","","","","","","","","6","","","","","","","","",""
"null","235450","SARL_v6","SARL_v6hfc7wqsn","60d3990d793d0ee075314af2","fixation","","","img/fixation.png","null","","","test","","","","","","","","","","","","","","","","","","","",""
"568","236021","SARL_v6","SARL_v6hfc7wqsn","60d3990d793d0ee075314af2","freq","","","img/orange_2bandit_a2.png","70","","70","test","1","","122","","","","square","circle","117","5","6","0.9829059829059829","","","","","","","",""
"null","236266","SARL_v6","SARL_v6hfc7wqsn","60d3990d793d0ee075314af2","freq_resp","","","img/orange_2bandit_a.png","70","img/orange_2bandit_a.png","70","test","","","","","","","","","","","6","","","","","","","","",""
"null","236426","SARL_v6","SARL_v6hfc7wqsn","60d3990d793d0ee075314af2","fixation","","","img/fixation.png","null","","","test","","","","","","","","","","","","","","","","","","","",""
"null","237231","SARL_v6","SARL_v6hfc7wqsn","60d3990d793d0ee075314af2","freq","","","img/orange_2bandit_a2.png","null","","70","test","0","","123","","","","square","circle","118","6","6","0.9745762711864406","","","","","","","",""
"null","237391","SARL_v6","SARL_v6hfc7wqsn","60d3990d793d0ee075314af2","fixation","","","img/fixation.png","null","","","test","","","","","","","","","","","","","","","","","","","",""
"null","238202","SARL_v6","SARL_v6hfc7wqsn","60d3990d793d0ee075314af2","freq","","","img/orange_2bandit_a2.png","null","","70","test","0","","124","","","","square","circle","119","7","6","0.9663865546218487","","","","","","","",""
"null","238362","SARL_v6","SARL_v6hfc7wqsn","60d3990d793d0ee075314af2","fixation","","","img/fixation.png","null","","","test","","","","","","","","","","","","","","","","","","","",""
"135.7000000178814","238501","SARL_v6","SARL_v6hfc7wqsn","60d3990d793d0ee075314af2","freq","","","img/orange_2bandit_a2.png","70","","70","test","1","","125","","","","square","circle","120","8","6","0.9666666666666667","","","","","","","",""
"null","239178","SARL_v6","SARL_v6hfc7wqsn","60d3990d793d0ee075314af2","freq_resp","","","img/orange_2bandit_a.png","70","img/orange_2bandit_a.png","70","test","","","","","","","","","","","6","","","","","","","","",""
"null","239338","SARL_v6","SARL_v6hfc7wqsn","60d3990d793d0ee075314af2","fixation","","","img/fixation.png","null","","","test","","","","","","","","","","","","","","","","","","","",""
"427.5","239769","SARL_v6","SARL_v6hfc7wqsn","60d3990d793d0ee075314af2","freq","","","img/orange_2bandit_a2.png","70","","70","test","1","","126","","","","square","circle","121","9","6","0.9669421487603306","","","","","","","",""
"null","240153","SARL_v6","SARL_v6hfc7wqsn","60d3990d793d0ee075314af2","freq_resp","","","img/orange_2bandit_a.png","70","img/orange_2bandit_a.png","70","test","","","","","","","","","","","6","","","","","","","","",""
"null","240314","SARL_v6","SARL_v6hfc7wqsn","60d3990d793d0ee075314af2","fixation","","","img/fixation.png","null","","","test","","","","","","","","","","","","","","","","","","","",""
"469.7000000178814","240787","SARL_v6","SARL_v6hfc7wqsn","60d3990d793d0ee075314af2","freq","","","img/orange_2bandit_a2.png","70","","70","test","1","","127","","","","square","circle","122","10","6","0.9672131147540983","","","","","","","",""
"null","241130","SARL_v6","SARL_v6hfc7wqsn","60d3990d793d0ee075314af2","freq_resp","","","img/orange_2bandit_a.png","70","img/orange_2bandit_a.png","70","test","","","","","","","","","","","6","","","","","","","","",""
"null","241290","SARL_v6","SARL_v6hfc7wqsn","60d3990d793d0ee075314af2","fixation","","","img/fixation.png","null","","","test","","","","","","","","","","","","","","","","","","","",""
"729.8000000119209","242023","SARL_v6","SARL_v6hfc7wqsn","60d3990d793d0ee075314af2","freq","","","img/orange_2bandit_a2.png","70","","70","test","1","","128","","","","square","circle","123","11","6","0.967479674796748","","","","","","","",""
"null","242106","SARL_v6","SARL_v6hfc7wqsn","60d3990d793d0ee075314af2","freq_resp","","","img/orange_2bandit_a.png","70","img/orange_2bandit_a.png","70","test","","","","","","","","","","","6","","","","","","","","",""
"null","242266","SARL_v6","SARL_v6hfc7wqsn","60d3990d793d0ee075314af2","fixation","","","img/fixation.png","null","","","test","","","","","","","","","","","","","","","","","","","",""
"null","243071","SARL_v6","SARL_v6hfc7wqsn","60d3990d793d0ee075314af2","freq","","","img/orange_2bandit_a2.png","null","","70","test","0","","129","","","","square","circle","124","12","6","0.9596774193548387","","","","","","","",""
"null","243232","SARL_v6","SARL_v6hfc7wqsn","60d3990d793d0ee075314af2","fixation","","","img/fixation.png","null","","","test","","","","","","","","","","","","","","","","","","","",""
"1.5","243237","SARL_v6","SARL_v6hfc7wqsn","60d3990d793d0ee075314af2","freq","","","img/orange_2bandit_a2.png","70","","70","test","1","","130","","","","square","circle","125","13","6","0.96","","","","","","","",""
"null","244048","SARL_v6","SARL_v6hfc7wqsn","60d3990d793d0ee075314af2","freq_resp","","","img/orange_2bandit_a.png","70","img/orange_2bandit_a.png","70","test","","","","","","","","","","","6","","","","","","","","",""
"null","244207","SARL_v6","SARL_v6hfc7wqsn","60d3990d793d0ee075314af2","fixation","","","img/fixation.png","null","","","test","","","","","","","","","","","","","","","","","","","",""
