"rt","time_elapsed","expId","subject","prolificID","trialType","rlType","attType","stimulus","key_press","stim","corrresp","phase","corr","pracCounter","trialNum","rewardOne","rewardTwo","reward","bandOne","bandTwo","attentionNum","attentionRunNum","blockNum","performance","bandChosen","circleVal","squareVal","bandOneVal","bandTwoVal","shapeChosen","rlNum","badFlag"
"462494.5","462497","SARL_v6","SARL_v6a1hrmh6n","564e93659b124900127eb55b","","","","","","","","","","","","","","","","","","","","","","","","","","","",""
"","1235797","SARL_v6","SARL_v6a1hrmh6n","564e93659b124900127eb55b","fullscreen","fullscreen","fullscreen","","","","","","","","","","","","","","","","","","","","","","","","",""
"18096.600000023842","1253896","SARL_v6","SARL_v6a1hrmh6n","564e93659b124900127eb55b","","","","","","","","","","","","","","","","","","","","","","","","","","","",""
"null","1254714","SARL_v6","SARL_v6a1hrmh6n","564e93659b124900127eb55b","freqPrac","","","img/orange_2bandit_a2.png","null","img/orange_2bandit_a2.png","70","prac","0","1","","","","","","","","","","","","","","","","","",""
"null","1255719","SARL_v6","SARL_v6a1hrmh6n","564e93659b124900127eb55b","feedback","","","img/tooSlow.png","null","","na","prac","","","","","","","","","","","","","","","","","","","",""
"null","1255871","SARL_v6","SARL_v6a1hrmh6n","564e93659b124900127eb55b","fixation","","","img/fixation.png","null","","","prac","","","","","","","","","","","","","","","","","","","",""
"458.8000000715256","1256333","SARL_v6","SARL_v6a1hrmh6n","564e93659b124900127eb55b","infreqPrac","","","img/blue_2bandit_a2.png","68","img/blue_2bandit_a2.png","68","prac","1","1","","","","","","","","","","","","","","","","","",""
"458.8000000715256","1256678","SARL_v6","SARL_v6a1hrmh6n","564e93659b124900127eb55b","infreqPrac_resp","","","img/blue_2bandit_a.png","68","img/blue_2bandit_a.png","68","prac","","","","","","","","","","","","","","","","","","","",""
"null","1256834","SARL_v6","SARL_v6a1hrmh6n","564e93659b124900127eb55b","fixation","","","img/fixation.png","null","","","prac","","","","","","","","","","","","","","","","","","","",""
"514.6999999284744","1257353","SARL_v6","SARL_v6a1hrmh6n","564e93659b124900127eb55b","freqPrac","","","img/orange_2bandit_a2.png","70","img/orange_2bandit_a2.png","70","prac","1","1","","","","","","","","","","","","","","","","","",""
"514.6999999284744","1257653","SARL_v6","SARL_v6a1hrmh6n","564e93659b124900127eb55b","freqPrac_resp","","","img/orange_2bandit_a.png","70","img/orange_2bandit_a.png","70","prac","","","","","","","","","","","","","","","","","","","",""
"null","1257807","SARL_v6","SARL_v6a1hrmh6n","564e93659b124900127eb55b","fixation","","","img/fixation.png","null","","","prac","","","","","","","","","","","","","","","","","","","",""
"362.7000000476837","1258173","SARL_v6","SARL_v6a1hrmh6n","564e93659b124900127eb55b","infreqPrac","","","img/blue_2bandit_a2.png","68","img/blue_2bandit_a2.png","68","prac","1","1","","","","","","","","","","","","","","","","","",""
"362.7000000476837","1258624","SARL_v6","SARL_v6a1hrmh6n","564e93659b124900127eb55b","infreqPrac_resp","","","img/blue_2bandit_a.png","68","img/blue_2bandit_a.png","68","prac","","","","","","","","","","","","","","","","","","","",""
"null","1258778","SARL_v6","SARL_v6a1hrmh6n","564e93659b124900127eb55b","fixation","","","img/fixation.png","null","","","prac","","","","","","","","","","","","","","","","","","","",""
"439.2999999523163","1259221","SARL_v6","SARL_v6a1hrmh6n","564e93659b124900127eb55b","infreqPrac","","","img/blue_2bandit_a2.png","68","img/blue_2bandit_a2.png","68","prac","1","1","","","","","","","","","","","","","","","","","",""
"439.2999999523163","1259594","SARL_v6","SARL_v6a1hrmh6n","564e93659b124900127eb55b","infreqPrac_resp","","","img/blue_2bandit_a.png","68","img/blue_2bandit_a.png","68","prac","","","","","","","","","","","","","","","","","","","",""
"null","1259762","SARL_v6","SARL_v6a1hrmh6n","564e93659b124900127eb55b","fixation","","","img/fixation.png","null","","","prac","","","","","","","","","","","","","","","","","","","",""
"261.8000000715256","1260026","SARL_v6","SARL_v6a1hrmh6n","564e93659b124900127eb55b","infreqPrac","","","img/blue_2bandit_a2.png","68","img/blue_2bandit_a2.png","68","prac","1","1","","","","","","","","","","","","","","","","","",""
"261.8000000715256","1260583","SARL_v6","SARL_v6a1hrmh6n","564e93659b124900127eb55b","infreqPrac_resp","","","img/blue_2bandit_a.png","68","img/blue_2bandit_a.png","68","prac","","","","","","","","","","","","","","","","","","","",""
"null","1260736","SARL_v6","SARL_v6a1hrmh6n","564e93659b124900127eb55b","fixation","","","img/fixation.png","null","","","prac","","","","","","","","","","","","","","","","","","","",""
"334.8000000715256","1261074","SARL_v6","SARL_v6a1hrmh6n","564e93659b124900127eb55b","freqPrac","","","img/orange_2bandit_a2.png","70","img/orange_2bandit_a2.png","70","prac","1","1","","","","","","","","","","","","","","","","","",""
"334.8000000715256","1261544","SARL_v6","SARL_v6a1hrmh6n","564e93659b124900127eb55b","freqPrac_resp","","","img/orange_2bandit_a.png","70","img/orange_2bandit_a.png","70","prac","","","","","","","","","","","","","","","","","","","",""
"null","1261698","SARL_v6","SARL_v6a1hrmh6n","564e93659b124900127eb55b","fixation","","","img/fixation.png","null","","","prac","","","","","","","","","","","","","","","","","","","",""
"369.10000002384186","1262070","SARL_v6","SARL_v6a1hrmh6n","564e93659b124900127eb55b","infreqPrac","","","img/blue_2bandit_a2.png","68","img/blue_2bandit_a2.png","68","prac","1","1","","","","","","","","","","","","","","","","","",""
"369.10000002384186","1262505","SARL_v6","SARL_v6a1hrmh6n","564e93659b124900127eb55b","infreqPrac_resp","","","img/blue_2bandit_a.png","68","img/blue_2bandit_a.png","68","prac","","","","","","","","","","","","","","","","","","","",""
"null","1262659","SARL_v6","SARL_v6a1hrmh6n","564e93659b124900127eb55b","fixation","","","img/fixation.png","null","","","prac","","","","","","","","","","","","","","","","","","","",""
"250.20000004768372","1262911","SARL_v6","SARL_v6a1hrmh6n","564e93659b124900127eb55b","freqPrac","","","img/orange_2bandit_a2.png","68","img/orange_2bandit_a2.png","70","prac","0","2","","","","","","","","","","","","","","","","","",""
"250.20000004768372","1263472","SARL_v6","SARL_v6a1hrmh6n","564e93659b124900127eb55b","freqPrac_resp","","","img/orange_2bandit_a.png","68","img/orange_2bandit_a.png","70","prac","","","","","","","","","","","","","","","","","","","",""
"null","1264476","SARL_v6","SARL_v6a1hrmh6n","564e93659b124900127eb55b","feedback","","","img/wrongKey.png","null","","na","prac","","","","","","","","","","","","","","","","","","","",""
"null","1264630","SARL_v6","SARL_v6a1hrmh6n","564e93659b124900127eb55b","fixation","","","img/fixation.png","null","","","prac","","","","","","","","","","","","","","","","","","","",""
"301.7999999523163","1264936","SARL_v6","SARL_v6a1hrmh6n","564e93659b124900127eb55b","freqPrac","","","img/orange_2bandit_a2.png","70","img/orange_2bandit_a2.png","70","prac","1","2","","","","","","","","","","","","","","","","","",""
"301.7999999523163","1265448","SARL_v6","SARL_v6a1hrmh6n","564e93659b124900127eb55b","freqPrac_resp","","","img/orange_2bandit_a.png","70","img/orange_2bandit_a.png","70","prac","","","","","","","","","","","","","","","","","","","",""
"null","1265605","SARL_v6","SARL_v6a1hrmh6n","564e93659b124900127eb55b","fixation","","","img/fixation.png","null","","","prac","","","","","","","","","","","","","","","","","","","",""
"9728.100000023842","1275336","SARL_v6","SARL_v6a1hrmh6n","564e93659b124900127eb55b","","","","","","","","prac","","","","","","","","","","","","","","","","","","","",""
"947.6999999284744","1276287","SARL_v6","SARL_v6a1hrmh6n","564e93659b124900127eb55b","rlPractice","","","img/black_2bandit_a2.png","75","img/black_2bandit_a2.png","","prac","","","0","","","","","","","","","","","","","","","","",""
"null","1277053","SARL_v6","SARL_v6a1hrmh6n","564e93659b124900127eb55b","feedback","","","<div class=""veryhighPoints""> 10 </div>","null","","na","prac","","","1","10","-14","10","","","","","","","","","","","","","",""
"null","1277208","SARL_v6","SARL_v6a1hrmh6n","564e93659b124900127eb55b","fixation","","","img/fixation.png","null","","","prac","","","","","","","","","","","","","","","","","","","",""
"null","1278714","SARL_v6","SARL_v6a1hrmh6n","564e93659b124900127eb55b","rlPractice","","","img/black_2bandit_a2.png","null","img/black_2bandit_a2.png","","prac","","","1","","","","","","","","","","","","","","","","",""
"null","1279473","SARL_v6","SARL_v6a1hrmh6n","564e93659b124900127eb55b","feedback","","","<div font size = 80> TOO SLOW  </div>","null","","na","prac","","","2","5","-5","5","","","","","","","","","","","","","",""
"null","1279630","SARL_v6","SARL_v6a1hrmh6n","564e93659b124900127eb55b","fixation","","","img/fixation.png","null","","","prac","","","","","","","","","","","","","","","","","","","",""
"360.10000002384186","1279993","SARL_v6","SARL_v6a1hrmh6n","564e93659b124900127eb55b","rlPractice","","","img/black_2bandit_a2.png","75","img/black_2bandit_a2.png","","prac","","","2","","","","","","","","","","","","","","","","",""
"null","1280752","SARL_v6","SARL_v6a1hrmh6n","564e93659b124900127eb55b","feedback","","","<div class=""veryhighPoints""> 30 </div>","null","","na","prac","","","3","30","2","30","","","","","","","","","","","","","",""
"null","1280907","SARL_v6","SARL_v6a1hrmh6n","564e93659b124900127eb55b","fixation","","","img/fixation.png","null","","","prac","","","","","","","","","","","","","","","","","","","",""
"476.10000002384186","1281387","SARL_v6","SARL_v6a1hrmh6n","564e93659b124900127eb55b","rlPractice","","","img/black_2bandit_a2.png","75","img/black_2bandit_a2.png","","prac","","","3","","","","","","","","","","","","","","","","",""
"null","1282148","SARL_v6","SARL_v6a1hrmh6n","564e93659b124900127eb55b","feedback","","","<div class=""verylowPoints""> -2 </div>","null","","na","prac","","","4","-2","20","-2","","","","","","","","","","","","","",""
"null","1282301","SARL_v6","SARL_v6a1hrmh6n","564e93659b124900127eb55b","fixation","","","img/fixation.png","null","","","prac","","","","","","","","","","","","","","","","","","","",""
"7270.400000095367","1289573","SARL_v6","SARL_v6a1hrmh6n","564e93659b124900127eb55b","","","","","","","","prac","","","","","","","","","","","","","","","","","","","",""
"null","1290377","SARL_v6","SARL_v6a1hrmh6n","564e93659b124900127eb55b","mixAttFreqPrac","","","img/orange_2bandit_a2.png","null","img/orange_2bandit_a2.png","70","prac","","","1","","","","","","","","","","","","","","","","",""
"null","1290543","SARL_v6","SARL_v6a1hrmh6n","564e93659b124900127eb55b","fixation","","","img/fixation.png","null","","","prac","","","","","","","","","","","","","","","","","","","",""
"526.3000000715256","1291073","SARL_v6","SARL_v6a1hrmh6n","564e93659b124900127eb55b","mixAttInfreqPrac","","","img/blue_2bandit_a2.png","68","img/blue_2bandit_a2.png","68","prac","","","2","","","","","","","","","","","","","","","","",""
"526.3000000715256","1291351","SARL_v6","SARL_v6a1hrmh6n","564e93659b124900127eb55b","infreqPrac_resp","","","img/blue_2bandit_a.png","68","img/orange_2bandit_a.png","68","prac","","","2","","","","","","","","","","","","","","","","",""
"null","1291507","SARL_v6","SARL_v6a1hrmh6n","564e93659b124900127eb55b","fixation","","","img/fixation.png","null","","","prac","","","","","","","","","","","","","","","","","","","",""
"310.1999999284744","1291820","SARL_v6","SARL_v6a1hrmh6n","564e93659b124900127eb55b","mixAttInfreqPrac","","","img/blue_2bandit_a2.png","70","img/blue_2bandit_a2.png","68","prac","","","3","","","","","","","","","","","","","","","","",""
"310.1999999284744","1292329","SARL_v6","SARL_v6a1hrmh6n","564e93659b124900127eb55b","infreqPrac_resp","","","img/blue_2bandit_a.png","70","img/orange_2bandit_a.png","68","prac","","","3","","","","","","","","","","","","","","","","",""
"null","1292483","SARL_v6","SARL_v6a1hrmh6n","564e93659b124900127eb55b","fixation","","","img/fixation.png","null","","","prac","","","","","","","","","","","","","","","","","","","",""
"796.6999999284744","1293283","SARL_v6","SARL_v6a1hrmh6n","564e93659b124900127eb55b","mixAttInfreqPrac","","","img/blue_2bandit_a2.png","68","img/blue_2bandit_a2.png","68","prac","","","4","","","","","","","","","","","","","","","","",""
"796.6999999284744","1293290","SARL_v6","SARL_v6a1hrmh6n","564e93659b124900127eb55b","infreqPrac_resp","","","img/blue_2bandit_a.png","68","img/orange_2bandit_a.png","68","prac","","","4","","","","","","","","","","","","","","","","",""
"null","1293442","SARL_v6","SARL_v6a1hrmh6n","564e93659b124900127eb55b","fixation","","","img/fixation.png","null","","","prac","","","","","","","","","","","","","","","","","","","",""
"410.2000000476837","1293854","SARL_v6","SARL_v6a1hrmh6n","564e93659b124900127eb55b","mixAttFreqPrac","","","img/orange_2bandit_a2.png","70","img/orange_2bandit_a2.png","70","prac","","","5","","","","","","","","","","","","","","","","",""
"410.2000000476837","1294250","SARL_v6","SARL_v6a1hrmh6n","564e93659b124900127eb55b","freqPrac_resp","","","img/orange_2bandit_a.png","70","img/orange_2bandit_a.png","70","prac","","","5","","","","","","","","","","","","","","","","",""
"null","1294417","SARL_v6","SARL_v6a1hrmh6n","564e93659b124900127eb55b","fixation","","","img/fixation.png","null","","","prac","","","","","","","","","","","","","","","","","","","",""
"499.7999999523163","1294920","SARL_v6","SARL_v6a1hrmh6n","564e93659b124900127eb55b","mixRLPractice","","","img/black_2bandit_a2.png","74","img/black_2bandit_a2.png","","prac","","","5","","","","","","","","","","","","","","","","",""
"null","1295678","SARL_v6","SARL_v6a1hrmh6n","564e93659b124900127eb55b","feedback","","","<div class=""veryhighPoints_sq""> 10 </div>","null","","na","prac","","","6","-14","10","-14","","","","","","","","","","","","","",""
"null","1295833","SARL_v6","SARL_v6a1hrmh6n","564e93659b124900127eb55b","fixation","","","img/fixation.png","null","","","prac","","","","","","","","","","","","","","","","","","","",""
"null","1296639","SARL_v6","SARL_v6a1hrmh6n","564e93659b124900127eb55b","mixAttFreqPrac","","","img/orange_2bandit_a2.png","null","img/orange_2bandit_a2.png","70","prac","","","7","","","","","","","","","","","","","","","","",""
"60.800000071525574","1296793","SARL_v6","SARL_v6a1hrmh6n","564e93659b124900127eb55b","fixation","","","img/fixation.png","70","","","prac","","","","","","","","","","","","","","","","","","","",""
"444.89999997615814","1297242","SARL_v6","SARL_v6a1hrmh6n","564e93659b124900127eb55b","mixAttInfreqPrac","","","img/blue_2bandit_a2.png","68","img/blue_2bandit_a2.png","68","prac","","","8","","","","","","","","","","","","","","","","",""
"444.89999997615814","1297615","SARL_v6","SARL_v6a1hrmh6n","564e93659b124900127eb55b","infreqPrac_resp","","","img/blue_2bandit_a.png","68","img/orange_2bandit_a.png","68","prac","","","8","","","","","","","","","","","","","","","","",""
"null","1297769","SARL_v6","SARL_v6a1hrmh6n","564e93659b124900127eb55b","fixation","","","img/fixation.png","null","","","prac","","","","","","","","","","","","","","","","","","","",""
"336.39999997615814","1298108","SARL_v6","SARL_v6a1hrmh6n","564e93659b124900127eb55b","mixAttFreqPrac","","","img/orange_2bandit_a2.png","70","img/orange_2bandit_a2.png","70","prac","","","9","","","","","","","","","","","","","","","","",""
"336.39999997615814","1298588","SARL_v6","SARL_v6a1hrmh6n","564e93659b124900127eb55b","freqPrac_resp","","","img/orange_2bandit_a.png","70","img/orange_2bandit_a.png","70","prac","","","9","","","","","","","","","","","","","","","","",""
"null","1298744","SARL_v6","SARL_v6a1hrmh6n","564e93659b124900127eb55b","fixation","","","img/fixation.png","null","","","prac","","","","","","","","","","","","","","","","","","","",""
"427.2000000476837","1299174","SARL_v6","SARL_v6a1hrmh6n","564e93659b124900127eb55b","mixAttFreqPrac","","","img/orange_2bandit_a2.png","70","img/orange_2bandit_a2.png","70","prac","","","10","","","","","","","","","","","","","","","","",""
"427.2000000476837","1299550","SARL_v6","SARL_v6a1hrmh6n","564e93659b124900127eb55b","freqPrac_resp","","","img/orange_2bandit_a.png","70","img/orange_2bandit_a.png","70","prac","","","10","","","","","","","","","","","","","","","","",""
"null","1299705","SARL_v6","SARL_v6a1hrmh6n","564e93659b124900127eb55b","fixation","","","img/fixation.png","null","","","prac","","","","","","","","","","","","","","","","","","","",""
"384.1999999284744","1300092","SARL_v6","SARL_v6a1hrmh6n","564e93659b124900127eb55b","mixAttInfreqPrac","","","img/blue_2bandit_a2.png","68","img/blue_2bandit_a2.png","68","prac","","","11","","","","","","","","","","","","","","","","",""
"384.1999999284744","1300514","SARL_v6","SARL_v6a1hrmh6n","564e93659b124900127eb55b","infreqPrac_resp","","","img/blue_2bandit_a.png","68","img/orange_2bandit_a.png","68","prac","","","11","","","","","","","","","","","","","","","","",""
"null","1300670","SARL_v6","SARL_v6a1hrmh6n","564e93659b124900127eb55b","fixation","","","img/fixation.png","null","","","prac","","","","","","","","","","","","","","","","","","","",""
"510.10000002384186","1301183","SARL_v6","SARL_v6a1hrmh6n","564e93659b124900127eb55b","mixRLPractice","","","img/black_2bandit_a2.png","74","img/black_2bandit_a2.png","","prac","","","11","","","","","","","","","","","","","","","","",""
"null","1301941","SARL_v6","SARL_v6a1hrmh6n","564e93659b124900127eb55b","feedback","","","<div class=""verylowPoints_sq""> -5 </div>","null","","na","prac","","","12","5","-5","5","","","","","","","","","","","","","",""
"null","1302096","SARL_v6","SARL_v6a1hrmh6n","564e93659b124900127eb55b","fixation","","","img/fixation.png","null","","","prac","","","","","","","","","","","","","","","","","","","",""
"2799.2999999523163","1304897","SARL_v6","SARL_v6a1hrmh6n","564e93659b124900127eb55b","","","","","","","","prac","","","","","","","","","","","","","","","","","","","",""
"null","1305706","SARL_v6","SARL_v6a1hrmh6n","564e93659b124900127eb55b","freq","","","img/orange_2bandit_a2.png","null","","70","test","0","","1","","","","square","circle","1","1","1","0","","","","","","","",""
"null","1305860","SARL_v6","SARL_v6a1hrmh6n","564e93659b124900127eb55b","fixation","","","img/fixation.png","null","","","test","","","","","","","","","","","","","","","","","","","",""
"366","1306230","SARL_v6","SARL_v6a1hrmh6n","564e93659b124900127eb55b","freq","","","img/orange_2bandit_a2.png","70","","70","test","1","","2","","","","square","circle","2","2","1","0.5","","","","","","","",""
"null","1306672","SARL_v6","SARL_v6a1hrmh6n","564e93659b124900127eb55b","freq_resp","","","img/orange_2bandit_a.png","70","img/orange_2bandit_a.png","70","test","","","","","","","","","","","1","","","","","","","","",""
"null","1306825","SARL_v6","SARL_v6a1hrmh6n","564e93659b124900127eb55b","fixation","","","img/fixation.png","null","","","test","","","","","","","","","","","","","","","","","","","",""
"328.2000000476837","1307157","SARL_v6","SARL_v6a1hrmh6n","564e93659b124900127eb55b","freq","","","img/orange_2bandit_a2.png","70","","70","test","1","","3","","","","square","circle","3","3","1","0.6666666666666666","","","","","","","",""
"null","1307632","SARL_v6","SARL_v6a1hrmh6n","564e93659b124900127eb55b","freq_resp","","","img/orange_2bandit_a.png","70","img/orange_2bandit_a.png","70","test","","","","","","","","","","","1","","","","","","","","",""
"null","1307786","SARL_v6","SARL_v6a1hrmh6n","564e93659b124900127eb55b","fixation","","","img/fixation.png","null","","","test","","","","","","","","","","","","","","","","","","","",""
"310.7999999523163","1308099","SARL_v6","SARL_v6a1hrmh6n","564e93659b124900127eb55b","freq","","","img/orange_2bandit_a2.png","70","","70","test","1","","4","","","","square","circle","4","4","1","0.75","","","","","","","",""
"null","1308606","SARL_v6","SARL_v6a1hrmh6n","564e93659b124900127eb55b","freq_resp","","","img/orange_2bandit_a.png","70","img/orange_2bandit_a.png","70","test","","","","","","","","","","","1","","","","","","","","",""
"null","1308760","SARL_v6","SARL_v6a1hrmh6n","564e93659b124900127eb55b","fixation","","","img/fixation.png","null","","","test","","","","","","","","","","","","","","","","","","","",""
"327.39999997615814","1309091","SARL_v6","SARL_v6a1hrmh6n","564e93659b124900127eb55b","freq","","","img/orange_2bandit_a2.png","70","","70","test","1","","5","","","","square","circle","5","5","1","0.8","","","","","","","",""
"null","1309581","SARL_v6","SARL_v6a1hrmh6n","564e93659b124900127eb55b","freq_resp","","","img/orange_2bandit_a.png","70","img/orange_2bandit_a.png","70","test","","","","","","","","","","","1","","","","","","","","",""
"null","1309737","SARL_v6","SARL_v6a1hrmh6n","564e93659b124900127eb55b","fixation","","","img/fixation.png","null","","","test","","","","","","","","","","","","","","","","","","","",""
"313.6999999284744","1310054","SARL_v6","SARL_v6a1hrmh6n","564e93659b124900127eb55b","freq","","","img/orange_2bandit_a2.png","70","","70","test","1","","6","","","","square","circle","6","6","1","0.8333333333333334","","","","","","","",""
"null","1310545","SARL_v6","SARL_v6a1hrmh6n","564e93659b124900127eb55b","freq_resp","","","img/orange_2bandit_a.png","70","img/orange_2bandit_a.png","70","test","","","","","","","","","","","1","","","","","","","","",""
"null","1310701","SARL_v6","SARL_v6a1hrmh6n","564e93659b124900127eb55b","fixation","","","img/fixation.png","null","","","test","","","","","","","","","","","","","","","","","","","",""
"310.7999999523163","1311015","SARL_v6","SARL_v6a1hrmh6n","564e93659b124900127eb55b","freq","","","img/orange_2bandit_a2.png","70","","70","test","1","","7","","","","square","circle","7","7","1","0.8571428571428571","","","","","","","",""
"null","1311518","SARL_v6","SARL_v6a1hrmh6n","564e93659b124900127eb55b","freq_resp","","","img/orange_2bandit_a.png","70","img/orange_2bandit_a.png","70","test","","","","","","","","","","","1","","","","","","","","",""
"null","1311672","SARL_v6","SARL_v6a1hrmh6n","564e93659b124900127eb55b","fixation","","","img/fixation.png","null","","","test","","","","","","","","","","","","","","","","","","","",""
"346.2999999523163","1312021","SARL_v6","SARL_v6a1hrmh6n","564e93659b124900127eb55b","freq","","","img/orange_2bandit_a2.png","70","","70","test","1","","8","","","","square","circle","8","8","1","0.875","","","","","","","",""
"null","1312480","SARL_v6","SARL_v6a1hrmh6n","564e93659b124900127eb55b","freq_resp","","","img/orange_2bandit_a.png","70","img/orange_2bandit_a.png","70","test","","","","","","","","","","","1","","","","","","","","",""
"null","1312632","SARL_v6","SARL_v6a1hrmh6n","564e93659b124900127eb55b","fixation","","","img/fixation.png","null","","","test","","","","","","","","","","","","","","","","","","","",""
"312.2000000476837","1312947","SARL_v6","SARL_v6a1hrmh6n","564e93659b124900127eb55b","freq","","","img/orange_2bandit_a2.png","70","","70","test","1","","9","","","","square","circle","9","9","1","0.8888888888888888","","","","","","","",""
"null","1313441","SARL_v6","SARL_v6a1hrmh6n","564e93659b124900127eb55b","freq_resp","","","img/orange_2bandit_a.png","70","img/orange_2bandit_a.png","70","test","","","","","","","","","","","1","","","","","","","","",""
"null","1313595","SARL_v6","SARL_v6a1hrmh6n","564e93659b124900127eb55b","fixation","","","img/fixation.png","null","","","test","","","","","","","","","","","","","","","","","","","",""
"394.60000002384186","1313993","SARL_v6","SARL_v6a1hrmh6n","564e93659b124900127eb55b","infreq","","","img/blue_2bandit_a2.png","68","","68","test","1","","10","","","","square","circle","10","10","1","0.9","","","","","","","",""
"null","1314402","SARL_v6","SARL_v6a1hrmh6n","564e93659b124900127eb55b","infreq_resp","","","img/blue_2bandit_a.png","68","img/blue_2bandit_a.png","68","test","","","","","","","","","","","1","","","","","","","","",""
"null","1314557","SARL_v6","SARL_v6a1hrmh6n","564e93659b124900127eb55b","fixation","","","img/fixation.png","null","","","test","","","","","","","","","","","","","","","","","","","",""
"297.7999999523163","1314857","SARL_v6","SARL_v6a1hrmh6n","564e93659b124900127eb55b","freq","","","img/orange_2bandit_a2.png","68","","70","test","0","","11","","","","square","circle","11","11","1","0.8181818181818182","","","","","","","",""
"null","1315376","SARL_v6","SARL_v6a1hrmh6n","564e93659b124900127eb55b","freq_resp","","","img/orange_2bandit_a.png","68","img/orange_2bandit_a.png","70","test","","","","","","","","","","","1","","","","","","","","",""
"null","1315531","SARL_v6","SARL_v6a1hrmh6n","564e93659b124900127eb55b","fixation","","","img/fixation.png","null","","","test","","","","","","","","","","","","","","","","","","","",""
"544.2000000476837","1316078","SARL_v6","SARL_v6a1hrmh6n","564e93659b124900127eb55b","freq","","","img/orange_2bandit_a2.png","70","","70","test","1","","12","","","","square","circle","12","12","1","0.8333333333333334","","","","","","","",""
"null","1316351","SARL_v6","SARL_v6a1hrmh6n","564e93659b124900127eb55b","freq_resp","","","img/orange_2bandit_a.png","70","img/orange_2bandit_a.png","70","test","","","","","","","","","","","1","","","","","","","","",""
"null","1316505","SARL_v6","SARL_v6a1hrmh6n","564e93659b124900127eb55b","fixation","","","img/fixation.png","null","","","test","","","","","","","","","","","","","","","","","","","",""
"482.39999997615814","1316991","SARL_v6","SARL_v6a1hrmh6n","564e93659b124900127eb55b","freq","","","img/orange_2bandit_a2.png","70","","70","test","1","","13","","","","square","circle","13","13","1","0.8461538461538461","","","","","","","",""
"null","1317316","SARL_v6","SARL_v6a1hrmh6n","564e93659b124900127eb55b","freq_resp","","","img/orange_2bandit_a.png","70","img/orange_2bandit_a.png","70","test","","","","","","","","","","","1","","","","","","","","",""
"null","1317470","SARL_v6","SARL_v6a1hrmh6n","564e93659b124900127eb55b","fixation","","","img/fixation.png","null","","","test","","","","","","","","","","","","","","","","","","","",""
"534.5","1318007","SARL_v6","SARL_v6a1hrmh6n","564e93659b124900127eb55b","infreq","","","img/blue_2bandit_a2.png","68","","68","test","1","","14","","","","square","circle","14","14","1","0.8571428571428571","","","","","","","",""
"null","1318277","SARL_v6","SARL_v6a1hrmh6n","564e93659b124900127eb55b","infreq_resp","","","img/blue_2bandit_a.png","68","img/blue_2bandit_a.png","68","test","","","","","","","","","","","1","","","","","","","","",""
"null","1318433","SARL_v6","SARL_v6a1hrmh6n","564e93659b124900127eb55b","fixation","","","img/fixation.png","null","","","test","","","","","","","","","","","","","","","","","","","",""
"354.7999999523163","1318793","SARL_v6","SARL_v6a1hrmh6n","564e93659b124900127eb55b","freq","","","img/orange_2bandit_a2.png","70","","70","test","1","","15","","","","square","circle","15","15","1","0.8666666666666667","","","","","","","",""
"null","1319255","SARL_v6","SARL_v6a1hrmh6n","564e93659b124900127eb55b","freq_resp","","","img/orange_2bandit_a.png","70","img/orange_2bandit_a.png","70","test","","","","","","","","","","","1","","","","","","","","",""
"null","1319408","SARL_v6","SARL_v6a1hrmh6n","564e93659b124900127eb55b","fixation","","","img/fixation.png","null","","","test","","","","","","","","","","","","","","","","","","","",""
"333.7999999523163","1319746","SARL_v6","SARL_v6a1hrmh6n","564e93659b124900127eb55b","freq","","","img/orange_2bandit_a2.png","70","","70","test","1","","16","","","","square","circle","16","16","1","0.875","","","","","","","",""
"null","1320230","SARL_v6","SARL_v6a1hrmh6n","564e93659b124900127eb55b","freq_resp","","","img/orange_2bandit_a.png","70","img/orange_2bandit_a.png","70","test","","","","","","","","","","","1","","","","","","","","",""
"null","1320384","SARL_v6","SARL_v6a1hrmh6n","564e93659b124900127eb55b","fixation","","","img/fixation.png","null","","","test","","","","","","","","","","","","","","","","","","","",""
"413.39999997615814","1320801","SARL_v6","SARL_v6a1hrmh6n","564e93659b124900127eb55b","freq","","","img/orange_2bandit_a2.png","70","","70","test","1","","17","","","","square","circle","17","17","1","0.8823529411764706","","","","","","","",""
"null","1321196","SARL_v6","SARL_v6a1hrmh6n","564e93659b124900127eb55b","freq_resp","","","img/orange_2bandit_a.png","70","img/orange_2bandit_a.png","70","test","","","","","","","","","","","1","","","","","","","","",""
"null","1321363","SARL_v6","SARL_v6a1hrmh6n","564e93659b124900127eb55b","fixation","","","img/fixation.png","null","","","test","","","","","","","","","","","","","","","","","","","",""
"299.89999997615814","1321666","SARL_v6","SARL_v6a1hrmh6n","564e93659b124900127eb55b","freq","","","img/orange_2bandit_a2.png","70","","70","test","1","","18","","","","square","circle","18","18","1","0.8888888888888888","","","","","","","",""
"null","1322171","SARL_v6","SARL_v6a1hrmh6n","564e93659b124900127eb55b","freq_resp","","","img/orange_2bandit_a.png","70","img/orange_2bandit_a.png","70","test","","","","","","","","","","","1","","","","","","","","",""
"null","1322326","SARL_v6","SARL_v6a1hrmh6n","564e93659b124900127eb55b","fixation","","","img/fixation.png","null","","","test","","","","","","","","","","","","","","","","","","","",""
"322.6999999284744","1322652","SARL_v6","SARL_v6a1hrmh6n","564e93659b124900127eb55b","freq","","","img/orange_2bandit_a2.png","70","","70","test","1","","19","","","","square","circle","19","19","1","0.8947368421052632","","","","","","","",""
"null","1323147","SARL_v6","SARL_v6a1hrmh6n","564e93659b124900127eb55b","freq_resp","","","img/orange_2bandit_a.png","70","img/orange_2bandit_a.png","70","test","","","","","","","","","","","1","","","","","","","","",""
"null","1323300","SARL_v6","SARL_v6a1hrmh6n","564e93659b124900127eb55b","fixation","","","img/fixation.png","null","","","test","","","","","","","","","","","","","","","","","","","",""
"292.10000002384186","1323596","SARL_v6","SARL_v6a1hrmh6n","564e93659b124900127eb55b","freq","","","img/orange_2bandit_a2.png","70","","70","test","1","","20","","","","square","circle","20","20","1","0.9","","","","","","","",""
"null","1324106","SARL_v6","SARL_v6a1hrmh6n","564e93659b124900127eb55b","freq_resp","","","img/orange_2bandit_a.png","70","img/orange_2bandit_a.png","70","test","","","","","","","","","","","1","","","","","","","","",""
"null","1324260","SARL_v6","SARL_v6a1hrmh6n","564e93659b124900127eb55b","fixation","","","img/fixation.png","null","","","test","","","","","","","","","","","","","","","","","","","",""
"277","1324540","SARL_v6","SARL_v6a1hrmh6n","564e93659b124900127eb55b","freq","","","img/orange_2bandit_a2.png","70","","70","test","1","","21","","","","square","circle","21","21","1","0.9047619047619048","","","","","","","",""
"null","1325081","SARL_v6","SARL_v6a1hrmh6n","564e93659b124900127eb55b","freq_resp","","","img/orange_2bandit_a.png","70","img/orange_2bandit_a.png","70","test","","","","","","","","","","","1","","","","","","","","",""
"null","1325235","SARL_v6","SARL_v6a1hrmh6n","564e93659b124900127eb55b","fixation","","","img/fixation.png","null","","","test","","","","","","","","","","","","","","","","","","","",""
"496.2999999523163","1325736","SARL_v6","SARL_v6a1hrmh6n","564e93659b124900127eb55b","rl","","","img/black_2bandit_a2.png","74","","0","test","","","22","","","-3","square","circle","","0","1","","74","-3","-3","-3","-3","square","1","0"
"null","1326493","SARL_v6","SARL_v6a1hrmh6n","564e93659b124900127eb55b","feedback","","","<div class=""verylowPoints_sq""> -3 </div>","null","","na","test","","","NaN","","","","","","","","1","","74","","","","","","1",""
"489.09999990463257","1326986","SARL_v6","SARL_v6a1hrmh6n","564e93659b124900127eb55b","freq","","","img/orange_2bandit_a2.png","70","","70","test","1","","23","","","","square","circle","22","1","2","0.9090909090909091","","","","","","","",""
"null","1327308","SARL_v6","SARL_v6a1hrmh6n","564e93659b124900127eb55b","freq_resp","","","img/orange_2bandit_a.png","70","img/orange_2bandit_a.png","70","test","","","","","","","","","","","2","","","","","","","","",""
"null","1327463","SARL_v6","SARL_v6a1hrmh6n","564e93659b124900127eb55b","fixation","","","img/fixation.png","null","","","test","","","","","","","","","","","","","","","","","","","",""
"365.2999999523163","1327833","SARL_v6","SARL_v6a1hrmh6n","564e93659b124900127eb55b","freq","","","img/orange_2bandit_a2.png","70","","70","test","1","","24","","","","square","circle","23","2","2","0.9130434782608695","","","","","","","",""
"null","1328271","SARL_v6","SARL_v6a1hrmh6n","564e93659b124900127eb55b","freq_resp","","","img/orange_2bandit_a.png","70","img/orange_2bandit_a.png","70","test","","","","","","","","","","","2","","","","","","","","",""
"null","1328426","SARL_v6","SARL_v6a1hrmh6n","564e93659b124900127eb55b","fixation","","","img/fixation.png","null","","","test","","","","","","","","","","","","","","","","","","","",""
"348.3000000715256","1328778","SARL_v6","SARL_v6a1hrmh6n","564e93659b124900127eb55b","freq","","","img/orange_2bandit_a2.png","70","","70","test","1","","25","","","","square","circle","24","3","2","0.9166666666666666","","","","","","","",""
"null","1329247","SARL_v6","SARL_v6a1hrmh6n","564e93659b124900127eb55b","freq_resp","","","img/orange_2bandit_a.png","70","img/orange_2bandit_a.png","70","test","","","","","","","","","","","2","","","","","","","","",""
"null","1329400","SARL_v6","SARL_v6a1hrmh6n","564e93659b124900127eb55b","fixation","","","img/fixation.png","null","","","test","","","","","","","","","","","","","","","","","","","",""
"338.5","1329741","SARL_v6","SARL_v6a1hrmh6n","564e93659b124900127eb55b","freq","","","img/orange_2bandit_a2.png","70","","70","test","1","","26","","","","square","circle","25","4","2","0.92","","","","","","","",""
"null","1330212","SARL_v6","SARL_v6a1hrmh6n","564e93659b124900127eb55b","freq_resp","","","img/orange_2bandit_a.png","70","img/orange_2bandit_a.png","70","test","","","","","","","","","","","2","","","","","","","","",""
"null","1330366","SARL_v6","SARL_v6a1hrmh6n","564e93659b124900127eb55b","fixation","","","img/fixation.png","null","","","test","","","","","","","","","","","","","","","","","","","",""
"346.89999997615814","1330717","SARL_v6","SARL_v6a1hrmh6n","564e93659b124900127eb55b","freq","","","img/orange_2bandit_a2.png","70","","70","test","1","","27","","","","square","circle","26","5","2","0.9230769230769231","","","","","","","",""
"null","1331175","SARL_v6","SARL_v6a1hrmh6n","564e93659b124900127eb55b","freq_resp","","","img/orange_2bandit_a.png","70","img/orange_2bandit_a.png","70","test","","","","","","","","","","","2","","","","","","","","",""
"null","1331327","SARL_v6","SARL_v6a1hrmh6n","564e93659b124900127eb55b","fixation","","","img/fixation.png","null","","","test","","","","","","","","","","","","","","","","","","","",""
"362.5","1331692","SARL_v6","SARL_v6a1hrmh6n","564e93659b124900127eb55b","freq","","","img/orange_2bandit_a2.png","70","","70","test","1","","28","","","","square","circle","27","6","2","0.9259259259259259","","","","","","","",""
"null","1332136","SARL_v6","SARL_v6a1hrmh6n","564e93659b124900127eb55b","freq_resp","","","img/orange_2bandit_a.png","70","img/orange_2bandit_a.png","70","test","","","","","","","","","","","2","","","","","","","","",""
"null","1332289","SARL_v6","SARL_v6a1hrmh6n","564e93659b124900127eb55b","fixation","","","img/fixation.png","null","","","test","","","","","","","","","","","","","","","","","","","",""
"323.5","1332616","SARL_v6","SARL_v6a1hrmh6n","564e93659b124900127eb55b","freq","","","img/orange_2bandit_a2.png","70","","70","test","1","","29","","","","square","circle","28","7","2","0.9285714285714286","","","","","","","",""
"null","1333095","SARL_v6","SARL_v6a1hrmh6n","564e93659b124900127eb55b","freq_resp","","","img/orange_2bandit_a.png","70","img/orange_2bandit_a.png","70","test","","","","","","","","","","","2","","","","","","","","",""
"null","1333250","SARL_v6","SARL_v6a1hrmh6n","564e93659b124900127eb55b","fixation","","","img/fixation.png","null","","","test","","","","","","","","","","","","","","","","","","","",""
"405.60000002384186","1333658","SARL_v6","SARL_v6a1hrmh6n","564e93659b124900127eb55b","freq","","","img/orange_2bandit_a2.png","70","","70","test","1","","30","","","","square","circle","29","8","2","0.9310344827586207","","","","","","","",""
"null","1334071","SARL_v6","SARL_v6a1hrmh6n","564e93659b124900127eb55b","freq_resp","","","img/orange_2bandit_a.png","70","img/orange_2bandit_a.png","70","test","","","","","","","","","","","2","","","","","","","","",""
"null","1334224","SARL_v6","SARL_v6a1hrmh6n","564e93659b124900127eb55b","fixation","","","img/fixation.png","null","","","test","","","","","","","","","","","","","","","","","","","",""
"325.09999990463257","1334552","SARL_v6","SARL_v6a1hrmh6n","564e93659b124900127eb55b","freq","","","img/orange_2bandit_a2.png","70","","70","test","1","","31","","","","square","circle","30","9","2","0.9333333333333333","","","","","","","",""
"null","1335030","SARL_v6","SARL_v6a1hrmh6n","564e93659b124900127eb55b","freq_resp","","","img/orange_2bandit_a.png","70","img/orange_2bandit_a.png","70","test","","","","","","","","","","","2","","","","","","","","",""
"null","1335188","SARL_v6","SARL_v6a1hrmh6n","564e93659b124900127eb55b","fixation","","","img/fixation.png","null","","","test","","","","","","","","","","","","","","","","","","","",""
"451.59999990463257","1335643","SARL_v6","SARL_v6a1hrmh6n","564e93659b124900127eb55b","infreq","","","img/blue_2bandit_a2.png","68","","68","test","1","","32","","","","square","circle","31","10","2","0.9354838709677419","","","","","","","",""
"null","1336009","SARL_v6","SARL_v6a1hrmh6n","564e93659b124900127eb55b","infreq_resp","","","img/blue_2bandit_a.png","68","img/blue_2bandit_a.png","68","test","","","","","","","","","","","2","","","","","","","","",""
"null","1336164","SARL_v6","SARL_v6a1hrmh6n","564e93659b124900127eb55b","fixation","","","img/fixation.png","null","","","test","","","","","","","","","","","","","","","","","","","",""
"447.8000000715256","1336615","SARL_v6","SARL_v6a1hrmh6n","564e93659b124900127eb55b","freq","","","img/orange_2bandit_a2.png","70","","70","test","1","","33","","","","square","circle","32","11","2","0.9375","","","","","","","",""
"null","1336973","SARL_v6","SARL_v6a1hrmh6n","564e93659b124900127eb55b","freq_resp","","","img/orange_2bandit_a.png","70","img/orange_2bandit_a.png","70","test","","","","","","","","","","","2","","","","","","","","",""
"null","1337131","SARL_v6","SARL_v6a1hrmh6n","564e93659b124900127eb55b","fixation","","","img/fixation.png","null","","","test","","","","","","","","","","","","","","","","","","","",""
"336.60000002384186","1337471","SARL_v6","SARL_v6a1hrmh6n","564e93659b124900127eb55b","freq","","","img/orange_2bandit_a2.png","70","","70","test","1","","34","","","","square","circle","33","12","2","0.9393939393939394","","","","","","","",""
"null","1337953","SARL_v6","SARL_v6a1hrmh6n","564e93659b124900127eb55b","freq_resp","","","img/orange_2bandit_a.png","70","img/orange_2bandit_a.png","70","test","","","","","","","","","","","2","","","","","","","","",""
"null","1338107","SARL_v6","SARL_v6a1hrmh6n","564e93659b124900127eb55b","fixation","","","img/fixation.png","null","","","test","","","","","","","","","","","","","","","","","","","",""
"381.60000002384186","1338494","SARL_v6","SARL_v6a1hrmh6n","564e93659b124900127eb55b","infreq","","","img/blue_2bandit_a2.png","68","","68","test","1","","35","","","","square","circle","34","13","2","0.9411764705882353","","","","","","","",""
"null","1338928","SARL_v6","SARL_v6a1hrmh6n","564e93659b124900127eb55b","infreq_resp","","","img/blue_2bandit_a.png","68","img/blue_2bandit_a.png","68","test","","","","","","","","","","","2","","","","","","","","",""
"null","1339098","SARL_v6","SARL_v6a1hrmh6n","564e93659b124900127eb55b","fixation","","","img/fixation.png","null","","","test","","","","","","","","","","","","","","","","","","","",""
"505.7000000476837","1339608","SARL_v6","SARL_v6a1hrmh6n","564e93659b124900127eb55b","freq","","","img/orange_2bandit_a2.png","70","","70","test","1","","36","","","","square","circle","35","14","2","0.9428571428571428","","","","","","","",""
"null","1339919","SARL_v6","SARL_v6a1hrmh6n","564e93659b124900127eb55b","freq_resp","","","img/orange_2bandit_a.png","70","img/orange_2bandit_a.png","70","test","","","","","","","","","","","2","","","","","","","","",""
"null","1340074","SARL_v6","SARL_v6a1hrmh6n","564e93659b124900127eb55b","fixation","","","img/fixation.png","null","","","test","","","","","","","","","","","","","","","","","","","",""
"304.10000002384186","1340381","SARL_v6","SARL_v6a1hrmh6n","564e93659b124900127eb55b","freq","","","img/orange_2bandit_a2.png","70","","70","test","1","","37","","","","square","circle","36","15","2","0.9444444444444444","","","","","","","",""
"null","1340885","SARL_v6","SARL_v6a1hrmh6n","564e93659b124900127eb55b","freq_resp","","","img/orange_2bandit_a.png","70","img/orange_2bandit_a.png","70","test","","","","","","","","","","","2","","","","","","","","",""
"null","1341039","SARL_v6","SARL_v6a1hrmh6n","564e93659b124900127eb55b","fixation","","","img/fixation.png","null","","","test","","","","","","","","","","","","","","","","","","","",""
"66.60000002384186","1341110","SARL_v6","SARL_v6a1hrmh6n","564e93659b124900127eb55b","freq","","","img/orange_2bandit_a2.png","70","","70","test","1","","38","","","","square","circle","37","16","2","0.9459459459459459","","","","","","","",""
"null","1341858","SARL_v6","SARL_v6a1hrmh6n","564e93659b124900127eb55b","freq_resp","","","img/orange_2bandit_a.png","70","img/orange_2bandit_a.png","70","test","","","","","","","","","","","2","","","","","","","","",""
"null","1342014","SARL_v6","SARL_v6a1hrmh6n","564e93659b124900127eb55b","fixation","","","img/fixation.png","null","","","test","","","","","","","","","","","","","","","","","","","",""
"243.70000004768372","1342262","SARL_v6","SARL_v6a1hrmh6n","564e93659b124900127eb55b","freq","","","img/orange_2bandit_a2.png","70","","70","test","1","","39","","","","square","circle","38","17","2","0.9473684210526315","","","","","","","",""
"null","1342834","SARL_v6","SARL_v6a1hrmh6n","564e93659b124900127eb55b","freq_resp","","","img/orange_2bandit_a.png","70","img/orange_2bandit_a.png","70","test","","","","","","","","","","","2","","","","","","","","",""
"null","1342990","SARL_v6","SARL_v6a1hrmh6n","564e93659b124900127eb55b","fixation","","","img/fixation.png","null","","","test","","","","","","","","","","","","","","","","","","","",""
"286.40000009536743","1343280","SARL_v6","SARL_v6a1hrmh6n","564e93659b124900127eb55b","freq","","","img/orange_2bandit_a2.png","70","","70","test","1","","40","","","","square","circle","39","18","2","0.9487179487179487","","","","","","","",""
"null","1343811","SARL_v6","SARL_v6a1hrmh6n","564e93659b124900127eb55b","freq_resp","","","img/orange_2bandit_a.png","70","img/orange_2bandit_a.png","70","test","","","","","","","","","","","2","","","","","","","","",""
"null","1343968","SARL_v6","SARL_v6a1hrmh6n","564e93659b124900127eb55b","fixation","","","img/fixation.png","null","","","test","","","","","","","","","","","","","","","","","","","",""
"444.09999990463257","1344415","SARL_v6","SARL_v6a1hrmh6n","564e93659b124900127eb55b","infreq","","","img/blue_2bandit_a2.png","68","","68","test","1","","41","","","","square","circle","40","19","2","0.95","","","","","","","",""
"null","1344776","SARL_v6","SARL_v6a1hrmh6n","564e93659b124900127eb55b","infreq_resp","","","img/blue_2bandit_a.png","68","img/blue_2bandit_a.png","68","test","","","","","","","","","","","2","","","","","","","","",""
"null","1344931","SARL_v6","SARL_v6a1hrmh6n","564e93659b124900127eb55b","fixation","","","img/fixation.png","null","","","test","","","","","","","","","","","","","","","","","","","",""
"370.59999990463257","1345305","SARL_v6","SARL_v6a1hrmh6n","564e93659b124900127eb55b","freq","","","img/orange_2bandit_a2.png","70","","70","test","1","","42","","","","square","circle","41","20","2","0.9512195121951219","","","","","","","",""
"null","1345752","SARL_v6","SARL_v6a1hrmh6n","564e93659b124900127eb55b","freq_resp","","","img/orange_2bandit_a.png","70","img/orange_2bandit_a.png","70","test","","","","","","","","","","","2","","","","","","","","",""
"null","1345906","SARL_v6","SARL_v6a1hrmh6n","564e93659b124900127eb55b","fixation","","","img/fixation.png","null","","","test","","","","","","","","","","","","","","","","","","","",""
"338.2999999523163","1346248","SARL_v6","SARL_v6a1hrmh6n","564e93659b124900127eb55b","freq","","","img/orange_2bandit_a2.png","70","","70","test","1","","43","","","","square","circle","42","21","2","0.9523809523809523","","","","","","","",""
"null","1346727","SARL_v6","SARL_v6a1hrmh6n","564e93659b124900127eb55b","freq_resp","","","img/orange_2bandit_a.png","70","img/orange_2bandit_a.png","70","test","","","","","","","","","","","2","","","","","","","","",""
"null","1346881","SARL_v6","SARL_v6a1hrmh6n","564e93659b124900127eb55b","fixation","","","img/fixation.png","null","","","test","","","","","","","","","","","","","","","","","","","",""
"339.3000000715256","1347223","SARL_v6","SARL_v6a1hrmh6n","564e93659b124900127eb55b","freq","","","img/orange_2bandit_a2.png","70","","70","test","1","","44","","","","square","circle","43","22","2","0.9534883720930233","","","","","","","",""
"null","1347699","SARL_v6","SARL_v6a1hrmh6n","564e93659b124900127eb55b","freq_resp","","","img/orange_2bandit_a.png","70","img/orange_2bandit_a.png","70","test","","","","","","","","","","","2","","","","","","","","",""
"null","1347852","SARL_v6","SARL_v6a1hrmh6n","564e93659b124900127eb55b","fixation","","","img/fixation.png","null","","","test","","","","","","","","","","","","","","","","","","","",""
"283.39999997615814","1348139","SARL_v6","SARL_v6a1hrmh6n","564e93659b124900127eb55b","freq","","","img/orange_2bandit_a2.png","70","","70","test","1","","45","","","","square","circle","44","23","2","0.9545454545454546","","","","","","","",""
"null","1348661","SARL_v6","SARL_v6a1hrmh6n","564e93659b124900127eb55b","freq_resp","","","img/orange_2bandit_a.png","70","img/orange_2bandit_a.png","70","test","","","","","","","","","","","2","","","","","","","","",""
"null","1348814","SARL_v6","SARL_v6a1hrmh6n","564e93659b124900127eb55b","fixation","","","img/fixation.png","null","","","test","","","","","","","","","","","","","","","","","","","",""
"371.60000002384186","1349189","SARL_v6","SARL_v6a1hrmh6n","564e93659b124900127eb55b","freq","","","img/orange_2bandit_a2.png","70","","70","test","1","","46","","","","square","circle","45","24","2","0.9555555555555556","","","","","","","",""
"null","1349624","SARL_v6","SARL_v6a1hrmh6n","564e93659b124900127eb55b","freq_resp","","","img/orange_2bandit_a.png","70","img/orange_2bandit_a.png","70","test","","","","","","","","","","","2","","","","","","","","",""
"null","1349779","SARL_v6","SARL_v6a1hrmh6n","564e93659b124900127eb55b","fixation","","","img/fixation.png","null","","","test","","","","","","","","","","","","","","","","","","","",""
"291.2999999523163","1350074","SARL_v6","SARL_v6a1hrmh6n","564e93659b124900127eb55b","freq","","","img/orange_2bandit_a2.png","70","","70","test","1","","47","","","","square","circle","46","25","2","0.9565217391304348","","","","","","","",""
"null","1350601","SARL_v6","SARL_v6a1hrmh6n","564e93659b124900127eb55b","freq_resp","","","img/orange_2bandit_a.png","70","img/orange_2bandit_a.png","70","test","","","","","","","","","","","2","","","","","","","","",""
"null","1350755","SARL_v6","SARL_v6a1hrmh6n","564e93659b124900127eb55b","fixation","","","img/fixation.png","null","","","test","","","","","","","","","","","","","","","","","","","",""
"842.7999999523163","1351600","SARL_v6","SARL_v6a1hrmh6n","564e93659b124900127eb55b","rl","","","img/black_2bandit_a2.png","74","","0","test","","","48","","","-5","square","circle","","0","2","","74","-8","-5","-5","-8","square","2","0"
"null","1352364","SARL_v6","SARL_v6a1hrmh6n","564e93659b124900127eb55b","feedback","","","<div class=""verylowPoints_sq""> -5 </div>","null","","na","test","","","NaN","","","","","","","","2","","74","","","","","","2",""
"456.3000000715256","1352824","SARL_v6","SARL_v6a1hrmh6n","564e93659b124900127eb55b","freq","","","img/orange_2bandit_a2.png","70","","70","test","1","","49","","","","square","circle","47","1","3","0.9574468085106383","","","","","","","",""
"null","1353173","SARL_v6","SARL_v6a1hrmh6n","564e93659b124900127eb55b","freq_resp","","","img/orange_2bandit_a.png","70","img/orange_2bandit_a.png","70","test","","","","","","","","","","","3","","","","","","","","",""
"null","1353325","SARL_v6","SARL_v6a1hrmh6n","564e93659b124900127eb55b","fixation","","","img/fixation.png","null","","","test","","","","","","","","","","","","","","","","","","","",""
"381.10000002384186","1353709","SARL_v6","SARL_v6a1hrmh6n","564e93659b124900127eb55b","freq","","","img/orange_2bandit_a2.png","70","","70","test","1","","50","","","","square","circle","48","2","3","0.9583333333333334","","","","","","","",""
"null","1354137","SARL_v6","SARL_v6a1hrmh6n","564e93659b124900127eb55b","freq_resp","","","img/orange_2bandit_a.png","70","img/orange_2bandit_a.png","70","test","","","","","","","","","","","3","","","","","","","","",""
"null","1354293","SARL_v6","SARL_v6a1hrmh6n","564e93659b124900127eb55b","fixation","","","img/fixation.png","null","","","test","","","","","","","","","","","","","","","","","","","",""
"301.7000000476837","1354597","SARL_v6","SARL_v6a1hrmh6n","564e93659b124900127eb55b","freq","","","img/orange_2bandit_a2.png","70","","70","test","1","","51","","","","square","circle","49","3","3","0.9591836734693877","","","","","","","",""
"null","1355104","SARL_v6","SARL_v6a1hrmh6n","564e93659b124900127eb55b","freq_resp","","","img/orange_2bandit_a.png","70","img/orange_2bandit_a.png","70","test","","","","","","","","","","","3","","","","","","","","",""
"null","1355258","SARL_v6","SARL_v6a1hrmh6n","564e93659b124900127eb55b","fixation","","","img/fixation.png","null","","","test","","","","","","","","","","","","","","","","","","","",""
"350.10000002384186","1355612","SARL_v6","SARL_v6a1hrmh6n","564e93659b124900127eb55b","freq","","","img/orange_2bandit_a2.png","70","","70","test","1","","52","","","","square","circle","50","4","3","0.96","","","","","","","",""
"null","1356067","SARL_v6","SARL_v6a1hrmh6n","564e93659b124900127eb55b","freq_resp","","","img/orange_2bandit_a.png","70","img/orange_2bandit_a.png","70","test","","","","","","","","","","","3","","","","","","","","",""
"null","1356221","SARL_v6","SARL_v6a1hrmh6n","564e93659b124900127eb55b","fixation","","","img/fixation.png","null","","","test","","","","","","","","","","","","","","","","","","","",""
"398.59999990463257","1356622","SARL_v6","SARL_v6a1hrmh6n","564e93659b124900127eb55b","infreq","","","img/blue_2bandit_a2.png","68","","68","test","1","","53","","","","square","circle","51","5","3","0.9607843137254902","","","","","","","",""
"null","1357031","SARL_v6","SARL_v6a1hrmh6n","564e93659b124900127eb55b","infreq_resp","","","img/blue_2bandit_a.png","68","img/blue_2bandit_a.png","68","test","","","","","","","","","","","3","","","","","","","","",""
"null","1357186","SARL_v6","SARL_v6a1hrmh6n","564e93659b124900127eb55b","fixation","","","img/fixation.png","null","","","test","","","","","","","","","","","","","","","","","","","",""
"401.8000000715256","1357592","SARL_v6","SARL_v6a1hrmh6n","564e93659b124900127eb55b","freq","","","img/orange_2bandit_a2.png","70","","70","test","1","","54","","","","square","circle","52","6","3","0.9615384615384616","","","","","","","",""
"null","1357996","SARL_v6","SARL_v6a1hrmh6n","564e93659b124900127eb55b","freq_resp","","","img/orange_2bandit_a.png","70","img/orange_2bandit_a.png","70","test","","","","","","","","","","","3","","","","","","","","",""
"null","1358163","SARL_v6","SARL_v6a1hrmh6n","564e93659b124900127eb55b","fixation","","","img/fixation.png","null","","","test","","","","","","","","","","","","","","","","","","","",""
"333.60000002384186","1358499","SARL_v6","SARL_v6a1hrmh6n","564e93659b124900127eb55b","freq","","","img/orange_2bandit_a2.png","70","","70","test","1","","55","","","","square","circle","53","7","3","0.9622641509433962","","","","","","","",""
"null","1358977","SARL_v6","SARL_v6a1hrmh6n","564e93659b124900127eb55b","freq_resp","","","img/orange_2bandit_a.png","70","img/orange_2bandit_a.png","70","test","","","","","","","","","","","3","","","","","","","","",""
"null","1359132","SARL_v6","SARL_v6a1hrmh6n","564e93659b124900127eb55b","fixation","","","img/fixation.png","null","","","test","","","","","","","","","","","","","","","","","","","",""
"270.60000002384186","1359406","SARL_v6","SARL_v6a1hrmh6n","564e93659b124900127eb55b","freq","","","img/orange_2bandit_a2.png","70","","70","test","1","","56","","","","square","circle","54","8","3","0.9629629629629629","","","","","","","",""
"null","1359941","SARL_v6","SARL_v6a1hrmh6n","564e93659b124900127eb55b","freq_resp","","","img/orange_2bandit_a.png","70","img/orange_2bandit_a.png","70","test","","","","","","","","","","","3","","","","","","","","",""
"null","1360097","SARL_v6","SARL_v6a1hrmh6n","564e93659b124900127eb55b","fixation","","","img/fixation.png","null","","","test","","","","","","","","","","","","","","","","","","","",""
"244","1360345","SARL_v6","SARL_v6a1hrmh6n","564e93659b124900127eb55b","freq","","","img/orange_2bandit_a2.png","70","","70","test","1","","57","","","","square","circle","55","9","3","0.9636363636363636","","","","","","","",""
"null","1360917","SARL_v6","SARL_v6a1hrmh6n","564e93659b124900127eb55b","freq_resp","","","img/orange_2bandit_a.png","70","img/orange_2bandit_a.png","70","test","","","","","","","","","","","3","","","","","","","","",""
"null","1361077","SARL_v6","SARL_v6a1hrmh6n","564e93659b124900127eb55b","fixation","","","img/fixation.png","null","","","test","","","","","","","","","","","","","","","","","","","",""
"293.7000000476837","1361374","SARL_v6","SARL_v6a1hrmh6n","564e93659b124900127eb55b","freq","","","img/orange_2bandit_a2.png","70","","70","test","1","","58","","","","square","circle","56","10","3","0.9642857142857143","","","","","","","",""
"null","1361898","SARL_v6","SARL_v6a1hrmh6n","564e93659b124900127eb55b","freq_resp","","","img/orange_2bandit_a.png","70","img/orange_2bandit_a.png","70","test","","","","","","","","","","","3","","","","","","","","",""
"null","1362054","SARL_v6","SARL_v6a1hrmh6n","564e93659b124900127eb55b","fixation","","","img/fixation.png","null","","","test","","","","","","","","","","","","","","","","","","","",""
"399.2000000476837","1362458","SARL_v6","SARL_v6a1hrmh6n","564e93659b124900127eb55b","infreq","","","img/blue_2bandit_a2.png","68","","68","test","1","","59","","","","square","circle","57","11","3","0.9649122807017544","","","","","","","",""
"null","1362873","SARL_v6","SARL_v6a1hrmh6n","564e93659b124900127eb55b","infreq_resp","","","img/blue_2bandit_a.png","68","img/blue_2bandit_a.png","68","test","","","","","","","","","","","3","","","","","","","","",""
"null","1363030","SARL_v6","SARL_v6a1hrmh6n","564e93659b124900127eb55b","fixation","","","img/fixation.png","null","","","test","","","","","","","","","","","","","","","","","","","",""
"245.89999997615814","1363280","SARL_v6","SARL_v6a1hrmh6n","564e93659b124900127eb55b","freq","","","img/orange_2bandit_a2.png","70","","70","test","1","","60","","","","square","circle","58","12","3","0.9655172413793104","","","","","","","",""
"null","1363848","SARL_v6","SARL_v6a1hrmh6n","564e93659b124900127eb55b","freq_resp","","","img/orange_2bandit_a.png","70","img/orange_2bandit_a.png","70","test","","","","","","","","","","","3","","","","","","","","",""
"null","1364003","SARL_v6","SARL_v6a1hrmh6n","564e93659b124900127eb55b","fixation","","","img/fixation.png","null","","","test","","","","","","","","","","","","","","","","","","","",""
"344","1364351","SARL_v6","SARL_v6a1hrmh6n","564e93659b124900127eb55b","freq","","","img/orange_2bandit_a2.png","70","","70","test","1","","61","","","","square","circle","59","13","3","0.9661016949152542","","","","","","","",""
"null","1364825","SARL_v6","SARL_v6a1hrmh6n","564e93659b124900127eb55b","freq_resp","","","img/orange_2bandit_a.png","70","img/orange_2bandit_a.png","70","test","","","","","","","","","","","3","","","","","","","","",""
"null","1364981","SARL_v6","SARL_v6a1hrmh6n","564e93659b124900127eb55b","fixation","","","img/fixation.png","null","","","test","","","","","","","","","","","","","","","","","","","",""
"319.1999999284744","1365304","SARL_v6","SARL_v6a1hrmh6n","564e93659b124900127eb55b","freq","","","img/orange_2bandit_a2.png","70","","70","test","1","","62","","","","square","circle","60","14","3","0.9666666666666667","","","","","","","",""
"null","1365801","SARL_v6","SARL_v6a1hrmh6n","564e93659b124900127eb55b","freq_resp","","","img/orange_2bandit_a.png","70","img/orange_2bandit_a.png","70","test","","","","","","","","","","","3","","","","","","","","",""
"null","1365956","SARL_v6","SARL_v6a1hrmh6n","564e93659b124900127eb55b","fixation","","","img/fixation.png","null","","","test","","","","","","","","","","","","","","","","","","","",""
"224.69999992847443","1366185","SARL_v6","SARL_v6a1hrmh6n","564e93659b124900127eb55b","freq","","","img/orange_2bandit_a2.png","70","","70","test","1","","63","","","","square","circle","61","15","3","0.9672131147540983","","","","","","","",""
"null","1366775","SARL_v6","SARL_v6a1hrmh6n","564e93659b124900127eb55b","freq_resp","","","img/orange_2bandit_a.png","70","img/orange_2bandit_a.png","70","test","","","","","","","","","","","3","","","","","","","","",""
"null","1366930","SARL_v6","SARL_v6a1hrmh6n","564e93659b124900127eb55b","fixation","","","img/fixation.png","null","","","test","","","","","","","","","","","","","","","","","","","",""
"289.2000000476837","1367223","SARL_v6","SARL_v6a1hrmh6n","564e93659b124900127eb55b","freq","","","img/orange_2bandit_a2.png","70","","70","test","1","","64","","","","square","circle","62","16","3","0.967741935483871","","","","","","","",""
"null","1367746","SARL_v6","SARL_v6a1hrmh6n","564e93659b124900127eb55b","freq_resp","","","img/orange_2bandit_a.png","70","img/orange_2bandit_a.png","70","test","","","","","","","","","","","3","","","","","","","","",""
"null","1367899","SARL_v6","SARL_v6a1hrmh6n","564e93659b124900127eb55b","fixation","","","img/fixation.png","null","","","test","","","","","","","","","","","","","","","","","","","",""
"339.7999999523163","1368242","SARL_v6","SARL_v6a1hrmh6n","564e93659b124900127eb55b","freq","","","img/orange_2bandit_a2.png","70","","70","test","1","","65","","","","square","circle","63","17","3","0.9682539682539683","","","","","","","",""
"null","1368706","SARL_v6","SARL_v6a1hrmh6n","564e93659b124900127eb55b","freq_resp","","","img/orange_2bandit_a.png","70","img/orange_2bandit_a.png","70","test","","","","","","","","","","","3","","","","","","","","",""
"null","1368875","SARL_v6","SARL_v6a1hrmh6n","564e93659b124900127eb55b","fixation","","","img/fixation.png","null","","","test","","","","","","","","","","","","","","","","","","","",""
"338","1369216","SARL_v6","SARL_v6a1hrmh6n","564e93659b124900127eb55b","freq","","","img/orange_2bandit_a2.png","70","","70","test","1","","66","","","","square","circle","64","18","3","0.96875","","","","","","","",""
"null","1369697","SARL_v6","SARL_v6a1hrmh6n","564e93659b124900127eb55b","freq_resp","","","img/orange_2bandit_a.png","70","img/orange_2bandit_a.png","70","test","","","","","","","","","","","3","","","","","","","","",""
"null","1369850","SARL_v6","SARL_v6a1hrmh6n","564e93659b124900127eb55b","fixation","","","img/fixation.png","null","","","test","","","","","","","","","","","","","","","","","","","",""
"265.2000000476837","1370119","SARL_v6","SARL_v6a1hrmh6n","564e93659b124900127eb55b","freq","","","img/orange_2bandit_a2.png","70","","70","test","1","","67","","","","square","circle","65","19","3","0.9692307692307692","","","","","","","",""
"null","1370659","SARL_v6","SARL_v6a1hrmh6n","564e93659b124900127eb55b","freq_resp","","","img/orange_2bandit_a.png","70","img/orange_2bandit_a.png","70","test","","","","","","","","","","","3","","","","","","","","",""
"null","1370815","SARL_v6","SARL_v6a1hrmh6n","564e93659b124900127eb55b","fixation","","","img/fixation.png","null","","","test","","","","","","","","","","","","","","","","","","","",""
"309.10000002384186","1371127","SARL_v6","SARL_v6a1hrmh6n","564e93659b124900127eb55b","freq","","","img/orange_2bandit_a2.png","70","","70","test","1","","68","","","","square","circle","66","20","3","0.9696969696969697","","","","","","","",""
"null","1371629","SARL_v6","SARL_v6a1hrmh6n","564e93659b124900127eb55b","freq_resp","","","img/orange_2bandit_a.png","70","img/orange_2bandit_a.png","70","test","","","","","","","","","","","3","","","","","","","","",""
"null","1371783","SARL_v6","SARL_v6a1hrmh6n","564e93659b124900127eb55b","fixation","","","img/fixation.png","null","","","test","","","","","","","","","","","","","","","","","","","",""
"573","1372362","SARL_v6","SARL_v6a1hrmh6n","564e93659b124900127eb55b","rl","","","img/black_2bandit_a2.png","75","","0","test","","","69","","","-8","square","circle","","0","3","","75","-8","-4","-4","-8","circle","3","0"
"null","1373120","SARL_v6","SARL_v6a1hrmh6n","564e93659b124900127eb55b","feedback","","","<div class=""verylowPoints""> -8 </div>","null","","na","test","","","NaN","","","","","","","","3","","75","","","","","","3",""
"581.3999999761581","1373704","SARL_v6","SARL_v6a1hrmh6n","564e93659b124900127eb55b","freq","","","img/orange_2bandit_a2.png","70","","70","test","1","","70","","","","square","circle","67","1","4","0.9701492537313433","","","","","","","",""
"null","1373927","SARL_v6","SARL_v6a1hrmh6n","564e93659b124900127eb55b","freq_resp","","","img/orange_2bandit_a.png","70","img/orange_2bandit_a.png","70","test","","","","","","","","","","","4","","","","","","","","",""
"null","1374082","SARL_v6","SARL_v6a1hrmh6n","564e93659b124900127eb55b","fixation","","","img/fixation.png","null","","","test","","","","","","","","","","","","","","","","","","","",""
"null","1374889","SARL_v6","SARL_v6a1hrmh6n","564e93659b124900127eb55b","freq","","","img/orange_2bandit_a2.png","null","","70","test","0","","71","","","","square","circle","68","2","4","0.9558823529411765","","","","","","","",""
"null","1375045","SARL_v6","SARL_v6a1hrmh6n","564e93659b124900127eb55b","fixation","","","img/fixation.png","null","","","test","","","","","","","","","","","","","","","","","","","",""
"356.59999990463257","1375404","SARL_v6","SARL_v6a1hrmh6n","564e93659b124900127eb55b","freq","","","img/orange_2bandit_a2.png","70","","70","test","1","","72","","","","square","circle","69","3","4","0.9565217391304348","","","","","","","",""
"null","1375865","SARL_v6","SARL_v6a1hrmh6n","564e93659b124900127eb55b","freq_resp","","","img/orange_2bandit_a.png","70","img/orange_2bandit_a.png","70","test","","","","","","","","","","","4","","","","","","","","",""
"null","1376022","SARL_v6","SARL_v6a1hrmh6n","564e93659b124900127eb55b","fixation","","","img/fixation.png","null","","","test","","","","","","","","","","","","","","","","","","","",""
"333.89999997615814","1376360","SARL_v6","SARL_v6a1hrmh6n","564e93659b124900127eb55b","freq","","","img/orange_2bandit_a2.png","70","","70","test","1","","73","","","","square","circle","70","4","4","0.9571428571428572","","","","","","","",""
"null","1376840","SARL_v6","SARL_v6a1hrmh6n","564e93659b124900127eb55b","freq_resp","","","img/orange_2bandit_a.png","70","img/orange_2bandit_a.png","70","test","","","","","","","","","","","4","","","","","","","","",""
"null","1376994","SARL_v6","SARL_v6a1hrmh6n","564e93659b124900127eb55b","fixation","","","img/fixation.png","null","","","test","","","","","","","","","","","","","","","","","","","",""
"343.7999999523163","1377341","SARL_v6","SARL_v6a1hrmh6n","564e93659b124900127eb55b","freq","","","img/orange_2bandit_a2.png","70","","70","test","1","","74","","","","square","circle","71","5","4","0.9577464788732394","","","","","","","",""
"null","1377803","SARL_v6","SARL_v6a1hrmh6n","564e93659b124900127eb55b","freq_resp","","","img/orange_2bandit_a.png","70","img/orange_2bandit_a.png","70","test","","","","","","","","","","","4","","","","","","","","",""
"null","1377971","SARL_v6","SARL_v6a1hrmh6n","564e93659b124900127eb55b","fixation","","","img/fixation.png","null","","","test","","","","","","","","","","","","","","","","","","","",""
"285","1378259","SARL_v6","SARL_v6a1hrmh6n","564e93659b124900127eb55b","freq","","","img/orange_2bandit_a2.png","70","","70","test","1","","75","","","","square","circle","72","6","4","0.9583333333333334","","","","","","","",""
"null","1378791","SARL_v6","SARL_v6a1hrmh6n","564e93659b124900127eb55b","freq_resp","","","img/orange_2bandit_a.png","70","img/orange_2bandit_a.png","70","test","","","","","","","","","","","4","","","","","","","","",""
"null","1378945","SARL_v6","SARL_v6a1hrmh6n","564e93659b124900127eb55b","fixation","","","img/fixation.png","null","","","test","","","","","","","","","","","","","","","","","","","",""
"629","1379576","SARL_v6","SARL_v6a1hrmh6n","564e93659b124900127eb55b","infreq","","","img/blue_2bandit_a2.png","68","","68","test","1","","76","","","","square","circle","73","7","4","0.958904109589041","","","","","","","",""
"null","1379765","SARL_v6","SARL_v6a1hrmh6n","564e93659b124900127eb55b","infreq_resp","","","img/blue_2bandit_a.png","68","img/blue_2bandit_a.png","68","test","","","","","","","","","","","4","","","","","","","","",""
"null","1379933","SARL_v6","SARL_v6a1hrmh6n","564e93659b124900127eb55b","fixation","","","img/fixation.png","null","","","test","","","","","","","","","","","","","","","","","","","",""
"464.7000000476837","1380401","SARL_v6","SARL_v6a1hrmh6n","564e93659b124900127eb55b","freq","","","img/orange_2bandit_a2.png","70","","70","test","1","","77","","","","square","circle","74","8","4","0.9594594594594594","","","","","","","",""
"null","1380753","SARL_v6","SARL_v6a1hrmh6n","564e93659b124900127eb55b","freq_resp","","","img/orange_2bandit_a.png","70","img/orange_2bandit_a.png","70","test","","","","","","","","","","","4","","","","","","","","",""
"null","1380908","SARL_v6","SARL_v6a1hrmh6n","564e93659b124900127eb55b","fixation","","","img/fixation.png","null","","","test","","","","","","","","","","","","","","","","","","","",""
"314.2000000476837","1381225","SARL_v6","SARL_v6a1hrmh6n","564e93659b124900127eb55b","freq","","","img/orange_2bandit_a2.png","70","","70","test","1","","78","","","","square","circle","75","9","4","0.96","","","","","","","",""
"null","1381727","SARL_v6","SARL_v6a1hrmh6n","564e93659b124900127eb55b","freq_resp","","","img/orange_2bandit_a.png","70","img/orange_2bandit_a.png","70","test","","","","","","","","","","","4","","","","","","","","",""
"null","1381881","SARL_v6","SARL_v6a1hrmh6n","564e93659b124900127eb55b","fixation","","","img/fixation.png","null","","","test","","","","","","","","","","","","","","","","","","","",""
"289.39999997615814","1382174","SARL_v6","SARL_v6a1hrmh6n","564e93659b124900127eb55b","freq","","","img/orange_2bandit_a2.png","70","","70","test","1","","79","","","","square","circle","76","10","4","0.9605263157894737","","","","","","","",""
"null","1382692","SARL_v6","SARL_v6a1hrmh6n","564e93659b124900127eb55b","freq_resp","","","img/orange_2bandit_a.png","70","img/orange_2bandit_a.png","70","test","","","","","","","","","","","4","","","","","","","","",""
"null","1382846","SARL_v6","SARL_v6a1hrmh6n","564e93659b124900127eb55b","fixation","","","img/fixation.png","null","","","test","","","","","","","","","","","","","","","","","","","",""
"401","1383250","SARL_v6","SARL_v6a1hrmh6n","564e93659b124900127eb55b","freq","","","img/orange_2bandit_a2.png","70","","70","test","1","","80","","","","square","circle","77","11","4","0.961038961038961","","","","","","","",""
"null","1383665","SARL_v6","SARL_v6a1hrmh6n","564e93659b124900127eb55b","freq_resp","","","img/orange_2bandit_a.png","70","img/orange_2bandit_a.png","70","test","","","","","","","","","","","4","","","","","","","","",""
"null","1383819","SARL_v6","SARL_v6a1hrmh6n","564e93659b124900127eb55b","fixation","","","img/fixation.png","null","","","test","","","","","","","","","","","","","","","","","","","",""
"516.7000000476837","1384340","SARL_v6","SARL_v6a1hrmh6n","564e93659b124900127eb55b","freq","","","img/orange_2bandit_a2.png","70","","70","test","1","","81","","","","square","circle","78","12","4","0.9615384615384616","","","","","","","",""
"null","1384639","SARL_v6","SARL_v6a1hrmh6n","564e93659b124900127eb55b","freq_resp","","","img/orange_2bandit_a.png","70","img/orange_2bandit_a.png","70","test","","","","","","","","","","","4","","","","","","","","",""
"null","1384796","SARL_v6","SARL_v6a1hrmh6n","564e93659b124900127eb55b","fixation","","","img/fixation.png","null","","","test","","","","","","","","","","","","","","","","","","","",""
"478.2000000476837","1385277","SARL_v6","SARL_v6a1hrmh6n","564e93659b124900127eb55b","freq","","","img/orange_2bandit_a2.png","70","","70","test","1","","82","","","","square","circle","79","13","4","0.9620253164556962","","","","","","","",""
"null","1385608","SARL_v6","SARL_v6a1hrmh6n","564e93659b124900127eb55b","freq_resp","","","img/orange_2bandit_a.png","70","img/orange_2bandit_a.png","70","test","","","","","","","","","","","4","","","","","","","","",""
"null","1385761","SARL_v6","SARL_v6a1hrmh6n","564e93659b124900127eb55b","fixation","","","img/fixation.png","null","","","test","","","","","","","","","","","","","","","","","","","",""
"687.8000000715256","1386451","SARL_v6","SARL_v6a1hrmh6n","564e93659b124900127eb55b","infreq","","","img/blue_2bandit_a2.png","68","","68","test","1","","83","","","","square","circle","80","14","4","0.9625","","","","","","","",""
"null","1386571","SARL_v6","SARL_v6a1hrmh6n","564e93659b124900127eb55b","infreq_resp","","","img/blue_2bandit_a.png","68","img/blue_2bandit_a.png","68","test","","","","","","","","","","","4","","","","","","","","",""
"null","1386739","SARL_v6","SARL_v6a1hrmh6n","564e93659b124900127eb55b","fixation","","","img/fixation.png","null","","","test","","","","","","","","","","","","","","","","","","","",""
"428.89999997615814","1387172","SARL_v6","SARL_v6a1hrmh6n","564e93659b124900127eb55b","freq","","","img/orange_2bandit_a2.png","70","","70","test","1","","84","","","","square","circle","81","15","4","0.9629629629629629","","","","","","","",""
"null","1387559","SARL_v6","SARL_v6a1hrmh6n","564e93659b124900127eb55b","freq_resp","","","img/orange_2bandit_a.png","70","img/orange_2bandit_a.png","70","test","","","","","","","","","","","4","","","","","","","","",""
"null","1387714","SARL_v6","SARL_v6a1hrmh6n","564e93659b124900127eb55b","fixation","","","img/fixation.png","null","","","test","","","","","","","","","","","","","","","","","","","",""
"338.5","1388055","SARL_v6","SARL_v6a1hrmh6n","564e93659b124900127eb55b","freq","","","img/orange_2bandit_a2.png","70","","70","test","1","","85","","","","square","circle","82","16","4","0.9634146341463414","","","","","","","",""
"null","1388521","SARL_v6","SARL_v6a1hrmh6n","564e93659b124900127eb55b","freq_resp","","","img/orange_2bandit_a.png","70","img/orange_2bandit_a.png","70","test","","","","","","","","","","","4","","","","","","","","",""
"null","1388674","SARL_v6","SARL_v6a1hrmh6n","564e93659b124900127eb55b","fixation","","","img/fixation.png","null","","","test","","","","","","","","","","","","","","","","","","","",""
"231.5","1388909","SARL_v6","SARL_v6a1hrmh6n","564e93659b124900127eb55b","freq","","","img/orange_2bandit_a2.png","70","","70","test","1","","86","","","","square","circle","83","17","4","0.963855421686747","","","","","","","",""
"null","1389494","SARL_v6","SARL_v6a1hrmh6n","564e93659b124900127eb55b","freq_resp","","","img/orange_2bandit_a.png","70","img/orange_2bandit_a.png","70","test","","","","","","","","","","","4","","","","","","","","",""
"null","1389648","SARL_v6","SARL_v6a1hrmh6n","564e93659b124900127eb55b","fixation","","","img/fixation.png","null","","","test","","","","","","","","","","","","","","","","","","","",""
"300.10000002384186","1389952","SARL_v6","SARL_v6a1hrmh6n","564e93659b124900127eb55b","freq","","","img/orange_2bandit_a2.png","70","","70","test","1","","87","","","","square","circle","84","18","4","0.9642857142857143","","","","","","","",""
"null","1390456","SARL_v6","SARL_v6a1hrmh6n","564e93659b124900127eb55b","freq_resp","","","img/orange_2bandit_a.png","70","img/orange_2bandit_a.png","70","test","","","","","","","","","","","4","","","","","","","","",""
"null","1390609","SARL_v6","SARL_v6a1hrmh6n","564e93659b124900127eb55b","fixation","","","img/fixation.png","null","","","test","","","","","","","","","","","","","","","","","","","",""
"273","1390886","SARL_v6","SARL_v6a1hrmh6n","564e93659b124900127eb55b","freq","","","img/orange_2bandit_a2.png","70","","70","test","1","","88","","","","square","circle","85","19","4","0.9647058823529412","","","","","","","",""
"null","1391432","SARL_v6","SARL_v6a1hrmh6n","564e93659b124900127eb55b","freq_resp","","","img/orange_2bandit_a.png","70","img/orange_2bandit_a.png","70","test","","","","","","","","","","","4","","","","","","","","",""
"null","1391587","SARL_v6","SARL_v6a1hrmh6n","564e93659b124900127eb55b","fixation","","","img/fixation.png","null","","","test","","","","","","","","","","","","","","","","","","","",""
"277.60000002384186","1391867","SARL_v6","SARL_v6a1hrmh6n","564e93659b124900127eb55b","freq","","","img/orange_2bandit_a2.png","70","","70","test","1","","89","","","","square","circle","86","20","4","0.9651162790697675","","","","","","","",""
"null","1392396","SARL_v6","SARL_v6a1hrmh6n","564e93659b124900127eb55b","freq_resp","","","img/orange_2bandit_a.png","70","img/orange_2bandit_a.png","70","test","","","","","","","","","","","4","","","","","","","","",""
"null","1392551","SARL_v6","SARL_v6a1hrmh6n","564e93659b124900127eb55b","fixation","","","img/fixation.png","null","","","test","","","","","","","","","","","","","","","","","","","",""
"767.1000000238419","1393324","SARL_v6","SARL_v6a1hrmh6n","564e93659b124900127eb55b","rl","","","img/black_2bandit_a2.png","75","","0","test","","","90","","","-12","square","circle","","0","4","","75","-12","0","0","-12","circle","4","0"
"null","1394085","SARL_v6","SARL_v6a1hrmh6n","564e93659b124900127eb55b","feedback","","","<div class=""verylowPoints""> -12 </div>","null","","na","test","","","NaN","","","","","","","","4","","75","","","","","","4",""
"492.3000000715256","1394581","SARL_v6","SARL_v6a1hrmh6n","564e93659b124900127eb55b","freq","","","img/orange_2bandit_a2.png","70","","70","test","1","","91","","","","square","circle","87","1","5","0.9655172413793104","","","","","","","",""
"null","1394904","SARL_v6","SARL_v6a1hrmh6n","564e93659b124900127eb55b","freq_resp","","","img/orange_2bandit_a.png","70","img/orange_2bandit_a.png","70","test","","","","","","","","","","","5","","","","","","","","",""
"null","1395060","SARL_v6","SARL_v6a1hrmh6n","564e93659b124900127eb55b","fixation","","","img/fixation.png","null","","","test","","","","","","","","","","","","","","","","","","","",""
"333.6999999284744","1395397","SARL_v6","SARL_v6a1hrmh6n","564e93659b124900127eb55b","freq","","","img/orange_2bandit_a2.png","70","","70","test","1","","92","","","","square","circle","88","2","5","0.9659090909090909","","","","","","","",""
"null","1395880","SARL_v6","SARL_v6a1hrmh6n","564e93659b124900127eb55b","freq_resp","","","img/orange_2bandit_a.png","70","img/orange_2bandit_a.png","70","test","","","","","","","","","","","5","","","","","","","","",""
"null","1396036","SARL_v6","SARL_v6a1hrmh6n","564e93659b124900127eb55b","fixation","","","img/fixation.png","null","","","test","","","","","","","","","","","","","","","","","","","",""
"324.7000000476837","1396365","SARL_v6","SARL_v6a1hrmh6n","564e93659b124900127eb55b","freq","","","img/orange_2bandit_a2.png","70","","70","test","1","","93","","","","square","circle","89","3","5","0.9662921348314607","","","","","","","",""
"null","1396857","SARL_v6","SARL_v6a1hrmh6n","564e93659b124900127eb55b","freq_resp","","","img/orange_2bandit_a.png","70","img/orange_2bandit_a.png","70","test","","","","","","","","","","","5","","","","","","","","",""
"null","1397013","SARL_v6","SARL_v6a1hrmh6n","564e93659b124900127eb55b","fixation","","","img/fixation.png","null","","","test","","","","","","","","","","","","","","","","","","","",""
"402.89999997615814","1397419","SARL_v6","SARL_v6a1hrmh6n","564e93659b124900127eb55b","infreq","","","img/blue_2bandit_a2.png","68","","68","test","1","","94","","","","square","circle","90","4","5","0.9666666666666667","","","","","","","",""
"null","1397820","SARL_v6","SARL_v6a1hrmh6n","564e93659b124900127eb55b","infreq_resp","","","img/blue_2bandit_a.png","68","img/blue_2bandit_a.png","68","test","","","","","","","","","","","5","","","","","","","","",""
"null","1397975","SARL_v6","SARL_v6a1hrmh6n","564e93659b124900127eb55b","fixation","","","img/fixation.png","null","","","test","","","","","","","","","","","","","","","","","","","",""
"334.7000000476837","1398312","SARL_v6","SARL_v6a1hrmh6n","564e93659b124900127eb55b","freq","","","img/orange_2bandit_a2.png","70","","70","test","1","","95","","","","square","circle","91","5","5","0.967032967032967","","","","","","","",""
"null","1398782","SARL_v6","SARL_v6a1hrmh6n","564e93659b124900127eb55b","freq_resp","","","img/orange_2bandit_a.png","70","img/orange_2bandit_a.png","70","test","","","","","","","","","","","5","","","","","","","","",""
"null","1398936","SARL_v6","SARL_v6a1hrmh6n","564e93659b124900127eb55b","fixation","","","img/fixation.png","null","","","test","","","","","","","","","","","","","","","","","","","",""
"312.7999999523163","1399253","SARL_v6","SARL_v6a1hrmh6n","564e93659b124900127eb55b","freq","","","img/orange_2bandit_a2.png","70","","70","test","1","","96","","","","square","circle","92","6","5","0.967391304347826","","","","","","","",""
"null","1399753","SARL_v6","SARL_v6a1hrmh6n","564e93659b124900127eb55b","freq_resp","","","img/orange_2bandit_a.png","70","img/orange_2bandit_a.png","70","test","","","","","","","","","","","5","","","","","","","","",""
"null","1399908","SARL_v6","SARL_v6a1hrmh6n","564e93659b124900127eb55b","fixation","","","img/fixation.png","null","","","test","","","","","","","","","","","","","","","","","","","",""
"292.10000002384186","1400204","SARL_v6","SARL_v6a1hrmh6n","564e93659b124900127eb55b","freq","","","img/orange_2bandit_a2.png","70","","70","test","1","","97","","","","square","circle","93","7","5","0.967741935483871","","","","","","","",""
"null","1400716","SARL_v6","SARL_v6a1hrmh6n","564e93659b124900127eb55b","freq_resp","","","img/orange_2bandit_a.png","70","img/orange_2bandit_a.png","70","test","","","","","","","","","","","5","","","","","","","","",""
"null","1400870","SARL_v6","SARL_v6a1hrmh6n","564e93659b124900127eb55b","fixation","","","img/fixation.png","null","","","test","","","","","","","","","","","","","","","","","","","",""
"276.39999997615814","1401150","SARL_v6","SARL_v6a1hrmh6n","564e93659b124900127eb55b","freq","","","img/orange_2bandit_a2.png","70","","70","test","1","","98","","","","square","circle","94","8","5","0.9680851063829787","","","","","","","",""
"null","1401692","SARL_v6","SARL_v6a1hrmh6n","564e93659b124900127eb55b","freq_resp","","","img/orange_2bandit_a.png","70","img/orange_2bandit_a.png","70","test","","","","","","","","","","","5","","","","","","","","",""
"null","1401861","SARL_v6","SARL_v6a1hrmh6n","564e93659b124900127eb55b","fixation","","","img/fixation.png","null","","","test","","","","","","","","","","","","","","","","","","","",""
"268.2000000476837","1402132","SARL_v6","SARL_v6a1hrmh6n","564e93659b124900127eb55b","freq","","","img/orange_2bandit_a2.png","70","","70","test","1","","99","","","","square","circle","95","9","5","0.968421052631579","","","","","","","",""
"null","1402682","SARL_v6","SARL_v6a1hrmh6n","564e93659b124900127eb55b","freq_resp","","","img/orange_2bandit_a.png","70","img/orange_2bandit_a.png","70","test","","","","","","","","","","","5","","","","","","","","",""
"null","1402835","SARL_v6","SARL_v6a1hrmh6n","564e93659b124900127eb55b","fixation","","","img/fixation.png","null","","","test","","","","","","","","","","","","","","","","","","","",""
"315.59999990463257","1403154","SARL_v6","SARL_v6a1hrmh6n","564e93659b124900127eb55b","freq","","","img/orange_2bandit_a2.png","70","","70","test","1","","100","","","","square","circle","96","10","5","0.96875","","","","","","","",""
"null","1403657","SARL_v6","SARL_v6a1hrmh6n","564e93659b124900127eb55b","freq_resp","","","img/orange_2bandit_a.png","70","img/orange_2bandit_a.png","70","test","","","","","","","","","","","5","","","","","","","","",""
"null","1403825","SARL_v6","SARL_v6a1hrmh6n","564e93659b124900127eb55b","fixation","","","img/fixation.png","null","","","test","","","","","","","","","","","","","","","","","","","",""
"161.80000007152557","1403990","SARL_v6","SARL_v6a1hrmh6n","564e93659b124900127eb55b","freq","","","img/orange_2bandit_a2.png","70","","70","test","1","","101","","","","square","circle","97","11","5","0.9690721649484536","","","","","","","",""
"null","1404633","SARL_v6","SARL_v6a1hrmh6n","564e93659b124900127eb55b","freq_resp","","","img/orange_2bandit_a.png","70","img/orange_2bandit_a.png","70","test","","","","","","","","","","","5","","","","","","","","",""
"null","1404787","SARL_v6","SARL_v6a1hrmh6n","564e93659b124900127eb55b","fixation","","","img/fixation.png","null","","","test","","","","","","","","","","","","","","","","","","","",""
"334","1405125","SARL_v6","SARL_v6a1hrmh6n","564e93659b124900127eb55b","infreq","","","img/blue_2bandit_a2.png","68","","68","test","1","","102","","","","square","circle","98","12","5","0.9693877551020408","","","","","","","",""
"null","1405607","SARL_v6","SARL_v6a1hrmh6n","564e93659b124900127eb55b","infreq_resp","","","img/blue_2bandit_a.png","68","img/blue_2bandit_a.png","68","test","","","","","","","","","","","5","","","","","","","","",""
"null","1405763","SARL_v6","SARL_v6a1hrmh6n","564e93659b124900127eb55b","fixation","","","img/fixation.png","null","","","test","","","","","","","","","","","","","","","","","","","",""
"219.29999995231628","1405985","SARL_v6","SARL_v6a1hrmh6n","564e93659b124900127eb55b","freq","","","img/orange_2bandit_a2.png","70","","70","test","1","","103","","","","square","circle","99","13","5","0.9696969696969697","","","","","","","",""
"null","1406583","SARL_v6","SARL_v6a1hrmh6n","564e93659b124900127eb55b","freq_resp","","","img/orange_2bandit_a.png","70","img/orange_2bandit_a.png","70","test","","","","","","","","","","","5","","","","","","","","",""
"null","1406737","SARL_v6","SARL_v6a1hrmh6n","564e93659b124900127eb55b","fixation","","","img/fixation.png","null","","","test","","","","","","","","","","","","","","","","","","","",""
"264.60000002384186","1407005","SARL_v6","SARL_v6a1hrmh6n","564e93659b124900127eb55b","freq","","","img/orange_2bandit_a2.png","70","","70","test","1","","104","","","","square","circle","100","14","5","0.97","","","","","","","",""
"null","1407557","SARL_v6","SARL_v6a1hrmh6n","564e93659b124900127eb55b","freq_resp","","","img/orange_2bandit_a.png","70","img/orange_2bandit_a.png","70","test","","","","","","","","","","","5","","","","","","","","",""
"null","1407713","SARL_v6","SARL_v6a1hrmh6n","564e93659b124900127eb55b","fixation","","","img/fixation.png","null","","","test","","","","","","","","","","","","","","","","","","","",""
"120.5","1407838","SARL_v6","SARL_v6a1hrmh6n","564e93659b124900127eb55b","freq","","","img/orange_2bandit_a2.png","70","","70","test","1","","105","","","","square","circle","101","15","5","0.9702970297029703","","","","","","","",""
"null","1408533","SARL_v6","SARL_v6a1hrmh6n","564e93659b124900127eb55b","freq_resp","","","img/orange_2bandit_a.png","70","img/orange_2bandit_a.png","70","test","","","","","","","","","","","5","","","","","","","","",""
"null","1408687","SARL_v6","SARL_v6a1hrmh6n","564e93659b124900127eb55b","fixation","","","img/fixation.png","null","","","test","","","","","","","","","","","","","","","","","","","",""
"238.10000002384186","1408929","SARL_v6","SARL_v6a1hrmh6n","564e93659b124900127eb55b","freq","","","img/orange_2bandit_a2.png","70","","70","test","1","","106","","","","square","circle","102","16","5","0.9705882352941176","","","","","","","",""
"null","1409497","SARL_v6","SARL_v6a1hrmh6n","564e93659b124900127eb55b","freq_resp","","","img/orange_2bandit_a.png","70","img/orange_2bandit_a.png","70","test","","","","","","","","","","","5","","","","","","","","",""
"null","1409652","SARL_v6","SARL_v6a1hrmh6n","564e93659b124900127eb55b","fixation","","","img/fixation.png","null","","","test","","","","","","","","","","","","","","","","","","","",""
"244.79999995231628","1409900","SARL_v6","SARL_v6a1hrmh6n","564e93659b124900127eb55b","freq","","","img/orange_2bandit_a2.png","70","","70","test","1","","107","","","","square","circle","103","17","5","0.970873786407767","","","","","","","",""
"null","1410459","SARL_v6","SARL_v6a1hrmh6n","564e93659b124900127eb55b","freq_resp","","","img/orange_2bandit_a.png","70","img/orange_2bandit_a.png","70","test","","","","","","","","","","","5","","","","","","","","",""
"null","1410615","SARL_v6","SARL_v6a1hrmh6n","564e93659b124900127eb55b","fixation","","","img/fixation.png","null","","","test","","","","","","","","","","","","","","","","","","","",""
"310.3000000715256","1410929","SARL_v6","SARL_v6a1hrmh6n","564e93659b124900127eb55b","freq","","","img/orange_2bandit_a2.png","70","","70","test","1","","108","","","","square","circle","104","18","5","0.9711538461538461","","","","","","","",""
"null","1411436","SARL_v6","SARL_v6a1hrmh6n","564e93659b124900127eb55b","freq_resp","","","img/orange_2bandit_a.png","70","img/orange_2bandit_a.png","70","test","","","","","","","","","","","5","","","","","","","","",""
"null","1411589","SARL_v6","SARL_v6a1hrmh6n","564e93659b124900127eb55b","fixation","","","img/fixation.png","null","","","test","","","","","","","","","","","","","","","","","","","",""
"251.69999992847443","1411844","SARL_v6","SARL_v6a1hrmh6n","564e93659b124900127eb55b","freq","","","img/orange_2bandit_a2.png","70","","70","test","1","","109","","","","square","circle","105","19","5","0.9714285714285714","","","","","","","",""
"null","1412411","SARL_v6","SARL_v6a1hrmh6n","564e93659b124900127eb55b","freq_resp","","","img/orange_2bandit_a.png","70","img/orange_2bandit_a.png","70","test","","","","","","","","","","","5","","","","","","","","",""
"null","1412569","SARL_v6","SARL_v6a1hrmh6n","564e93659b124900127eb55b","fixation","","","img/fixation.png","null","","","test","","","","","","","","","","","","","","","","","","","",""
"249.5","1412822","SARL_v6","SARL_v6a1hrmh6n","564e93659b124900127eb55b","freq","","","img/orange_2bandit_a2.png","70","","70","test","1","","110","","","","square","circle","106","20","5","0.9716981132075472","","","","","","","",""
"null","1413391","SARL_v6","SARL_v6a1hrmh6n","564e93659b124900127eb55b","freq_resp","","","img/orange_2bandit_a.png","70","img/orange_2bandit_a.png","70","test","","","","","","","","","","","5","","","","","","","","",""
"null","1413547","SARL_v6","SARL_v6a1hrmh6n","564e93659b124900127eb55b","fixation","","","img/fixation.png","null","","","test","","","","","","","","","","","","","","","","","","","",""
"218.60000002384186","1413770","SARL_v6","SARL_v6a1hrmh6n","564e93659b124900127eb55b","freq","","","img/orange_2bandit_a2.png","70","","70","test","1","","111","","","","square","circle","107","21","5","0.9719626168224299","","","","","","","",""
"null","1414371","SARL_v6","SARL_v6a1hrmh6n","564e93659b124900127eb55b","freq_resp","","","img/orange_2bandit_a.png","70","img/orange_2bandit_a.png","70","test","","","","","","","","","","","5","","","","","","","","",""
"null","1414525","SARL_v6","SARL_v6a1hrmh6n","564e93659b124900127eb55b","fixation","","","img/fixation.png","null","","","test","","","","","","","","","","","","","","","","","","","",""
"226.10000002384186","1414754","SARL_v6","SARL_v6a1hrmh6n","564e93659b124900127eb55b","freq","","","img/orange_2bandit_a2.png","70","","70","test","1","","112","","","","square","circle","108","22","5","0.9722222222222222","","","","","","","",""
"null","1415331","SARL_v6","SARL_v6a1hrmh6n","564e93659b124900127eb55b","freq_resp","","","img/orange_2bandit_a.png","70","img/orange_2bandit_a.png","70","test","","","","","","","","","","","5","","","","","","","","",""
"null","1415485","SARL_v6","SARL_v6a1hrmh6n","564e93659b124900127eb55b","fixation","","","img/fixation.png","null","","","test","","","","","","","","","","","","","","","","","","","",""
"234.59999990463257","1415723","SARL_v6","SARL_v6a1hrmh6n","564e93659b124900127eb55b","freq","","","img/orange_2bandit_a2.png","70","","70","test","1","","113","","","","square","circle","109","23","5","0.9724770642201835","","","","","","","",""
"null","1416306","SARL_v6","SARL_v6a1hrmh6n","564e93659b124900127eb55b","freq_resp","","","img/orange_2bandit_a.png","70","img/orange_2bandit_a.png","70","test","","","","","","","","","","","5","","","","","","","","",""
"null","1416461","SARL_v6","SARL_v6a1hrmh6n","564e93659b124900127eb55b","fixation","","","img/fixation.png","null","","","test","","","","","","","","","","","","","","","","","","","",""
"738.2000000476837","1417203","SARL_v6","SARL_v6a1hrmh6n","564e93659b124900127eb55b","rl","","","img/black_2bandit_a2.png","74","","0","test","","","114","","","4","square","circle","","0","5","","74","-7","4","4","-7","square","5","0"
"null","1417965","SARL_v6","SARL_v6a1hrmh6n","564e93659b124900127eb55b","feedback","","","<div class=""veryhighPoints_sq""> 4 </div>","null","","na","test","","","NaN","","","","","","","","5","","74","","","","","","5",""
"508","1418476","SARL_v6","SARL_v6a1hrmh6n","564e93659b124900127eb55b","freq","","","img/orange_2bandit_a2.png","70","","70","test","1","","115","","","","square","circle","110","1","6","0.9727272727272728","","","","","","","",""
"null","1418785","SARL_v6","SARL_v6a1hrmh6n","564e93659b124900127eb55b","freq_resp","","","img/orange_2bandit_a.png","70","img/orange_2bandit_a.png","70","test","","","","","","","","","","","6","","","","","","","","",""
"null","1418940","SARL_v6","SARL_v6a1hrmh6n","564e93659b124900127eb55b","fixation","","","img/fixation.png","null","","","test","","","","","","","","","","","","","","","","","","","",""
"303.2999999523163","1419246","SARL_v6","SARL_v6a1hrmh6n","564e93659b124900127eb55b","freq","","","img/orange_2bandit_a2.png","70","","70","test","1","","116","","","","square","circle","111","2","6","0.972972972972973","","","","","","","",""
"null","1419760","SARL_v6","SARL_v6a1hrmh6n","564e93659b124900127eb55b","freq_resp","","","img/orange_2bandit_a.png","70","img/orange_2bandit_a.png","70","test","","","","","","","","","","","6","","","","","","","","",""
"null","1419914","SARL_v6","SARL_v6a1hrmh6n","564e93659b124900127eb55b","fixation","","","img/fixation.png","null","","","test","","","","","","","","","","","","","","","","","","","",""
"275.2000000476837","1420193","SARL_v6","SARL_v6a1hrmh6n","564e93659b124900127eb55b","freq","","","img/orange_2bandit_a2.png","70","","70","test","1","","117","","","","square","circle","112","3","6","0.9732142857142857","","","","","","","",""
"null","1420732","SARL_v6","SARL_v6a1hrmh6n","564e93659b124900127eb55b","freq_resp","","","img/orange_2bandit_a.png","70","img/orange_2bandit_a.png","70","test","","","","","","","","","","","6","","","","","","","","",""
"null","1420885","SARL_v6","SARL_v6a1hrmh6n","564e93659b124900127eb55b","fixation","","","img/fixation.png","null","","","test","","","","","","","","","","","","","","","","","","","",""
"219","1421107","SARL_v6","SARL_v6a1hrmh6n","564e93659b124900127eb55b","freq","","","img/orange_2bandit_a2.png","70","","70","test","1","","118","","","","square","circle","113","4","6","0.9734513274336283","","","","","","","",""
"null","1421693","SARL_v6","SARL_v6a1hrmh6n","564e93659b124900127eb55b","freq_resp","","","img/orange_2bandit_a.png","70","img/orange_2bandit_a.png","70","test","","","","","","","","","","","6","","","","","","","","",""
"null","1421847","SARL_v6","SARL_v6a1hrmh6n","564e93659b124900127eb55b","fixation","","","img/fixation.png","null","","","test","","","","","","","","","","","","","","","","","","","",""
"282.10000002384186","1422132","SARL_v6","SARL_v6a1hrmh6n","564e93659b124900127eb55b","freq","","","img/orange_2bandit_a2.png","70","","70","test","1","","119","","","","square","circle","114","5","6","0.9736842105263158","","","","","","","",""
"null","1422665","SARL_v6","SARL_v6a1hrmh6n","564e93659b124900127eb55b","freq_resp","","","img/orange_2bandit_a.png","70","img/orange_2bandit_a.png","70","test","","","","","","","","","","","6","","","","","","","","",""
"null","1422825","SARL_v6","SARL_v6a1hrmh6n","564e93659b124900127eb55b","fixation","","","img/fixation.png","null","","","test","","","","","","","","","","","","","","","","","","","",""
"342.7999999523163","1423171","SARL_v6","SARL_v6a1hrmh6n","564e93659b124900127eb55b","infreq","","","img/blue_2bandit_a2.png","68","","68","test","1","","120","","","","square","circle","115","6","6","0.9739130434782609","","","","","","","",""
"null","1423642","SARL_v6","SARL_v6a1hrmh6n","564e93659b124900127eb55b","infreq_resp","","","img/blue_2bandit_a.png","68","img/blue_2bandit_a.png","68","test","","","","","","","","","","","6","","","","","","","","",""
"null","1423798","SARL_v6","SARL_v6a1hrmh6n","564e93659b124900127eb55b","fixation","","","img/fixation.png","null","","","test","","","","","","","","","","","","","","","","","","","",""
"180.10000002384186","1423983","SARL_v6","SARL_v6a1hrmh6n","564e93659b124900127eb55b","freq","","","img/orange_2bandit_a2.png","70","","70","test","1","","121","","","","square","circle","116","7","6","0.9741379310344828","","","","","","","",""
"null","1424619","SARL_v6","SARL_v6a1hrmh6n","564e93659b124900127eb55b","freq_resp","","","img/orange_2bandit_a.png","70","img/orange_2bandit_a.png","70","test","","","","","","","","","","","6","","","","","","","","",""
"null","1424773","SARL_v6","SARL_v6a1hrmh6n","564e93659b124900127eb55b","fixation","","","img/fixation.png","null","","","test","","","","","","","","","","","","","","","","","","","",""
"276.6999999284744","1425053","SARL_v6","SARL_v6a1hrmh6n","564e93659b124900127eb55b","freq","","","img/orange_2bandit_a2.png","70","","70","test","1","","122","","","","square","circle","117","8","6","0.9743589743589743","","","","","","","",""
"null","1425593","SARL_v6","SARL_v6a1hrmh6n","564e93659b124900127eb55b","freq_resp","","","img/orange_2bandit_a.png","70","img/orange_2bandit_a.png","70","test","","","","","","","","","","","6","","","","","","","","",""
"null","1425748","SARL_v6","SARL_v6a1hrmh6n","564e93659b124900127eb55b","fixation","","","img/fixation.png","null","","","test","","","","","","","","","","","","","","","","","","","",""
"162.30000007152557","1425913","SARL_v6","SARL_v6a1hrmh6n","564e93659b124900127eb55b","infreq","","","img/blue_2bandit_a2.png","70","","68","test","0","","123","","","","square","circle","118","9","6","0.9661016949152542","","","","","","","",""
"null","1426555","SARL_v6","SARL_v6a1hrmh6n","564e93659b124900127eb55b","infreq_resp","","","img/blue_2bandit_a.png","70","img/blue_2bandit_a.png","68","test","","","","","","","","","","","6","","","","","","","","",""
"null","1426709","SARL_v6","SARL_v6a1hrmh6n","564e93659b124900127eb55b","fixation","","","img/fixation.png","null","","","test","","","","","","","","","","","","","","","","","","","",""
"320.39999997615814","1427032","SARL_v6","SARL_v6a1hrmh6n","564e93659b124900127eb55b","freq","","","img/orange_2bandit_a2.png","70","","70","test","1","","124","","","","square","circle","119","10","6","0.9663865546218487","","","","","","","",""
"null","1427519","SARL_v6","SARL_v6a1hrmh6n","564e93659b124900127eb55b","freq_resp","","","img/orange_2bandit_a.png","70","img/orange_2bandit_a.png","70","test","","","","","","","","","","","6","","","","","","","","",""
"null","1427673","SARL_v6","SARL_v6a1hrmh6n","564e93659b124900127eb55b","fixation","","","img/fixation.png","null","","","test","","","","","","","","","","","","","","","","","","","",""
"248.40000009536743","1427925","SARL_v6","SARL_v6a1hrmh6n","564e93659b124900127eb55b","freq","","","img/orange_2bandit_a2.png","70","","70","test","1","","125","","","","square","circle","120","11","6","0.9666666666666667","","","","","","","",""
"null","1428495","SARL_v6","SARL_v6a1hrmh6n","564e93659b124900127eb55b","freq_resp","","","img/orange_2bandit_a.png","70","img/orange_2bandit_a.png","70","test","","","","","","","","","","","6","","","","","","","","",""
"null","1428649","SARL_v6","SARL_v6a1hrmh6n","564e93659b124900127eb55b","fixation","","","img/fixation.png","null","","","test","","","","","","","","","","","","","","","","","","","",""
"308","1428962","SARL_v6","SARL_v6a1hrmh6n","564e93659b124900127eb55b","freq","","","img/orange_2bandit_a2.png","70","","70","test","1","","126","","","","square","circle","121","12","6","0.9669421487603306","","","","","","","",""
"null","1429473","SARL_v6","SARL_v6a1hrmh6n","564e93659b124900127eb55b","freq_resp","","","img/orange_2bandit_a.png","70","img/orange_2bandit_a.png","70","test","","","","","","","","","","","6","","","","","","","","",""
"null","1429627","SARL_v6","SARL_v6a1hrmh6n","564e93659b124900127eb55b","fixation","","","img/fixation.png","null","","","test","","","","","","","","","","","","","","","","","","","",""
"261.7000000476837","1429892","SARL_v6","SARL_v6a1hrmh6n","564e93659b124900127eb55b","freq","","","img/orange_2bandit_a2.png","70","","70","test","1","","127","","","","square","circle","122","13","6","0.9672131147540983","","","","","","","",""
"null","1430448","SARL_v6","SARL_v6a1hrmh6n","564e93659b124900127eb55b","freq_resp","","","img/orange_2bandit_a.png","70","img/orange_2bandit_a.png","70","test","","","","","","","","","","","6","","","","","","","","",""
"null","1430603","SARL_v6","SARL_v6a1hrmh6n","564e93659b124900127eb55b","fixation","","","img/fixation.png","null","","","test","","","","","","","","","","","","","","","","","","","",""
"650.1000000238419","1431255","SARL_v6","SARL_v6a1hrmh6n","564e93659b124900127eb55b","freq","","","img/orange_2bandit_a2.png","70","","70","test","1","","128","","","","square","circle","123","14","6","0.967479674796748","","","","","","","",""
"null","1431411","SARL_v6","SARL_v6a1hrmh6n","564e93659b124900127eb55b","freq_resp","","","img/orange_2bandit_a.png","70","img/orange_2bandit_a.png","70","test","","","","","","","","","","","6","","","","","","","","",""
"null","1431566","SARL_v6","SARL_v6a1hrmh6n","564e93659b124900127eb55b","fixation","","","img/fixation.png","null","","","test","","","","","","","","","","","","","","","","","","","",""
