"rt","time_elapsed","expId","subject","prolificID","trialType","rlType","attType","stimulus","key_press","stim","corrresp","phase","corr","pracCounter","trialNum","rewardOne","rewardTwo","reward","bandOne","bandTwo","attentionNum","attentionRunNum","blockNum","performance","bandChosen","circleVal","squareVal","bandOneVal","bandTwoVal","shapeChosen","rlNum","badFlag"
"4923.5","4926","SARL_v6","SARL_v6h4c50q33","5afa19a4f856320001cf920f","","","","","","","","","","","","","","","","","","","","","","","","","","","",""
"","6864","SARL_v6","SARL_v6h4c50q33","5afa19a4f856320001cf920f","fullscreen","fullscreen","fullscreen","","","","","","","","","","","","","","","","","","","","","","","","",""
"33589.39999999851","40455","SARL_v6","SARL_v6h4c50q33","5afa19a4f856320001cf920f","","","","","","","","","","","","","","","","","","","","","","","","","","","",""
"null","41259","SARL_v6","SARL_v6h4c50q33","5afa19a4f856320001cf920f","freqPrac","","","img/orange_2bandit_b2.png","null","img/orange_2bandit_b2.png","70","prac","0","1","","","","","","","","","","","","","","","","","",""
"null","42261","SARL_v6","SARL_v6h4c50q33","5afa19a4f856320001cf920f","feedback","","","img/tooSlow.png","null","","na","prac","","","","","","","","","","","","","","","","","","","",""
"null","42418","SARL_v6","SARL_v6h4c50q33","5afa19a4f856320001cf920f","fixation","","","img/fixation.png","null","","","prac","","","","","","","","","","","","","","","","","","","",""
"605.4000000022352","43025","SARL_v6","SARL_v6h4c50q33","5afa19a4f856320001cf920f","infreqPrac","","","img/blue_2bandit_b2.png","68","img/blue_2bandit_b2.png","68","prac","1","1","","","","","","","","","","","","","","","","","",""
"605.4000000022352","43222","SARL_v6","SARL_v6h4c50q33","5afa19a4f856320001cf920f","infreqPrac_resp","","","img/blue_2bandit_b.png","68","img/blue_2bandit_b.png","68","prac","","","","","","","","","","","","","","","","","","","",""
"null","43375","SARL_v6","SARL_v6h4c50q33","5afa19a4f856320001cf920f","fixation","","","img/fixation.png","null","","","prac","","","","","","","","","","","","","","","","","","","",""
"505.69999999925494","43881","SARL_v6","SARL_v6h4c50q33","5afa19a4f856320001cf920f","freqPrac","","","img/orange_2bandit_b2.png","70","img/orange_2bandit_b2.png","70","prac","1","1","","","","","","","","","","","","","","","","","",""
"505.69999999925494","44188","SARL_v6","SARL_v6h4c50q33","5afa19a4f856320001cf920f","freqPrac_resp","","","img/orange_2bandit_b.png","70","img/orange_2bandit_b.png","70","prac","","","","","","","","","","","","","","","","","","","",""
"null","44339","SARL_v6","SARL_v6h4c50q33","5afa19a4f856320001cf920f","fixation","","","img/fixation.png","null","","","prac","","","","","","","","","","","","","","","","","","","",""
"539.4000000022352","44880","SARL_v6","SARL_v6h4c50q33","5afa19a4f856320001cf920f","infreqPrac","","","img/blue_2bandit_b2.png","68","img/blue_2bandit_b2.png","68","prac","1","1","","","","","","","","","","","","","","","","","",""
"539.4000000022352","45142","SARL_v6","SARL_v6h4c50q33","5afa19a4f856320001cf920f","infreqPrac_resp","","","img/blue_2bandit_b.png","68","img/blue_2bandit_b.png","68","prac","","","","","","","","","","","","","","","","","","","",""
"null","45298","SARL_v6","SARL_v6h4c50q33","5afa19a4f856320001cf920f","fixation","","","img/fixation.png","null","","","prac","","","","","","","","","","","","","","","","","","","",""
"410.30000000074506","45709","SARL_v6","SARL_v6h4c50q33","5afa19a4f856320001cf920f","infreqPrac","","","img/blue_2bandit_b2.png","68","img/blue_2bandit_b2.png","68","prac","1","1","","","","","","","","","","","","","","","","","",""
"410.30000000074506","46106","SARL_v6","SARL_v6h4c50q33","5afa19a4f856320001cf920f","infreqPrac_resp","","","img/blue_2bandit_b.png","68","img/blue_2bandit_b.png","68","prac","","","","","","","","","","","","","","","","","","","",""
"null","46262","SARL_v6","SARL_v6h4c50q33","5afa19a4f856320001cf920f","fixation","","","img/fixation.png","null","","","prac","","","","","","","","","","","","","","","","","","","",""
"344.1000000014901","46607","SARL_v6","SARL_v6h4c50q33","5afa19a4f856320001cf920f","infreqPrac","","","img/blue_2bandit_b2.png","68","img/blue_2bandit_b2.png","68","prac","1","1","","","","","","","","","","","","","","","","","",""
"344.1000000014901","47066","SARL_v6","SARL_v6h4c50q33","5afa19a4f856320001cf920f","infreqPrac_resp","","","img/blue_2bandit_b.png","68","img/blue_2bandit_b.png","68","prac","","","","","","","","","","","","","","","","","","","",""
"null","47217","SARL_v6","SARL_v6h4c50q33","5afa19a4f856320001cf920f","fixation","","","img/fixation.png","null","","","prac","","","","","","","","","","","","","","","","","","","",""
"543","47761","SARL_v6","SARL_v6h4c50q33","5afa19a4f856320001cf920f","freqPrac","","","img/orange_2bandit_b2.png","70","img/orange_2bandit_b2.png","70","prac","1","1","","","","","","","","","","","","","","","","","",""
"543","48026","SARL_v6","SARL_v6h4c50q33","5afa19a4f856320001cf920f","freqPrac_resp","","","img/orange_2bandit_b.png","70","img/orange_2bandit_b.png","70","prac","","","","","","","","","","","","","","","","","","","",""
"null","48183","SARL_v6","SARL_v6h4c50q33","5afa19a4f856320001cf920f","fixation","","","img/fixation.png","null","","","prac","","","","","","","","","","","","","","","","","","","",""
"494.30000000074506","48678","SARL_v6","SARL_v6h4c50q33","5afa19a4f856320001cf920f","infreqPrac","","","img/blue_2bandit_b2.png","68","img/blue_2bandit_b2.png","68","prac","1","1","","","","","","","","","","","","","","","","","",""
"494.30000000074506","48994","SARL_v6","SARL_v6h4c50q33","5afa19a4f856320001cf920f","infreqPrac_resp","","","img/blue_2bandit_b.png","68","img/blue_2bandit_b.png","68","prac","","","","","","","","","","","","","","","","","","","",""
"null","49150","SARL_v6","SARL_v6h4c50q33","5afa19a4f856320001cf920f","fixation","","","img/fixation.png","null","","","prac","","","","","","","","","","","","","","","","","","","",""
"457","49608","SARL_v6","SARL_v6h4c50q33","5afa19a4f856320001cf920f","freqPrac","","","img/orange_2bandit_b2.png","70","img/orange_2bandit_b2.png","70","prac","1","1","","","","","","","","","","","","","","","","","",""
"457","49964","SARL_v6","SARL_v6h4c50q33","5afa19a4f856320001cf920f","freqPrac_resp","","","img/orange_2bandit_b.png","70","img/orange_2bandit_b.png","70","prac","","","","","","","","","","","","","","","","","","","",""
"null","50121","SARL_v6","SARL_v6h4c50q33","5afa19a4f856320001cf920f","fixation","","","img/fixation.png","null","","","prac","","","","","","","","","","","","","","","","","","","",""
"435.5","50557","SARL_v6","SARL_v6h4c50q33","5afa19a4f856320001cf920f","freqPrac","","","img/orange_2bandit_b2.png","70","img/orange_2bandit_b2.png","70","prac","1","1","","","","","","","","","","","","","","","","","",""
"435.5","50933","SARL_v6","SARL_v6h4c50q33","5afa19a4f856320001cf920f","freqPrac_resp","","","img/orange_2bandit_b.png","70","img/orange_2bandit_b.png","70","prac","","","","","","","","","","","","","","","","","","","",""
"null","51089","SARL_v6","SARL_v6h4c50q33","5afa19a4f856320001cf920f","fixation","","","img/fixation.png","null","","","prac","","","","","","","","","","","","","","","","","","","",""
"12539.400000002235","63629","SARL_v6","SARL_v6h4c50q33","5afa19a4f856320001cf920f","","","","","","","","prac","","","","","","","","","","","","","","","","","","","",""
"null","65135","SARL_v6","SARL_v6h4c50q33","5afa19a4f856320001cf920f","rlPractice","","","img/black_2bandit_b2.png","null","img/black_2bandit_b2.png","","prac","","","0","","","","","","","","","","","","","","","","",""
"null","65899","SARL_v6","SARL_v6h4c50q33","5afa19a4f856320001cf920f","feedback","","","<div font size = 80> TOO SLOW  </div>","null","","na","prac","","","1","10","-14","10","","","","","","","","","","","","","",""
"null","66057","SARL_v6","SARL_v6h4c50q33","5afa19a4f856320001cf920f","fixation","","","img/fixation.png","null","","","prac","","","","","","","","","","","","","","","","","","","",""
"342.70000000298023","66401","SARL_v6","SARL_v6h4c50q33","5afa19a4f856320001cf920f","rlPractice","","","img/black_2bandit_b2.png","75","img/black_2bandit_b2.png","","prac","","","1","","","","","","","","","","","","","","","","",""
"null","67167","SARL_v6","SARL_v6h4c50q33","5afa19a4f856320001cf920f","feedback","","","<div class=""verylowPoints_sq""> -5 </div>","null","","na","prac","","","2","5","-5","5","","","","","","","","","","","","","",""
"null","67323","SARL_v6","SARL_v6h4c50q33","5afa19a4f856320001cf920f","fixation","","","img/fixation.png","null","","","prac","","","","","","","","","","","","","","","","","","","",""
"262.3999999985099","67587","SARL_v6","SARL_v6h4c50q33","5afa19a4f856320001cf920f","rlPractice","","","img/black_2bandit_b2.png","75","img/black_2bandit_b2.png","","prac","","","2","","","","","","","","","","","","","","","","",""
"null","68349","SARL_v6","SARL_v6h4c50q33","5afa19a4f856320001cf920f","feedback","","","<div class=""veryhighPoints_sq""> 2 </div>","null","","na","prac","","","3","30","2","30","","","","","","","","","","","","","",""
"null","68502","SARL_v6","SARL_v6h4c50q33","5afa19a4f856320001cf920f","fixation","","","img/fixation.png","null","","","prac","","","","","","","","","","","","","","","","","","","",""
"282.30000000074506","68786","SARL_v6","SARL_v6h4c50q33","5afa19a4f856320001cf920f","rlPractice","","","img/black_2bandit_b2.png","75","img/black_2bandit_b2.png","","prac","","","3","","","","","","","","","","","","","","","","",""
"null","69542","SARL_v6","SARL_v6h4c50q33","5afa19a4f856320001cf920f","feedback","","","<div class=""veryhighPoints_sq""> 20 </div>","null","","na","prac","","","4","-2","20","-2","","","","","","","","","","","","","",""
"null","69697","SARL_v6","SARL_v6h4c50q33","5afa19a4f856320001cf920f","fixation","","","img/fixation.png","null","","","prac","","","","","","","","","","","","","","","","","","","",""
"4317.60000000149","74016","SARL_v6","SARL_v6h4c50q33","5afa19a4f856320001cf920f","","","","","","","","prac","","","","","","","","","","","","","","","","","","","",""
"778.5999999977648","74795","SARL_v6","SARL_v6h4c50q33","5afa19a4f856320001cf920f","mixAttFreqPrac","","","img/orange_2bandit_b2.png","70","img/orange_2bandit_b2.png","70","prac","","","1","","","","","","","","","","","","","","","","",""
"778.5999999977648","74818","SARL_v6","SARL_v6h4c50q33","5afa19a4f856320001cf920f","freqPrac_resp","","","img/orange_2bandit_b.png","70","img/orange_2bandit_b.png","70","prac","","","1","","","","","","","","","","","","","","","","",""
"null","74981","SARL_v6","SARL_v6h4c50q33","5afa19a4f856320001cf920f","fixation","","","img/fixation.png","null","","","prac","","","","","","","","","","","","","","","","","","","",""
"502","75484","SARL_v6","SARL_v6h4c50q33","5afa19a4f856320001cf920f","mixAttInfreqPrac","","","img/blue_2bandit_b2.png","68","img/blue_2bandit_b2.png","68","prac","","","2","","","","","","","","","","","","","","","","",""
"502","75795","SARL_v6","SARL_v6h4c50q33","5afa19a4f856320001cf920f","infreqPrac_resp","","","img/blue_2bandit_b.png","68","img/orange_2bandit_b.png","68","prac","","","2","","","","","","","","","","","","","","","","",""
"null","75950","SARL_v6","SARL_v6h4c50q33","5afa19a4f856320001cf920f","fixation","","","img/fixation.png","null","","","prac","","","","","","","","","","","","","","","","","","","",""
"572.1000000014901","76523","SARL_v6","SARL_v6h4c50q33","5afa19a4f856320001cf920f","mixAttInfreqPrac","","","img/blue_2bandit_b2.png","68","img/blue_2bandit_b2.png","68","prac","","","3","","","","","","","","","","","","","","","","",""
"572.1000000014901","76762","SARL_v6","SARL_v6h4c50q33","5afa19a4f856320001cf920f","infreqPrac_resp","","","img/blue_2bandit_b.png","68","img/orange_2bandit_b.png","68","prac","","","3","","","","","","","","","","","","","","","","",""
"null","76916","SARL_v6","SARL_v6h4c50q33","5afa19a4f856320001cf920f","fixation","","","img/fixation.png","null","","","prac","","","","","","","","","","","","","","","","","","","",""
"391.19999999925494","77308","SARL_v6","SARL_v6h4c50q33","5afa19a4f856320001cf920f","mixAttInfreqPrac","","","img/blue_2bandit_b2.png","68","img/blue_2bandit_b2.png","68","prac","","","4","","","","","","","","","","","","","","","","",""
"391.19999999925494","77728","SARL_v6","SARL_v6h4c50q33","5afa19a4f856320001cf920f","infreqPrac_resp","","","img/blue_2bandit_b.png","68","img/orange_2bandit_b.png","68","prac","","","4","","","","","","","","","","","","","","","","",""
"null","77885","SARL_v6","SARL_v6h4c50q33","5afa19a4f856320001cf920f","fixation","","","img/fixation.png","null","","","prac","","","","","","","","","","","","","","","","","","","",""
"735.5","78621","SARL_v6","SARL_v6h4c50q33","5afa19a4f856320001cf920f","mixAttFreqPrac","","","img/orange_2bandit_b2.png","70","img/orange_2bandit_b2.png","70","prac","","","5","","","","","","","","","","","","","","","","",""
"735.5","78687","SARL_v6","SARL_v6h4c50q33","5afa19a4f856320001cf920f","freqPrac_resp","","","img/orange_2bandit_b.png","70","img/orange_2bandit_b.png","70","prac","","","5","","","","","","","","","","","","","","","","",""
"null","78843","SARL_v6","SARL_v6h4c50q33","5afa19a4f856320001cf920f","fixation","","","img/fixation.png","null","","","prac","","","","","","","","","","","","","","","","","","","",""
"464.9000000022352","79309","SARL_v6","SARL_v6h4c50q33","5afa19a4f856320001cf920f","mixRLPractice","","","img/black_2bandit_b2.png","75","img/black_2bandit_b2.png","","prac","","","5","","","","","","","","","","","","","","","","",""
"null","80075","SARL_v6","SARL_v6h4c50q33","5afa19a4f856320001cf920f","feedback","","","<div class=""veryhighPoints_sq""> 10 </div>","null","","na","prac","","","6","-14","10","-14","","","","","","","","","","","","","",""
"null","80229","SARL_v6","SARL_v6h4c50q33","5afa19a4f856320001cf920f","fixation","","","img/fixation.png","null","","","prac","","","","","","","","","","","","","","","","","","","",""
"551.7000000029802","80782","SARL_v6","SARL_v6h4c50q33","5afa19a4f856320001cf920f","mixAttFreqPrac","","","img/orange_2bandit_b2.png","70","img/orange_2bandit_b2.png","70","prac","","","7","","","","","","","","","","","","","","","","",""
"551.7000000029802","81040","SARL_v6","SARL_v6h4c50q33","5afa19a4f856320001cf920f","freqPrac_resp","","","img/orange_2bandit_b.png","70","img/orange_2bandit_b.png","70","prac","","","7","","","","","","","","","","","","","","","","",""
"null","81196","SARL_v6","SARL_v6h4c50q33","5afa19a4f856320001cf920f","fixation","","","img/fixation.png","null","","","prac","","","","","","","","","","","","","","","","","","","",""
"420.29999999701977","81617","SARL_v6","SARL_v6h4c50q33","5afa19a4f856320001cf920f","mixAttInfreqPrac","","","img/blue_2bandit_b2.png","68","img/blue_2bandit_b2.png","68","prac","","","8","","","","","","","","","","","","","","","","",""
"420.29999999701977","82008","SARL_v6","SARL_v6h4c50q33","5afa19a4f856320001cf920f","infreqPrac_resp","","","img/blue_2bandit_b.png","68","img/orange_2bandit_b.png","68","prac","","","8","","","","","","","","","","","","","","","","",""
"null","82165","SARL_v6","SARL_v6h4c50q33","5afa19a4f856320001cf920f","fixation","","","img/fixation.png","null","","","prac","","","","","","","","","","","","","","","","","","","",""
"439.5","82606","SARL_v6","SARL_v6h4c50q33","5afa19a4f856320001cf920f","mixAttFreqPrac","","","img/orange_2bandit_b2.png","70","img/orange_2bandit_b2.png","70","prac","","","9","","","","","","","","","","","","","","","","",""
"439.5","82972","SARL_v6","SARL_v6h4c50q33","5afa19a4f856320001cf920f","freqPrac_resp","","","img/orange_2bandit_b.png","70","img/orange_2bandit_b.png","70","prac","","","9","","","","","","","","","","","","","","","","",""
"null","83128","SARL_v6","SARL_v6h4c50q33","5afa19a4f856320001cf920f","fixation","","","img/fixation.png","null","","","prac","","","","","","","","","","","","","","","","","","","",""
"451.5999999977648","83581","SARL_v6","SARL_v6h4c50q33","5afa19a4f856320001cf920f","mixAttFreqPrac","","","img/orange_2bandit_b2.png","70","img/orange_2bandit_b2.png","70","prac","","","10","","","","","","","","","","","","","","","","",""
"451.5999999977648","83933","SARL_v6","SARL_v6h4c50q33","5afa19a4f856320001cf920f","freqPrac_resp","","","img/orange_2bandit_b.png","70","img/orange_2bandit_b.png","70","prac","","","10","","","","","","","","","","","","","","","","",""
"null","84088","SARL_v6","SARL_v6h4c50q33","5afa19a4f856320001cf920f","fixation","","","img/fixation.png","null","","","prac","","","","","","","","","","","","","","","","","","","",""
"549.6999999992549","84639","SARL_v6","SARL_v6h4c50q33","5afa19a4f856320001cf920f","mixAttInfreqPrac","","","img/blue_2bandit_b2.png","68","img/blue_2bandit_b2.png","68","prac","","","11","","","","","","","","","","","","","","","","",""
"549.6999999992549","84900","SARL_v6","SARL_v6h4c50q33","5afa19a4f856320001cf920f","infreqPrac_resp","","","img/blue_2bandit_b.png","68","img/orange_2bandit_b.png","68","prac","","","11","","","","","","","","","","","","","","","","",""
"null","85057","SARL_v6","SARL_v6h4c50q33","5afa19a4f856320001cf920f","fixation","","","img/fixation.png","null","","","prac","","","","","","","","","","","","","","","","","","","",""
"521.1999999992549","85579","SARL_v6","SARL_v6h4c50q33","5afa19a4f856320001cf920f","mixRLPractice","","","img/black_2bandit_b2.png","75","img/black_2bandit_b2.png","","prac","","","11","","","","","","","","","","","","","","","","",""
"null","86339","SARL_v6","SARL_v6h4c50q33","5afa19a4f856320001cf920f","feedback","","","<div class=""verylowPoints_sq""> -5 </div>","null","","na","prac","","","12","5","-5","5","","","","","","","","","","","","","",""
"null","86494","SARL_v6","SARL_v6h4c50q33","5afa19a4f856320001cf920f","fixation","","","img/fixation.png","null","","","prac","","","","","","","","","","","","","","","","","","","",""
"4199.099999997765","90694","SARL_v6","SARL_v6h4c50q33","5afa19a4f856320001cf920f","","","","","","","","prac","","","","","","","","","","","","","","","","","","","",""
"663.3999999985099","91358","SARL_v6","SARL_v6h4c50q33","5afa19a4f856320001cf920f","freq","","","img/orange_2bandit_b2.png","70","","70","test","1","","1","","","","circle","square","1","1","1","1","","","","","","","",""
"null","91509","SARL_v6","SARL_v6h4c50q33","5afa19a4f856320001cf920f","freq_resp","","","img/orange_2bandit_b.png","70","img/orange_2bandit_b.png","70","test","","","","","","","","","","","1","","","","","","","","",""
"null","91666","SARL_v6","SARL_v6h4c50q33","5afa19a4f856320001cf920f","fixation","","","img/fixation.png","null","","","test","","","","","","","","","","","","","","","","","","","",""
"394.80000000074506","92061","SARL_v6","SARL_v6h4c50q33","5afa19a4f856320001cf920f","freq","","","img/orange_2bandit_b2.png","70","","70","test","1","","2","","","","circle","square","2","2","1","1","","","","","","","",""
"null","92478","SARL_v6","SARL_v6h4c50q33","5afa19a4f856320001cf920f","freq_resp","","","img/orange_2bandit_b.png","70","img/orange_2bandit_b.png","70","test","","","","","","","","","","","1","","","","","","","","",""
"null","92633","SARL_v6","SARL_v6h4c50q33","5afa19a4f856320001cf920f","fixation","","","img/fixation.png","null","","","test","","","","","","","","","","","","","","","","","","","",""
"384.1000000014901","93019","SARL_v6","SARL_v6h4c50q33","5afa19a4f856320001cf920f","freq","","","img/orange_2bandit_b2.png","70","","70","test","1","","3","","","","circle","square","3","3","1","1","","","","","","","",""
"null","93449","SARL_v6","SARL_v6h4c50q33","5afa19a4f856320001cf920f","freq_resp","","","img/orange_2bandit_b.png","70","img/orange_2bandit_b.png","70","test","","","","","","","","","","","1","","","","","","","","",""
"null","93605","SARL_v6","SARL_v6h4c50q33","5afa19a4f856320001cf920f","fixation","","","img/fixation.png","null","","","test","","","","","","","","","","","","","","","","","","","",""
"343.6000000014901","93949","SARL_v6","SARL_v6h4c50q33","5afa19a4f856320001cf920f","freq","","","img/orange_2bandit_b2.png","70","","70","test","1","","4","","","","circle","square","4","4","1","1","","","","","","","",""
"null","94413","SARL_v6","SARL_v6h4c50q33","5afa19a4f856320001cf920f","freq_resp","","","img/orange_2bandit_b.png","70","img/orange_2bandit_b.png","70","test","","","","","","","","","","","1","","","","","","","","",""
"null","94569","SARL_v6","SARL_v6h4c50q33","5afa19a4f856320001cf920f","fixation","","","img/fixation.png","null","","","test","","","","","","","","","","","","","","","","","","","",""
"359.5","94930","SARL_v6","SARL_v6h4c50q33","5afa19a4f856320001cf920f","freq","","","img/orange_2bandit_b2.png","70","","70","test","1","","5","","","","circle","square","5","5","1","1","","","","","","","",""
"null","95386","SARL_v6","SARL_v6h4c50q33","5afa19a4f856320001cf920f","freq_resp","","","img/orange_2bandit_b.png","70","img/orange_2bandit_b.png","70","test","","","","","","","","","","","1","","","","","","","","",""
"null","95543","SARL_v6","SARL_v6h4c50q33","5afa19a4f856320001cf920f","fixation","","","img/fixation.png","null","","","test","","","","","","","","","","","","","","","","","","","",""
"352.5","95896","SARL_v6","SARL_v6h4c50q33","5afa19a4f856320001cf920f","freq","","","img/orange_2bandit_b2.png","70","","70","test","1","","6","","","","circle","square","6","6","1","1","","","","","","","",""
"null","96356","SARL_v6","SARL_v6h4c50q33","5afa19a4f856320001cf920f","freq_resp","","","img/orange_2bandit_b.png","70","img/orange_2bandit_b.png","70","test","","","","","","","","","","","1","","","","","","","","",""
"null","96513","SARL_v6","SARL_v6h4c50q33","5afa19a4f856320001cf920f","fixation","","","img/fixation.png","null","","","test","","","","","","","","","","","","","","","","","","","",""
"317.29999999701977","96831","SARL_v6","SARL_v6h4c50q33","5afa19a4f856320001cf920f","freq","","","img/orange_2bandit_b2.png","70","","70","test","1","","7","","","","circle","square","7","7","1","1","","","","","","","",""
"null","97325","SARL_v6","SARL_v6h4c50q33","5afa19a4f856320001cf920f","freq_resp","","","img/orange_2bandit_b.png","70","img/orange_2bandit_b.png","70","test","","","","","","","","","","","1","","","","","","","","",""
"null","97480","SARL_v6","SARL_v6h4c50q33","5afa19a4f856320001cf920f","fixation","","","img/fixation.png","null","","","test","","","","","","","","","","","","","","","","","","","",""
"352.69999999925494","97834","SARL_v6","SARL_v6h4c50q33","5afa19a4f856320001cf920f","freq","","","img/orange_2bandit_b2.png","70","","70","test","1","","8","","","","circle","square","8","8","1","1","","","","","","","",""
"null","98292","SARL_v6","SARL_v6h4c50q33","5afa19a4f856320001cf920f","freq_resp","","","img/orange_2bandit_b.png","70","img/orange_2bandit_b.png","70","test","","","","","","","","","","","1","","","","","","","","",""
"null","98449","SARL_v6","SARL_v6h4c50q33","5afa19a4f856320001cf920f","fixation","","","img/fixation.png","null","","","test","","","","","","","","","","","","","","","","","","","",""
"360.20000000298023","98810","SARL_v6","SARL_v6h4c50q33","5afa19a4f856320001cf920f","freq","","","img/orange_2bandit_b2.png","70","","70","test","1","","9","","","","circle","square","9","9","1","1","","","","","","","",""
"null","99261","SARL_v6","SARL_v6h4c50q33","5afa19a4f856320001cf920f","freq_resp","","","img/orange_2bandit_b.png","70","img/orange_2bandit_b.png","70","test","","","","","","","","","","","1","","","","","","","","",""
"null","99417","SARL_v6","SARL_v6h4c50q33","5afa19a4f856320001cf920f","fixation","","","img/fixation.png","null","","","test","","","","","","","","","","","","","","","","","","","",""
"559.6999999992549","99978","SARL_v6","SARL_v6h4c50q33","5afa19a4f856320001cf920f","infreq","","","img/blue_2bandit_b2.png","68","","68","test","1","","10","","","","circle","square","10","10","1","1","","","","","","","",""
"null","100229","SARL_v6","SARL_v6h4c50q33","5afa19a4f856320001cf920f","infreq_resp","","","img/blue_2bandit_b.png","68","img/blue_2bandit_b.png","68","test","","","","","","","","","","","1","","","","","","","","",""
"null","100385","SARL_v6","SARL_v6h4c50q33","5afa19a4f856320001cf920f","fixation","","","img/fixation.png","null","","","test","","","","","","","","","","","","","","","","","","","",""
"452.8999999985099","100839","SARL_v6","SARL_v6h4c50q33","5afa19a4f856320001cf920f","freq","","","img/orange_2bandit_b2.png","70","","70","test","1","","11","","","","circle","square","11","11","1","1","","","","","","","",""
"null","101190","SARL_v6","SARL_v6h4c50q33","5afa19a4f856320001cf920f","freq_resp","","","img/orange_2bandit_b.png","70","img/orange_2bandit_b.png","70","test","","","","","","","","","","","1","","","","","","","","",""
"null","101347","SARL_v6","SARL_v6h4c50q33","5afa19a4f856320001cf920f","fixation","","","img/fixation.png","null","","","test","","","","","","","","","","","","","","","","","","","",""
"398.6000000014901","101748","SARL_v6","SARL_v6h4c50q33","5afa19a4f856320001cf920f","freq","","","img/orange_2bandit_b2.png","70","","70","test","1","","12","","","","circle","square","12","12","1","1","","","","","","","",""
"null","102160","SARL_v6","SARL_v6h4c50q33","5afa19a4f856320001cf920f","freq_resp","","","img/orange_2bandit_b.png","70","img/orange_2bandit_b.png","70","test","","","","","","","","","","","1","","","","","","","","",""
"null","102318","SARL_v6","SARL_v6h4c50q33","5afa19a4f856320001cf920f","fixation","","","img/fixation.png","null","","","test","","","","","","","","","","","","","","","","","","","",""
"390.1000000014901","102709","SARL_v6","SARL_v6h4c50q33","5afa19a4f856320001cf920f","freq","","","img/orange_2bandit_b2.png","70","","70","test","1","","13","","","","circle","square","13","13","1","1","","","","","","","",""
"null","103119","SARL_v6","SARL_v6h4c50q33","5afa19a4f856320001cf920f","freq_resp","","","img/orange_2bandit_b.png","70","img/orange_2bandit_b.png","70","test","","","","","","","","","","","1","","","","","","","","",""
"null","103280","SARL_v6","SARL_v6h4c50q33","5afa19a4f856320001cf920f","fixation","","","img/fixation.png","null","","","test","","","","","","","","","","","","","","","","","","","",""
"654.8000000007451","103936","SARL_v6","SARL_v6h4c50q33","5afa19a4f856320001cf920f","infreq","","","img/blue_2bandit_b2.png","68","","68","test","1","","14","","","","circle","square","14","14","1","1","","","","","","","",""
"null","104097","SARL_v6","SARL_v6h4c50q33","5afa19a4f856320001cf920f","infreq_resp","","","img/blue_2bandit_b.png","68","img/blue_2bandit_b.png","68","test","","","","","","","","","","","1","","","","","","","","",""
"null","104254","SARL_v6","SARL_v6h4c50q33","5afa19a4f856320001cf920f","fixation","","","img/fixation.png","null","","","test","","","","","","","","","","","","","","","","","","","",""
"null","105068","SARL_v6","SARL_v6h4c50q33","5afa19a4f856320001cf920f","freq","","","img/orange_2bandit_b2.png","null","","70","test","0","","15","","","","circle","square","15","15","1","0.9333333333333333","","","","","","","",""
"null","105220","SARL_v6","SARL_v6h4c50q33","5afa19a4f856320001cf920f","fixation","","","img/fixation.png","null","","","test","","","","","","","","","","","","","","","","","","","",""
"634.8000000007451","105856","SARL_v6","SARL_v6h4c50q33","5afa19a4f856320001cf920f","freq","","","img/orange_2bandit_b2.png","70","","70","test","1","","16","","","","circle","square","16","16","1","0.9375","","","","","","","",""
"null","106034","SARL_v6","SARL_v6h4c50q33","5afa19a4f856320001cf920f","freq_resp","","","img/orange_2bandit_b.png","70","img/orange_2bandit_b.png","70","test","","","","","","","","","","","1","","","","","","","","",""
"null","106194","SARL_v6","SARL_v6h4c50q33","5afa19a4f856320001cf920f","fixation","","","img/fixation.png","null","","","test","","","","","","","","","","","","","","","","","","","",""
"477.0999999977648","106672","SARL_v6","SARL_v6h4c50q33","5afa19a4f856320001cf920f","freq","","","img/orange_2bandit_b2.png","70","","70","test","1","","17","","","","circle","square","17","17","1","0.9411764705882353","","","","","","","",""
"null","107010","SARL_v6","SARL_v6h4c50q33","5afa19a4f856320001cf920f","freq_resp","","","img/orange_2bandit_b.png","70","img/orange_2bandit_b.png","70","test","","","","","","","","","","","1","","","","","","","","",""
"null","107166","SARL_v6","SARL_v6h4c50q33","5afa19a4f856320001cf920f","fixation","","","img/fixation.png","null","","","test","","","","","","","","","","","","","","","","","","","",""
"429.4000000022352","107597","SARL_v6","SARL_v6h4c50q33","5afa19a4f856320001cf920f","freq","","","img/orange_2bandit_b2.png","70","","70","test","1","","18","","","","circle","square","18","18","1","0.9444444444444444","","","","","","","",""
"null","107983","SARL_v6","SARL_v6h4c50q33","5afa19a4f856320001cf920f","freq_resp","","","img/orange_2bandit_b.png","70","img/orange_2bandit_b.png","70","test","","","","","","","","","","","1","","","","","","","","",""
"null","108140","SARL_v6","SARL_v6h4c50q33","5afa19a4f856320001cf920f","fixation","","","img/fixation.png","null","","","test","","","","","","","","","","","","","","","","","","","",""
"400","108541","SARL_v6","SARL_v6h4c50q33","5afa19a4f856320001cf920f","freq","","","img/orange_2bandit_b2.png","70","","70","test","1","","19","","","","circle","square","19","19","1","0.9473684210526315","","","","","","","",""
"null","108949","SARL_v6","SARL_v6h4c50q33","5afa19a4f856320001cf920f","freq_resp","","","img/orange_2bandit_b.png","70","img/orange_2bandit_b.png","70","test","","","","","","","","","","","1","","","","","","","","",""
"null","109102","SARL_v6","SARL_v6h4c50q33","5afa19a4f856320001cf920f","fixation","","","img/fixation.png","null","","","test","","","","","","","","","","","","","","","","","","","",""
"395","109498","SARL_v6","SARL_v6h4c50q33","5afa19a4f856320001cf920f","freq","","","img/orange_2bandit_b2.png","70","","70","test","1","","20","","","","circle","square","20","20","1","0.95","","","","","","","",""
"null","109914","SARL_v6","SARL_v6h4c50q33","5afa19a4f856320001cf920f","freq_resp","","","img/orange_2bandit_b.png","70","img/orange_2bandit_b.png","70","test","","","","","","","","","","","1","","","","","","","","",""
"null","110071","SARL_v6","SARL_v6h4c50q33","5afa19a4f856320001cf920f","fixation","","","img/fixation.png","null","","","test","","","","","","","","","","","","","","","","","","","",""
"346.69999999925494","110419","SARL_v6","SARL_v6h4c50q33","5afa19a4f856320001cf920f","freq","","","img/orange_2bandit_b2.png","70","","70","test","1","","21","","","","circle","square","21","21","1","0.9523809523809523","","","","","","","",""
"null","110875","SARL_v6","SARL_v6h4c50q33","5afa19a4f856320001cf920f","freq_resp","","","img/orange_2bandit_b.png","70","img/orange_2bandit_b.png","70","test","","","","","","","","","","","1","","","","","","","","",""
"null","111028","SARL_v6","SARL_v6h4c50q33","5afa19a4f856320001cf920f","fixation","","","img/fixation.png","null","","","test","","","","","","","","","","","","","","","","","","","",""
"311.20000000298023","111340","SARL_v6","SARL_v6h4c50q33","5afa19a4f856320001cf920f","freq","","","img/orange_2bandit_b2.png","70","","70","test","1","","22","","","","circle","square","22","22","1","0.9545454545454546","","","","","","","",""
"null","111839","SARL_v6","SARL_v6h4c50q33","5afa19a4f856320001cf920f","freq_resp","","","img/orange_2bandit_b.png","70","img/orange_2bandit_b.png","70","test","","","","","","","","","","","1","","","","","","","","",""
"null","111996","SARL_v6","SARL_v6h4c50q33","5afa19a4f856320001cf920f","fixation","","","img/fixation.png","null","","","test","","","","","","","","","","","","","","","","","","","",""
"597","112595","SARL_v6","SARL_v6h4c50q33","5afa19a4f856320001cf920f","rl","","","img/black_2bandit_b2.png","75","","0","test","","","23","","","-3","circle","square","","0","1","","75","-3","-3","-3","-3","square","1","0"
"null","113348","SARL_v6","SARL_v6h4c50q33","5afa19a4f856320001cf920f","feedback","","","<div class=""verylowPoints_sq""> -3 </div>","null","","na","test","","","NaN","","","","","","","","1","","75","","","","","","1",""
"521.8999999985099","113871","SARL_v6","SARL_v6h4c50q33","5afa19a4f856320001cf920f","freq","","","img/orange_2bandit_b2.png","70","","70","test","1","","24","","","","circle","square","23","1","2","0.9565217391304348","","","","","","","",""
"null","114164","SARL_v6","SARL_v6h4c50q33","5afa19a4f856320001cf920f","freq_resp","","","img/orange_2bandit_b.png","70","img/orange_2bandit_b.png","70","test","","","","","","","","","","","2","","","","","","","","",""
"null","114319","SARL_v6","SARL_v6h4c50q33","5afa19a4f856320001cf920f","fixation","","","img/fixation.png","null","","","test","","","","","","","","","","","","","","","","","","","",""
"362.3999999985099","114682","SARL_v6","SARL_v6h4c50q33","5afa19a4f856320001cf920f","freq","","","img/orange_2bandit_b2.png","70","","70","test","1","","25","","","","circle","square","24","2","2","0.9583333333333334","","","","","","","",""
"null","115133","SARL_v6","SARL_v6h4c50q33","5afa19a4f856320001cf920f","freq_resp","","","img/orange_2bandit_b.png","70","img/orange_2bandit_b.png","70","test","","","","","","","","","","","2","","","","","","","","",""
"null","115287","SARL_v6","SARL_v6h4c50q33","5afa19a4f856320001cf920f","fixation","","","img/fixation.png","null","","","test","","","","","","","","","","","","","","","","","","","",""
"621","115909","SARL_v6","SARL_v6h4c50q33","5afa19a4f856320001cf920f","infreq","","","img/blue_2bandit_b2.png","68","","68","test","1","","26","","","","circle","square","25","3","2","0.96","","","","","","","",""
"null","116103","SARL_v6","SARL_v6h4c50q33","5afa19a4f856320001cf920f","infreq_resp","","","img/blue_2bandit_b.png","68","img/blue_2bandit_b.png","68","test","","","","","","","","","","","2","","","","","","","","",""
"null","116258","SARL_v6","SARL_v6h4c50q33","5afa19a4f856320001cf920f","fixation","","","img/fixation.png","null","","","test","","","","","","","","","","","","","","","","","","","",""
"485.5","116744","SARL_v6","SARL_v6h4c50q33","5afa19a4f856320001cf920f","freq","","","img/orange_2bandit_b2.png","70","","70","test","1","","27","","","","circle","square","26","4","2","0.9615384615384616","","","","","","","",""
"null","117069","SARL_v6","SARL_v6h4c50q33","5afa19a4f856320001cf920f","freq_resp","","","img/orange_2bandit_b.png","70","img/orange_2bandit_b.png","70","test","","","","","","","","","","","2","","","","","","","","",""
"null","117224","SARL_v6","SARL_v6h4c50q33","5afa19a4f856320001cf920f","fixation","","","img/fixation.png","null","","","test","","","","","","","","","","","","","","","","","","","",""
"398.69999999925494","117624","SARL_v6","SARL_v6h4c50q33","5afa19a4f856320001cf920f","freq","","","img/orange_2bandit_b2.png","70","","70","test","1","","28","","","","circle","square","27","5","2","0.9629629629629629","","","","","","","",""
"null","118035","SARL_v6","SARL_v6h4c50q33","5afa19a4f856320001cf920f","freq_resp","","","img/orange_2bandit_b.png","70","img/orange_2bandit_b.png","70","test","","","","","","","","","","","2","","","","","","","","",""
"null","118188","SARL_v6","SARL_v6h4c50q33","5afa19a4f856320001cf920f","fixation","","","img/fixation.png","null","","","test","","","","","","","","","","","","","","","","","","","",""
"359.6000000014901","118549","SARL_v6","SARL_v6h4c50q33","5afa19a4f856320001cf920f","freq","","","img/orange_2bandit_b2.png","70","","70","test","1","","29","","","","circle","square","28","6","2","0.9642857142857143","","","","","","","",""
"null","118997","SARL_v6","SARL_v6h4c50q33","5afa19a4f856320001cf920f","freq_resp","","","img/orange_2bandit_b.png","70","img/orange_2bandit_b.png","70","test","","","","","","","","","","","2","","","","","","","","",""
"null","119153","SARL_v6","SARL_v6h4c50q33","5afa19a4f856320001cf920f","fixation","","","img/fixation.png","null","","","test","","","","","","","","","","","","","","","","","","","",""
"367.1000000014901","119521","SARL_v6","SARL_v6h4c50q33","5afa19a4f856320001cf920f","freq","","","img/orange_2bandit_b2.png","70","","70","test","1","","30","","","","circle","square","29","7","2","0.9655172413793104","","","","","","","",""
"null","119962","SARL_v6","SARL_v6h4c50q33","5afa19a4f856320001cf920f","freq_resp","","","img/orange_2bandit_b.png","70","img/orange_2bandit_b.png","70","test","","","","","","","","","","","2","","","","","","","","",""
"null","120120","SARL_v6","SARL_v6h4c50q33","5afa19a4f856320001cf920f","fixation","","","img/fixation.png","null","","","test","","","","","","","","","","","","","","","","","","","",""
"499","120620","SARL_v6","SARL_v6h4c50q33","5afa19a4f856320001cf920f","infreq","","","img/blue_2bandit_b2.png","68","","68","test","1","","31","","","","circle","square","30","8","2","0.9666666666666667","","","","","","","",""
"null","120930","SARL_v6","SARL_v6h4c50q33","5afa19a4f856320001cf920f","infreq_resp","","","img/blue_2bandit_b.png","68","img/blue_2bandit_b.png","68","test","","","","","","","","","","","2","","","","","","","","",""
"null","121085","SARL_v6","SARL_v6h4c50q33","5afa19a4f856320001cf920f","fixation","","","img/fixation.png","null","","","test","","","","","","","","","","","","","","","","","","","",""
"600.3000000007451","121687","SARL_v6","SARL_v6h4c50q33","5afa19a4f856320001cf920f","freq","","","img/orange_2bandit_b2.png","70","","70","test","1","","32","","","","circle","square","31","9","2","0.967741935483871","","","","","","","",""
"null","121901","SARL_v6","SARL_v6h4c50q33","5afa19a4f856320001cf920f","freq_resp","","","img/orange_2bandit_b.png","70","img/orange_2bandit_b.png","70","test","","","","","","","","","","","2","","","","","","","","",""
"null","122058","SARL_v6","SARL_v6h4c50q33","5afa19a4f856320001cf920f","fixation","","","img/fixation.png","null","","","test","","","","","","","","","","","","","","","","","","","",""
"388.9000000022352","122448","SARL_v6","SARL_v6h4c50q33","5afa19a4f856320001cf920f","freq","","","img/orange_2bandit_b2.png","70","","70","test","1","","33","","","","circle","square","32","10","2","0.96875","","","","","","","",""
"null","122861","SARL_v6","SARL_v6h4c50q33","5afa19a4f856320001cf920f","freq_resp","","","img/orange_2bandit_b.png","70","img/orange_2bandit_b.png","70","test","","","","","","","","","","","2","","","","","","","","",""
"null","123014","SARL_v6","SARL_v6h4c50q33","5afa19a4f856320001cf920f","fixation","","","img/fixation.png","null","","","test","","","","","","","","","","","","","","","","","","","",""
"330.30000000074506","123346","SARL_v6","SARL_v6h4c50q33","5afa19a4f856320001cf920f","freq","","","img/orange_2bandit_b2.png","70","","70","test","1","","34","","","","circle","square","33","11","2","0.9696969696969697","","","","","","","",""
"null","123823","SARL_v6","SARL_v6h4c50q33","5afa19a4f856320001cf920f","freq_resp","","","img/orange_2bandit_b.png","70","img/orange_2bandit_b.png","70","test","","","","","","","","","","","2","","","","","","","","",""
"null","123979","SARL_v6","SARL_v6h4c50q33","5afa19a4f856320001cf920f","fixation","","","img/fixation.png","null","","","test","","","","","","","","","","","","","","","","","","","",""
"350.80000000074506","124331","SARL_v6","SARL_v6h4c50q33","5afa19a4f856320001cf920f","freq","","","img/orange_2bandit_b2.png","70","","70","test","1","","35","","","","circle","square","34","12","2","0.9705882352941176","","","","","","","",""
"null","124793","SARL_v6","SARL_v6h4c50q33","5afa19a4f856320001cf920f","freq_resp","","","img/orange_2bandit_b.png","70","img/orange_2bandit_b.png","70","test","","","","","","","","","","","2","","","","","","","","",""
"null","124947","SARL_v6","SARL_v6h4c50q33","5afa19a4f856320001cf920f","fixation","","","img/fixation.png","null","","","test","","","","","","","","","","","","","","","","","","","",""
"345","125294","SARL_v6","SARL_v6h4c50q33","5afa19a4f856320001cf920f","freq","","","img/orange_2bandit_b2.png","70","","70","test","1","","36","","","","circle","square","35","13","2","0.9714285714285714","","","","","","","",""
"null","125759","SARL_v6","SARL_v6h4c50q33","5afa19a4f856320001cf920f","freq_resp","","","img/orange_2bandit_b.png","70","img/orange_2bandit_b.png","70","test","","","","","","","","","","","2","","","","","","","","",""
"null","125915","SARL_v6","SARL_v6h4c50q33","5afa19a4f856320001cf920f","fixation","","","img/fixation.png","null","","","test","","","","","","","","","","","","","","","","","","","",""
"311.1000000014901","126228","SARL_v6","SARL_v6h4c50q33","5afa19a4f856320001cf920f","freq","","","img/orange_2bandit_b2.png","70","","70","test","1","","37","","","","circle","square","36","14","2","0.9722222222222222","","","","","","","",""
"null","126729","SARL_v6","SARL_v6h4c50q33","5afa19a4f856320001cf920f","freq_resp","","","img/orange_2bandit_b.png","70","img/orange_2bandit_b.png","70","test","","","","","","","","","","","2","","","","","","","","",""
"null","126886","SARL_v6","SARL_v6h4c50q33","5afa19a4f856320001cf920f","fixation","","","img/fixation.png","null","","","test","","","","","","","","","","","","","","","","","","","",""
"311.19999999925494","127198","SARL_v6","SARL_v6h4c50q33","5afa19a4f856320001cf920f","freq","","","img/orange_2bandit_b2.png","70","","70","test","1","","38","","","","circle","square","37","15","2","0.972972972972973","","","","","","","",""
"null","127690","SARL_v6","SARL_v6h4c50q33","5afa19a4f856320001cf920f","freq_resp","","","img/orange_2bandit_b.png","70","img/orange_2bandit_b.png","70","test","","","","","","","","","","","2","","","","","","","","",""
"null","127846","SARL_v6","SARL_v6h4c50q33","5afa19a4f856320001cf920f","fixation","","","img/fixation.png","null","","","test","","","","","","","","","","","","","","","","","","","",""
"350.19999999925494","128197","SARL_v6","SARL_v6h4c50q33","5afa19a4f856320001cf920f","freq","","","img/orange_2bandit_b2.png","70","","70","test","1","","39","","","","circle","square","38","16","2","0.9736842105263158","","","","","","","",""
"null","128661","SARL_v6","SARL_v6h4c50q33","5afa19a4f856320001cf920f","freq_resp","","","img/orange_2bandit_b.png","70","img/orange_2bandit_b.png","70","test","","","","","","","","","","","2","","","","","","","","",""
"null","128818","SARL_v6","SARL_v6h4c50q33","5afa19a4f856320001cf920f","fixation","","","img/fixation.png","null","","","test","","","","","","","","","","","","","","","","","","","",""
"364.29999999701977","129183","SARL_v6","SARL_v6h4c50q33","5afa19a4f856320001cf920f","freq","","","img/orange_2bandit_b2.png","70","","70","test","1","","40","","","","circle","square","39","17","2","0.9743589743589743","","","","","","","",""
"null","129629","SARL_v6","SARL_v6h4c50q33","5afa19a4f856320001cf920f","freq_resp","","","img/orange_2bandit_b.png","70","img/orange_2bandit_b.png","70","test","","","","","","","","","","","2","","","","","","","","",""
"null","129784","SARL_v6","SARL_v6h4c50q33","5afa19a4f856320001cf920f","fixation","","","img/fixation.png","null","","","test","","","","","","","","","","","","","","","","","","","",""
"299.6000000014901","130085","SARL_v6","SARL_v6h4c50q33","5afa19a4f856320001cf920f","freq","","","img/orange_2bandit_b2.png","70","","70","test","1","","41","","","","circle","square","40","18","2","0.975","","","","","","","",""
"null","130599","SARL_v6","SARL_v6h4c50q33","5afa19a4f856320001cf920f","freq_resp","","","img/orange_2bandit_b.png","70","img/orange_2bandit_b.png","70","test","","","","","","","","","","","2","","","","","","","","",""
"null","130757","SARL_v6","SARL_v6h4c50q33","5afa19a4f856320001cf920f","fixation","","","img/fixation.png","null","","","test","","","","","","","","","","","","","","","","","","","",""
"371.30000000074506","131129","SARL_v6","SARL_v6h4c50q33","5afa19a4f856320001cf920f","freq","","","img/orange_2bandit_b2.png","70","","70","test","1","","42","","","","circle","square","41","19","2","0.975609756097561","","","","","","","",""
"null","131571","SARL_v6","SARL_v6h4c50q33","5afa19a4f856320001cf920f","freq_resp","","","img/orange_2bandit_b.png","70","img/orange_2bandit_b.png","70","test","","","","","","","","","","","2","","","","","","","","",""
"null","131729","SARL_v6","SARL_v6h4c50q33","5afa19a4f856320001cf920f","fixation","","","img/fixation.png","null","","","test","","","","","","","","","","","","","","","","","","","",""
"302.30000000074506","132032","SARL_v6","SARL_v6h4c50q33","5afa19a4f856320001cf920f","freq","","","img/orange_2bandit_b2.png","70","","70","test","1","","43","","","","circle","square","42","20","2","0.9761904761904762","","","","","","","",""
"null","132541","SARL_v6","SARL_v6h4c50q33","5afa19a4f856320001cf920f","freq_resp","","","img/orange_2bandit_b.png","70","img/orange_2bandit_b.png","70","test","","","","","","","","","","","2","","","","","","","","",""
"null","132698","SARL_v6","SARL_v6h4c50q33","5afa19a4f856320001cf920f","fixation","","","img/fixation.png","null","","","test","","","","","","","","","","","","","","","","","","","",""
"300.0999999977648","132999","SARL_v6","SARL_v6h4c50q33","5afa19a4f856320001cf920f","freq","","","img/orange_2bandit_b2.png","70","","70","test","1","","44","","","","circle","square","43","21","2","0.9767441860465116","","","","","","","",""
"null","133508","SARL_v6","SARL_v6h4c50q33","5afa19a4f856320001cf920f","freq_resp","","","img/orange_2bandit_b.png","70","img/orange_2bandit_b.png","70","test","","","","","","","","","","","2","","","","","","","","",""
"null","133668","SARL_v6","SARL_v6h4c50q33","5afa19a4f856320001cf920f","fixation","","","img/fixation.png","null","","","test","","","","","","","","","","","","","","","","","","","",""
"675.3000000007451","134344","SARL_v6","SARL_v6h4c50q33","5afa19a4f856320001cf920f","rl","","","img/black_2bandit_b2.png","75","","0","test","","","45","","","-5","circle","square","","0","2","","75","-8","-5","-8","-5","square","2","0"
"null","135101","SARL_v6","SARL_v6h4c50q33","5afa19a4f856320001cf920f","feedback","","","<div class=""verylowPoints_sq""> -5 </div>","null","","na","test","","","NaN","","","","","","","","2","","75","","","","","","2",""
"655.8999999985099","135758","SARL_v6","SARL_v6h4c50q33","5afa19a4f856320001cf920f","freq","","","img/orange_2bandit_b2.png","70","","70","test","1","","46","","","","circle","square","44","1","3","0.9772727272727273","","","","","","","",""
"null","135909","SARL_v6","SARL_v6h4c50q33","5afa19a4f856320001cf920f","freq_resp","","","img/orange_2bandit_b.png","70","img/orange_2bandit_b.png","70","test","","","","","","","","","","","3","","","","","","","","",""
"null","136067","SARL_v6","SARL_v6h4c50q33","5afa19a4f856320001cf920f","fixation","","","img/fixation.png","null","","","test","","","","","","","","","","","","","","","","","","","",""
"689","136757","SARL_v6","SARL_v6h4c50q33","5afa19a4f856320001cf920f","freq","","","img/orange_2bandit_b2.png","70","","70","test","1","","47","","","","circle","square","45","2","3","0.9777777777777777","","","","","","","",""
"null","136884","SARL_v6","SARL_v6h4c50q33","5afa19a4f856320001cf920f","freq_resp","","","img/orange_2bandit_b.png","70","img/orange_2bandit_b.png","70","test","","","","","","","","","","","3","","","","","","","","",""
"null","137043","SARL_v6","SARL_v6h4c50q33","5afa19a4f856320001cf920f","fixation","","","img/fixation.png","null","","","test","","","","","","","","","","","","","","","","","","","",""
"425.1000000014901","137469","SARL_v6","SARL_v6h4c50q33","5afa19a4f856320001cf920f","freq","","","img/orange_2bandit_b2.png","70","","70","test","1","","48","","","","circle","square","46","3","3","0.9782608695652174","","","","","","","",""
"null","137855","SARL_v6","SARL_v6h4c50q33","5afa19a4f856320001cf920f","freq_resp","","","img/orange_2bandit_b.png","70","img/orange_2bandit_b.png","70","test","","","","","","","","","","","3","","","","","","","","",""
"null","138011","SARL_v6","SARL_v6h4c50q33","5afa19a4f856320001cf920f","fixation","","","img/fixation.png","null","","","test","","","","","","","","","","","","","","","","","","","",""
"328.0999999977648","138340","SARL_v6","SARL_v6h4c50q33","5afa19a4f856320001cf920f","freq","","","img/orange_2bandit_b2.png","70","","70","test","1","","49","","","","circle","square","47","4","3","0.9787234042553191","","","","","","","",""
"null","138823","SARL_v6","SARL_v6h4c50q33","5afa19a4f856320001cf920f","freq_resp","","","img/orange_2bandit_b.png","70","img/orange_2bandit_b.png","70","test","","","","","","","","","","","3","","","","","","","","",""
"null","138979","SARL_v6","SARL_v6h4c50q33","5afa19a4f856320001cf920f","fixation","","","img/fixation.png","null","","","test","","","","","","","","","","","","","","","","","","","",""
"423","139403","SARL_v6","SARL_v6h4c50q33","5afa19a4f856320001cf920f","freq","","","img/orange_2bandit_b2.png","70","","70","test","1","","50","","","","circle","square","48","5","3","0.9791666666666666","","","","","","","",""
"null","139793","SARL_v6","SARL_v6h4c50q33","5afa19a4f856320001cf920f","freq_resp","","","img/orange_2bandit_b.png","70","img/orange_2bandit_b.png","70","test","","","","","","","","","","","3","","","","","","","","",""
"null","139951","SARL_v6","SARL_v6h4c50q33","5afa19a4f856320001cf920f","fixation","","","img/fixation.png","null","","","test","","","","","","","","","","","","","","","","","","","",""
"276.1000000014901","140228","SARL_v6","SARL_v6h4c50q33","5afa19a4f856320001cf920f","freq","","","img/orange_2bandit_b2.png","70","","70","test","1","","51","","","","circle","square","49","6","3","0.9795918367346939","","","","","","","",""
"null","140754","SARL_v6","SARL_v6h4c50q33","5afa19a4f856320001cf920f","freq_resp","","","img/orange_2bandit_b.png","70","img/orange_2bandit_b.png","70","test","","","","","","","","","","","3","","","","","","","","",""
"null","140910","SARL_v6","SARL_v6h4c50q33","5afa19a4f856320001cf920f","fixation","","","img/fixation.png","null","","","test","","","","","","","","","","","","","","","","","","","",""
"91.5","141002","SARL_v6","SARL_v6h4c50q33","5afa19a4f856320001cf920f","freq","","","img/orange_2bandit_b2.png","70","","70","test","1","","52","","","","circle","square","50","7","3","0.98","","","","","","","",""
"null","141725","SARL_v6","SARL_v6h4c50q33","5afa19a4f856320001cf920f","freq_resp","","","img/orange_2bandit_b.png","70","img/orange_2bandit_b.png","70","test","","","","","","","","","","","3","","","","","","","","",""
"null","141881","SARL_v6","SARL_v6h4c50q33","5afa19a4f856320001cf920f","fixation","","","img/fixation.png","null","","","test","","","","","","","","","","","","","","","","","","","",""
"160.70000000298023","142042","SARL_v6","SARL_v6h4c50q33","5afa19a4f856320001cf920f","freq","","","img/orange_2bandit_b2.png","70","","70","test","1","","53","","","","circle","square","51","8","3","0.9803921568627451","","","","","","","",""
"null","142684","SARL_v6","SARL_v6h4c50q33","5afa19a4f856320001cf920f","freq_resp","","","img/orange_2bandit_b.png","70","img/orange_2bandit_b.png","70","test","","","","","","","","","","","3","","","","","","","","",""
"null","142841","SARL_v6","SARL_v6h4c50q33","5afa19a4f856320001cf920f","fixation","","","img/fixation.png","null","","","test","","","","","","","","","","","","","","","","","","","",""
"108.89999999850988","142950","SARL_v6","SARL_v6h4c50q33","5afa19a4f856320001cf920f","freq","","","img/orange_2bandit_b2.png","70","","70","test","1","","54","","","","circle","square","52","9","3","0.9807692307692307","","","","","","","",""
"null","143657","SARL_v6","SARL_v6h4c50q33","5afa19a4f856320001cf920f","freq_resp","","","img/orange_2bandit_b.png","70","img/orange_2bandit_b.png","70","test","","","","","","","","","","","3","","","","","","","","",""
"null","143814","SARL_v6","SARL_v6h4c50q33","5afa19a4f856320001cf920f","fixation","","","img/fixation.png","null","","","test","","","","","","","","","","","","","","","","","","","",""
"165.80000000074506","143980","SARL_v6","SARL_v6h4c50q33","5afa19a4f856320001cf920f","freq","","","img/orange_2bandit_b2.png","70","","70","test","1","","55","","","","circle","square","53","10","3","0.9811320754716981","","","","","","","",""
"null","144628","SARL_v6","SARL_v6h4c50q33","5afa19a4f856320001cf920f","freq_resp","","","img/orange_2bandit_b.png","70","img/orange_2bandit_b.png","70","test","","","","","","","","","","","3","","","","","","","","",""
"null","144784","SARL_v6","SARL_v6h4c50q33","5afa19a4f856320001cf920f","fixation","","","img/fixation.png","null","","","test","","","","","","","","","","","","","","","","","","","",""
"144.19999999925494","144929","SARL_v6","SARL_v6h4c50q33","5afa19a4f856320001cf920f","freq","","","img/orange_2bandit_b2.png","70","","70","test","1","","56","","","","circle","square","54","11","3","0.9814814814814815","","","","","","","",""
"null","145587","SARL_v6","SARL_v6h4c50q33","5afa19a4f856320001cf920f","freq_resp","","","img/orange_2bandit_b.png","70","img/orange_2bandit_b.png","70","test","","","","","","","","","","","3","","","","","","","","",""
"null","145746","SARL_v6","SARL_v6h4c50q33","5afa19a4f856320001cf920f","fixation","","","img/fixation.png","null","","","test","","","","","","","","","","","","","","","","","","","",""
"213.70000000298023","145960","SARL_v6","SARL_v6h4c50q33","5afa19a4f856320001cf920f","freq","","","img/orange_2bandit_b2.png","70","","70","test","1","","57","","","","circle","square","55","12","3","0.9818181818181818","","","","","","","",""
"null","146559","SARL_v6","SARL_v6h4c50q33","5afa19a4f856320001cf920f","freq_resp","","","img/orange_2bandit_b.png","70","img/orange_2bandit_b.png","70","test","","","","","","","","","","","3","","","","","","","","",""
"null","146716","SARL_v6","SARL_v6h4c50q33","5afa19a4f856320001cf920f","fixation","","","img/fixation.png","null","","","test","","","","","","","","","","","","","","","","","","","",""
"301.30000000074506","147018","SARL_v6","SARL_v6h4c50q33","5afa19a4f856320001cf920f","freq","","","img/orange_2bandit_b2.png","70","","70","test","1","","58","","","","circle","square","56","13","3","0.9821428571428571","","","","","","","",""
"null","147522","SARL_v6","SARL_v6h4c50q33","5afa19a4f856320001cf920f","freq_resp","","","img/orange_2bandit_b.png","70","img/orange_2bandit_b.png","70","test","","","","","","","","","","","3","","","","","","","","",""
"null","147681","SARL_v6","SARL_v6h4c50q33","5afa19a4f856320001cf920f","fixation","","","img/fixation.png","null","","","test","","","","","","","","","","","","","","","","","","","",""
"471.4000000022352","148153","SARL_v6","SARL_v6h4c50q33","5afa19a4f856320001cf920f","infreq","","","img/blue_2bandit_b2.png","68","","68","test","1","","59","","","","circle","square","57","14","3","0.9824561403508771","","","","","","","",""
"null","148497","SARL_v6","SARL_v6h4c50q33","5afa19a4f856320001cf920f","infreq_resp","","","img/blue_2bandit_b.png","68","img/blue_2bandit_b.png","68","test","","","","","","","","","","","3","","","","","","","","",""
"null","148653","SARL_v6","SARL_v6h4c50q33","5afa19a4f856320001cf920f","fixation","","","img/fixation.png","null","","","test","","","","","","","","","","","","","","","","","","","",""
"594.5","149248","SARL_v6","SARL_v6h4c50q33","5afa19a4f856320001cf920f","freq","","","img/orange_2bandit_b2.png","70","","70","test","1","","60","","","","circle","square","58","15","3","0.9827586206896551","","","","","","","",""
"null","149467","SARL_v6","SARL_v6h4c50q33","5afa19a4f856320001cf920f","freq_resp","","","img/orange_2bandit_b.png","70","img/orange_2bandit_b.png","70","test","","","","","","","","","","","3","","","","","","","","",""
"null","149623","SARL_v6","SARL_v6h4c50q33","5afa19a4f856320001cf920f","fixation","","","img/fixation.png","null","","","test","","","","","","","","","","","","","","","","","","","",""
"545.6000000014901","150169","SARL_v6","SARL_v6h4c50q33","5afa19a4f856320001cf920f","freq","","","img/orange_2bandit_b2.png","70","","70","test","1","","61","","","","circle","square","59","16","3","0.9830508474576272","","","","","","","",""
"null","150436","SARL_v6","SARL_v6h4c50q33","5afa19a4f856320001cf920f","freq_resp","","","img/orange_2bandit_b.png","70","img/orange_2bandit_b.png","70","test","","","","","","","","","","","3","","","","","","","","",""
"null","150590","SARL_v6","SARL_v6h4c50q33","5afa19a4f856320001cf920f","fixation","","","img/fixation.png","null","","","test","","","","","","","","","","","","","","","","","","","",""
"363","150954","SARL_v6","SARL_v6h4c50q33","5afa19a4f856320001cf920f","freq","","","img/orange_2bandit_b2.png","70","","70","test","1","","62","","","","circle","square","60","17","3","0.9833333333333333","","","","","","","",""
"null","151400","SARL_v6","SARL_v6h4c50q33","5afa19a4f856320001cf920f","freq_resp","","","img/orange_2bandit_b.png","70","img/orange_2bandit_b.png","70","test","","","","","","","","","","","3","","","","","","","","",""
"null","151558","SARL_v6","SARL_v6h4c50q33","5afa19a4f856320001cf920f","fixation","","","img/fixation.png","null","","","test","","","","","","","","","","","","","","","","","","","",""
"329.3999999985099","151888","SARL_v6","SARL_v6h4c50q33","5afa19a4f856320001cf920f","freq","","","img/orange_2bandit_b2.png","70","","70","test","1","","63","","","","circle","square","61","18","3","0.9836065573770492","","","","","","","",""
"null","152362","SARL_v6","SARL_v6h4c50q33","5afa19a4f856320001cf920f","freq_resp","","","img/orange_2bandit_b.png","70","img/orange_2bandit_b.png","70","test","","","","","","","","","","","3","","","","","","","","",""
"null","152517","SARL_v6","SARL_v6h4c50q33","5afa19a4f856320001cf920f","fixation","","","img/fixation.png","null","","","test","","","","","","","","","","","","","","","","","","","",""
"328.5","152846","SARL_v6","SARL_v6h4c50q33","5afa19a4f856320001cf920f","freq","","","img/orange_2bandit_b2.png","70","","70","test","1","","64","","","","circle","square","62","19","3","0.9838709677419355","","","","","","","",""
"null","153330","SARL_v6","SARL_v6h4c50q33","5afa19a4f856320001cf920f","freq_resp","","","img/orange_2bandit_b.png","70","img/orange_2bandit_b.png","70","test","","","","","","","","","","","3","","","","","","","","",""
"null","153487","SARL_v6","SARL_v6h4c50q33","5afa19a4f856320001cf920f","fixation","","","img/fixation.png","null","","","test","","","","","","","","","","","","","","","","","","","",""
"288.30000000074506","153776","SARL_v6","SARL_v6h4c50q33","5afa19a4f856320001cf920f","freq","","","img/orange_2bandit_b2.png","70","","70","test","1","","65","","","","circle","square","63","20","3","0.9841269841269841","","","","","","","",""
"null","154294","SARL_v6","SARL_v6h4c50q33","5afa19a4f856320001cf920f","freq_resp","","","img/orange_2bandit_b.png","70","img/orange_2bandit_b.png","70","test","","","","","","","","","","","3","","","","","","","","",""
"null","154452","SARL_v6","SARL_v6h4c50q33","5afa19a4f856320001cf920f","fixation","","","img/fixation.png","null","","","test","","","","","","","","","","","","","","","","","","","",""
"587.6000000014901","155040","SARL_v6","SARL_v6h4c50q33","5afa19a4f856320001cf920f","infreq","","","img/blue_2bandit_b2.png","68","","68","test","1","","66","","","","circle","square","64","21","3","0.984375","","","","","","","",""
"null","155262","SARL_v6","SARL_v6h4c50q33","5afa19a4f856320001cf920f","infreq_resp","","","img/blue_2bandit_b.png","68","img/blue_2bandit_b.png","68","test","","","","","","","","","","","3","","","","","","","","",""
"null","155415","SARL_v6","SARL_v6h4c50q33","5afa19a4f856320001cf920f","fixation","","","img/fixation.png","null","","","test","","","","","","","","","","","","","","","","","","","",""
"439.69999999925494","155856","SARL_v6","SARL_v6h4c50q33","5afa19a4f856320001cf920f","freq","","","img/orange_2bandit_b2.png","70","","70","test","1","","67","","","","circle","square","65","22","3","0.9846153846153847","","","","","","","",""
"null","156224","SARL_v6","SARL_v6h4c50q33","5afa19a4f856320001cf920f","freq_resp","","","img/orange_2bandit_b.png","70","img/orange_2bandit_b.png","70","test","","","","","","","","","","","3","","","","","","","","",""
"null","156379","SARL_v6","SARL_v6h4c50q33","5afa19a4f856320001cf920f","fixation","","","img/fixation.png","null","","","test","","","","","","","","","","","","","","","","","","","",""
"592.8000000007451","156973","SARL_v6","SARL_v6h4c50q33","5afa19a4f856320001cf920f","rl","","","img/black_2bandit_b2.png","74","","0","test","","","68","","","-8","circle","square","","0","3","","74","-8","-4","-8","-4","circle","3","0"
"null","157727","SARL_v6","SARL_v6h4c50q33","5afa19a4f856320001cf920f","feedback","","","<div class=""verylowPoints""> -8 </div>","null","","na","test","","","NaN","","","","","","","","3","","74","","","","","","3",""
"576.8999999985099","158305","SARL_v6","SARL_v6h4c50q33","5afa19a4f856320001cf920f","freq","","","img/orange_2bandit_b2.png","70","","70","test","1","","69","","","","circle","square","66","1","4","0.9848484848484849","","","","","","","",""
"null","158530","SARL_v6","SARL_v6h4c50q33","5afa19a4f856320001cf920f","freq_resp","","","img/orange_2bandit_b.png","70","img/orange_2bandit_b.png","70","test","","","","","","","","","","","4","","","","","","","","",""
"null","158691","SARL_v6","SARL_v6h4c50q33","5afa19a4f856320001cf920f","fixation","","","img/fixation.png","null","","","test","","","","","","","","","","","","","","","","","","","",""
"693.3000000007451","159385","SARL_v6","SARL_v6h4c50q33","5afa19a4f856320001cf920f","freq","","","img/orange_2bandit_b2.png","70","","70","test","1","","70","","","","circle","square","67","2","4","0.9850746268656716","","","","","","","",""
"null","159506","SARL_v6","SARL_v6h4c50q33","5afa19a4f856320001cf920f","freq_resp","","","img/orange_2bandit_b.png","70","img/orange_2bandit_b.png","70","test","","","","","","","","","","","4","","","","","","","","",""
"null","159662","SARL_v6","SARL_v6h4c50q33","5afa19a4f856320001cf920f","fixation","","","img/fixation.png","null","","","test","","","","","","","","","","","","","","","","","","","",""
"447.19999999925494","160110","SARL_v6","SARL_v6h4c50q33","5afa19a4f856320001cf920f","freq","","","img/orange_2bandit_b2.png","70","","70","test","1","","71","","","","circle","square","68","3","4","0.9852941176470589","","","","","","","",""
"null","160477","SARL_v6","SARL_v6h4c50q33","5afa19a4f856320001cf920f","freq_resp","","","img/orange_2bandit_b.png","70","img/orange_2bandit_b.png","70","test","","","","","","","","","","","4","","","","","","","","",""
"null","160636","SARL_v6","SARL_v6h4c50q33","5afa19a4f856320001cf920f","fixation","","","img/fixation.png","null","","","test","","","","","","","","","","","","","","","","","","","",""
"411.5","161049","SARL_v6","SARL_v6h4c50q33","5afa19a4f856320001cf920f","freq","","","img/orange_2bandit_b2.png","70","","70","test","1","","72","","","","circle","square","69","4","4","0.9855072463768116","","","","","","","",""
"null","161449","SARL_v6","SARL_v6h4c50q33","5afa19a4f856320001cf920f","freq_resp","","","img/orange_2bandit_b.png","70","img/orange_2bandit_b.png","70","test","","","","","","","","","","","4","","","","","","","","",""
"null","161606","SARL_v6","SARL_v6h4c50q33","5afa19a4f856320001cf920f","fixation","","","img/fixation.png","null","","","test","","","","","","","","","","","","","","","","","","","",""
"381.30000000074506","161989","SARL_v6","SARL_v6h4c50q33","5afa19a4f856320001cf920f","freq","","","img/orange_2bandit_b2.png","70","","70","test","1","","73","","","","circle","square","70","5","4","0.9857142857142858","","","","","","","",""
"null","162419","SARL_v6","SARL_v6h4c50q33","5afa19a4f856320001cf920f","freq_resp","","","img/orange_2bandit_b.png","70","img/orange_2bandit_b.png","70","test","","","","","","","","","","","4","","","","","","","","",""
"null","162573","SARL_v6","SARL_v6h4c50q33","5afa19a4f856320001cf920f","fixation","","","img/fixation.png","null","","","test","","","","","","","","","","","","","","","","","","","",""
"316.30000000074506","162891","SARL_v6","SARL_v6h4c50q33","5afa19a4f856320001cf920f","freq","","","img/orange_2bandit_b2.png","70","","70","test","1","","74","","","","circle","square","71","6","4","0.9859154929577465","","","","","","","",""
"null","163387","SARL_v6","SARL_v6h4c50q33","5afa19a4f856320001cf920f","freq_resp","","","img/orange_2bandit_b.png","70","img/orange_2bandit_b.png","70","test","","","","","","","","","","","4","","","","","","","","",""
"null","163546","SARL_v6","SARL_v6h4c50q33","5afa19a4f856320001cf920f","fixation","","","img/fixation.png","null","","","test","","","","","","","","","","","","","","","","","","","",""
"265.69999999925494","163813","SARL_v6","SARL_v6h4c50q33","5afa19a4f856320001cf920f","freq","","","img/orange_2bandit_b2.png","70","","70","test","1","","75","","","","circle","square","72","7","4","0.9861111111111112","","","","","","","",""
"null","164356","SARL_v6","SARL_v6h4c50q33","5afa19a4f856320001cf920f","freq_resp","","","img/orange_2bandit_b.png","70","img/orange_2bandit_b.png","70","test","","","","","","","","","","","4","","","","","","","","",""
"null","164512","SARL_v6","SARL_v6h4c50q33","5afa19a4f856320001cf920f","fixation","","","img/fixation.png","null","","","test","","","","","","","","","","","","","","","","","","","",""
"279.5","164793","SARL_v6","SARL_v6h4c50q33","5afa19a4f856320001cf920f","freq","","","img/orange_2bandit_b2.png","70","","70","test","1","","76","","","","circle","square","73","8","4","0.9863013698630136","","","","","","","",""
"null","165324","SARL_v6","SARL_v6h4c50q33","5afa19a4f856320001cf920f","freq_resp","","","img/orange_2bandit_b.png","70","img/orange_2bandit_b.png","70","test","","","","","","","","","","","4","","","","","","","","",""
"null","165480","SARL_v6","SARL_v6h4c50q33","5afa19a4f856320001cf920f","fixation","","","img/fixation.png","null","","","test","","","","","","","","","","","","","","","","","","","",""
"310.8999999985099","165791","SARL_v6","SARL_v6h4c50q33","5afa19a4f856320001cf920f","freq","","","img/orange_2bandit_b2.png","70","","70","test","1","","77","","","","circle","square","74","9","4","0.9864864864864865","","","","","","","",""
"null","166292","SARL_v6","SARL_v6h4c50q33","5afa19a4f856320001cf920f","freq_resp","","","img/orange_2bandit_b.png","70","img/orange_2bandit_b.png","70","test","","","","","","","","","","","4","","","","","","","","",""
"null","166447","SARL_v6","SARL_v6h4c50q33","5afa19a4f856320001cf920f","fixation","","","img/fixation.png","null","","","test","","","","","","","","","","","","","","","","","","","",""
"268.69999999925494","166717","SARL_v6","SARL_v6h4c50q33","5afa19a4f856320001cf920f","freq","","","img/orange_2bandit_b2.png","70","","70","test","1","","78","","","","circle","square","75","10","4","0.9866666666666667","","","","","","","",""
"null","167260","SARL_v6","SARL_v6h4c50q33","5afa19a4f856320001cf920f","freq_resp","","","img/orange_2bandit_b.png","70","img/orange_2bandit_b.png","70","test","","","","","","","","","","","4","","","","","","","","",""
"null","167416","SARL_v6","SARL_v6h4c50q33","5afa19a4f856320001cf920f","fixation","","","img/fixation.png","null","","","test","","","","","","","","","","","","","","","","","","","",""
"339.19999999925494","167756","SARL_v6","SARL_v6h4c50q33","5afa19a4f856320001cf920f","freq","","","img/orange_2bandit_b2.png","70","","70","test","1","","79","","","","circle","square","76","11","4","0.9868421052631579","","","","","","","",""
"null","168229","SARL_v6","SARL_v6h4c50q33","5afa19a4f856320001cf920f","freq_resp","","","img/orange_2bandit_b.png","70","img/orange_2bandit_b.png","70","test","","","","","","","","","","","4","","","","","","","","",""
"null","168385","SARL_v6","SARL_v6h4c50q33","5afa19a4f856320001cf920f","fixation","","","img/fixation.png","null","","","test","","","","","","","","","","","","","","","","","","","",""
"327.9000000022352","168714","SARL_v6","SARL_v6h4c50q33","5afa19a4f856320001cf920f","freq","","","img/orange_2bandit_b2.png","70","","70","test","1","","80","","","","circle","square","77","12","4","0.987012987012987","","","","","","","",""
"null","169197","SARL_v6","SARL_v6h4c50q33","5afa19a4f856320001cf920f","freq_resp","","","img/orange_2bandit_b.png","70","img/orange_2bandit_b.png","70","test","","","","","","","","","","","4","","","","","","","","",""
"null","169352","SARL_v6","SARL_v6h4c50q33","5afa19a4f856320001cf920f","fixation","","","img/fixation.png","null","","","test","","","","","","","","","","","","","","","","","","","",""
"309","169662","SARL_v6","SARL_v6h4c50q33","5afa19a4f856320001cf920f","freq","","","img/orange_2bandit_b2.png","70","","70","test","1","","81","","","","circle","square","78","13","4","0.9871794871794872","","","","","","","",""
"null","170166","SARL_v6","SARL_v6h4c50q33","5afa19a4f856320001cf920f","freq_resp","","","img/orange_2bandit_b.png","70","img/orange_2bandit_b.png","70","test","","","","","","","","","","","4","","","","","","","","",""
"null","170320","SARL_v6","SARL_v6h4c50q33","5afa19a4f856320001cf920f","fixation","","","img/fixation.png","null","","","test","","","","","","","","","","","","","","","","","","","",""
"394.3999999985099","170716","SARL_v6","SARL_v6h4c50q33","5afa19a4f856320001cf920f","freq","","","img/orange_2bandit_b2.png","70","","70","test","1","","82","","","","circle","square","79","14","4","0.9873417721518988","","","","","","","",""
"null","171133","SARL_v6","SARL_v6h4c50q33","5afa19a4f856320001cf920f","freq_resp","","","img/orange_2bandit_b.png","70","img/orange_2bandit_b.png","70","test","","","","","","","","","","","4","","","","","","","","",""
"null","171290","SARL_v6","SARL_v6h4c50q33","5afa19a4f856320001cf920f","fixation","","","img/fixation.png","null","","","test","","","","","","","","","","","","","","","","","","","",""
"386.19999999925494","171677","SARL_v6","SARL_v6h4c50q33","5afa19a4f856320001cf920f","freq","","","img/orange_2bandit_b2.png","70","","70","test","1","","83","","","","circle","square","80","15","4","0.9875","","","","","","","",""
"null","172103","SARL_v6","SARL_v6h4c50q33","5afa19a4f856320001cf920f","freq_resp","","","img/orange_2bandit_b.png","70","img/orange_2bandit_b.png","70","test","","","","","","","","","","","4","","","","","","","","",""
"null","172256","SARL_v6","SARL_v6h4c50q33","5afa19a4f856320001cf920f","fixation","","","img/fixation.png","null","","","test","","","","","","","","","","","","","","","","","","","",""
"551.3000000007451","172809","SARL_v6","SARL_v6h4c50q33","5afa19a4f856320001cf920f","freq","","","img/orange_2bandit_b2.png","70","","70","test","1","","84","","","","circle","square","81","16","4","0.9876543209876543","","","","","","","",""
"null","173064","SARL_v6","SARL_v6h4c50q33","5afa19a4f856320001cf920f","freq_resp","","","img/orange_2bandit_b.png","70","img/orange_2bandit_b.png","70","test","","","","","","","","","","","4","","","","","","","","",""
"null","173222","SARL_v6","SARL_v6h4c50q33","5afa19a4f856320001cf920f","fixation","","","img/fixation.png","null","","","test","","","","","","","","","","","","","","","","","","","",""
"524.3000000007451","173747","SARL_v6","SARL_v6h4c50q33","5afa19a4f856320001cf920f","freq","","","img/orange_2bandit_b2.png","70","","70","test","1","","85","","","","circle","square","82","17","4","0.9878048780487805","","","","","","","",""
"null","174028","SARL_v6","SARL_v6h4c50q33","5afa19a4f856320001cf920f","freq_resp","","","img/orange_2bandit_b.png","70","img/orange_2bandit_b.png","70","test","","","","","","","","","","","4","","","","","","","","",""
"null","174184","SARL_v6","SARL_v6h4c50q33","5afa19a4f856320001cf920f","fixation","","","img/fixation.png","null","","","test","","","","","","","","","","","","","","","","","","","",""
"480.0999999977648","174665","SARL_v6","SARL_v6h4c50q33","5afa19a4f856320001cf920f","freq","","","img/orange_2bandit_b2.png","70","","70","test","1","","86","","","","circle","square","83","18","4","0.9879518072289156","","","","","","","",""
"null","174989","SARL_v6","SARL_v6h4c50q33","5afa19a4f856320001cf920f","freq_resp","","","img/orange_2bandit_b.png","70","img/orange_2bandit_b.png","70","test","","","","","","","","","","","4","","","","","","","","",""
"null","175145","SARL_v6","SARL_v6h4c50q33","5afa19a4f856320001cf920f","fixation","","","img/fixation.png","null","","","test","","","","","","","","","","","","","","","","","","","",""
"594.2000000029802","175741","SARL_v6","SARL_v6h4c50q33","5afa19a4f856320001cf920f","freq","","","img/orange_2bandit_b2.png","70","","70","test","1","","87","","","","circle","square","84","19","4","0.9880952380952381","","","","","","","",""
"null","175954","SARL_v6","SARL_v6h4c50q33","5afa19a4f856320001cf920f","freq_resp","","","img/orange_2bandit_b.png","70","img/orange_2bandit_b.png","70","test","","","","","","","","","","","4","","","","","","","","",""
"null","176112","SARL_v6","SARL_v6h4c50q33","5afa19a4f856320001cf920f","fixation","","","img/fixation.png","null","","","test","","","","","","","","","","","","","","","","","","","",""
"548.3000000007451","176662","SARL_v6","SARL_v6h4c50q33","5afa19a4f856320001cf920f","freq","","","img/orange_2bandit_b2.png","70","","70","test","1","","88","","","","circle","square","85","20","4","0.9882352941176471","","","","","","","",""
"null","176918","SARL_v6","SARL_v6h4c50q33","5afa19a4f856320001cf920f","freq_resp","","","img/orange_2bandit_b.png","70","img/orange_2bandit_b.png","70","test","","","","","","","","","","","4","","","","","","","","",""
"null","177073","SARL_v6","SARL_v6h4c50q33","5afa19a4f856320001cf920f","fixation","","","img/fixation.png","null","","","test","","","","","","","","","","","","","","","","","","","",""
"517.8000000007451","177591","SARL_v6","SARL_v6h4c50q33","5afa19a4f856320001cf920f","infreq","","","img/blue_2bandit_b2.png","68","","68","test","1","","89","","","","circle","square","86","21","4","0.9883720930232558","","","","","","","",""
"null","177886","SARL_v6","SARL_v6h4c50q33","5afa19a4f856320001cf920f","infreq_resp","","","img/blue_2bandit_b.png","68","img/blue_2bandit_b.png","68","test","","","","","","","","","","","4","","","","","","","","",""
"null","178041","SARL_v6","SARL_v6h4c50q33","5afa19a4f856320001cf920f","fixation","","","img/fixation.png","null","","","test","","","","","","","","","","","","","","","","","","","",""
"448","178490","SARL_v6","SARL_v6h4c50q33","5afa19a4f856320001cf920f","freq","","","img/orange_2bandit_b2.png","70","","70","test","1","","90","","","","circle","square","87","22","4","0.9885057471264368","","","","","","","",""
"null","178856","SARL_v6","SARL_v6h4c50q33","5afa19a4f856320001cf920f","freq_resp","","","img/orange_2bandit_b.png","70","img/orange_2bandit_b.png","70","test","","","","","","","","","","","4","","","","","","","","",""
"null","179011","SARL_v6","SARL_v6h4c50q33","5afa19a4f856320001cf920f","fixation","","","img/fixation.png","null","","","test","","","","","","","","","","","","","","","","","","","",""
"531","179543","SARL_v6","SARL_v6h4c50q33","5afa19a4f856320001cf920f","infreq","","","img/blue_2bandit_b2.png","68","","68","test","1","","91","","","","circle","square","88","23","4","0.9886363636363636","","","","","","","",""
"null","179823","SARL_v6","SARL_v6h4c50q33","5afa19a4f856320001cf920f","infreq_resp","","","img/blue_2bandit_b.png","68","img/blue_2bandit_b.png","68","test","","","","","","","","","","","4","","","","","","","","",""
"null","179978","SARL_v6","SARL_v6h4c50q33","5afa19a4f856320001cf920f","fixation","","","img/fixation.png","null","","","test","","","","","","","","","","","","","","","","","","","",""
"458.3999999985099","180437","SARL_v6","SARL_v6h4c50q33","5afa19a4f856320001cf920f","freq","","","img/orange_2bandit_b2.png","70","","70","test","1","","92","","","","circle","square","89","24","4","0.9887640449438202","","","","","","","",""
"null","180793","SARL_v6","SARL_v6h4c50q33","5afa19a4f856320001cf920f","freq_resp","","","img/orange_2bandit_b.png","70","img/orange_2bandit_b.png","70","test","","","","","","","","","","","4","","","","","","","","",""
"null","180949","SARL_v6","SARL_v6h4c50q33","5afa19a4f856320001cf920f","fixation","","","img/fixation.png","null","","","test","","","","","","","","","","","","","","","","","","","",""
"340.5","181290","SARL_v6","SARL_v6h4c50q33","5afa19a4f856320001cf920f","freq","","","img/orange_2bandit_b2.png","70","","70","test","1","","93","","","","circle","square","90","25","4","0.9888888888888889","","","","","","","",""
"null","181759","SARL_v6","SARL_v6h4c50q33","5afa19a4f856320001cf920f","freq_resp","","","img/orange_2bandit_b.png","70","img/orange_2bandit_b.png","70","test","","","","","","","","","","","4","","","","","","","","",""
"null","181918","SARL_v6","SARL_v6h4c50q33","5afa19a4f856320001cf920f","fixation","","","img/fixation.png","null","","","test","","","","","","","","","","","","","","","","","","","",""
"693.4000000022352","182612","SARL_v6","SARL_v6h4c50q33","5afa19a4f856320001cf920f","rl","","","img/black_2bandit_b2.png","75","","0","test","","","94","","","0","circle","square","","0","4","","75","-12","0","-12","0","square","4","0"
"null","183378","SARL_v6","SARL_v6h4c50q33","5afa19a4f856320001cf920f","feedback","","","<div class=""verylowPoints_sq""> 0 </div>","null","","na","test","","","NaN","","","","","","","","4","","75","","","","","","4",""
"436.5999999977648","183816","SARL_v6","SARL_v6h4c50q33","5afa19a4f856320001cf920f","freq","","","img/orange_2bandit_b2.png","70","","70","test","1","","95","","","","circle","square","91","1","5","0.989010989010989","","","","","","","",""
"null","184195","SARL_v6","SARL_v6h4c50q33","5afa19a4f856320001cf920f","freq_resp","","","img/orange_2bandit_b.png","70","img/orange_2bandit_b.png","70","test","","","","","","","","","","","5","","","","","","","","",""
"null","184355","SARL_v6","SARL_v6h4c50q33","5afa19a4f856320001cf920f","fixation","","","img/fixation.png","null","","","test","","","","","","","","","","","","","","","","","","","",""
"404.69999999925494","184760","SARL_v6","SARL_v6h4c50q33","5afa19a4f856320001cf920f","freq","","","img/orange_2bandit_b2.png","70","","70","test","1","","96","","","","circle","square","92","2","5","0.9891304347826086","","","","","","","",""
"null","185158","SARL_v6","SARL_v6h4c50q33","5afa19a4f856320001cf920f","freq_resp","","","img/orange_2bandit_b.png","70","img/orange_2bandit_b.png","70","test","","","","","","","","","","","5","","","","","","","","",""
"null","185312","SARL_v6","SARL_v6h4c50q33","5afa19a4f856320001cf920f","fixation","","","img/fixation.png","null","","","test","","","","","","","","","","","","","","","","","","","",""
"326.6000000014901","185639","SARL_v6","SARL_v6h4c50q33","5afa19a4f856320001cf920f","freq","","","img/orange_2bandit_b2.png","70","","70","test","1","","97","","","","circle","square","93","3","5","0.989247311827957","","","","","","","",""
"null","186126","SARL_v6","SARL_v6h4c50q33","5afa19a4f856320001cf920f","freq_resp","","","img/orange_2bandit_b.png","70","img/orange_2bandit_b.png","70","test","","","","","","","","","","","5","","","","","","","","",""
"null","186281","SARL_v6","SARL_v6h4c50q33","5afa19a4f856320001cf920f","fixation","","","img/fixation.png","null","","","test","","","","","","","","","","","","","","","","","","","",""
"282.5999999977648","186565","SARL_v6","SARL_v6h4c50q33","5afa19a4f856320001cf920f","freq","","","img/orange_2bandit_b2.png","70","","70","test","1","","98","","","","circle","square","94","4","5","0.9893617021276596","","","","","","","",""
"null","187098","SARL_v6","SARL_v6h4c50q33","5afa19a4f856320001cf920f","freq_resp","","","img/orange_2bandit_b.png","70","img/orange_2bandit_b.png","70","test","","","","","","","","","","","5","","","","","","","","",""
"null","187254","SARL_v6","SARL_v6h4c50q33","5afa19a4f856320001cf920f","fixation","","","img/fixation.png","null","","","test","","","","","","","","","","","","","","","","","","","",""
"299.69999999925494","187555","SARL_v6","SARL_v6h4c50q33","5afa19a4f856320001cf920f","freq","","","img/orange_2bandit_b2.png","70","","70","test","1","","99","","","","circle","square","95","5","5","0.9894736842105263","","","","","","","",""
"null","188066","SARL_v6","SARL_v6h4c50q33","5afa19a4f856320001cf920f","freq_resp","","","img/orange_2bandit_b.png","70","img/orange_2bandit_b.png","70","test","","","","","","","","","","","5","","","","","","","","",""
"null","188224","SARL_v6","SARL_v6h4c50q33","5afa19a4f856320001cf920f","fixation","","","img/fixation.png","null","","","test","","","","","","","","","","","","","","","","","","","",""
"661.3000000007451","188886","SARL_v6","SARL_v6h4c50q33","5afa19a4f856320001cf920f","freq","","","img/orange_2bandit_b2.png","70","","70","test","1","","100","","","","circle","square","96","6","5","0.9895833333333334","","","","","","","",""
"null","189037","SARL_v6","SARL_v6h4c50q33","5afa19a4f856320001cf920f","freq_resp","","","img/orange_2bandit_b.png","70","img/orange_2bandit_b.png","70","test","","","","","","","","","","","5","","","","","","","","",""
"null","189194","SARL_v6","SARL_v6h4c50q33","5afa19a4f856320001cf920f","fixation","","","img/fixation.png","null","","","test","","","","","","","","","","","","","","","","","","","",""
"608.1000000014901","189803","SARL_v6","SARL_v6h4c50q33","5afa19a4f856320001cf920f","freq","","","img/orange_2bandit_b2.png","70","","70","test","1","","101","","","","circle","square","97","7","5","0.9896907216494846","","","","","","","",""
"null","190007","SARL_v6","SARL_v6h4c50q33","5afa19a4f856320001cf920f","freq_resp","","","img/orange_2bandit_b.png","70","img/orange_2bandit_b.png","70","test","","","","","","","","","","","5","","","","","","","","",""
"null","190164","SARL_v6","SARL_v6h4c50q33","5afa19a4f856320001cf920f","fixation","","","img/fixation.png","null","","","test","","","","","","","","","","","","","","","","","","","",""
"690.7999999970198","190856","SARL_v6","SARL_v6h4c50q33","5afa19a4f856320001cf920f","freq","","","img/orange_2bandit_b2.png","70","","70","test","1","","102","","","","circle","square","98","8","5","0.9897959183673469","","","","","","","",""
"null","190979","SARL_v6","SARL_v6h4c50q33","5afa19a4f856320001cf920f","freq_resp","","","img/orange_2bandit_b.png","70","img/orange_2bandit_b.png","70","test","","","","","","","","","","","5","","","","","","","","",""
"null","191135","SARL_v6","SARL_v6h4c50q33","5afa19a4f856320001cf920f","fixation","","","img/fixation.png","null","","","test","","","","","","","","","","","","","","","","","","","",""
"699.5","191836","SARL_v6","SARL_v6h4c50q33","5afa19a4f856320001cf920f","freq","","","img/orange_2bandit_b2.png","70","","70","test","1","","103","","","","circle","square","99","9","5","0.98989898989899","","","","","","","",""
"null","191937","SARL_v6","SARL_v6h4c50q33","5afa19a4f856320001cf920f","freq_resp","","","img/orange_2bandit_b.png","70","img/orange_2bandit_b.png","70","test","","","","","","","","","","","5","","","","","","","","",""
"null","192093","SARL_v6","SARL_v6h4c50q33","5afa19a4f856320001cf920f","fixation","","","img/fixation.png","null","","","test","","","","","","","","","","","","","","","","","","","",""
"676.3999999985099","192771","SARL_v6","SARL_v6h4c50q33","5afa19a4f856320001cf920f","freq","","","img/orange_2bandit_b2.png","70","","70","test","1","","104","","","","circle","square","100","10","5","0.99","","","","","","","",""
"null","192908","SARL_v6","SARL_v6h4c50q33","5afa19a4f856320001cf920f","freq_resp","","","img/orange_2bandit_b.png","70","img/orange_2bandit_b.png","70","test","","","","","","","","","","","5","","","","","","","","",""
"null","193064","SARL_v6","SARL_v6h4c50q33","5afa19a4f856320001cf920f","fixation","","","img/fixation.png","null","","","test","","","","","","","","","","","","","","","","","","","",""
"512.1999999992549","193578","SARL_v6","SARL_v6h4c50q33","5afa19a4f856320001cf920f","freq","","","img/orange_2bandit_b2.png","70","","70","test","1","","105","","","","circle","square","101","11","5","0.9900990099009901","","","","","","","",""
"null","193880","SARL_v6","SARL_v6h4c50q33","5afa19a4f856320001cf920f","freq_resp","","","img/orange_2bandit_b.png","70","img/orange_2bandit_b.png","70","test","","","","","","","","","","","5","","","","","","","","",""
"null","194036","SARL_v6","SARL_v6h4c50q33","5afa19a4f856320001cf920f","fixation","","","img/fixation.png","null","","","test","","","","","","","","","","","","","","","","","","","",""
"324.69999999925494","194361","SARL_v6","SARL_v6h4c50q33","5afa19a4f856320001cf920f","freq","","","img/orange_2bandit_b2.png","70","","70","test","1","","106","","","","circle","square","102","12","5","0.9901960784313726","","","","","","","",""
"null","194839","SARL_v6","SARL_v6h4c50q33","5afa19a4f856320001cf920f","freq_resp","","","img/orange_2bandit_b.png","70","img/orange_2bandit_b.png","70","test","","","","","","","","","","","5","","","","","","","","",""
"null","194994","SARL_v6","SARL_v6h4c50q33","5afa19a4f856320001cf920f","fixation","","","img/fixation.png","null","","","test","","","","","","","","","","","","","","","","","","","",""
"319.30000000074506","195314","SARL_v6","SARL_v6h4c50q33","5afa19a4f856320001cf920f","freq","","","img/orange_2bandit_b2.png","70","","70","test","1","","107","","","","circle","square","103","13","5","0.9902912621359223","","","","","","","",""
"null","195809","SARL_v6","SARL_v6h4c50q33","5afa19a4f856320001cf920f","freq_resp","","","img/orange_2bandit_b.png","70","img/orange_2bandit_b.png","70","test","","","","","","","","","","","5","","","","","","","","",""
"null","195966","SARL_v6","SARL_v6h4c50q33","5afa19a4f856320001cf920f","fixation","","","img/fixation.png","null","","","test","","","","","","","","","","","","","","","","","","","",""
"305.30000000074506","196272","SARL_v6","SARL_v6h4c50q33","5afa19a4f856320001cf920f","freq","","","img/orange_2bandit_b2.png","70","","70","test","1","","108","","","","circle","square","104","14","5","0.9903846153846154","","","","","","","",""
"null","196780","SARL_v6","SARL_v6h4c50q33","5afa19a4f856320001cf920f","freq_resp","","","img/orange_2bandit_b.png","70","img/orange_2bandit_b.png","70","test","","","","","","","","","","","5","","","","","","","","",""
"null","196936","SARL_v6","SARL_v6h4c50q33","5afa19a4f856320001cf920f","fixation","","","img/fixation.png","null","","","test","","","","","","","","","","","","","","","","","","","",""
"279.30000000074506","197216","SARL_v6","SARL_v6h4c50q33","5afa19a4f856320001cf920f","freq","","","img/orange_2bandit_b2.png","70","","70","test","1","","109","","","","circle","square","105","15","5","0.9904761904761905","","","","","","","",""
"null","197750","SARL_v6","SARL_v6h4c50q33","5afa19a4f856320001cf920f","freq_resp","","","img/orange_2bandit_b.png","70","img/orange_2bandit_b.png","70","test","","","","","","","","","","","5","","","","","","","","",""
"null","197907","SARL_v6","SARL_v6h4c50q33","5afa19a4f856320001cf920f","fixation","","","img/fixation.png","null","","","test","","","","","","","","","","","","","","","","","","","",""
"293.5","198201","SARL_v6","SARL_v6h4c50q33","5afa19a4f856320001cf920f","freq","","","img/orange_2bandit_b2.png","70","","70","test","1","","110","","","","circle","square","106","16","5","0.9905660377358491","","","","","","","",""
"null","198720","SARL_v6","SARL_v6h4c50q33","5afa19a4f856320001cf920f","freq_resp","","","img/orange_2bandit_b.png","70","img/orange_2bandit_b.png","70","test","","","","","","","","","","","5","","","","","","","","",""
"null","198877","SARL_v6","SARL_v6h4c50q33","5afa19a4f856320001cf920f","fixation","","","img/fixation.png","null","","","test","","","","","","","","","","","","","","","","","","","",""
"317.3999999985099","199195","SARL_v6","SARL_v6h4c50q33","5afa19a4f856320001cf920f","freq","","","img/orange_2bandit_b2.png","70","","70","test","1","","111","","","","circle","square","107","17","5","0.9906542056074766","","","","","","","",""
"null","199684","SARL_v6","SARL_v6h4c50q33","5afa19a4f856320001cf920f","freq_resp","","","img/orange_2bandit_b.png","70","img/orange_2bandit_b.png","70","test","","","","","","","","","","","5","","","","","","","","",""
"null","199840","SARL_v6","SARL_v6h4c50q33","5afa19a4f856320001cf920f","fixation","","","img/fixation.png","null","","","test","","","","","","","","","","","","","","","","","","","",""
"321.3999999985099","200162","SARL_v6","SARL_v6h4c50q33","5afa19a4f856320001cf920f","freq","","","img/orange_2bandit_b2.png","70","","70","test","1","","112","","","","circle","square","108","18","5","0.9907407407407407","","","","","","","",""
"null","200649","SARL_v6","SARL_v6h4c50q33","5afa19a4f856320001cf920f","freq_resp","","","img/orange_2bandit_b.png","70","img/orange_2bandit_b.png","70","test","","","","","","","","","","","5","","","","","","","","",""
"null","200803","SARL_v6","SARL_v6h4c50q33","5afa19a4f856320001cf920f","fixation","","","img/fixation.png","null","","","test","","","","","","","","","","","","","","","","","","","",""
"329","201133","SARL_v6","SARL_v6h4c50q33","5afa19a4f856320001cf920f","freq","","","img/orange_2bandit_b2.png","70","","70","test","1","","113","","","","circle","square","109","19","5","0.9908256880733946","","","","","","","",""
"null","201608","SARL_v6","SARL_v6h4c50q33","5afa19a4f856320001cf920f","freq_resp","","","img/orange_2bandit_b.png","70","img/orange_2bandit_b.png","70","test","","","","","","","","","","","5","","","","","","","","",""
"null","201764","SARL_v6","SARL_v6h4c50q33","5afa19a4f856320001cf920f","fixation","","","img/fixation.png","null","","","test","","","","","","","","","","","","","","","","","","","",""
"335.5","202100","SARL_v6","SARL_v6h4c50q33","5afa19a4f856320001cf920f","freq","","","img/orange_2bandit_b2.png","70","","70","test","1","","114","","","","circle","square","110","20","5","0.990909090909091","","","","","","","",""
"null","202576","SARL_v6","SARL_v6h4c50q33","5afa19a4f856320001cf920f","freq_resp","","","img/orange_2bandit_b.png","70","img/orange_2bandit_b.png","70","test","","","","","","","","","","","5","","","","","","","","",""
"null","202731","SARL_v6","SARL_v6h4c50q33","5afa19a4f856320001cf920f","fixation","","","img/fixation.png","null","","","test","","","","","","","","","","","","","","","","","","","",""
"299.0999999977648","203031","SARL_v6","SARL_v6h4c50q33","5afa19a4f856320001cf920f","infreq","","","img/blue_2bandit_b2.png","70","","68","test","0","","115","","","","circle","square","111","21","5","0.9819819819819819","","","","","","","",""
"null","203544","SARL_v6","SARL_v6h4c50q33","5afa19a4f856320001cf920f","infreq_resp","","","img/blue_2bandit_b.png","70","img/blue_2bandit_b.png","68","test","","","","","","","","","","","5","","","","","","","","",""
"null","203699","SARL_v6","SARL_v6h4c50q33","5afa19a4f856320001cf920f","fixation","","","img/fixation.png","null","","","test","","","","","","","","","","","","","","","","","","","",""
"502.5999999977648","204203","SARL_v6","SARL_v6h4c50q33","5afa19a4f856320001cf920f","infreq","","","img/blue_2bandit_b2.png","68","","68","test","1","","116","","","","circle","square","112","22","5","0.9821428571428571","","","","","","","",""
"null","204510","SARL_v6","SARL_v6h4c50q33","5afa19a4f856320001cf920f","infreq_resp","","","img/blue_2bandit_b.png","68","img/blue_2bandit_b.png","68","test","","","","","","","","","","","5","","","","","","","","",""
"null","204666","SARL_v6","SARL_v6h4c50q33","5afa19a4f856320001cf920f","fixation","","","img/fixation.png","null","","","test","","","","","","","","","","","","","","","","","","","",""
"612.3999999985099","205279","SARL_v6","SARL_v6h4c50q33","5afa19a4f856320001cf920f","freq","","","img/orange_2bandit_b2.png","70","","70","test","1","","117","","","","circle","square","113","23","5","0.9823008849557522","","","","","","","",""
"null","205481","SARL_v6","SARL_v6h4c50q33","5afa19a4f856320001cf920f","freq_resp","","","img/orange_2bandit_b.png","70","img/orange_2bandit_b.png","70","test","","","","","","","","","","","5","","","","","","","","",""
"null","205636","SARL_v6","SARL_v6h4c50q33","5afa19a4f856320001cf920f","fixation","","","img/fixation.png","null","","","test","","","","","","","","","","","","","","","","","","","",""
"445","206082","SARL_v6","SARL_v6h4c50q33","5afa19a4f856320001cf920f","freq","","","img/orange_2bandit_b2.png","70","","70","test","1","","118","","","","circle","square","114","24","5","0.9824561403508771","","","","","","","",""
"null","206448","SARL_v6","SARL_v6h4c50q33","5afa19a4f856320001cf920f","freq_resp","","","img/orange_2bandit_b.png","70","img/orange_2bandit_b.png","70","test","","","","","","","","","","","5","","","","","","","","",""
"null","206605","SARL_v6","SARL_v6h4c50q33","5afa19a4f856320001cf920f","fixation","","","img/fixation.png","null","","","test","","","","","","","","","","","","","","","","","","","",""
"716.2000000029802","207322","SARL_v6","SARL_v6h4c50q33","5afa19a4f856320001cf920f","rl","","","img/black_2bandit_b2.png","74","","0","test","","","119","","","-7","circle","square","","0","5","","74","-7","4","-7","4","circle","5","0"
"null","208089","SARL_v6","SARL_v6h4c50q33","5afa19a4f856320001cf920f","feedback","","","<div class=""verylowPoints""> -7 </div>","null","","na","test","","","NaN","","","","","","","","5","","74","","","","","","5",""
"687.1000000014901","208777","SARL_v6","SARL_v6h4c50q33","5afa19a4f856320001cf920f","freq","","","img/orange_2bandit_b2.png","70","","70","test","1","","120","","","","circle","square","115","1","6","0.9826086956521739","","","","","","","",""
"null","208899","SARL_v6","SARL_v6h4c50q33","5afa19a4f856320001cf920f","freq_resp","","","img/orange_2bandit_b.png","70","img/orange_2bandit_b.png","70","test","","","","","","","","","","","6","","","","","","","","",""
"null","209057","SARL_v6","SARL_v6h4c50q33","5afa19a4f856320001cf920f","fixation","","","img/fixation.png","null","","","test","","","","","","","","","","","","","","","","","","","",""
"749.6000000014901","209808","SARL_v6","SARL_v6h4c50q33","5afa19a4f856320001cf920f","freq","","","img/orange_2bandit_b2.png","70","","70","test","1","","121","","","","circle","square","116","2","6","0.9827586206896551","","","","","","","",""
"null","209868","SARL_v6","SARL_v6h4c50q33","5afa19a4f856320001cf920f","freq_resp","","","img/orange_2bandit_b.png","70","img/orange_2bandit_b.png","70","test","","","","","","","","","","","6","","","","","","","","",""
"null","210024","SARL_v6","SARL_v6h4c50q33","5afa19a4f856320001cf920f","fixation","","","img/fixation.png","null","","","test","","","","","","","","","","","","","","","","","","","",""
"null","210835","SARL_v6","SARL_v6h4c50q33","5afa19a4f856320001cf920f","freq","","","img/orange_2bandit_b2.png","null","","70","test","0","","122","","","","circle","square","117","3","6","0.9743589743589743","","","","","","","",""
"null","210992","SARL_v6","SARL_v6h4c50q33","5afa19a4f856320001cf920f","fixation","","","img/fixation.png","null","","","test","","","","","","","","","","","","","","","","","","","",""
"69.5","211062","SARL_v6","SARL_v6h4c50q33","5afa19a4f856320001cf920f","infreq","","","img/blue_2bandit_b2.png","70","","68","test","0","","123","","","","circle","square","118","4","6","0.9661016949152542","","","","","","","",""
"null","211806","SARL_v6","SARL_v6h4c50q33","5afa19a4f856320001cf920f","infreq_resp","","","img/blue_2bandit_b.png","70","img/blue_2bandit_b.png","68","test","","","","","","","","","","","6","","","","","","","","",""
"null","211964","SARL_v6","SARL_v6h4c50q33","5afa19a4f856320001cf920f","fixation","","","img/fixation.png","null","","","test","","","","","","","","","","","","","","","","","","","",""
"705.5","212671","SARL_v6","SARL_v6h4c50q33","5afa19a4f856320001cf920f","freq","","","img/orange_2bandit_b2.png","70","","70","test","1","","124","","","","circle","square","119","5","6","0.9663865546218487","","","","","","","",""
"null","212776","SARL_v6","SARL_v6h4c50q33","5afa19a4f856320001cf920f","freq_resp","","","img/orange_2bandit_b.png","70","img/orange_2bandit_b.png","70","test","","","","","","","","","","","6","","","","","","","","",""
"null","212932","SARL_v6","SARL_v6h4c50q33","5afa19a4f856320001cf920f","fixation","","","img/fixation.png","null","","","test","","","","","","","","","","","","","","","","","","","",""
"540.7999999970198","213474","SARL_v6","SARL_v6h4c50q33","5afa19a4f856320001cf920f","freq","","","img/orange_2bandit_b2.png","70","","70","test","1","","125","","","","circle","square","120","6","6","0.9666666666666667","","","","","","","",""
"null","213735","SARL_v6","SARL_v6h4c50q33","5afa19a4f856320001cf920f","freq_resp","","","img/orange_2bandit_b.png","70","img/orange_2bandit_b.png","70","test","","","","","","","","","","","6","","","","","","","","",""
"null","213892","SARL_v6","SARL_v6h4c50q33","5afa19a4f856320001cf920f","fixation","","","img/fixation.png","null","","","test","","","","","","","","","","","","","","","","","","","",""
"356.9000000022352","214250","SARL_v6","SARL_v6h4c50q33","5afa19a4f856320001cf920f","freq","","","img/orange_2bandit_b2.png","70","","70","test","1","","126","","","","circle","square","121","7","6","0.9669421487603306","","","","","","","",""
"null","214695","SARL_v6","SARL_v6h4c50q33","5afa19a4f856320001cf920f","freq_resp","","","img/orange_2bandit_b.png","70","img/orange_2bandit_b.png","70","test","","","","","","","","","","","6","","","","","","","","",""
"null","214852","SARL_v6","SARL_v6h4c50q33","5afa19a4f856320001cf920f","fixation","","","img/fixation.png","null","","","test","","","","","","","","","","","","","","","","","","","",""
"358.19999999925494","215212","SARL_v6","SARL_v6h4c50q33","5afa19a4f856320001cf920f","freq","","","img/orange_2bandit_b2.png","70","","70","test","1","","127","","","","circle","square","122","8","6","0.9672131147540983","","","","","","","",""
"null","215667","SARL_v6","SARL_v6h4c50q33","5afa19a4f856320001cf920f","freq_resp","","","img/orange_2bandit_b.png","70","img/orange_2bandit_b.png","70","test","","","","","","","","","","","6","","","","","","","","",""
"null","215823","SARL_v6","SARL_v6h4c50q33","5afa19a4f856320001cf920f","fixation","","","img/fixation.png","null","","","test","","","","","","","","","","","","","","","","","","","",""
"318.19999999925494","216142","SARL_v6","SARL_v6h4c50q33","5afa19a4f856320001cf920f","infreq","","","img/blue_2bandit_b2.png","70","","68","test","0","","128","","","","circle","square","123","9","6","0.959349593495935","","","","","","","",""
"null","216640","SARL_v6","SARL_v6h4c50q33","5afa19a4f856320001cf920f","infreq_resp","","","img/blue_2bandit_b.png","70","img/blue_2bandit_b.png","68","test","","","","","","","","","","","6","","","","","","","","",""
"null","216793","SARL_v6","SARL_v6h4c50q33","5afa19a4f856320001cf920f","fixation","","","img/fixation.png","null","","","test","","","","","","","","","","","","","","","","","","","",""
"744.1999999992549","217539","SARL_v6","SARL_v6h4c50q33","5afa19a4f856320001cf920f","freq","","","img/orange_2bandit_b2.png","70","","70","test","1","","129","","","","circle","square","124","10","6","0.9596774193548387","","","","","","","",""
"null","217605","SARL_v6","SARL_v6h4c50q33","5afa19a4f856320001cf920f","freq_resp","","","img/orange_2bandit_b.png","70","img/orange_2bandit_b.png","70","test","","","","","","","","","","","6","","","","","","","","",""
"null","217764","SARL_v6","SARL_v6h4c50q33","5afa19a4f856320001cf920f","fixation","","","img/fixation.png","null","","","test","","","","","","","","","","","","","","","","","","","",""
