"rt","time_elapsed","expId","subject","prolificID","trialType","rlType","attType","stimulus","key_press","stim","corrresp","phase","corr","pracCounter","trialNum","rewardOne","rewardTwo","reward","bandOne","bandTwo","attentionNum","attentionRunNum","blockNum","performance","bandChosen","circleVal","squareVal","bandOneVal","bandTwoVal","shapeChosen","rlNum","badFlag"
"27400.900000000373","27415","SARL_v6","SARL_v6zo8lrh42","631f991a0a5b1611251a3ebe","","","","","","","","","","","","","","","","","","","","","","","","","","","",""
"","32836","SARL_v6","SARL_v6zo8lrh42","631f991a0a5b1611251a3ebe","fullscreen","fullscreen","fullscreen","","","","","","","","","","","","","","","","","","","","","","","","",""
"71132.70000000019","103968","SARL_v6","SARL_v6zo8lrh42","631f991a0a5b1611251a3ebe","","","","","","","","","","","","","","","","","","","","","","","","","","","",""
"null","104797","SARL_v6","SARL_v6zo8lrh42","631f991a0a5b1611251a3ebe","freqPrac","","","img/blue_2bandit_b2.png","null","img/blue_2bandit_b2.png","70","prac","0","1","","","","","","","","","","","","","","","","","",""
"null","105812","SARL_v6","SARL_v6zo8lrh42","631f991a0a5b1611251a3ebe","feedback","","","img/tooSlow.png","null","","na","prac","","","","","","","","","","","","","","","","","","","",""
"null","105976","SARL_v6","SARL_v6zo8lrh42","631f991a0a5b1611251a3ebe","fixation","","","img/fixation.png","null","","","prac","","","","","","","","","","","","","","","","","","","",""
"null","106811","SARL_v6","SARL_v6zo8lrh42","631f991a0a5b1611251a3ebe","infreqPrac","","","img/orange_2bandit_b2.png","null","img/orange_2bandit_b2.png","68","prac","0","2","","","","","","","","","","","","","","","","","",""
"null","107835","SARL_v6","SARL_v6zo8lrh42","631f991a0a5b1611251a3ebe","feedback","","","img/tooSlow.png","null","","na","prac","","","","","","","","","","","","","","","","","","","",""
"null","107999","SARL_v6","SARL_v6zo8lrh42","631f991a0a5b1611251a3ebe","fixation","","","img/fixation.png","null","","","prac","","","","","","","","","","","","","","","","","","","",""
"null","108821","SARL_v6","SARL_v6zo8lrh42","631f991a0a5b1611251a3ebe","freqPrac","","","img/blue_2bandit_b2.png","null","img/blue_2bandit_b2.png","70","prac","0","3","","","","","","","","","","","","","","","","","",""
"null","109840","SARL_v6","SARL_v6zo8lrh42","631f991a0a5b1611251a3ebe","feedback","","","img/tooSlow.png","null","","na","prac","","","","","","","","","","","","","","","","","","","",""
"null","109999","SARL_v6","SARL_v6zo8lrh42","631f991a0a5b1611251a3ebe","fixation","","","img/fixation.png","null","","","prac","","","","","","","","","","","","","","","","","","","",""
"371","110376","SARL_v6","SARL_v6zo8lrh42","631f991a0a5b1611251a3ebe","infreqPrac","","","img/orange_2bandit_b2.png","68","img/orange_2bandit_b2.png","68","prac","1","3","","","","","","","","","","","","","","","","","",""
"371","110814","SARL_v6","SARL_v6zo8lrh42","631f991a0a5b1611251a3ebe","infreqPrac_resp","","","img/orange_2bandit_b.png","68","img/orange_2bandit_b.png","68","prac","","","","","","","","","","","","","","","","","","","",""
"null","110982","SARL_v6","SARL_v6zo8lrh42","631f991a0a5b1611251a3ebe","fixation","","","img/fixation.png","null","","","prac","","","","","","","","","","","","","","","","","","","",""
"520.3999999994412","111507","SARL_v6","SARL_v6zo8lrh42","631f991a0a5b1611251a3ebe","infreqPrac","","","img/orange_2bandit_b2.png","68","img/orange_2bandit_b2.png","68","prac","1","3","","","","","","","","","","","","","","","","","",""
"520.3999999994412","111795","SARL_v6","SARL_v6zo8lrh42","631f991a0a5b1611251a3ebe","infreqPrac_resp","","","img/orange_2bandit_b.png","68","img/orange_2bandit_b.png","68","prac","","","","","","","","","","","","","","","","","","","",""
"null","111965","SARL_v6","SARL_v6zo8lrh42","631f991a0a5b1611251a3ebe","fixation","","","img/fixation.png","null","","","prac","","","","","","","","","","","","","","","","","","","",""
"458.70000000018626","112429","SARL_v6","SARL_v6zo8lrh42","631f991a0a5b1611251a3ebe","infreqPrac","","","img/orange_2bandit_b2.png","68","img/orange_2bandit_b2.png","68","prac","1","3","","","","","","","","","","","","","","","","","",""
"458.70000000018626","112786","SARL_v6","SARL_v6zo8lrh42","631f991a0a5b1611251a3ebe","infreqPrac_resp","","","img/orange_2bandit_b.png","68","img/orange_2bandit_b.png","68","prac","","","","","","","","","","","","","","","","","","","",""
"null","112949","SARL_v6","SARL_v6zo8lrh42","631f991a0a5b1611251a3ebe","fixation","","","img/fixation.png","null","","","prac","","","","","","","","","","","","","","","","","","","",""
"346.29999999981374","113300","SARL_v6","SARL_v6zo8lrh42","631f991a0a5b1611251a3ebe","freqPrac","","","img/blue_2bandit_b2.png","70","img/blue_2bandit_b2.png","70","prac","1","3","","","","","","","","","","","","","","","","","",""
"346.29999999981374","113763","SARL_v6","SARL_v6zo8lrh42","631f991a0a5b1611251a3ebe","freqPrac_resp","","","img/blue_2bandit_b.png","70","img/blue_2bandit_b.png","70","prac","","","","","","","","","","","","","","","","","","","",""
"null","113932","SARL_v6","SARL_v6zo8lrh42","631f991a0a5b1611251a3ebe","fixation","","","img/fixation.png","null","","","prac","","","","","","","","","","","","","","","","","","","",""
"394.40000000037253","114332","SARL_v6","SARL_v6zo8lrh42","631f991a0a5b1611251a3ebe","infreqPrac","","","img/orange_2bandit_b2.png","68","img/orange_2bandit_b2.png","68","prac","1","3","","","","","","","","","","","","","","","","","",""
"394.40000000037253","114748","SARL_v6","SARL_v6zo8lrh42","631f991a0a5b1611251a3ebe","infreqPrac_resp","","","img/orange_2bandit_b.png","68","img/orange_2bandit_b.png","68","prac","","","","","","","","","","","","","","","","","","","",""
"null","114915","SARL_v6","SARL_v6zo8lrh42","631f991a0a5b1611251a3ebe","fixation","","","img/fixation.png","null","","","prac","","","","","","","","","","","","","","","","","","","",""
"434.5","115354","SARL_v6","SARL_v6zo8lrh42","631f991a0a5b1611251a3ebe","freqPrac","","","img/blue_2bandit_b2.png","68","img/blue_2bandit_b2.png","70","prac","0","4","","","","","","","","","","","","","","","","","",""
"434.5","115733","SARL_v6","SARL_v6zo8lrh42","631f991a0a5b1611251a3ebe","freqPrac_resp","","","img/blue_2bandit_b.png","68","img/blue_2bandit_b.png","70","prac","","","","","","","","","","","","","","","","","","","",""
"null","116753","SARL_v6","SARL_v6zo8lrh42","631f991a0a5b1611251a3ebe","feedback","","","img/wrongKey.png","null","","na","prac","","","","","","","","","","","","","","","","","","","",""
"null","116915","SARL_v6","SARL_v6zo8lrh42","631f991a0a5b1611251a3ebe","fixation","","","img/fixation.png","null","","","prac","","","","","","","","","","","","","","","","","","","",""
"540.2999999998137","117459","SARL_v6","SARL_v6zo8lrh42","631f991a0a5b1611251a3ebe","freqPrac","","","img/blue_2bandit_b2.png","70","img/blue_2bandit_b2.png","70","prac","1","4","","","","","","","","","","","","","","","","","",""
"540.2999999998137","117737","SARL_v6","SARL_v6zo8lrh42","631f991a0a5b1611251a3ebe","freqPrac_resp","","","img/blue_2bandit_b.png","70","img/blue_2bandit_b.png","70","prac","","","","","","","","","","","","","","","","","","","",""
"null","117914","SARL_v6","SARL_v6zo8lrh42","631f991a0a5b1611251a3ebe","fixation","","","img/fixation.png","null","","","prac","","","","","","","","","","","","","","","","","","","",""
"12294.299999999814","130213","SARL_v6","SARL_v6zo8lrh42","631f991a0a5b1611251a3ebe","","","","","","","","prac","","","","","","","","","","","","","","","","","","","",""
"null","131738","SARL_v6","SARL_v6zo8lrh42","631f991a0a5b1611251a3ebe","rlPractice","","","img/black_2bandit_b2.png","null","img/black_2bandit_b2.png","","prac","","","0","","","","","","","","","","","","","","","","",""
"null","132516","SARL_v6","SARL_v6zo8lrh42","631f991a0a5b1611251a3ebe","feedback","","","<div font size = 80> TOO SLOW  </div>","null","","na","prac","","","1","10","-14","10","","","","","","","","","","","","","",""
"null","132681","SARL_v6","SARL_v6zo8lrh42","631f991a0a5b1611251a3ebe","fixation","","","img/fixation.png","null","","","prac","","","","","","","","","","","","","","","","","","","",""
"null","134190","SARL_v6","SARL_v6zo8lrh42","631f991a0a5b1611251a3ebe","rlPractice","","","img/black_2bandit_b2.png","null","img/black_2bandit_b2.png","","prac","","","1","","","","","","","","","","","","","","","","",""
"null","134956","SARL_v6","SARL_v6zo8lrh42","631f991a0a5b1611251a3ebe","feedback","","","<div font size = 80> TOO SLOW  </div>","null","","na","prac","","","2","5","-5","5","","","","","","","","","","","","","",""
"null","135129","SARL_v6","SARL_v6zo8lrh42","631f991a0a5b1611251a3ebe","fixation","","","img/fixation.png","null","","","prac","","","","","","","","","","","","","","","","","","","",""
"null","136638","SARL_v6","SARL_v6zo8lrh42","631f991a0a5b1611251a3ebe","rlPractice","","","img/black_2bandit_b2.png","null","img/black_2bandit_b2.png","","prac","","","2","","","","","","","","","","","","","","","","",""
"null","137395","SARL_v6","SARL_v6zo8lrh42","631f991a0a5b1611251a3ebe","feedback","","","<div font size = 80> TOO SLOW  </div>","null","","na","prac","","","3","30","2","30","","","","","","","","","","","","","",""
"null","137563","SARL_v6","SARL_v6zo8lrh42","631f991a0a5b1611251a3ebe","fixation","","","img/fixation.png","null","","","prac","","","","","","","","","","","","","","","","","","","",""
"null","139080","SARL_v6","SARL_v6zo8lrh42","631f991a0a5b1611251a3ebe","rlPractice","","","img/black_2bandit_b2.png","null","img/black_2bandit_b2.png","","prac","","","3","","","","","","","","","","","","","","","","",""
"null","139845","SARL_v6","SARL_v6zo8lrh42","631f991a0a5b1611251a3ebe","feedback","","","<div font size = 80> TOO SLOW  </div>","null","","na","prac","","","4","-2","20","-2","","","","","","","","","","","","","",""
"null","140004","SARL_v6","SARL_v6zo8lrh42","631f991a0a5b1611251a3ebe","fixation","","","img/fixation.png","null","","","prac","","","","","","","","","","","","","","","","","","","",""
"25916.5","165925","SARL_v6","SARL_v6zo8lrh42","631f991a0a5b1611251a3ebe","","","","","","","","prac","","","","","","","","","","","","","","","","","","","",""
"null","166735","SARL_v6","SARL_v6zo8lrh42","631f991a0a5b1611251a3ebe","mixAttFreqPrac","","","img/blue_2bandit_b2.png","null","img/blue_2bandit_b2.png","70","prac","","","1","","","","","","","","","","","","","","","","",""
"null","166905","SARL_v6","SARL_v6zo8lrh42","631f991a0a5b1611251a3ebe","fixation","","","img/fixation.png","null","","","prac","","","","","","","","","","","","","","","","","","","",""
"787.1999999992549","167698","SARL_v6","SARL_v6zo8lrh42","631f991a0a5b1611251a3ebe","mixAttInfreqPrac","","","img/orange_2bandit_b2.png","68","img/orange_2bandit_b2.png","68","prac","","","2","","","","","","","","","","","","","","","","",""
"787.1999999992549","167718","SARL_v6","SARL_v6zo8lrh42","631f991a0a5b1611251a3ebe","infreqPrac_resp","","","img/orange_2bandit_b.png","68","img/blue_2bandit_b.png","68","prac","","","2","","","","","","","","","","","","","","","","",""
"null","167880","SARL_v6","SARL_v6zo8lrh42","631f991a0a5b1611251a3ebe","fixation","","","img/fixation.png","null","","","prac","","","","","","","","","","","","","","","","","","","",""
"561","168446","SARL_v6","SARL_v6zo8lrh42","631f991a0a5b1611251a3ebe","mixAttInfreqPrac","","","img/orange_2bandit_b2.png","68","img/orange_2bandit_b2.png","68","prac","","","3","","","","","","","","","","","","","","","","",""
"561","168692","SARL_v6","SARL_v6zo8lrh42","631f991a0a5b1611251a3ebe","infreqPrac_resp","","","img/orange_2bandit_b.png","68","img/blue_2bandit_b.png","68","prac","","","3","","","","","","","","","","","","","","","","",""
"null","168863","SARL_v6","SARL_v6zo8lrh42","631f991a0a5b1611251a3ebe","fixation","","","img/fixation.png","null","","","prac","","","","","","","","","","","","","","","","","","","",""
"407.6000000005588","169275","SARL_v6","SARL_v6zo8lrh42","631f991a0a5b1611251a3ebe","mixAttInfreqPrac","","","img/orange_2bandit_b2.png","68","img/orange_2bandit_b2.png","68","prac","","","4","","","","","","","","","","","","","","","","",""
"407.6000000005588","169680","SARL_v6","SARL_v6zo8lrh42","631f991a0a5b1611251a3ebe","infreqPrac_resp","","","img/orange_2bandit_b.png","68","img/blue_2bandit_b.png","68","prac","","","4","","","","","","","","","","","","","","","","",""
"null","169846","SARL_v6","SARL_v6zo8lrh42","631f991a0a5b1611251a3ebe","fixation","","","img/fixation.png","null","","","prac","","","","","","","","","","","","","","","","","","","",""
"385.5","170237","SARL_v6","SARL_v6zo8lrh42","631f991a0a5b1611251a3ebe","mixAttFreqPrac","","","img/blue_2bandit_b2.png","70","img/blue_2bandit_b2.png","70","prac","","","5","","","","","","","","","","","","","","","","",""
"385.5","170660","SARL_v6","SARL_v6zo8lrh42","631f991a0a5b1611251a3ebe","freqPrac_resp","","","img/blue_2bandit_b.png","70","img/blue_2bandit_b.png","70","prac","","","5","","","","","","","","","","","","","","","","",""
"null","170829","SARL_v6","SARL_v6zo8lrh42","631f991a0a5b1611251a3ebe","fixation","","","img/fixation.png","null","","","prac","","","","","","","","","","","","","","","","","","","",""
"1184","172019","SARL_v6","SARL_v6zo8lrh42","631f991a0a5b1611251a3ebe","mixRLPractice","","","img/black_2bandit_b2.png","74","img/black_2bandit_b2.png","","prac","","","5","","","","","","","","","","","","","","","","",""
"null","172789","SARL_v6","SARL_v6zo8lrh42","631f991a0a5b1611251a3ebe","feedback","","","<div class=""verylowPoints""> -14 </div>","null","","na","prac","","","6","-14","10","-14","","","","","","","","","","","","","",""
"null","172962","SARL_v6","SARL_v6zo8lrh42","631f991a0a5b1611251a3ebe","fixation","","","img/fixation.png","null","","","prac","","","","","","","","","","","","","","","","","","","",""
"619.8999999994412","173587","SARL_v6","SARL_v6zo8lrh42","631f991a0a5b1611251a3ebe","mixAttFreqPrac","","","img/blue_2bandit_b2.png","68","img/blue_2bandit_b2.png","70","prac","","","7","","","","","","","","","","","","","","","","",""
"619.8999999994412","173777","SARL_v6","SARL_v6zo8lrh42","631f991a0a5b1611251a3ebe","freqPrac_resp","","","img/blue_2bandit_b.png","68","img/blue_2bandit_b.png","70","prac","","","7","","","","","","","","","","","","","","","","",""
"null","173946","SARL_v6","SARL_v6zo8lrh42","631f991a0a5b1611251a3ebe","fixation","","","img/fixation.png","null","","","prac","","","","","","","","","","","","","","","","","","","",""
"567","174518","SARL_v6","SARL_v6zo8lrh42","631f991a0a5b1611251a3ebe","mixAttInfreqPrac","","","img/orange_2bandit_b2.png","70","img/orange_2bandit_b2.png","68","prac","","","8","","","","","","","","","","","","","","","","",""
"567","174772","SARL_v6","SARL_v6zo8lrh42","631f991a0a5b1611251a3ebe","infreqPrac_resp","","","img/orange_2bandit_b.png","70","img/blue_2bandit_b.png","68","prac","","","8","","","","","","","","","","","","","","","","",""
"null","174932","SARL_v6","SARL_v6zo8lrh42","631f991a0a5b1611251a3ebe","fixation","","","img/fixation.png","null","","","prac","","","","","","","","","","","","","","","","","","","",""
"592.7000000001863","175530","SARL_v6","SARL_v6zo8lrh42","631f991a0a5b1611251a3ebe","mixAttFreqPrac","","","img/blue_2bandit_b2.png","68","img/blue_2bandit_b2.png","70","prac","","","9","","","","","","","","","","","","","","","","",""
"592.7000000001863","175743","SARL_v6","SARL_v6zo8lrh42","631f991a0a5b1611251a3ebe","freqPrac_resp","","","img/blue_2bandit_b.png","68","img/blue_2bandit_b.png","70","prac","","","9","","","","","","","","","","","","","","","","",""
"null","175912","SARL_v6","SARL_v6zo8lrh42","631f991a0a5b1611251a3ebe","fixation","","","img/fixation.png","null","","","prac","","","","","","","","","","","","","","","","","","","",""
"411.69999999925494","176328","SARL_v6","SARL_v6zo8lrh42","631f991a0a5b1611251a3ebe","mixAttFreqPrac","","","img/blue_2bandit_b2.png","70","img/blue_2bandit_b2.png","70","prac","","","10","","","","","","","","","","","","","","","","",""
"411.69999999925494","176730","SARL_v6","SARL_v6zo8lrh42","631f991a0a5b1611251a3ebe","freqPrac_resp","","","img/blue_2bandit_b.png","70","img/blue_2bandit_b.png","70","prac","","","10","","","","","","","","","","","","","","","","",""
"null","176895","SARL_v6","SARL_v6zo8lrh42","631f991a0a5b1611251a3ebe","fixation","","","img/fixation.png","null","","","prac","","","","","","","","","","","","","","","","","","","",""
"623.5","177524","SARL_v6","SARL_v6zo8lrh42","631f991a0a5b1611251a3ebe","mixAttInfreqPrac","","","img/orange_2bandit_b2.png","68","img/orange_2bandit_b2.png","68","prac","","","11","","","","","","","","","","","","","","","","",""
"623.5","177711","SARL_v6","SARL_v6zo8lrh42","631f991a0a5b1611251a3ebe","infreqPrac_resp","","","img/orange_2bandit_b.png","68","img/blue_2bandit_b.png","68","prac","","","11","","","","","","","","","","","","","","","","",""
"null","177879","SARL_v6","SARL_v6zo8lrh42","631f991a0a5b1611251a3ebe","fixation","","","img/fixation.png","null","","","prac","","","","","","","","","","","","","","","","","","","",""
"650.7999999998137","178536","SARL_v6","SARL_v6zo8lrh42","631f991a0a5b1611251a3ebe","mixRLPractice","","","img/black_2bandit_b2.png","74","img/black_2bandit_b2.png","","prac","","","11","","","","","","","","","","","","","","","","",""
"null","179303","SARL_v6","SARL_v6zo8lrh42","631f991a0a5b1611251a3ebe","feedback","","","<div class=""veryhighPoints""> 5 </div>","null","","na","prac","","","12","5","-5","5","","","","","","","","","","","","","",""
"null","179477","SARL_v6","SARL_v6zo8lrh42","631f991a0a5b1611251a3ebe","fixation","","","img/fixation.png","null","","","prac","","","","","","","","","","","","","","","","","","","",""
"40134.200000000186","219617","SARL_v6","SARL_v6zo8lrh42","631f991a0a5b1611251a3ebe","","","","","","","","prac","","","","","","","","","","","","","","","","","","","",""
"null","220434","SARL_v6","SARL_v6zo8lrh42","631f991a0a5b1611251a3ebe","freq","","","img/blue_2bandit_b2.png","null","","70","test","0","","1","","","","circle","square","1","1","1","0","","","","","","","",""
"null","220604","SARL_v6","SARL_v6zo8lrh42","631f991a0a5b1611251a3ebe","fixation","","","img/fixation.png","null","","","test","","","","","","","","","","","","","","","","","","","",""
"441.59999999962747","221051","SARL_v6","SARL_v6zo8lrh42","631f991a0a5b1611251a3ebe","freq","","","img/blue_2bandit_b2.png","68","","70","test","0","","2","","","","circle","square","2","2","1","0","","","","","","","",""
"null","221417","SARL_v6","SARL_v6zo8lrh42","631f991a0a5b1611251a3ebe","freq_resp","","","img/blue_2bandit_b.png","68","img/blue_2bandit_b.png","70","test","","","","","","","","","","","1","","","","","","","","",""
"null","221587","SARL_v6","SARL_v6zo8lrh42","631f991a0a5b1611251a3ebe","fixation","","","img/fixation.png","null","","","test","","","","","","","","","","","","","","","","","","","",""
"612.5999999996275","222205","SARL_v6","SARL_v6zo8lrh42","631f991a0a5b1611251a3ebe","infreq","","","img/orange_2bandit_b2.png","70","","68","test","0","","3","","","","circle","square","3","3","1","0","","","","","","","",""
"null","222405","SARL_v6","SARL_v6zo8lrh42","631f991a0a5b1611251a3ebe","infreq_resp","","","img/orange_2bandit_b.png","70","img/orange_2bandit_b.png","68","test","","","","","","","","","","","1","","","","","","","","",""
"null","222570","SARL_v6","SARL_v6zo8lrh42","631f991a0a5b1611251a3ebe","fixation","","","img/fixation.png","null","","","test","","","","","","","","","","","","","","","","","","","",""
"680.5","223256","SARL_v6","SARL_v6zo8lrh42","631f991a0a5b1611251a3ebe","freq","","","img/blue_2bandit_b2.png","68","","70","test","0","","4","","","","circle","square","4","4","1","0","","","","","","","",""
"null","223389","SARL_v6","SARL_v6zo8lrh42","631f991a0a5b1611251a3ebe","freq_resp","","","img/blue_2bandit_b.png","68","img/blue_2bandit_b.png","70","test","","","","","","","","","","","1","","","","","","","","",""
"null","223554","SARL_v6","SARL_v6zo8lrh42","631f991a0a5b1611251a3ebe","fixation","","","img/fixation.png","null","","","test","","","","","","","","","","","","","","","","","","","",""
"639.2999999998137","224199","SARL_v6","SARL_v6zo8lrh42","631f991a0a5b1611251a3ebe","freq","","","img/blue_2bandit_b2.png","68","","70","test","0","","5","","","","circle","square","5","5","1","0","","","","","","","",""
"null","224368","SARL_v6","SARL_v6zo8lrh42","631f991a0a5b1611251a3ebe","freq_resp","","","img/blue_2bandit_b.png","68","img/blue_2bandit_b.png","70","test","","","","","","","","","","","1","","","","","","","","",""
"null","224538","SARL_v6","SARL_v6zo8lrh42","631f991a0a5b1611251a3ebe","fixation","","","img/fixation.png","null","","","test","","","","","","","","","","","","","","","","","","","",""
"464.1000000005588","225008","SARL_v6","SARL_v6zo8lrh42","631f991a0a5b1611251a3ebe","freq","","","img/blue_2bandit_b2.png","68","","70","test","0","","6","","","","circle","square","6","6","1","0","","","","","","","",""
"null","225356","SARL_v6","SARL_v6zo8lrh42","631f991a0a5b1611251a3ebe","freq_resp","","","img/blue_2bandit_b.png","68","img/blue_2bandit_b.png","70","test","","","","","","","","","","","1","","","","","","","","",""
"null","225520","SARL_v6","SARL_v6zo8lrh42","631f991a0a5b1611251a3ebe","fixation","","","img/fixation.png","null","","","test","","","","","","","","","","","","","","","","","","","",""
"433.20000000018626","225958","SARL_v6","SARL_v6zo8lrh42","631f991a0a5b1611251a3ebe","freq","","","img/blue_2bandit_b2.png","68","","70","test","0","","7","","","","circle","square","7","7","1","0","","","","","","","",""
"null","226339","SARL_v6","SARL_v6zo8lrh42","631f991a0a5b1611251a3ebe","freq_resp","","","img/blue_2bandit_b.png","68","img/blue_2bandit_b.png","70","test","","","","","","","","","","","1","","","","","","","","",""
"null","226513","SARL_v6","SARL_v6zo8lrh42","631f991a0a5b1611251a3ebe","fixation","","","img/fixation.png","null","","","test","","","","","","","","","","","","","","","","","","","",""
"502.29999999981374","227013","SARL_v6","SARL_v6zo8lrh42","631f991a0a5b1611251a3ebe","freq","","","img/blue_2bandit_b2.png","68","","70","test","0","","8","","","","circle","square","8","8","1","0","","","","","","","",""
"null","227320","SARL_v6","SARL_v6zo8lrh42","631f991a0a5b1611251a3ebe","freq_resp","","","img/blue_2bandit_b.png","68","img/blue_2bandit_b.png","70","test","","","","","","","","","","","1","","","","","","","","",""
"null","227479","SARL_v6","SARL_v6zo8lrh42","631f991a0a5b1611251a3ebe","fixation","","","img/fixation.png","null","","","test","","","","","","","","","","","","","","","","","","","",""
"429.20000000018626","227914","SARL_v6","SARL_v6zo8lrh42","631f991a0a5b1611251a3ebe","freq","","","img/blue_2bandit_b2.png","68","","70","test","0","","9","","","","circle","square","9","9","1","0","","","","","","","",""
"null","228298","SARL_v6","SARL_v6zo8lrh42","631f991a0a5b1611251a3ebe","freq_resp","","","img/blue_2bandit_b.png","68","img/blue_2bandit_b.png","70","test","","","","","","","","","","","1","","","","","","","","",""
"null","228463","SARL_v6","SARL_v6zo8lrh42","631f991a0a5b1611251a3ebe","fixation","","","img/fixation.png","null","","","test","","","","","","","","","","","","","","","","","","","",""
"457.09999999962747","228926","SARL_v6","SARL_v6zo8lrh42","631f991a0a5b1611251a3ebe","infreq","","","img/orange_2bandit_b2.png","70","","68","test","0","","10","","","","circle","square","10","10","1","0","","","","","","","",""
"null","229283","SARL_v6","SARL_v6zo8lrh42","631f991a0a5b1611251a3ebe","infreq_resp","","","img/orange_2bandit_b.png","70","img/orange_2bandit_b.png","68","test","","","","","","","","","","","1","","","","","","","","",""
"null","229447","SARL_v6","SARL_v6zo8lrh42","631f991a0a5b1611251a3ebe","fixation","","","img/fixation.png","null","","","test","","","","","","","","","","","","","","","","","","","",""
"717.7000000001863","230171","SARL_v6","SARL_v6zo8lrh42","631f991a0a5b1611251a3ebe","freq","","","img/blue_2bandit_b2.png","68","","70","test","0","","11","","","","circle","square","11","11","1","0","","","","","","","",""
"null","230266","SARL_v6","SARL_v6zo8lrh42","631f991a0a5b1611251a3ebe","freq_resp","","","img/blue_2bandit_b.png","68","img/blue_2bandit_b.png","70","test","","","","","","","","","","","1","","","","","","","","",""
"null","230431","SARL_v6","SARL_v6zo8lrh42","631f991a0a5b1611251a3ebe","fixation","","","img/fixation.png","null","","","test","","","","","","","","","","","","","","","","","","","",""
"674.1999999992549","231110","SARL_v6","SARL_v6zo8lrh42","631f991a0a5b1611251a3ebe","freq","","","img/blue_2bandit_b2.png","68","","70","test","0","","12","","","","circle","square","12","12","1","0","","","","","","","",""
"null","231243","SARL_v6","SARL_v6zo8lrh42","631f991a0a5b1611251a3ebe","freq_resp","","","img/blue_2bandit_b.png","68","img/blue_2bandit_b.png","70","test","","","","","","","","","","","1","","","","","","","","",""
"null","231413","SARL_v6","SARL_v6zo8lrh42","631f991a0a5b1611251a3ebe","fixation","","","img/fixation.png","null","","","test","","","","","","","","","","","","","","","","","","","",""
"511.70000000018626","231930","SARL_v6","SARL_v6zo8lrh42","631f991a0a5b1611251a3ebe","freq","","","img/blue_2bandit_b2.png","68","","70","test","0","","13","","","","circle","square","13","13","1","0","","","","","","","",""
"null","232237","SARL_v6","SARL_v6zo8lrh42","631f991a0a5b1611251a3ebe","freq_resp","","","img/blue_2bandit_b.png","68","img/blue_2bandit_b.png","70","test","","","","","","","","","","","1","","","","","","","","",""
"null","232412","SARL_v6","SARL_v6zo8lrh42","631f991a0a5b1611251a3ebe","fixation","","","img/fixation.png","null","","","test","","","","","","","","","","","","","","","","","","","",""
"584.8000000007451","233002","SARL_v6","SARL_v6zo8lrh42","631f991a0a5b1611251a3ebe","infreq","","","img/orange_2bandit_b2.png","70","","68","test","0","","14","","","","circle","square","14","14","1","0","","","","","","","",""
"null","233225","SARL_v6","SARL_v6zo8lrh42","631f991a0a5b1611251a3ebe","infreq_resp","","","img/orange_2bandit_b.png","70","img/orange_2bandit_b.png","68","test","","","","","","","","","","","1","","","","","","","","",""
"null","233395","SARL_v6","SARL_v6zo8lrh42","631f991a0a5b1611251a3ebe","fixation","","","img/fixation.png","null","","","test","","","","","","","","","","","","","","","","","","","",""
"null","234215","SARL_v6","SARL_v6zo8lrh42","631f991a0a5b1611251a3ebe","freq","","","img/blue_2bandit_b2.png","null","","70","test","0","","15","","","","circle","square","15","15","1","0","","","","","","","",""
"null","234377","SARL_v6","SARL_v6zo8lrh42","631f991a0a5b1611251a3ebe","fixation","","","img/fixation.png","null","","","test","","","","","","","","","","","","","","","","","","","",""
"601.7000000001863","234984","SARL_v6","SARL_v6zo8lrh42","631f991a0a5b1611251a3ebe","freq","","","img/blue_2bandit_b2.png","68","","70","test","0","","16","","","","circle","square","16","16","1","0","","","","","","","",""
"null","235193","SARL_v6","SARL_v6zo8lrh42","631f991a0a5b1611251a3ebe","freq_resp","","","img/blue_2bandit_b.png","68","img/blue_2bandit_b.png","70","test","","","","","","","","","","","1","","","","","","","","",""
"null","235359","SARL_v6","SARL_v6zo8lrh42","631f991a0a5b1611251a3ebe","fixation","","","img/fixation.png","null","","","test","","","","","","","","","","","","","","","","","","","",""
"741.7999999998137","236106","SARL_v6","SARL_v6zo8lrh42","631f991a0a5b1611251a3ebe","freq","","","img/blue_2bandit_b2.png","68","","70","test","0","","17","","","","circle","square","17","17","1","0","","","","","","","",""
"null","236183","SARL_v6","SARL_v6zo8lrh42","631f991a0a5b1611251a3ebe","freq_resp","","","img/blue_2bandit_b.png","68","img/blue_2bandit_b.png","70","test","","","","","","","","","","","1","","","","","","","","",""
"null","236343","SARL_v6","SARL_v6zo8lrh42","631f991a0a5b1611251a3ebe","fixation","","","img/fixation.png","null","","","test","","","","","","","","","","","","","","","","","","","",""
"668.7000000001863","237017","SARL_v6","SARL_v6zo8lrh42","631f991a0a5b1611251a3ebe","freq","","","img/blue_2bandit_b2.png","68","","70","test","0","","18","","","","circle","square","18","18","1","0","","","","","","","",""
"null","237162","SARL_v6","SARL_v6zo8lrh42","631f991a0a5b1611251a3ebe","freq_resp","","","img/blue_2bandit_b.png","68","img/blue_2bandit_b.png","70","test","","","","","","","","","","","1","","","","","","","","",""
"null","237327","SARL_v6","SARL_v6zo8lrh42","631f991a0a5b1611251a3ebe","fixation","","","img/fixation.png","null","","","test","","","","","","","","","","","","","","","","","","","",""
"614.5","237947","SARL_v6","SARL_v6zo8lrh42","631f991a0a5b1611251a3ebe","freq","","","img/blue_2bandit_b2.png","68","","70","test","0","","19","","","","circle","square","19","19","1","0","","","","","","","",""
"null","238146","SARL_v6","SARL_v6zo8lrh42","631f991a0a5b1611251a3ebe","freq_resp","","","img/blue_2bandit_b.png","68","img/blue_2bandit_b.png","70","test","","","","","","","","","","","1","","","","","","","","",""
"null","238312","SARL_v6","SARL_v6zo8lrh42","631f991a0a5b1611251a3ebe","fixation","","","img/fixation.png","null","","","test","","","","","","","","","","","","","","","","","","","",""
"488.19999999925494","238805","SARL_v6","SARL_v6zo8lrh42","631f991a0a5b1611251a3ebe","freq","","","img/blue_2bandit_b2.png","68","","70","test","0","","20","","","","circle","square","20","20","1","0","","","","","","","",""
"null","239131","SARL_v6","SARL_v6zo8lrh42","631f991a0a5b1611251a3ebe","freq_resp","","","img/blue_2bandit_b.png","68","img/blue_2bandit_b.png","70","test","","","","","","","","","","","1","","","","","","","","",""
"null","239295","SARL_v6","SARL_v6zo8lrh42","631f991a0a5b1611251a3ebe","fixation","","","img/fixation.png","null","","","test","","","","","","","","","","","","","","","","","","","",""
"476.70000000018626","239777","SARL_v6","SARL_v6zo8lrh42","631f991a0a5b1611251a3ebe","freq","","","img/blue_2bandit_b2.png","68","","70","test","0","","21","","","","circle","square","21","21","1","0","","","","","","","",""
"null","240115","SARL_v6","SARL_v6zo8lrh42","631f991a0a5b1611251a3ebe","freq_resp","","","img/blue_2bandit_b.png","68","img/blue_2bandit_b.png","70","test","","","","","","","","","","","1","","","","","","","","",""
"null","240280","SARL_v6","SARL_v6zo8lrh42","631f991a0a5b1611251a3ebe","fixation","","","img/fixation.png","null","","","test","","","","","","","","","","","","","","","","","","","",""
"453.90000000037253","240739","SARL_v6","SARL_v6zo8lrh42","631f991a0a5b1611251a3ebe","freq","","","img/blue_2bandit_b2.png","68","","70","test","0","","22","","","","circle","square","22","22","1","0","","","","","","","",""
"null","241098","SARL_v6","SARL_v6zo8lrh42","631f991a0a5b1611251a3ebe","freq_resp","","","img/blue_2bandit_b.png","68","img/blue_2bandit_b.png","70","test","","","","","","","","","","","1","","","","","","","","",""
"null","241263","SARL_v6","SARL_v6zo8lrh42","631f991a0a5b1611251a3ebe","fixation","","","img/fixation.png","null","","","test","","","","","","","","","","","","","","","","","","","",""
"511.5","241780","SARL_v6","SARL_v6zo8lrh42","631f991a0a5b1611251a3ebe","freq","","","img/blue_2bandit_b2.png","68","","70","test","0","","23","","","","circle","square","23","23","1","0","","","","","","","",""
"null","242085","SARL_v6","SARL_v6zo8lrh42","631f991a0a5b1611251a3ebe","freq_resp","","","img/blue_2bandit_b.png","68","img/blue_2bandit_b.png","70","test","","","","","","","","","","","1","","","","","","","","",""
"null","242261","SARL_v6","SARL_v6zo8lrh42","631f991a0a5b1611251a3ebe","fixation","","","img/fixation.png","null","","","test","","","","","","","","","","","","","","","","","","","",""
"null","243768","SARL_v6","SARL_v6zo8lrh42","631f991a0a5b1611251a3ebe","rl","","","img/black_2bandit_b2.png","null","","0","test","","","24","","","0","circle","square","","0","1","","null","-3","-3","-3","-3","too slow","1","0"
"null","244541","SARL_v6","SARL_v6zo8lrh42","631f991a0a5b1611251a3ebe","feedback","","","<div font size = 80> TOO SLOW  </div>","null","","na","test","","","NaN","","","","","","","","1","","null","","","","","","1",""
"491.3999999994412","245038","SARL_v6","SARL_v6zo8lrh42","631f991a0a5b1611251a3ebe","freq","","","img/blue_2bandit_b2.png","68","","70","test","0","","25","","","","circle","square","24","1","2","0","","","","","","","",""
"null","245365","SARL_v6","SARL_v6zo8lrh42","631f991a0a5b1611251a3ebe","freq_resp","","","img/blue_2bandit_b.png","68","img/blue_2bandit_b.png","70","test","","","","","","","","","","","2","","","","","","","","",""
"null","245529","SARL_v6","SARL_v6zo8lrh42","631f991a0a5b1611251a3ebe","fixation","","","img/fixation.png","null","","","test","","","","","","","","","","","","","","","","","","","",""
"413.20000000018626","245948","SARL_v6","SARL_v6zo8lrh42","631f991a0a5b1611251a3ebe","freq","","","img/blue_2bandit_b2.png","68","","70","test","0","","26","","","","circle","square","25","2","2","0","","","","","","","",""
"null","246343","SARL_v6","SARL_v6zo8lrh42","631f991a0a5b1611251a3ebe","freq_resp","","","img/blue_2bandit_b.png","68","img/blue_2bandit_b.png","70","test","","","","","","","","","","","2","","","","","","","","",""
"null","246508","SARL_v6","SARL_v6zo8lrh42","631f991a0a5b1611251a3ebe","fixation","","","img/fixation.png","null","","","test","","","","","","","","","","","","","","","","","","","",""
"507.6000000005588","247022","SARL_v6","SARL_v6zo8lrh42","631f991a0a5b1611251a3ebe","infreq","","","img/orange_2bandit_b2.png","70","","68","test","0","","27","","","","circle","square","26","3","2","0","","","","","","","",""
"null","247332","SARL_v6","SARL_v6zo8lrh42","631f991a0a5b1611251a3ebe","infreq_resp","","","img/orange_2bandit_b.png","70","img/orange_2bandit_b.png","68","test","","","","","","","","","","","2","","","","","","","","",""
"null","247496","SARL_v6","SARL_v6zo8lrh42","631f991a0a5b1611251a3ebe","fixation","","","img/fixation.png","null","","","test","","","","","","","","","","","","","","","","","","","",""
"571.2999999998137","248073","SARL_v6","SARL_v6zo8lrh42","631f991a0a5b1611251a3ebe","freq","","","img/blue_2bandit_b2.png","68","","70","test","0","","28","","","","circle","square","27","4","2","0","","","","","","","",""
"null","248320","SARL_v6","SARL_v6zo8lrh42","631f991a0a5b1611251a3ebe","freq_resp","","","img/blue_2bandit_b.png","68","img/blue_2bandit_b.png","70","test","","","","","","","","","","","2","","","","","","","","",""
"null","248491","SARL_v6","SARL_v6zo8lrh42","631f991a0a5b1611251a3ebe","fixation","","","img/fixation.png","null","","","test","","","","","","","","","","","","","","","","","","","",""
"538","249034","SARL_v6","SARL_v6zo8lrh42","631f991a0a5b1611251a3ebe","freq","","","img/blue_2bandit_b2.png","68","","70","test","0","","29","","","","circle","square","28","5","2","0","","","","","","","",""
"null","249303","SARL_v6","SARL_v6zo8lrh42","631f991a0a5b1611251a3ebe","freq_resp","","","img/blue_2bandit_b.png","68","img/blue_2bandit_b.png","70","test","","","","","","","","","","","2","","","","","","","","",""
"null","249463","SARL_v6","SARL_v6zo8lrh42","631f991a0a5b1611251a3ebe","fixation","","","img/fixation.png","null","","","test","","","","","","","","","","","","","","","","","","","",""
"374.70000000018626","249843","SARL_v6","SARL_v6zo8lrh42","631f991a0a5b1611251a3ebe","freq","","","img/blue_2bandit_b2.png","68","","70","test","0","","30","","","","circle","square","29","6","2","0","","","","","","","",""
"null","250276","SARL_v6","SARL_v6zo8lrh42","631f991a0a5b1611251a3ebe","freq_resp","","","img/blue_2bandit_b.png","68","img/blue_2bandit_b.png","70","test","","","","","","","","","","","2","","","","","","","","",""
"null","250446","SARL_v6","SARL_v6zo8lrh42","631f991a0a5b1611251a3ebe","fixation","","","img/fixation.png","null","","","test","","","","","","","","","","","","","","","","","","","",""
"433.59999999962747","250885","SARL_v6","SARL_v6zo8lrh42","631f991a0a5b1611251a3ebe","freq","","","img/blue_2bandit_b2.png","68","","70","test","0","","31","","","","circle","square","30","7","2","0","","","","","","","",""
"null","251264","SARL_v6","SARL_v6zo8lrh42","631f991a0a5b1611251a3ebe","freq_resp","","","img/blue_2bandit_b.png","68","img/blue_2bandit_b.png","70","test","","","","","","","","","","","2","","","","","","","","",""
"null","251429","SARL_v6","SARL_v6zo8lrh42","631f991a0a5b1611251a3ebe","fixation","","","img/fixation.png","null","","","test","","","","","","","","","","","","","","","","","","","",""
"391.19999999925494","251826","SARL_v6","SARL_v6zo8lrh42","631f991a0a5b1611251a3ebe","freq","","","img/blue_2bandit_b2.png","68","","70","test","0","","32","","","","circle","square","31","8","2","0","","","","","","","",""
"null","252247","SARL_v6","SARL_v6zo8lrh42","631f991a0a5b1611251a3ebe","freq_resp","","","img/blue_2bandit_b.png","68","img/blue_2bandit_b.png","70","test","","","","","","","","","","","2","","","","","","","","",""
"null","252412","SARL_v6","SARL_v6zo8lrh42","631f991a0a5b1611251a3ebe","fixation","","","img/fixation.png","null","","","test","","","","","","","","","","","","","","","","","","","",""
"359.5","252777","SARL_v6","SARL_v6zo8lrh42","631f991a0a5b1611251a3ebe","freq","","","img/blue_2bandit_b2.png","68","","70","test","0","","33","","","","circle","square","32","9","2","0","","","","","","","",""
"null","253225","SARL_v6","SARL_v6zo8lrh42","631f991a0a5b1611251a3ebe","freq_resp","","","img/blue_2bandit_b.png","68","img/blue_2bandit_b.png","70","test","","","","","","","","","","","2","","","","","","","","",""
"null","253391","SARL_v6","SARL_v6zo8lrh42","631f991a0a5b1611251a3ebe","fixation","","","img/fixation.png","null","","","test","","","","","","","","","","","","","","","","","","","",""
"371.59999999962747","253768","SARL_v6","SARL_v6zo8lrh42","631f991a0a5b1611251a3ebe","freq","","","img/blue_2bandit_b2.png","68","","70","test","0","","34","","","","circle","square","33","10","2","0","","","","","","","",""
"null","254210","SARL_v6","SARL_v6zo8lrh42","631f991a0a5b1611251a3ebe","freq_resp","","","img/blue_2bandit_b.png","68","img/blue_2bandit_b.png","70","test","","","","","","","","","","","2","","","","","","","","",""
"null","254375","SARL_v6","SARL_v6zo8lrh42","631f991a0a5b1611251a3ebe","fixation","","","img/fixation.png","null","","","test","","","","","","","","","","","","","","","","","","","",""
"328.80000000074506","254709","SARL_v6","SARL_v6zo8lrh42","631f991a0a5b1611251a3ebe","freq","","","img/blue_2bandit_b2.png","68","","70","test","0","","35","","","","circle","square","34","11","2","0","","","","","","","",""
"null","255189","SARL_v6","SARL_v6zo8lrh42","631f991a0a5b1611251a3ebe","freq_resp","","","img/blue_2bandit_b.png","68","img/blue_2bandit_b.png","70","test","","","","","","","","","","","2","","","","","","","","",""
"null","255359","SARL_v6","SARL_v6zo8lrh42","631f991a0a5b1611251a3ebe","fixation","","","img/fixation.png","null","","","test","","","","","","","","","","","","","","","","","","","",""
"306","255670","SARL_v6","SARL_v6zo8lrh42","631f991a0a5b1611251a3ebe","freq","","","img/blue_2bandit_b2.png","68","","70","test","0","","36","","","","circle","square","35","12","2","0","","","","","","","",""
"null","256183","SARL_v6","SARL_v6zo8lrh42","631f991a0a5b1611251a3ebe","freq_resp","","","img/blue_2bandit_b.png","68","img/blue_2bandit_b.png","70","test","","","","","","","","","","","2","","","","","","","","",""
"null","256343","SARL_v6","SARL_v6zo8lrh42","631f991a0a5b1611251a3ebe","fixation","","","img/fixation.png","null","","","test","","","","","","","","","","","","","","","","","","","",""
"322.5","256671","SARL_v6","SARL_v6zo8lrh42","631f991a0a5b1611251a3ebe","freq","","","img/blue_2bandit_b2.png","68","","70","test","0","","37","","","","circle","square","36","13","2","0","","","","","","","",""
"null","257167","SARL_v6","SARL_v6zo8lrh42","631f991a0a5b1611251a3ebe","freq_resp","","","img/blue_2bandit_b.png","68","img/blue_2bandit_b.png","70","test","","","","","","","","","","","2","","","","","","","","",""
"null","257343","SARL_v6","SARL_v6zo8lrh42","631f991a0a5b1611251a3ebe","fixation","","","img/fixation.png","null","","","test","","","","","","","","","","","","","","","","","","","",""
"345.20000000018626","257693","SARL_v6","SARL_v6zo8lrh42","631f991a0a5b1611251a3ebe","freq","","","img/blue_2bandit_b2.png","68","","70","test","0","","38","","","","circle","square","37","14","2","0","","","","","","","",""
"null","258160","SARL_v6","SARL_v6zo8lrh42","631f991a0a5b1611251a3ebe","freq_resp","","","img/blue_2bandit_b.png","68","img/blue_2bandit_b.png","70","test","","","","","","","","","","","2","","","","","","","","",""
"null","258326","SARL_v6","SARL_v6zo8lrh42","631f991a0a5b1611251a3ebe","fixation","","","img/fixation.png","null","","","test","","","","","","","","","","","","","","","","","","","",""
"394.79999999981374","258726","SARL_v6","SARL_v6zo8lrh42","631f991a0a5b1611251a3ebe","freq","","","img/blue_2bandit_b2.png","68","","70","test","0","","39","","","","circle","square","38","15","2","0","","","","","","","",""
"null","259144","SARL_v6","SARL_v6zo8lrh42","631f991a0a5b1611251a3ebe","freq_resp","","","img/blue_2bandit_b.png","68","img/blue_2bandit_b.png","70","test","","","","","","","","","","","2","","","","","","","","",""
"null","259309","SARL_v6","SARL_v6zo8lrh42","631f991a0a5b1611251a3ebe","fixation","","","img/fixation.png","null","","","test","","","","","","","","","","","","","","","","","","","",""
"331.09999999962747","259645","SARL_v6","SARL_v6zo8lrh42","631f991a0a5b1611251a3ebe","freq","","","img/blue_2bandit_b2.png","68","","70","test","0","","40","","","","circle","square","39","16","2","0","","","","","","","",""
"null","260128","SARL_v6","SARL_v6zo8lrh42","631f991a0a5b1611251a3ebe","freq_resp","","","img/blue_2bandit_b.png","68","img/blue_2bandit_b.png","70","test","","","","","","","","","","","2","","","","","","","","",""
"null","260294","SARL_v6","SARL_v6zo8lrh42","631f991a0a5b1611251a3ebe","fixation","","","img/fixation.png","null","","","test","","","","","","","","","","","","","","","","","","","",""
"418","260717","SARL_v6","SARL_v6zo8lrh42","631f991a0a5b1611251a3ebe","freq","","","img/blue_2bandit_b2.png","68","","70","test","0","","41","","","","circle","square","40","17","2","0","","","","","","","",""
"null","261106","SARL_v6","SARL_v6zo8lrh42","631f991a0a5b1611251a3ebe","freq_resp","","","img/blue_2bandit_b.png","68","img/blue_2bandit_b.png","70","test","","","","","","","","","","","2","","","","","","","","",""
"null","261276","SARL_v6","SARL_v6zo8lrh42","631f991a0a5b1611251a3ebe","fixation","","","img/fixation.png","null","","","test","","","","","","","","","","","","","","","","","","","",""
"448","261730","SARL_v6","SARL_v6zo8lrh42","631f991a0a5b1611251a3ebe","freq","","","img/blue_2bandit_b2.png","68","","70","test","0","","42","","","","circle","square","41","18","2","0","","","","","","","",""
"null","262094","SARL_v6","SARL_v6zo8lrh42","631f991a0a5b1611251a3ebe","freq_resp","","","img/blue_2bandit_b.png","68","img/blue_2bandit_b.png","70","test","","","","","","","","","","","2","","","","","","","","",""
"null","262259","SARL_v6","SARL_v6zo8lrh42","631f991a0a5b1611251a3ebe","fixation","","","img/fixation.png","null","","","test","","","","","","","","","","","","","","","","","","","",""
"null","263083","SARL_v6","SARL_v6zo8lrh42","631f991a0a5b1611251a3ebe","infreq","","","img/orange_2bandit_b2.png","null","","68","test","0","","43","","","","circle","square","42","19","2","0","","","","","","","",""
"null","263259","SARL_v6","SARL_v6zo8lrh42","631f991a0a5b1611251a3ebe","fixation","","","img/fixation.png","null","","","test","","","","","","","","","","","","","","","","","","","",""
"709.2000000001863","263974","SARL_v6","SARL_v6zo8lrh42","631f991a0a5b1611251a3ebe","freq","","","img/blue_2bandit_b2.png","70","","70","test","1","","44","","","","circle","square","43","20","2","0.023255813953488372","","","","","","","",""
"null","264078","SARL_v6","SARL_v6zo8lrh42","631f991a0a5b1611251a3ebe","freq_resp","","","img/blue_2bandit_b.png","70","img/blue_2bandit_b.png","70","test","","","","","","","","","","","2","","","","","","","","",""
"null","264243","SARL_v6","SARL_v6zo8lrh42","631f991a0a5b1611251a3ebe","fixation","","","img/fixation.png","null","","","test","","","","","","","","","","","","","","","","","","","",""
"646.0999999996275","264895","SARL_v6","SARL_v6zo8lrh42","631f991a0a5b1611251a3ebe","rl","","","img/black_2bandit_b2.png","75","","0","test","","","45","","","-5","circle","square","","0","2","","75","-8","-5","-8","-5","square","2","0"
"null","265665","SARL_v6","SARL_v6zo8lrh42","631f991a0a5b1611251a3ebe","feedback","","","<div class=""verylowPoints_sq""> -5 </div>","null","","na","test","","","NaN","","","","","","","","2","","75","","","","","","2",""
"null","266480","SARL_v6","SARL_v6zo8lrh42","631f991a0a5b1611251a3ebe","freq","","","img/blue_2bandit_b2.png","null","","70","test","0","","46","","","","circle","square","44","1","3","0.022727272727272728","","","","","","","",""
"null","266645","SARL_v6","SARL_v6zo8lrh42","631f991a0a5b1611251a3ebe","fixation","","","img/fixation.png","null","","","test","","","","","","","","","","","","","","","","","","","",""
"367.79999999981374","267017","SARL_v6","SARL_v6zo8lrh42","631f991a0a5b1611251a3ebe","freq","","","img/blue_2bandit_b2.png","68","","70","test","0","","47","","","","circle","square","45","2","3","0.022222222222222223","","","","","","","",""
"null","267458","SARL_v6","SARL_v6zo8lrh42","631f991a0a5b1611251a3ebe","freq_resp","","","img/blue_2bandit_b.png","68","img/blue_2bandit_b.png","70","test","","","","","","","","","","","3","","","","","","","","",""
"null","267623","SARL_v6","SARL_v6zo8lrh42","631f991a0a5b1611251a3ebe","fixation","","","img/fixation.png","null","","","test","","","","","","","","","","","","","","","","","","","",""
"320.09999999962747","267949","SARL_v6","SARL_v6zo8lrh42","631f991a0a5b1611251a3ebe","freq","","","img/blue_2bandit_b2.png","68","","70","test","0","","48","","","","circle","square","46","3","3","0.021739130434782608","","","","","","","",""
"null","268437","SARL_v6","SARL_v6zo8lrh42","631f991a0a5b1611251a3ebe","freq_resp","","","img/blue_2bandit_b.png","68","img/blue_2bandit_b.png","70","test","","","","","","","","","","","3","","","","","","","","",""
"null","268606","SARL_v6","SARL_v6zo8lrh42","631f991a0a5b1611251a3ebe","fixation","","","img/fixation.png","null","","","test","","","","","","","","","","","","","","","","","","","",""
"347.6000000005588","268959","SARL_v6","SARL_v6zo8lrh42","631f991a0a5b1611251a3ebe","infreq","","","img/orange_2bandit_b2.png","68","","68","test","1","","49","","","","circle","square","47","4","3","0.0425531914893617","","","","","","","",""
"null","269420","SARL_v6","SARL_v6zo8lrh42","631f991a0a5b1611251a3ebe","infreq_resp","","","img/orange_2bandit_b.png","68","img/orange_2bandit_b.png","68","test","","","","","","","","","","","3","","","","","","","","",""
"null","269591","SARL_v6","SARL_v6zo8lrh42","631f991a0a5b1611251a3ebe","fixation","","","img/fixation.png","null","","","test","","","","","","","","","","","","","","","","","","","",""
"647.4000000003725","270244","SARL_v6","SARL_v6zo8lrh42","631f991a0a5b1611251a3ebe","freq","","","img/blue_2bandit_b2.png","68","","70","test","0","","50","","","","circle","square","48","5","3","0.041666666666666664","","","","","","","",""
"null","270406","SARL_v6","SARL_v6zo8lrh42","631f991a0a5b1611251a3ebe","freq_resp","","","img/blue_2bandit_b.png","68","img/blue_2bandit_b.png","70","test","","","","","","","","","","","3","","","","","","","","",""
"null","270576","SARL_v6","SARL_v6zo8lrh42","631f991a0a5b1611251a3ebe","fixation","","","img/fixation.png","null","","","test","","","","","","","","","","","","","","","","","","","",""
"410.69999999925494","270992","SARL_v6","SARL_v6zo8lrh42","631f991a0a5b1611251a3ebe","freq","","","img/blue_2bandit_b2.png","68","","70","test","0","","51","","","","circle","square","49","6","3","0.04081632653061224","","","","","","","",""
"null","271390","SARL_v6","SARL_v6zo8lrh42","631f991a0a5b1611251a3ebe","freq_resp","","","img/blue_2bandit_b.png","68","img/blue_2bandit_b.png","70","test","","","","","","","","","","","3","","","","","","","","",""
"null","271560","SARL_v6","SARL_v6zo8lrh42","631f991a0a5b1611251a3ebe","fixation","","","img/fixation.png","null","","","test","","","","","","","","","","","","","","","","","","","",""
"498","272064","SARL_v6","SARL_v6zo8lrh42","631f991a0a5b1611251a3ebe","freq","","","img/blue_2bandit_b2.png","68","","70","test","0","","52","","","","circle","square","50","7","3","0.04","","","","","","","",""
"null","272383","SARL_v6","SARL_v6zo8lrh42","631f991a0a5b1611251a3ebe","freq_resp","","","img/blue_2bandit_b.png","68","img/blue_2bandit_b.png","70","test","","","","","","","","","","","3","","","","","","","","",""
"null","272543","SARL_v6","SARL_v6zo8lrh42","631f991a0a5b1611251a3ebe","fixation","","","img/fixation.png","null","","","test","","","","","","","","","","","","","","","","","","","",""
"464.80000000074506","273013","SARL_v6","SARL_v6zo8lrh42","631f991a0a5b1611251a3ebe","freq","","","img/blue_2bandit_b2.png","68","","70","test","0","","53","","","","circle","square","51","8","3","0.0392156862745098","","","","","","","",""
"null","273365","SARL_v6","SARL_v6zo8lrh42","631f991a0a5b1611251a3ebe","freq_resp","","","img/blue_2bandit_b.png","68","img/blue_2bandit_b.png","70","test","","","","","","","","","","","3","","","","","","","","",""
"null","273525","SARL_v6","SARL_v6zo8lrh42","631f991a0a5b1611251a3ebe","fixation","","","img/fixation.png","null","","","test","","","","","","","","","","","","","","","","","","","",""
"586.3999999994412","274116","SARL_v6","SARL_v6zo8lrh42","631f991a0a5b1611251a3ebe","freq","","","img/blue_2bandit_b2.png","68","","70","test","0","","54","","","","circle","square","52","9","3","0.038461538461538464","","","","","","","",""
"null","274338","SARL_v6","SARL_v6zo8lrh42","631f991a0a5b1611251a3ebe","freq_resp","","","img/blue_2bandit_b.png","68","img/blue_2bandit_b.png","70","test","","","","","","","","","","","3","","","","","","","","",""
"null","274508","SARL_v6","SARL_v6zo8lrh42","631f991a0a5b1611251a3ebe","fixation","","","img/fixation.png","null","","","test","","","","","","","","","","","","","","","","","","","",""
"713.3999999994412","275227","SARL_v6","SARL_v6zo8lrh42","631f991a0a5b1611251a3ebe","freq","","","img/blue_2bandit_b2.png","68","","70","test","0","","55","","","","circle","square","53","10","3","0.03773584905660377","","","","","","","",""
"null","275327","SARL_v6","SARL_v6zo8lrh42","631f991a0a5b1611251a3ebe","freq_resp","","","img/blue_2bandit_b.png","68","img/blue_2bandit_b.png","70","test","","","","","","","","","","","3","","","","","","","","",""
"null","275492","SARL_v6","SARL_v6zo8lrh42","631f991a0a5b1611251a3ebe","fixation","","","img/fixation.png","null","","","test","","","","","","","","","","","","","","","","","","","",""
"630.5999999996275","276128","SARL_v6","SARL_v6zo8lrh42","631f991a0a5b1611251a3ebe","freq","","","img/blue_2bandit_b2.png","68","","70","test","0","","56","","","","circle","square","54","11","3","0.037037037037037035","","","","","","","",""
"null","276310","SARL_v6","SARL_v6zo8lrh42","631f991a0a5b1611251a3ebe","freq_resp","","","img/blue_2bandit_b.png","68","img/blue_2bandit_b.png","70","test","","","","","","","","","","","3","","","","","","","","",""
"null","276475","SARL_v6","SARL_v6zo8lrh42","631f991a0a5b1611251a3ebe","fixation","","","img/fixation.png","null","","","test","","","","","","","","","","","","","","","","","","","",""
"507","276988","SARL_v6","SARL_v6zo8lrh42","631f991a0a5b1611251a3ebe","freq","","","img/blue_2bandit_b2.png","68","","70","test","0","","57","","","","circle","square","55","12","3","0.03636363636363636","","","","","","","",""
"null","277300","SARL_v6","SARL_v6zo8lrh42","631f991a0a5b1611251a3ebe","freq_resp","","","img/blue_2bandit_b.png","68","img/blue_2bandit_b.png","70","test","","","","","","","","","","","3","","","","","","","","",""
"null","277475","SARL_v6","SARL_v6zo8lrh42","631f991a0a5b1611251a3ebe","fixation","","","img/fixation.png","null","","","test","","","","","","","","","","","","","","","","","","","",""
"447.09999999962747","277928","SARL_v6","SARL_v6zo8lrh42","631f991a0a5b1611251a3ebe","freq","","","img/blue_2bandit_b2.png","68","","70","test","0","","58","","","","circle","square","56","13","3","0.03571428571428571","","","","","","","",""
"null","278294","SARL_v6","SARL_v6zo8lrh42","631f991a0a5b1611251a3ebe","freq_resp","","","img/blue_2bandit_b.png","68","img/blue_2bandit_b.png","70","test","","","","","","","","","","","3","","","","","","","","",""
"null","278458","SARL_v6","SARL_v6zo8lrh42","631f991a0a5b1611251a3ebe","fixation","","","img/fixation.png","null","","","test","","","","","","","","","","","","","","","","","","","",""
"424.70000000018626","278889","SARL_v6","SARL_v6zo8lrh42","631f991a0a5b1611251a3ebe","freq","","","img/blue_2bandit_b2.png","68","","70","test","0","","59","","","","circle","square","57","14","3","0.03508771929824561","","","","","","","",""
"null","279277","SARL_v6","SARL_v6zo8lrh42","631f991a0a5b1611251a3ebe","freq_resp","","","img/blue_2bandit_b.png","68","img/blue_2bandit_b.png","70","test","","","","","","","","","","","3","","","","","","","","",""
"null","279442","SARL_v6","SARL_v6zo8lrh42","631f991a0a5b1611251a3ebe","fixation","","","img/fixation.png","null","","","test","","","","","","","","","","","","","","","","","","","",""
"421","279869","SARL_v6","SARL_v6zo8lrh42","631f991a0a5b1611251a3ebe","freq","","","img/blue_2bandit_b2.png","68","","70","test","0","","60","","","","circle","square","58","15","3","0.034482758620689655","","","","","","","",""
"null","280261","SARL_v6","SARL_v6zo8lrh42","631f991a0a5b1611251a3ebe","freq_resp","","","img/blue_2bandit_b.png","68","img/blue_2bandit_b.png","70","test","","","","","","","","","","","3","","","","","","","","",""
"null","280426","SARL_v6","SARL_v6zo8lrh42","631f991a0a5b1611251a3ebe","fixation","","","img/fixation.png","null","","","test","","","","","","","","","","","","","","","","","","","",""
"690.2000000001863","281121","SARL_v6","SARL_v6zo8lrh42","631f991a0a5b1611251a3ebe","freq","","","img/blue_2bandit_b2.png","68","","70","test","0","","61","","","","circle","square","59","16","3","0.03389830508474576","","","","","","","",""
"null","281244","SARL_v6","SARL_v6zo8lrh42","631f991a0a5b1611251a3ebe","freq_resp","","","img/blue_2bandit_b.png","68","img/blue_2bandit_b.png","70","test","","","","","","","","","","","3","","","","","","","","",""
"null","281409","SARL_v6","SARL_v6zo8lrh42","631f991a0a5b1611251a3ebe","fixation","","","img/fixation.png","null","","","test","","","","","","","","","","","","","","","","","","","",""
"597.5","282012","SARL_v6","SARL_v6zo8lrh42","631f991a0a5b1611251a3ebe","freq","","","img/blue_2bandit_b2.png","68","","70","test","0","","62","","","","circle","square","60","17","3","0.03333333333333333","","","","","","","",""
"null","282223","SARL_v6","SARL_v6zo8lrh42","631f991a0a5b1611251a3ebe","freq_resp","","","img/blue_2bandit_b.png","68","img/blue_2bandit_b.png","70","test","","","","","","","","","","","3","","","","","","","","",""
"null","282388","SARL_v6","SARL_v6zo8lrh42","631f991a0a5b1611251a3ebe","fixation","","","img/fixation.png","null","","","test","","","","","","","","","","","","","","","","","","","",""
"670.5","283065","SARL_v6","SARL_v6zo8lrh42","631f991a0a5b1611251a3ebe","freq","","","img/blue_2bandit_b2.png","68","","70","test","0","","63","","","","circle","square","61","18","3","0.03278688524590164","","","","","","","",""
"null","283212","SARL_v6","SARL_v6zo8lrh42","631f991a0a5b1611251a3ebe","freq_resp","","","img/blue_2bandit_b.png","68","img/blue_2bandit_b.png","70","test","","","","","","","","","","","3","","","","","","","","",""
"null","283376","SARL_v6","SARL_v6zo8lrh42","631f991a0a5b1611251a3ebe","fixation","","","img/fixation.png","null","","","test","","","","","","","","","","","","","","","","","","","",""
"773.2000000001863","284155","SARL_v6","SARL_v6zo8lrh42","631f991a0a5b1611251a3ebe","freq","","","img/blue_2bandit_b2.png","68","","70","test","0","","64","","","","circle","square","62","19","3","0.03225806451612903","","","","","","","",""
"null","284187","SARL_v6","SARL_v6zo8lrh42","631f991a0a5b1611251a3ebe","freq_resp","","","img/blue_2bandit_b.png","68","img/blue_2bandit_b.png","70","test","","","","","","","","","","","3","","","","","","","","",""
"null","284343","SARL_v6","SARL_v6zo8lrh42","631f991a0a5b1611251a3ebe","fixation","","","img/fixation.png","null","","","test","","","","","","","","","","","","","","","","","","","",""
"null","285164","SARL_v6","SARL_v6zo8lrh42","631f991a0a5b1611251a3ebe","freq","","","img/blue_2bandit_b2.png","null","","70","test","0","","65","","","","circle","square","63","20","3","0.031746031746031744","","","","","","","",""
"null","285339","SARL_v6","SARL_v6zo8lrh42","631f991a0a5b1611251a3ebe","fixation","","","img/fixation.png","null","","","test","","","","","","","","","","","","","","","","","","","",""
"null","286160","SARL_v6","SARL_v6zo8lrh42","631f991a0a5b1611251a3ebe","freq","","","img/blue_2bandit_b2.png","null","","70","test","0","","66","","","","circle","square","64","21","3","0.03125","","","","","","","",""
"null","286325","SARL_v6","SARL_v6zo8lrh42","631f991a0a5b1611251a3ebe","fixation","","","img/fixation.png","null","","","test","","","","","","","","","","","","","","","","","","","",""
"181.5","286511","SARL_v6","SARL_v6zo8lrh42","631f991a0a5b1611251a3ebe","freq","","","img/blue_2bandit_b2.png","68","","70","test","0","","67","","","","circle","square","65","22","3","0.03076923076923077","","","","","","","",""
"null","287154","SARL_v6","SARL_v6zo8lrh42","631f991a0a5b1611251a3ebe","freq_resp","","","img/blue_2bandit_b.png","68","img/blue_2bandit_b.png","70","test","","","","","","","","","","","3","","","","","","","","",""
"null","287318","SARL_v6","SARL_v6zo8lrh42","631f991a0a5b1611251a3ebe","fixation","","","img/fixation.png","null","","","test","","","","","","","","","","","","","","","","","","","",""
"148.59999999962747","287472","SARL_v6","SARL_v6zo8lrh42","631f991a0a5b1611251a3ebe","freq","","","img/blue_2bandit_b2.png","68","","70","test","0","","68","","","","circle","square","66","23","3","0.030303030303030304","","","","","","","",""
"null","288137","SARL_v6","SARL_v6zo8lrh42","631f991a0a5b1611251a3ebe","freq_resp","","","img/blue_2bandit_b.png","68","img/blue_2bandit_b.png","70","test","","","","","","","","","","","3","","","","","","","","",""
"null","288306","SARL_v6","SARL_v6zo8lrh42","631f991a0a5b1611251a3ebe","fixation","","","img/fixation.png","null","","","test","","","","","","","","","","","","","","","","","","","",""
"131.90000000037253","288443","SARL_v6","SARL_v6zo8lrh42","631f991a0a5b1611251a3ebe","infreq","","","img/orange_2bandit_b2.png","68","","68","test","1","","69","","","","circle","square","67","24","3","0.04477611940298507","","","","","","","",""
"null","289119","SARL_v6","SARL_v6zo8lrh42","631f991a0a5b1611251a3ebe","infreq_resp","","","img/orange_2bandit_b.png","68","img/orange_2bandit_b.png","68","test","","","","","","","","","","","3","","","","","","","","",""
"null","289284","SARL_v6","SARL_v6zo8lrh42","631f991a0a5b1611251a3ebe","fixation","","","img/fixation.png","null","","","test","","","","","","","","","","","","","","","","","","","",""
"438.40000000037253","289728","SARL_v6","SARL_v6zo8lrh42","631f991a0a5b1611251a3ebe","freq","","","img/blue_2bandit_b2.png","68","","70","test","0","","70","","","","circle","square","68","25","3","0.04411764705882353","","","","","","","",""
"null","290102","SARL_v6","SARL_v6zo8lrh42","631f991a0a5b1611251a3ebe","freq_resp","","","img/blue_2bandit_b.png","68","img/blue_2bandit_b.png","70","test","","","","","","","","","","","3","","","","","","","","",""
"null","290268","SARL_v6","SARL_v6zo8lrh42","631f991a0a5b1611251a3ebe","fixation","","","img/fixation.png","null","","","test","","","","","","","","","","","","","","","","","","","",""
"455.1000000005588","290729","SARL_v6","SARL_v6zo8lrh42","631f991a0a5b1611251a3ebe","freq","","","img/blue_2bandit_b2.png","68","","70","test","0","","71","","","","circle","square","69","26","3","0.043478260869565216","","","","","","","",""
"null","291086","SARL_v6","SARL_v6zo8lrh42","631f991a0a5b1611251a3ebe","freq_resp","","","img/blue_2bandit_b.png","68","img/blue_2bandit_b.png","70","test","","","","","","","","","","","3","","","","","","","","",""
"null","291251","SARL_v6","SARL_v6zo8lrh42","631f991a0a5b1611251a3ebe","fixation","","","img/fixation.png","null","","","test","","","","","","","","","","","","","","","","","","","",""
"729.6999999992549","291986","SARL_v6","SARL_v6zo8lrh42","631f991a0a5b1611251a3ebe","rl","","","img/black_2bandit_b2.png","74","","0","test","","","72","","","-8","circle","square","","0","3","","74","-8","-4","-8","-4","circle","3","0"
"null","292756","SARL_v6","SARL_v6zo8lrh42","631f991a0a5b1611251a3ebe","feedback","","","<div class=""verylowPoints""> -8 </div>","null","","na","test","","","NaN","","","","","","","","3","","74","","","","","","3",""
"null","293570","SARL_v6","SARL_v6zo8lrh42","631f991a0a5b1611251a3ebe","freq","","","img/blue_2bandit_b2.png","null","","70","test","0","","73","","","","circle","square","70","1","4","0.04285714285714286","","","","","","","",""
"null","293735","SARL_v6","SARL_v6zo8lrh42","631f991a0a5b1611251a3ebe","fixation","","","img/fixation.png","null","","","test","","","","","","","","","","","","","","","","","","","",""
"597.5999999996275","294337","SARL_v6","SARL_v6zo8lrh42","631f991a0a5b1611251a3ebe","infreq","","","img/orange_2bandit_b2.png","68","","68","test","1","","74","","","","circle","square","71","2","4","0.056338028169014086","","","","","","","",""
"null","294548","SARL_v6","SARL_v6zo8lrh42","631f991a0a5b1611251a3ebe","infreq_resp","","","img/orange_2bandit_b.png","68","img/orange_2bandit_b.png","68","test","","","","","","","","","","","4","","","","","","","","",""
"null","294718","SARL_v6","SARL_v6zo8lrh42","631f991a0a5b1611251a3ebe","fixation","","","img/fixation.png","null","","","test","","","","","","","","","","","","","","","","","","","",""
"585.5","295309","SARL_v6","SARL_v6zo8lrh42","631f991a0a5b1611251a3ebe","freq","","","img/blue_2bandit_b2.png","70","","70","test","1","","75","","","","circle","square","72","3","4","0.06944444444444445","","","","","","","",""
"null","295531","SARL_v6","SARL_v6zo8lrh42","631f991a0a5b1611251a3ebe","freq_resp","","","img/blue_2bandit_b.png","70","img/blue_2bandit_b.png","70","test","","","","","","","","","","","4","","","","","","","","",""
"null","295701","SARL_v6","SARL_v6zo8lrh42","631f991a0a5b1611251a3ebe","fixation","","","img/fixation.png","null","","","test","","","","","","","","","","","","","","","","","","","",""
"602.1000000005588","296309","SARL_v6","SARL_v6zo8lrh42","631f991a0a5b1611251a3ebe","freq","","","img/blue_2bandit_b2.png","68","","70","test","0","","76","","","","circle","square","73","4","4","0.0684931506849315","","","","","","","",""
"null","296515","SARL_v6","SARL_v6zo8lrh42","631f991a0a5b1611251a3ebe","freq_resp","","","img/blue_2bandit_b.png","68","img/blue_2bandit_b.png","70","test","","","","","","","","","","","4","","","","","","","","",""
"null","296685","SARL_v6","SARL_v6zo8lrh42","631f991a0a5b1611251a3ebe","fixation","","","img/fixation.png","null","","","test","","","","","","","","","","","","","","","","","","","",""
"528.5","297219","SARL_v6","SARL_v6zo8lrh42","631f991a0a5b1611251a3ebe","freq","","","img/blue_2bandit_b2.png","68","","70","test","0","","77","","","","circle","square","74","5","4","0.06756756756756757","","","","","","","",""
"null","297499","SARL_v6","SARL_v6zo8lrh42","631f991a0a5b1611251a3ebe","freq_resp","","","img/blue_2bandit_b.png","68","img/blue_2bandit_b.png","70","test","","","","","","","","","","","4","","","","","","","","",""
"null","297668","SARL_v6","SARL_v6zo8lrh42","631f991a0a5b1611251a3ebe","fixation","","","img/fixation.png","null","","","test","","","","","","","","","","","","","","","","","","","",""
"486","298160","SARL_v6","SARL_v6zo8lrh42","631f991a0a5b1611251a3ebe","freq","","","img/blue_2bandit_b2.png","68","","70","test","0","","78","","","","circle","square","75","6","4","0.06666666666666667","","","","","","","",""
"null","298487","SARL_v6","SARL_v6zo8lrh42","631f991a0a5b1611251a3ebe","freq_resp","","","img/blue_2bandit_b.png","68","img/blue_2bandit_b.png","70","test","","","","","","","","","","","4","","","","","","","","",""
"null","298652","SARL_v6","SARL_v6zo8lrh42","631f991a0a5b1611251a3ebe","fixation","","","img/fixation.png","null","","","test","","","","","","","","","","","","","","","","","","","",""
"421.90000000037253","299079","SARL_v6","SARL_v6zo8lrh42","631f991a0a5b1611251a3ebe","freq","","","img/blue_2bandit_b2.png","68","","70","test","0","","79","","","","circle","square","76","7","4","0.06578947368421052","","","","","","","",""
"null","299466","SARL_v6","SARL_v6zo8lrh42","631f991a0a5b1611251a3ebe","freq_resp","","","img/blue_2bandit_b.png","68","img/blue_2bandit_b.png","70","test","","","","","","","","","","","4","","","","","","","","",""
"null","299631","SARL_v6","SARL_v6zo8lrh42","631f991a0a5b1611251a3ebe","fixation","","","img/fixation.png","null","","","test","","","","","","","","","","","","","","","","","","","",""
"423.5","300061","SARL_v6","SARL_v6zo8lrh42","631f991a0a5b1611251a3ebe","freq","","","img/blue_2bandit_b2.png","68","","70","test","0","","80","","","","circle","square","77","8","4","0.06493506493506493","","","","","","","",""
"null","300449","SARL_v6","SARL_v6zo8lrh42","631f991a0a5b1611251a3ebe","freq_resp","","","img/blue_2bandit_b.png","68","img/blue_2bandit_b.png","70","test","","","","","","","","","","","4","","","","","","","","",""
"null","300618","SARL_v6","SARL_v6zo8lrh42","631f991a0a5b1611251a3ebe","fixation","","","img/fixation.png","null","","","test","","","","","","","","","","","","","","","","","","","",""
"397.80000000074506","301021","SARL_v6","SARL_v6zo8lrh42","631f991a0a5b1611251a3ebe","freq","","","img/blue_2bandit_b2.png","68","","70","test","0","","81","","","","circle","square","78","9","4","0.0641025641025641","","","","","","","",""
"null","301432","SARL_v6","SARL_v6zo8lrh42","631f991a0a5b1611251a3ebe","freq_resp","","","img/blue_2bandit_b.png","68","img/blue_2bandit_b.png","70","test","","","","","","","","","","","4","","","","","","","","",""
"null","301597","SARL_v6","SARL_v6zo8lrh42","631f991a0a5b1611251a3ebe","fixation","","","img/fixation.png","null","","","test","","","","","","","","","","","","","","","","","","","",""
"367.6000000005588","301970","SARL_v6","SARL_v6zo8lrh42","631f991a0a5b1611251a3ebe","freq","","","img/blue_2bandit_b2.png","68","","70","test","0","","82","","","","circle","square","79","10","4","0.06329113924050633","","","","","","","",""
"null","302410","SARL_v6","SARL_v6zo8lrh42","631f991a0a5b1611251a3ebe","freq_resp","","","img/blue_2bandit_b.png","68","img/blue_2bandit_b.png","70","test","","","","","","","","","","","4","","","","","","","","",""
"null","302584","SARL_v6","SARL_v6zo8lrh42","631f991a0a5b1611251a3ebe","fixation","","","img/fixation.png","null","","","test","","","","","","","","","","","","","","","","","","","",""
"300.29999999981374","302890","SARL_v6","SARL_v6zo8lrh42","631f991a0a5b1611251a3ebe","freq","","","img/blue_2bandit_b2.png","68","","70","test","0","","83","","","","circle","square","80","11","4","0.0625","","","","","","","",""
"null","303395","SARL_v6","SARL_v6zo8lrh42","631f991a0a5b1611251a3ebe","freq_resp","","","img/blue_2bandit_b.png","68","img/blue_2bandit_b.png","70","test","","","","","","","","","","","4","","","","","","","","",""
"null","303566","SARL_v6","SARL_v6zo8lrh42","631f991a0a5b1611251a3ebe","fixation","","","img/fixation.png","null","","","test","","","","","","","","","","","","","","","","","","","",""
"390.5","303962","SARL_v6","SARL_v6zo8lrh42","631f991a0a5b1611251a3ebe","freq","","","img/blue_2bandit_b2.png","68","","70","test","0","","84","","","","circle","square","81","12","4","0.06172839506172839","","","","","","","",""
"null","304384","SARL_v6","SARL_v6zo8lrh42","631f991a0a5b1611251a3ebe","freq_resp","","","img/blue_2bandit_b.png","68","img/blue_2bandit_b.png","70","test","","","","","","","","","","","4","","","","","","","","",""
"null","304549","SARL_v6","SARL_v6zo8lrh42","631f991a0a5b1611251a3ebe","fixation","","","img/fixation.png","null","","","test","","","","","","","","","","","","","","","","","","","",""
"490.09999999962747","305044","SARL_v6","SARL_v6zo8lrh42","631f991a0a5b1611251a3ebe","freq","","","img/blue_2bandit_b2.png","68","","70","test","0","","85","","","","circle","square","82","13","4","0.06097560975609756","","","","","","","",""
"null","305372","SARL_v6","SARL_v6zo8lrh42","631f991a0a5b1611251a3ebe","freq_resp","","","img/blue_2bandit_b.png","68","img/blue_2bandit_b.png","70","test","","","","","","","","","","","4","","","","","","","","",""
"null","305532","SARL_v6","SARL_v6zo8lrh42","631f991a0a5b1611251a3ebe","fixation","","","img/fixation.png","null","","","test","","","","","","","","","","","","","","","","","","","",""
"517.7000000001863","306055","SARL_v6","SARL_v6zo8lrh42","631f991a0a5b1611251a3ebe","infreq","","","img/orange_2bandit_b2.png","70","","68","test","0","","86","","","","circle","square","83","14","4","0.060240963855421686","","","","","","","",""
"null","306359","SARL_v6","SARL_v6zo8lrh42","631f991a0a5b1611251a3ebe","infreq_resp","","","img/orange_2bandit_b.png","70","img/orange_2bandit_b.png","68","test","","","","","","","","","","","4","","","","","","","","",""
"null","306535","SARL_v6","SARL_v6zo8lrh42","631f991a0a5b1611251a3ebe","fixation","","","img/fixation.png","null","","","test","","","","","","","","","","","","","","","","","","","",""
"514.9000000003725","307055","SARL_v6","SARL_v6zo8lrh42","631f991a0a5b1611251a3ebe","freq","","","img/blue_2bandit_b2.png","68","","70","test","0","","87","","","","circle","square","84","15","4","0.05952380952380952","","","","","","","",""
"null","307358","SARL_v6","SARL_v6zo8lrh42","631f991a0a5b1611251a3ebe","freq_resp","","","img/blue_2bandit_b.png","68","img/blue_2bandit_b.png","70","test","","","","","","","","","","","4","","","","","","","","",""
"null","307534","SARL_v6","SARL_v6zo8lrh42","631f991a0a5b1611251a3ebe","fixation","","","img/fixation.png","null","","","test","","","","","","","","","","","","","","","","","","","",""
"606.7999999998137","308146","SARL_v6","SARL_v6zo8lrh42","631f991a0a5b1611251a3ebe","freq","","","img/blue_2bandit_b2.png","68","","70","test","0","","88","","","","circle","square","85","16","4","0.058823529411764705","","","","","","","",""
"null","308348","SARL_v6","SARL_v6zo8lrh42","631f991a0a5b1611251a3ebe","freq_resp","","","img/blue_2bandit_b.png","68","img/blue_2bandit_b.png","70","test","","","","","","","","","","","4","","","","","","","","",""
"null","308518","SARL_v6","SARL_v6zo8lrh42","631f991a0a5b1611251a3ebe","fixation","","","img/fixation.png","null","","","test","","","","","","","","","","","","","","","","","","","",""
"562.7000000001863","309085","SARL_v6","SARL_v6zo8lrh42","631f991a0a5b1611251a3ebe","freq","","","img/blue_2bandit_b2.png","68","","70","test","0","","89","","","","circle","square","86","17","4","0.05813953488372093","","","","","","","",""
"null","309330","SARL_v6","SARL_v6zo8lrh42","631f991a0a5b1611251a3ebe","freq_resp","","","img/blue_2bandit_b.png","68","img/blue_2bandit_b.png","70","test","","","","","","","","","","","4","","","","","","","","",""
"null","309500","SARL_v6","SARL_v6zo8lrh42","631f991a0a5b1611251a3ebe","fixation","","","img/fixation.png","null","","","test","","","","","","","","","","","","","","","","","","","",""
"489.5","309995","SARL_v6","SARL_v6zo8lrh42","631f991a0a5b1611251a3ebe","freq","","","img/blue_2bandit_b2.png","68","","70","test","0","","90","","","","circle","square","87","18","4","0.05747126436781609","","","","","","","",""
"null","310320","SARL_v6","SARL_v6zo8lrh42","631f991a0a5b1611251a3ebe","freq_resp","","","img/blue_2bandit_b.png","68","img/blue_2bandit_b.png","70","test","","","","","","","","","","","4","","","","","","","","",""
"null","310484","SARL_v6","SARL_v6zo8lrh42","631f991a0a5b1611251a3ebe","fixation","","","img/fixation.png","null","","","test","","","","","","","","","","","","","","","","","","","",""
"365.20000000018626","310854","SARL_v6","SARL_v6zo8lrh42","631f991a0a5b1611251a3ebe","freq","","","img/blue_2bandit_b2.png","68","","70","test","0","","91","","","","circle","square","88","19","4","0.056818181818181816","","","","","","","",""
"null","311298","SARL_v6","SARL_v6zo8lrh42","631f991a0a5b1611251a3ebe","freq_resp","","","img/blue_2bandit_b.png","68","img/blue_2bandit_b.png","70","test","","","","","","","","","","","4","","","","","","","","",""
"null","311464","SARL_v6","SARL_v6zo8lrh42","631f991a0a5b1611251a3ebe","fixation","","","img/fixation.png","null","","","test","","","","","","","","","","","","","","","","","","","",""
"376.09999999962747","311846","SARL_v6","SARL_v6zo8lrh42","631f991a0a5b1611251a3ebe","freq","","","img/blue_2bandit_b2.png","68","","70","test","0","","92","","","","circle","square","89","20","4","0.056179775280898875","","","","","","","",""
"null","312282","SARL_v6","SARL_v6zo8lrh42","631f991a0a5b1611251a3ebe","freq_resp","","","img/blue_2bandit_b.png","68","img/blue_2bandit_b.png","70","test","","","","","","","","","","","4","","","","","","","","",""
"null","312447","SARL_v6","SARL_v6zo8lrh42","631f991a0a5b1611251a3ebe","fixation","","","img/fixation.png","null","","","test","","","","","","","","","","","","","","","","","","","",""
"474.09999999962747","312927","SARL_v6","SARL_v6zo8lrh42","631f991a0a5b1611251a3ebe","rl","","","img/black_2bandit_b2.png","74","","0","test","","","93","","","-12","circle","square","","0","4","","74","-12","0","-12","0","circle","4","0"
"null","313695","SARL_v6","SARL_v6zo8lrh42","631f991a0a5b1611251a3ebe","feedback","","","<div class=""verylowPoints""> -12 </div>","null","","na","test","","","NaN","","","","","","","","4","","74","","","","","","4",""
"null","314505","SARL_v6","SARL_v6zo8lrh42","631f991a0a5b1611251a3ebe","freq","","","img/blue_2bandit_b2.png","null","","70","test","0","","94","","","","circle","square","90","1","5","0.05555555555555555","","","","","","","",""
"null","314680","SARL_v6","SARL_v6zo8lrh42","631f991a0a5b1611251a3ebe","fixation","","","img/fixation.png","null","","","test","","","","","","","","","","","","","","","","","","","",""
"121.09999999962747","314807","SARL_v6","SARL_v6zo8lrh42","631f991a0a5b1611251a3ebe","freq","","","img/blue_2bandit_b2.png","68","","70","test","0","","95","","","","circle","square","91","2","5","0.054945054945054944","","","","","","","",""
"null","315498","SARL_v6","SARL_v6zo8lrh42","631f991a0a5b1611251a3ebe","freq_resp","","","img/blue_2bandit_b.png","68","img/blue_2bandit_b.png","70","test","","","","","","","","","","","5","","","","","","","","",""
"null","315664","SARL_v6","SARL_v6zo8lrh42","631f991a0a5b1611251a3ebe","fixation","","","img/fixation.png","null","","","test","","","","","","","","","","","","","","","","","","","",""
"311.8999999994412","315981","SARL_v6","SARL_v6zo8lrh42","631f991a0a5b1611251a3ebe","freq","","","img/blue_2bandit_b2.png","68","","70","test","0","","96","","","","circle","square","92","3","5","0.05434782608695652","","","","","","","",""
"null","316478","SARL_v6","SARL_v6zo8lrh42","631f991a0a5b1611251a3ebe","freq_resp","","","img/blue_2bandit_b.png","68","img/blue_2bandit_b.png","70","test","","","","","","","","","","","5","","","","","","","","",""
"null","316648","SARL_v6","SARL_v6zo8lrh42","631f991a0a5b1611251a3ebe","fixation","","","img/fixation.png","null","","","test","","","","","","","","","","","","","","","","","","","",""
"530.0999999996275","317184","SARL_v6","SARL_v6zo8lrh42","631f991a0a5b1611251a3ebe","freq","","","img/blue_2bandit_b2.png","68","","70","test","0","","97","","","","circle","square","93","4","5","0.053763440860215055","","","","","","","",""
"null","317472","SARL_v6","SARL_v6zo8lrh42","631f991a0a5b1611251a3ebe","freq_resp","","","img/blue_2bandit_b.png","68","img/blue_2bandit_b.png","70","test","","","","","","","","","","","5","","","","","","","","",""
"null","317647","SARL_v6","SARL_v6zo8lrh42","631f991a0a5b1611251a3ebe","fixation","","","img/fixation.png","null","","","test","","","","","","","","","","","","","","","","","","","",""
"430.59999999962747","318083","SARL_v6","SARL_v6zo8lrh42","631f991a0a5b1611251a3ebe","freq","","","img/blue_2bandit_b2.png","68","","70","test","0","","98","","","","circle","square","94","5","5","0.05319148936170213","","","","","","","",""
"null","318466","SARL_v6","SARL_v6zo8lrh42","631f991a0a5b1611251a3ebe","freq_resp","","","img/blue_2bandit_b.png","68","img/blue_2bandit_b.png","70","test","","","","","","","","","","","5","","","","","","","","",""
"null","318631","SARL_v6","SARL_v6zo8lrh42","631f991a0a5b1611251a3ebe","fixation","","","img/fixation.png","null","","","test","","","","","","","","","","","","","","","","","","","",""
"569.8999999994412","319207","SARL_v6","SARL_v6zo8lrh42","631f991a0a5b1611251a3ebe","infreq","","","img/orange_2bandit_b2.png","70","","68","test","0","","99","","","","circle","square","95","6","5","0.05263157894736842","","","","","","","",""
"null","319445","SARL_v6","SARL_v6zo8lrh42","631f991a0a5b1611251a3ebe","infreq_resp","","","img/orange_2bandit_b.png","70","img/orange_2bandit_b.png","68","test","","","","","","","","","","","5","","","","","","","","",""
"null","319615","SARL_v6","SARL_v6zo8lrh42","631f991a0a5b1611251a3ebe","fixation","","","img/fixation.png","null","","","test","","","","","","","","","","","","","","","","","","","",""
"484.90000000037253","320105","SARL_v6","SARL_v6zo8lrh42","631f991a0a5b1611251a3ebe","freq","","","img/blue_2bandit_b2.png","68","","70","test","0","","100","","","","circle","square","96","7","5","0.052083333333333336","","","","","","","",""
"null","320438","SARL_v6","SARL_v6zo8lrh42","631f991a0a5b1611251a3ebe","freq_resp","","","img/blue_2bandit_b.png","68","img/blue_2bandit_b.png","70","test","","","","","","","","","","","5","","","","","","","","",""
"null","320614","SARL_v6","SARL_v6zo8lrh42","631f991a0a5b1611251a3ebe","fixation","","","img/fixation.png","null","","","test","","","","","","","","","","","","","","","","","","","",""
"519.5","321139","SARL_v6","SARL_v6zo8lrh42","631f991a0a5b1611251a3ebe","freq","","","img/blue_2bandit_b2.png","68","","70","test","0","","101","","","","circle","square","97","8","5","0.05154639175257732","","","","","","","",""
"null","321426","SARL_v6","SARL_v6zo8lrh42","631f991a0a5b1611251a3ebe","freq_resp","","","img/blue_2bandit_b.png","68","img/blue_2bandit_b.png","70","test","","","","","","","","","","","5","","","","","","","","",""
"null","321597","SARL_v6","SARL_v6zo8lrh42","631f991a0a5b1611251a3ebe","fixation","","","img/fixation.png","null","","","test","","","","","","","","","","","","","","","","","","","",""
"425.30000000074506","322028","SARL_v6","SARL_v6zo8lrh42","631f991a0a5b1611251a3ebe","freq","","","img/blue_2bandit_b2.png","68","","70","test","0","","102","","","","circle","square","98","9","5","0.05102040816326531","","","","","","","",""
"null","322415","SARL_v6","SARL_v6zo8lrh42","631f991a0a5b1611251a3ebe","freq_resp","","","img/blue_2bandit_b.png","68","img/blue_2bandit_b.png","70","test","","","","","","","","","","","5","","","","","","","","",""
"null","322584","SARL_v6","SARL_v6zo8lrh42","631f991a0a5b1611251a3ebe","fixation","","","img/fixation.png","null","","","test","","","","","","","","","","","","","","","","","","","",""
"498.70000000018626","323088","SARL_v6","SARL_v6zo8lrh42","631f991a0a5b1611251a3ebe","infreq","","","img/orange_2bandit_b2.png","68","","68","test","1","","103","","","","circle","square","99","10","5","0.06060606060606061","","","","","","","",""
"null","323408","SARL_v6","SARL_v6zo8lrh42","631f991a0a5b1611251a3ebe","infreq_resp","","","img/orange_2bandit_b.png","68","img/orange_2bandit_b.png","68","test","","","","","","","","","","","5","","","","","","","","",""
"null","323583","SARL_v6","SARL_v6zo8lrh42","631f991a0a5b1611251a3ebe","fixation","","","img/fixation.png","null","","","test","","","","","","","","","","","","","","","","","","","",""
"null","324403","SARL_v6","SARL_v6zo8lrh42","631f991a0a5b1611251a3ebe","freq","","","img/blue_2bandit_b2.png","null","","70","test","0","","104","","","","circle","square","100","11","5","0.06","","","","","","","",""
"null","324568","SARL_v6","SARL_v6zo8lrh42","631f991a0a5b1611251a3ebe","fixation","","","img/fixation.png","null","","","test","","","","","","","","","","","","","","","","","","","",""
"376.19999999925494","324950","SARL_v6","SARL_v6zo8lrh42","631f991a0a5b1611251a3ebe","freq","","","img/blue_2bandit_b2.png","68","","70","test","0","","105","","","","circle","square","101","12","5","0.0594059405940594","","","","","","","",""
"null","325381","SARL_v6","SARL_v6zo8lrh42","631f991a0a5b1611251a3ebe","freq_resp","","","img/blue_2bandit_b.png","68","img/blue_2bandit_b.png","70","test","","","","","","","","","","","5","","","","","","","","",""
"null","325551","SARL_v6","SARL_v6zo8lrh42","631f991a0a5b1611251a3ebe","fixation","","","img/fixation.png","null","","","test","","","","","","","","","","","","","","","","","","","",""
"555.4000000003725","326112","SARL_v6","SARL_v6zo8lrh42","631f991a0a5b1611251a3ebe","freq","","","img/blue_2bandit_b2.png","68","","70","test","0","","106","","","","circle","square","102","13","5","0.058823529411764705","","","","","","","",""
"null","326375","SARL_v6","SARL_v6zo8lrh42","631f991a0a5b1611251a3ebe","freq_resp","","","img/blue_2bandit_b.png","68","img/blue_2bandit_b.png","70","test","","","","","","","","","","","5","","","","","","","","",""
"null","326550","SARL_v6","SARL_v6zo8lrh42","631f991a0a5b1611251a3ebe","fixation","","","img/fixation.png","null","","","test","","","","","","","","","","","","","","","","","","","",""
"456.09999999962747","327012","SARL_v6","SARL_v6zo8lrh42","631f991a0a5b1611251a3ebe","freq","","","img/blue_2bandit_b2.png","68","","70","test","0","","107","","","","circle","square","103","14","5","0.05825242718446602","","","","","","","",""
"null","327369","SARL_v6","SARL_v6zo8lrh42","631f991a0a5b1611251a3ebe","freq_resp","","","img/blue_2bandit_b.png","68","img/blue_2bandit_b.png","70","test","","","","","","","","","","","5","","","","","","","","",""
"null","327534","SARL_v6","SARL_v6zo8lrh42","631f991a0a5b1611251a3ebe","fixation","","","img/fixation.png","null","","","test","","","","","","","","","","","","","","","","","","","",""
"513.5","328053","SARL_v6","SARL_v6zo8lrh42","631f991a0a5b1611251a3ebe","freq","","","img/blue_2bandit_b2.png","68","","70","test","0","","108","","","","circle","square","104","15","5","0.057692307692307696","","","","","","","",""
"null","328357","SARL_v6","SARL_v6zo8lrh42","631f991a0a5b1611251a3ebe","freq_resp","","","img/blue_2bandit_b.png","68","img/blue_2bandit_b.png","70","test","","","","","","","","","","","5","","","","","","","","",""
"null","328533","SARL_v6","SARL_v6zo8lrh42","631f991a0a5b1611251a3ebe","fixation","","","img/fixation.png","null","","","test","","","","","","","","","","","","","","","","","","","",""
"505.40000000037253","329044","SARL_v6","SARL_v6zo8lrh42","631f991a0a5b1611251a3ebe","freq","","","img/blue_2bandit_b2.png","68","","70","test","0","","109","","","","circle","square","105","16","5","0.05714285714285714","","","","","","","",""
"null","329356","SARL_v6","SARL_v6zo8lrh42","631f991a0a5b1611251a3ebe","freq_resp","","","img/blue_2bandit_b.png","68","img/blue_2bandit_b.png","70","test","","","","","","","","","","","5","","","","","","","","",""
"null","329515","SARL_v6","SARL_v6zo8lrh42","631f991a0a5b1611251a3ebe","fixation","","","img/fixation.png","null","","","test","","","","","","","","","","","","","","","","","","","",""
"585.5","330106","SARL_v6","SARL_v6zo8lrh42","631f991a0a5b1611251a3ebe","freq","","","img/blue_2bandit_b2.png","68","","70","test","0","","110","","","","circle","square","106","17","5","0.05660377358490566","","","","","","","",""
"null","330330","SARL_v6","SARL_v6zo8lrh42","631f991a0a5b1611251a3ebe","freq_resp","","","img/blue_2bandit_b.png","68","img/blue_2bandit_b.png","70","test","","","","","","","","","","","5","","","","","","","","",""
"null","330500","SARL_v6","SARL_v6zo8lrh42","631f991a0a5b1611251a3ebe","fixation","","","img/fixation.png","null","","","test","","","","","","","","","","","","","","","","","","","",""
"572.5","331078","SARL_v6","SARL_v6zo8lrh42","631f991a0a5b1611251a3ebe","infreq","","","img/orange_2bandit_b2.png","70","","68","test","0","","111","","","","circle","square","107","18","5","0.056074766355140186","","","","","","","",""
"null","331324","SARL_v6","SARL_v6zo8lrh42","631f991a0a5b1611251a3ebe","infreq_resp","","","img/orange_2bandit_b.png","70","img/orange_2bandit_b.png","68","test","","","","","","","","","","","5","","","","","","","","",""
"null","331484","SARL_v6","SARL_v6zo8lrh42","631f991a0a5b1611251a3ebe","fixation","","","img/fixation.png","null","","","test","","","","","","","","","","","","","","","","","","","",""
"669.3999999994412","332159","SARL_v6","SARL_v6zo8lrh42","631f991a0a5b1611251a3ebe","freq","","","img/blue_2bandit_b2.png","68","","70","test","0","","112","","","","circle","square","108","19","5","0.05555555555555555","","","","","","","",""
"null","332297","SARL_v6","SARL_v6zo8lrh42","631f991a0a5b1611251a3ebe","freq_resp","","","img/blue_2bandit_b.png","68","img/blue_2bandit_b.png","70","test","","","","","","","","","","","5","","","","","","","","",""
"null","332463","SARL_v6","SARL_v6zo8lrh42","631f991a0a5b1611251a3ebe","fixation","","","img/fixation.png","null","","","test","","","","","","","","","","","","","","","","","","","",""
"530.7000000001863","332999","SARL_v6","SARL_v6zo8lrh42","631f991a0a5b1611251a3ebe","freq","","","img/blue_2bandit_b2.png","68","","70","test","0","","113","","","","circle","square","109","20","5","0.05504587155963303","","","","","","","",""
"null","333275","SARL_v6","SARL_v6zo8lrh42","631f991a0a5b1611251a3ebe","freq_resp","","","img/blue_2bandit_b.png","68","img/blue_2bandit_b.png","70","test","","","","","","","","","","","5","","","","","","","","",""
"null","333446","SARL_v6","SARL_v6zo8lrh42","631f991a0a5b1611251a3ebe","fixation","","","img/fixation.png","null","","","test","","","","","","","","","","","","","","","","","","","",""
"437","333888","SARL_v6","SARL_v6zo8lrh42","631f991a0a5b1611251a3ebe","freq","","","img/blue_2bandit_b2.png","68","","70","test","0","","114","","","","circle","square","110","21","5","0.05454545454545454","","","","","","","",""
"null","334269","SARL_v6","SARL_v6zo8lrh42","631f991a0a5b1611251a3ebe","freq_resp","","","img/blue_2bandit_b.png","68","img/blue_2bandit_b.png","70","test","","","","","","","","","","","5","","","","","","","","",""
"null","334434","SARL_v6","SARL_v6zo8lrh42","631f991a0a5b1611251a3ebe","fixation","","","img/fixation.png","null","","","test","","","","","","","","","","","","","","","","","","","",""
"329.29999999981374","334769","SARL_v6","SARL_v6zo8lrh42","631f991a0a5b1611251a3ebe","freq","","","img/blue_2bandit_b2.png","68","","70","test","0","","115","","","","circle","square","111","22","5","0.05405405405405406","","","","","","","",""
"null","335246","SARL_v6","SARL_v6zo8lrh42","631f991a0a5b1611251a3ebe","freq_resp","","","img/blue_2bandit_b.png","68","img/blue_2bandit_b.png","70","test","","","","","","","","","","","5","","","","","","","","",""
"null","335416","SARL_v6","SARL_v6zo8lrh42","631f991a0a5b1611251a3ebe","fixation","","","img/fixation.png","null","","","test","","","","","","","","","","","","","","","","","","","",""
"326.3999999994412","335748","SARL_v6","SARL_v6zo8lrh42","631f991a0a5b1611251a3ebe","freq","","","img/blue_2bandit_b2.png","68","","70","test","0","","116","","","","circle","square","112","23","5","0.05357142857142857","","","","","","","",""
"null","336240","SARL_v6","SARL_v6zo8lrh42","631f991a0a5b1611251a3ebe","freq_resp","","","img/blue_2bandit_b.png","68","img/blue_2bandit_b.png","70","test","","","","","","","","","","","5","","","","","","","","",""
"null","336415","SARL_v6","SARL_v6zo8lrh42","631f991a0a5b1611251a3ebe","fixation","","","img/fixation.png","null","","","test","","","","","","","","","","","","","","","","","","","",""
"531.5999999996275","336953","SARL_v6","SARL_v6zo8lrh42","631f991a0a5b1611251a3ebe","rl","","","img/black_2bandit_b2.png","75","","0","test","","","117","","","4","circle","square","","0","5","","75","-7","4","-7","4","square","5","0"
"null","337727","SARL_v6","SARL_v6zo8lrh42","631f991a0a5b1611251a3ebe","feedback","","","<div class=""veryhighPoints_sq""> 4 </div>","null","","na","test","","","NaN","","","","","","","","5","","75","","","","","","5",""
"543.5","338276","SARL_v6","SARL_v6zo8lrh42","631f991a0a5b1611251a3ebe","freq","","","img/blue_2bandit_b2.png","68","","70","test","0","","118","","","","circle","square","113","1","6","0.05309734513274336","","","","","","","",""
"null","338540","SARL_v6","SARL_v6zo8lrh42","631f991a0a5b1611251a3ebe","freq_resp","","","img/blue_2bandit_b.png","68","img/blue_2bandit_b.png","70","test","","","","","","","","","","","6","","","","","","","","",""
"null","338700","SARL_v6","SARL_v6zo8lrh42","631f991a0a5b1611251a3ebe","fixation","","","img/fixation.png","null","","","test","","","","","","","","","","","","","","","","","","","",""
"541.2000000001863","339247","SARL_v6","SARL_v6zo8lrh42","631f991a0a5b1611251a3ebe","freq","","","img/blue_2bandit_b2.png","68","","70","test","0","","119","","","","circle","square","114","2","6","0.05263157894736842","","","","","","","",""
"null","339520","SARL_v6","SARL_v6zo8lrh42","631f991a0a5b1611251a3ebe","freq_resp","","","img/blue_2bandit_b.png","68","img/blue_2bandit_b.png","70","test","","","","","","","","","","","6","","","","","","","","",""
"null","339683","SARL_v6","SARL_v6zo8lrh42","631f991a0a5b1611251a3ebe","fixation","","","img/fixation.png","null","","","test","","","","","","","","","","","","","","","","","","","",""
"388.1000000005588","340077","SARL_v6","SARL_v6zo8lrh42","631f991a0a5b1611251a3ebe","freq","","","img/blue_2bandit_b2.png","68","","70","test","0","","120","","","","circle","square","115","3","6","0.05217391304347826","","","","","","","",""
"null","340511","SARL_v6","SARL_v6zo8lrh42","631f991a0a5b1611251a3ebe","freq_resp","","","img/blue_2bandit_b.png","68","img/blue_2bandit_b.png","70","test","","","","","","","","","","","6","","","","","","","","",""
"null","340682","SARL_v6","SARL_v6zo8lrh42","631f991a0a5b1611251a3ebe","fixation","","","img/fixation.png","null","","","test","","","","","","","","","","","","","","","","","","","",""
"399.8999999994412","341087","SARL_v6","SARL_v6zo8lrh42","631f991a0a5b1611251a3ebe","freq","","","img/blue_2bandit_b2.png","68","","70","test","0","","121","","","","circle","square","116","4","6","0.05172413793103448","","","","","","","",""
"null","341495","SARL_v6","SARL_v6zo8lrh42","631f991a0a5b1611251a3ebe","freq_resp","","","img/blue_2bandit_b.png","68","img/blue_2bandit_b.png","70","test","","","","","","","","","","","6","","","","","","","","",""
"null","341665","SARL_v6","SARL_v6zo8lrh42","631f991a0a5b1611251a3ebe","fixation","","","img/fixation.png","null","","","test","","","","","","","","","","","","","","","","","","","",""
"null","342480","SARL_v6","SARL_v6zo8lrh42","631f991a0a5b1611251a3ebe","infreq","","","img/orange_2bandit_b2.png","null","","68","test","0","","122","","","","circle","square","117","5","6","0.05128205128205128","","","","","","","",""
"null","342650","SARL_v6","SARL_v6zo8lrh42","631f991a0a5b1611251a3ebe","fixation","","","img/fixation.png","null","","","test","","","","","","","","","","","","","","","","","","","",""
"767.7999999998137","343423","SARL_v6","SARL_v6zo8lrh42","631f991a0a5b1611251a3ebe","infreq","","","img/orange_2bandit_b2.png","70","","68","test","0","","123","","","","circle","square","118","6","6","0.05084745762711865","","","","","","","",""
"null","343469","SARL_v6","SARL_v6zo8lrh42","631f991a0a5b1611251a3ebe","infreq_resp","","","img/orange_2bandit_b.png","70","img/orange_2bandit_b.png","68","test","","","","","","","","","","","6","","","","","","","","",""
"null","343633","SARL_v6","SARL_v6zo8lrh42","631f991a0a5b1611251a3ebe","fixation","","","img/fixation.png","null","","","test","","","","","","","","","","","","","","","","","","","",""
"521.9000000003725","344160","SARL_v6","SARL_v6zo8lrh42","631f991a0a5b1611251a3ebe","freq","","","img/blue_2bandit_b2.png","68","","70","test","0","","124","","","","circle","square","119","7","6","0.05042016806722689","","","","","","","",""
"null","344457","SARL_v6","SARL_v6zo8lrh42","631f991a0a5b1611251a3ebe","freq_resp","","","img/blue_2bandit_b.png","68","img/blue_2bandit_b.png","70","test","","","","","","","","","","","6","","","","","","","","",""
"null","344632","SARL_v6","SARL_v6zo8lrh42","631f991a0a5b1611251a3ebe","fixation","","","img/fixation.png","null","","","test","","","","","","","","","","","","","","","","","","","",""
"473.70000000018626","345111","SARL_v6","SARL_v6zo8lrh42","631f991a0a5b1611251a3ebe","freq","","","img/blue_2bandit_b2.png","68","","70","test","0","","125","","","","circle","square","120","8","6","0.05","","","","","","","",""
"null","345451","SARL_v6","SARL_v6zo8lrh42","631f991a0a5b1611251a3ebe","freq_resp","","","img/blue_2bandit_b.png","68","img/blue_2bandit_b.png","70","test","","","","","","","","","","","6","","","","","","","","",""
"null","345616","SARL_v6","SARL_v6zo8lrh42","631f991a0a5b1611251a3ebe","fixation","","","img/fixation.png","null","","","test","","","","","","","","","","","","","","","","","","","",""
"501.59999999962747","346123","SARL_v6","SARL_v6zo8lrh42","631f991a0a5b1611251a3ebe","freq","","","img/blue_2bandit_b2.png","68","","70","test","0","","126","","","","circle","square","121","9","6","0.049586776859504134","","","","","","","",""
"null","346439","SARL_v6","SARL_v6zo8lrh42","631f991a0a5b1611251a3ebe","freq_resp","","","img/blue_2bandit_b.png","68","img/blue_2bandit_b.png","70","test","","","","","","","","","","","6","","","","","","","","",""
"null","346614","SARL_v6","SARL_v6zo8lrh42","631f991a0a5b1611251a3ebe","fixation","","","img/fixation.png","null","","","test","","","","","","","","","","","","","","","","","","","",""
"372.79999999981374","346992","SARL_v6","SARL_v6zo8lrh42","631f991a0a5b1611251a3ebe","freq","","","img/blue_2bandit_b2.png","68","","70","test","0","","127","","","","circle","square","122","10","6","0.04918032786885246","","","","","","","",""
"null","347429","SARL_v6","SARL_v6zo8lrh42","631f991a0a5b1611251a3ebe","freq_resp","","","img/blue_2bandit_b.png","68","img/blue_2bandit_b.png","70","test","","","","","","","","","","","6","","","","","","","","",""
"null","347599","SARL_v6","SARL_v6zo8lrh42","631f991a0a5b1611251a3ebe","fixation","","","img/fixation.png","null","","","test","","","","","","","","","","","","","","","","","","","",""
"318.29999999981374","347923","SARL_v6","SARL_v6zo8lrh42","631f991a0a5b1611251a3ebe","freq","","","img/blue_2bandit_b2.png","68","","70","test","0","","128","","","","circle","square","123","11","6","0.04878048780487805","","","","","","","",""
"null","348424","SARL_v6","SARL_v6zo8lrh42","631f991a0a5b1611251a3ebe","freq_resp","","","img/blue_2bandit_b.png","68","img/blue_2bandit_b.png","70","test","","","","","","","","","","","6","","","","","","","","",""
"null","348599","SARL_v6","SARL_v6zo8lrh42","631f991a0a5b1611251a3ebe","fixation","","","img/fixation.png","null","","","test","","","","","","","","","","","","","","","","","","","",""
"197.6000000005588","348802","SARL_v6","SARL_v6zo8lrh42","631f991a0a5b1611251a3ebe","freq","","","img/blue_2bandit_b2.png","68","","70","test","0","","129","","","","circle","square","124","12","6","0.04838709677419355","","","","","","","",""
"null","349418","SARL_v6","SARL_v6zo8lrh42","631f991a0a5b1611251a3ebe","freq_resp","","","img/blue_2bandit_b.png","68","img/blue_2bandit_b.png","70","test","","","","","","","","","","","6","","","","","","","","",""
"null","349582","SARL_v6","SARL_v6zo8lrh42","631f991a0a5b1611251a3ebe","fixation","","","img/fixation.png","null","","","test","","","","","","","","","","","","","","","","","","","",""
"305.70000000018626","349894","SARL_v6","SARL_v6zo8lrh42","631f991a0a5b1611251a3ebe","freq","","","img/blue_2bandit_b2.png","68","","70","test","0","","130","","","","circle","square","125","13","6","0.048","","","","","","","",""
"null","350406","SARL_v6","SARL_v6zo8lrh42","631f991a0a5b1611251a3ebe","freq_resp","","","img/blue_2bandit_b.png","68","img/blue_2bandit_b.png","70","test","","","","","","","","","","","6","","","","","","","","",""
"null","350566","SARL_v6","SARL_v6zo8lrh42","631f991a0a5b1611251a3ebe","fixation","","","img/fixation.png","null","","","test","","","","","","","","","","","","","","","","","","","",""
"342.6000000005588","350914","SARL_v6","SARL_v6zo8lrh42","631f991a0a5b1611251a3ebe","freq","","","img/blue_2bandit_b2.png","68","","70","test","0","","131","","","","circle","square","126","14","6","0.047619047619047616","","","","","","","",""
"null","351379","SARL_v6","SARL_v6zo8lrh42","631f991a0a5b1611251a3ebe","freq_resp","","","img/blue_2bandit_b.png","68","img/blue_2bandit_b.png","70","test","","","","","","","","","","","6","","","","","","","","",""
"null","351550","SARL_v6","SARL_v6zo8lrh42","631f991a0a5b1611251a3ebe","fixation","","","img/fixation.png","null","","","test","","","","","","","","","","","","","","","","","","","",""
"359.5","351915","SARL_v6","SARL_v6zo8lrh42","631f991a0a5b1611251a3ebe","freq","","","img/blue_2bandit_b2.png","68","","70","test","0","","132","","","","circle","square","127","15","6","0.047244094488188976","","","","","","","",""
"null","352363","SARL_v6","SARL_v6zo8lrh42","631f991a0a5b1611251a3ebe","freq_resp","","","img/blue_2bandit_b.png","68","img/blue_2bandit_b.png","70","test","","","","","","","","","","","6","","","","","","","","",""
"null","352529","SARL_v6","SARL_v6zo8lrh42","631f991a0a5b1611251a3ebe","fixation","","","img/fixation.png","null","","","test","","","","","","","","","","","","","","","","","","","",""
"382","352916","SARL_v6","SARL_v6zo8lrh42","631f991a0a5b1611251a3ebe","freq","","","img/blue_2bandit_b2.png","68","","70","test","0","","133","","","","circle","square","128","16","6","0.046875","","","","","","","",""
"null","353347","SARL_v6","SARL_v6zo8lrh42","631f991a0a5b1611251a3ebe","freq_resp","","","img/blue_2bandit_b.png","68","img/blue_2bandit_b.png","70","test","","","","","","","","","","","6","","","","","","","","",""
"null","353513","SARL_v6","SARL_v6zo8lrh42","631f991a0a5b1611251a3ebe","fixation","","","img/fixation.png","null","","","test","","","","","","","","","","","","","","","","","","","",""
"346.70000000018626","353865","SARL_v6","SARL_v6zo8lrh42","631f991a0a5b1611251a3ebe","freq","","","img/blue_2bandit_b2.png","68","","70","test","0","","134","","","","circle","square","129","17","6","0.046511627906976744","","","","","","","",""
