"rt","time_elapsed","expId","subject","prolificID","trialType","rlType","attType","stimulus","key_press","stim","corrresp","phase","corr","pracCounter","trialNum","rewardOne","rewardTwo","reward","bandOne","bandTwo","attentionNum","attentionRunNum","blockNum","performance","bandChosen","circleVal","squareVal","bandOneVal","bandTwoVal","shapeChosen","rlNum","badFlag"
"9126.5","9129","SARL_v6","SARL_v6om6kpyc4","5dee72917309b950e5262f3a","","","","","","","","","","","","","","","","","","","","","","","","","","","",""
"","11469","SARL_v6","SARL_v6om6kpyc4","5dee72917309b950e5262f3a","fullscreen","fullscreen","fullscreen","","","","","","","","","","","","","","","","","","","","","","","","",""
"74683.39999985695","86156","SARL_v6","SARL_v6om6kpyc4","5dee72917309b950e5262f3a","","","","","","","","","","","","","","","","","","","","","","","","","","","",""
"null","86963","SARL_v6","SARL_v6om6kpyc4","5dee72917309b950e5262f3a","freqPrac","","","img/blue_2bandit_b2.png","null","img/blue_2bandit_b2.png","70","prac","0","1","","","","","","","","","","","","","","","","","",""
"null","87968","SARL_v6","SARL_v6om6kpyc4","5dee72917309b950e5262f3a","feedback","","","img/tooSlow.png","null","","na","prac","","","","","","","","","","","","","","","","","","","",""
"null","88124","SARL_v6","SARL_v6om6kpyc4","5dee72917309b950e5262f3a","fixation","","","img/fixation.png","null","","","prac","","","","","","","","","","","","","","","","","","","",""
"538.9000000953674","88668","SARL_v6","SARL_v6om6kpyc4","5dee72917309b950e5262f3a","infreqPrac","","","img/orange_2bandit_b2.png","68","img/orange_2bandit_b2.png","68","prac","1","1","","","","","","","","","","","","","","","","","",""
"538.9000000953674","88937","SARL_v6","SARL_v6om6kpyc4","5dee72917309b950e5262f3a","infreqPrac_resp","","","img/orange_2bandit_b.png","68","img/orange_2bandit_b.png","68","prac","","","","","","","","","","","","","","","","","","","",""
"null","89107","SARL_v6","SARL_v6om6kpyc4","5dee72917309b950e5262f3a","fixation","","","img/fixation.png","null","","","prac","","","","","","","","","","","","","","","","","","","",""
"492.10000014305115","89602","SARL_v6","SARL_v6om6kpyc4","5dee72917309b950e5262f3a","freqPrac","","","img/blue_2bandit_b2.png","70","img/blue_2bandit_b2.png","70","prac","1","1","","","","","","","","","","","","","","","","","",""
"492.10000014305115","89913","SARL_v6","SARL_v6om6kpyc4","5dee72917309b950e5262f3a","freqPrac_resp","","","img/blue_2bandit_b.png","70","img/blue_2bandit_b.png","70","prac","","","","","","","","","","","","","","","","","","","",""
"null","90070","SARL_v6","SARL_v6om6kpyc4","5dee72917309b950e5262f3a","fixation","","","img/fixation.png","null","","","prac","","","","","","","","","","","","","","","","","","","",""
"491.10000014305115","90564","SARL_v6","SARL_v6om6kpyc4","5dee72917309b950e5262f3a","infreqPrac","","","img/orange_2bandit_b2.png","68","img/orange_2bandit_b2.png","68","prac","1","1","","","","","","","","","","","","","","","","","",""
"491.10000014305115","90888","SARL_v6","SARL_v6om6kpyc4","5dee72917309b950e5262f3a","infreqPrac_resp","","","img/orange_2bandit_b.png","68","img/orange_2bandit_b.png","68","prac","","","","","","","","","","","","","","","","","","","",""
"null","91044","SARL_v6","SARL_v6om6kpyc4","5dee72917309b950e5262f3a","fixation","","","img/fixation.png","null","","","prac","","","","","","","","","","","","","","","","","","","",""
"413","91461","SARL_v6","SARL_v6om6kpyc4","5dee72917309b950e5262f3a","infreqPrac","","","img/orange_2bandit_b2.png","68","img/orange_2bandit_b2.png","68","prac","1","1","","","","","","","","","","","","","","","","","",""
"413","91867","SARL_v6","SARL_v6om6kpyc4","5dee72917309b950e5262f3a","infreqPrac_resp","","","img/orange_2bandit_b.png","68","img/orange_2bandit_b.png","68","prac","","","","","","","","","","","","","","","","","","","",""
"null","92034","SARL_v6","SARL_v6om6kpyc4","5dee72917309b950e5262f3a","fixation","","","img/fixation.png","null","","","prac","","","","","","","","","","","","","","","","","","","",""
"395.40000009536743","92434","SARL_v6","SARL_v6om6kpyc4","5dee72917309b950e5262f3a","infreqPrac","","","img/orange_2bandit_b2.png","68","img/orange_2bandit_b2.png","68","prac","1","1","","","","","","","","","","","","","","","","","",""
"395.40000009536743","92846","SARL_v6","SARL_v6om6kpyc4","5dee72917309b950e5262f3a","infreqPrac_resp","","","img/orange_2bandit_b.png","68","img/orange_2bandit_b.png","68","prac","","","","","","","","","","","","","","","","","","","",""
"null","93001","SARL_v6","SARL_v6om6kpyc4","5dee72917309b950e5262f3a","fixation","","","img/fixation.png","null","","","prac","","","","","","","","","","","","","","","","","","","",""
"449.2000000476837","93454","SARL_v6","SARL_v6om6kpyc4","5dee72917309b950e5262f3a","freqPrac","","","img/blue_2bandit_b2.png","70","img/blue_2bandit_b2.png","70","prac","1","1","","","","","","","","","","","","","","","","","",""
"449.2000000476837","93812","SARL_v6","SARL_v6om6kpyc4","5dee72917309b950e5262f3a","freqPrac_resp","","","img/blue_2bandit_b.png","70","img/blue_2bandit_b.png","70","prac","","","","","","","","","","","","","","","","","","","",""
"null","93976","SARL_v6","SARL_v6om6kpyc4","5dee72917309b950e5262f3a","fixation","","","img/fixation.png","null","","","prac","","","","","","","","","","","","","","","","","","","",""
"379.90000009536743","94359","SARL_v6","SARL_v6om6kpyc4","5dee72917309b950e5262f3a","infreqPrac","","","img/orange_2bandit_b2.png","68","img/orange_2bandit_b2.png","68","prac","1","1","","","","","","","","","","","","","","","","","",""
"379.90000009536743","94794","SARL_v6","SARL_v6om6kpyc4","5dee72917309b950e5262f3a","infreqPrac_resp","","","img/orange_2bandit_b.png","68","img/orange_2bandit_b.png","68","prac","","","","","","","","","","","","","","","","","","","",""
"null","94953","SARL_v6","SARL_v6om6kpyc4","5dee72917309b950e5262f3a","fixation","","","img/fixation.png","null","","","prac","","","","","","","","","","","","","","","","","","","",""
"339.90000009536743","95297","SARL_v6","SARL_v6om6kpyc4","5dee72917309b950e5262f3a","freqPrac","","","img/blue_2bandit_b2.png","70","img/blue_2bandit_b2.png","70","prac","1","1","","","","","","","","","","","","","","","","","",""
"339.90000009536743","95770","SARL_v6","SARL_v6om6kpyc4","5dee72917309b950e5262f3a","freqPrac_resp","","","img/blue_2bandit_b.png","70","img/blue_2bandit_b.png","70","prac","","","","","","","","","","","","","","","","","","","",""
"null","95933","SARL_v6","SARL_v6om6kpyc4","5dee72917309b950e5262f3a","fixation","","","img/fixation.png","null","","","prac","","","","","","","","","","","","","","","","","","","",""
"400.10000014305115","96338","SARL_v6","SARL_v6om6kpyc4","5dee72917309b950e5262f3a","freqPrac","","","img/blue_2bandit_b2.png","70","img/blue_2bandit_b2.png","70","prac","1","1","","","","","","","","","","","","","","","","","",""
"400.10000014305115","96752","SARL_v6","SARL_v6om6kpyc4","5dee72917309b950e5262f3a","freqPrac_resp","","","img/blue_2bandit_b.png","70","img/blue_2bandit_b.png","70","prac","","","","","","","","","","","","","","","","","","","",""
"null","96909","SARL_v6","SARL_v6om6kpyc4","5dee72917309b950e5262f3a","fixation","","","img/fixation.png","null","","","prac","","","","","","","","","","","","","","","","","","","",""
"32837.90000009537","129750","SARL_v6","SARL_v6om6kpyc4","5dee72917309b950e5262f3a","","","","","","","","prac","","","","","","","","","","","","","","","","","","","",""
"642","130398","SARL_v6","SARL_v6om6kpyc4","5dee72917309b950e5262f3a","rlPractice","","","img/black_2bandit_b2.png","75","img/black_2bandit_b2.png","","prac","","","0","","","","","","","","","","","","","","","","",""
"null","131162","SARL_v6","SARL_v6om6kpyc4","5dee72917309b950e5262f3a","feedback","","","<div class=""verylowPoints_sq""> -14 </div>","null","","na","prac","","","1","10","-14","10","","","","","","","","","","","","","",""
"null","131318","SARL_v6","SARL_v6om6kpyc4","5dee72917309b950e5262f3a","fixation","","","img/fixation.png","null","","","prac","","","","","","","","","","","","","","","","","","","",""
"724.7999999523163","132047","SARL_v6","SARL_v6om6kpyc4","5dee72917309b950e5262f3a","rlPractice","","","img/black_2bandit_b2.png","74","img/black_2bandit_b2.png","","prac","","","1","","","","","","","","","","","","","","","","",""
"null","132816","SARL_v6","SARL_v6om6kpyc4","5dee72917309b950e5262f3a","feedback","","","<div class=""veryhighPoints""> 5 </div>","null","","na","prac","","","2","5","-5","5","","","","","","","","","","","","","",""
"null","132972","SARL_v6","SARL_v6om6kpyc4","5dee72917309b950e5262f3a","fixation","","","img/fixation.png","null","","","prac","","","","","","","","","","","","","","","","","","","",""
"445.7000000476837","133422","SARL_v6","SARL_v6om6kpyc4","5dee72917309b950e5262f3a","rlPractice","","","img/black_2bandit_b2.png","74","img/black_2bandit_b2.png","","prac","","","2","","","","","","","","","","","","","","","","",""
"null","134192","SARL_v6","SARL_v6om6kpyc4","5dee72917309b950e5262f3a","feedback","","","<div class=""veryhighPoints""> 30 </div>","null","","na","prac","","","3","30","2","30","","","","","","","","","","","","","",""
"null","134349","SARL_v6","SARL_v6om6kpyc4","5dee72917309b950e5262f3a","fixation","","","img/fixation.png","null","","","prac","","","","","","","","","","","","","","","","","","","",""
"428.7999999523163","134782","SARL_v6","SARL_v6om6kpyc4","5dee72917309b950e5262f3a","rlPractice","","","img/black_2bandit_b2.png","74","img/black_2bandit_b2.png","","prac","","","3","","","","","","","","","","","","","","","","",""
"null","135542","SARL_v6","SARL_v6om6kpyc4","5dee72917309b950e5262f3a","feedback","","","<div class=""verylowPoints""> -2 </div>","null","","na","prac","","","4","-2","20","-2","","","","","","","","","","","","","",""
"null","135701","SARL_v6","SARL_v6om6kpyc4","5dee72917309b950e5262f3a","fixation","","","img/fixation.png","null","","","prac","","","","","","","","","","","","","","","","","","","",""
"16266.599999904633","151969","SARL_v6","SARL_v6om6kpyc4","5dee72917309b950e5262f3a","","","","","","","","prac","","","","","","","","","","","","","","","","","","","",""
"null","152790","SARL_v6","SARL_v6om6kpyc4","5dee72917309b950e5262f3a","mixAttFreqPrac","","","img/blue_2bandit_b2.png","null","img/blue_2bandit_b2.png","70","prac","","","1","","","","","","","","","","","","","","","","",""
"null","152944","SARL_v6","SARL_v6om6kpyc4","5dee72917309b950e5262f3a","fixation","","","img/fixation.png","null","","","prac","","","","","","","","","","","","","","","","","","","",""
"58.80000019073486","153008","SARL_v6","SARL_v6om6kpyc4","5dee72917309b950e5262f3a","mixAttInfreqPrac","","","img/orange_2bandit_b2.png","70","img/orange_2bandit_b2.png","68","prac","","","2","","","","","","","","","","","","","","","","",""
"58.80000019073486","153753","SARL_v6","SARL_v6om6kpyc4","5dee72917309b950e5262f3a","infreqPrac_resp","","","img/orange_2bandit_b.png","70","img/blue_2bandit_b.png","68","prac","","","2","","","","","","","","","","","","","","","","",""
"null","153909","SARL_v6","SARL_v6om6kpyc4","5dee72917309b950e5262f3a","fixation","","","img/fixation.png","null","","","prac","","","","","","","","","","","","","","","","","","","",""
"585.0999999046326","154499","SARL_v6","SARL_v6om6kpyc4","5dee72917309b950e5262f3a","mixAttInfreqPrac","","","img/orange_2bandit_b2.png","68","img/orange_2bandit_b2.png","68","prac","","","3","","","","","","","","","","","","","","","","",""
"585.0999999046326","154726","SARL_v6","SARL_v6om6kpyc4","5dee72917309b950e5262f3a","infreqPrac_resp","","","img/orange_2bandit_b.png","68","img/blue_2bandit_b.png","68","prac","","","3","","","","","","","","","","","","","","","","",""
"null","154883","SARL_v6","SARL_v6om6kpyc4","5dee72917309b950e5262f3a","fixation","","","img/fixation.png","null","","","prac","","","","","","","","","","","","","","","","","","","",""
"399.30000019073486","155287","SARL_v6","SARL_v6om6kpyc4","5dee72917309b950e5262f3a","mixAttInfreqPrac","","","img/orange_2bandit_b2.png","68","img/orange_2bandit_b2.png","68","prac","","","4","","","","","","","","","","","","","","","","",""
"399.30000019073486","155691","SARL_v6","SARL_v6om6kpyc4","5dee72917309b950e5262f3a","infreqPrac_resp","","","img/orange_2bandit_b.png","68","img/blue_2bandit_b.png","68","prac","","","4","","","","","","","","","","","","","","","","",""
"null","155848","SARL_v6","SARL_v6om6kpyc4","5dee72917309b950e5262f3a","fixation","","","img/fixation.png","null","","","prac","","","","","","","","","","","","","","","","","","","",""
"364.5","156217","SARL_v6","SARL_v6om6kpyc4","5dee72917309b950e5262f3a","mixAttFreqPrac","","","img/blue_2bandit_b2.png","70","img/blue_2bandit_b2.png","70","prac","","","5","","","","","","","","","","","","","","","","",""
"364.5","156669","SARL_v6","SARL_v6om6kpyc4","5dee72917309b950e5262f3a","freqPrac_resp","","","img/blue_2bandit_b.png","70","img/blue_2bandit_b.png","70","prac","","","5","","","","","","","","","","","","","","","","",""
"null","156822","SARL_v6","SARL_v6om6kpyc4","5dee72917309b950e5262f3a","fixation","","","img/fixation.png","null","","","prac","","","","","","","","","","","","","","","","","","","",""
"558.1999998092651","157383","SARL_v6","SARL_v6om6kpyc4","5dee72917309b950e5262f3a","mixRLPractice","","","img/black_2bandit_b2.png","75","img/black_2bandit_b2.png","","prac","","","5","","","","","","","","","","","","","","","","",""
"null","158149","SARL_v6","SARL_v6om6kpyc4","5dee72917309b950e5262f3a","feedback","","","<div class=""veryhighPoints_sq""> 10 </div>","null","","na","prac","","","6","-14","10","-14","","","","","","","","","","","","","",""
"null","158305","SARL_v6","SARL_v6om6kpyc4","5dee72917309b950e5262f3a","fixation","","","img/fixation.png","null","","","prac","","","","","","","","","","","","","","","","","","","",""
"637.2999999523163","158947","SARL_v6","SARL_v6om6kpyc4","5dee72917309b950e5262f3a","mixAttFreqPrac","","","img/blue_2bandit_b2.png","68","img/blue_2bandit_b2.png","70","prac","","","7","","","","","","","","","","","","","","","","",""
"637.2999999523163","159123","SARL_v6","SARL_v6om6kpyc4","5dee72917309b950e5262f3a","freqPrac_resp","","","img/blue_2bandit_b.png","68","img/blue_2bandit_b.png","70","prac","","","7","","","","","","","","","","","","","","","","",""
"null","159279","SARL_v6","SARL_v6om6kpyc4","5dee72917309b950e5262f3a","fixation","","","img/fixation.png","null","","","prac","","","","","","","","","","","","","","","","","","","",""
"null","160094","SARL_v6","SARL_v6om6kpyc4","5dee72917309b950e5262f3a","mixAttInfreqPrac","","","img/orange_2bandit_b2.png","null","img/orange_2bandit_b2.png","68","prac","","","8","","","","","","","","","","","","","","","","",""
"149.70000004768372","160247","SARL_v6","SARL_v6om6kpyc4","5dee72917309b950e5262f3a","fixation","","","img/fixation.png","68","","","prac","","","","","","","","","","","","","","","","","","","",""
"null","161063","SARL_v6","SARL_v6om6kpyc4","5dee72917309b950e5262f3a","mixAttFreqPrac","","","img/blue_2bandit_b2.png","null","img/blue_2bandit_b2.png","70","prac","","","9","","","","","","","","","","","","","","","","",""
"null","161217","SARL_v6","SARL_v6om6kpyc4","5dee72917309b950e5262f3a","fixation","","","img/fixation.png","null","","","prac","","","","","","","","","","","","","","","","","","","",""
"42.5","161264","SARL_v6","SARL_v6om6kpyc4","5dee72917309b950e5262f3a","mixAttFreqPrac","","","img/blue_2bandit_b2.png","70","img/blue_2bandit_b2.png","70","prac","","","10","","","","","","","","","","","","","","","","",""
"42.5","162037","SARL_v6","SARL_v6om6kpyc4","5dee72917309b950e5262f3a","freqPrac_resp","","","img/blue_2bandit_b.png","70","img/blue_2bandit_b.png","70","prac","","","10","","","","","","","","","","","","","","","","",""
"null","162192","SARL_v6","SARL_v6om6kpyc4","5dee72917309b950e5262f3a","fixation","","","img/fixation.png","null","","","prac","","","","","","","","","","","","","","","","","","","",""
"375.90000009536743","162572","SARL_v6","SARL_v6om6kpyc4","5dee72917309b950e5262f3a","mixAttInfreqPrac","","","img/orange_2bandit_b2.png","68","img/orange_2bandit_b2.png","68","prac","","","11","","","","","","","","","","","","","","","","",""
"375.90000009536743","163011","SARL_v6","SARL_v6om6kpyc4","5dee72917309b950e5262f3a","infreqPrac_resp","","","img/orange_2bandit_b.png","68","img/blue_2bandit_b.png","68","prac","","","11","","","","","","","","","","","","","","","","",""
"null","163168","SARL_v6","SARL_v6om6kpyc4","5dee72917309b950e5262f3a","fixation","","","img/fixation.png","null","","","prac","","","","","","","","","","","","","","","","","","","",""
"547.7999999523163","163719","SARL_v6","SARL_v6om6kpyc4","5dee72917309b950e5262f3a","mixRLPractice","","","img/black_2bandit_b2.png","75","img/black_2bandit_b2.png","","prac","","","11","","","","","","","","","","","","","","","","",""
"null","164484","SARL_v6","SARL_v6om6kpyc4","5dee72917309b950e5262f3a","feedback","","","<div class=""verylowPoints_sq""> -5 </div>","null","","na","prac","","","12","5","-5","5","","","","","","","","","","","","","",""
"null","164639","SARL_v6","SARL_v6om6kpyc4","5dee72917309b950e5262f3a","fixation","","","img/fixation.png","null","","","prac","","","","","","","","","","","","","","","","","","","",""
"35462.799999952316","200105","SARL_v6","SARL_v6om6kpyc4","5dee72917309b950e5262f3a","","","","","","","","prac","","","","","","","","","","","","","","","","","","","",""
"493.59999990463257","200604","SARL_v6","SARL_v6om6kpyc4","5dee72917309b950e5262f3a","freq","","","img/blue_2bandit_b2.png","70","","70","test","1","","1","","","","circle","square","1","1","1","1","","","","","","","",""
"null","200919","SARL_v6","SARL_v6om6kpyc4","5dee72917309b950e5262f3a","freq_resp","","","img/blue_2bandit_b.png","70","img/blue_2bandit_b.png","70","test","","","","","","","","","","","1","","","","","","","","",""
"null","201074","SARL_v6","SARL_v6om6kpyc4","5dee72917309b950e5262f3a","fixation","","","img/fixation.png","null","","","test","","","","","","","","","","","","","","","","","","","",""
"399.90000009536743","201480","SARL_v6","SARL_v6om6kpyc4","5dee72917309b950e5262f3a","freq","","","img/blue_2bandit_b2.png","70","","70","test","1","","2","","","","circle","square","2","2","1","1","","","","","","","",""
"null","201898","SARL_v6","SARL_v6om6kpyc4","5dee72917309b950e5262f3a","freq_resp","","","img/blue_2bandit_b.png","70","img/blue_2bandit_b.png","70","test","","","","","","","","","","","1","","","","","","","","",""
"null","202055","SARL_v6","SARL_v6om6kpyc4","5dee72917309b950e5262f3a","fixation","","","img/fixation.png","null","","","test","","","","","","","","","","","","","","","","","","","",""
"543.0999999046326","202604","SARL_v6","SARL_v6om6kpyc4","5dee72917309b950e5262f3a","freq","","","img/blue_2bandit_b2.png","70","","70","test","1","","3","","","","circle","square","3","3","1","1","","","","","","","",""
"null","202871","SARL_v6","SARL_v6om6kpyc4","5dee72917309b950e5262f3a","freq_resp","","","img/blue_2bandit_b.png","70","img/blue_2bandit_b.png","70","test","","","","","","","","","","","1","","","","","","","","",""
"null","203027","SARL_v6","SARL_v6om6kpyc4","5dee72917309b950e5262f3a","fixation","","","img/fixation.png","null","","","test","","","","","","","","","","","","","","","","","","","",""
"382.19999980926514","203413","SARL_v6","SARL_v6om6kpyc4","5dee72917309b950e5262f3a","freq","","","img/blue_2bandit_b2.png","70","","70","test","1","","4","","","","circle","square","4","4","1","1","","","","","","","",""
"null","203842","SARL_v6","SARL_v6om6kpyc4","5dee72917309b950e5262f3a","freq_resp","","","img/blue_2bandit_b.png","70","img/blue_2bandit_b.png","70","test","","","","","","","","","","","1","","","","","","","","",""
"null","204000","SARL_v6","SARL_v6om6kpyc4","5dee72917309b950e5262f3a","fixation","","","img/fixation.png","null","","","test","","","","","","","","","","","","","","","","","","","",""
"354.5","204357","SARL_v6","SARL_v6om6kpyc4","5dee72917309b950e5262f3a","freq","","","img/blue_2bandit_b2.png","70","","70","test","1","","5","","","","circle","square","5","5","1","1","","","","","","","",""
"null","204816","SARL_v6","SARL_v6om6kpyc4","5dee72917309b950e5262f3a","freq_resp","","","img/blue_2bandit_b.png","70","img/blue_2bandit_b.png","70","test","","","","","","","","","","","1","","","","","","","","",""
"null","204974","SARL_v6","SARL_v6om6kpyc4","5dee72917309b950e5262f3a","fixation","","","img/fixation.png","null","","","test","","","","","","","","","","","","","","","","","","","",""
"369.10000014305115","205346","SARL_v6","SARL_v6om6kpyc4","5dee72917309b950e5262f3a","freq","","","img/blue_2bandit_b2.png","70","","70","test","1","","6","","","","circle","square","6","6","1","1","","","","","","","",""
"null","205792","SARL_v6","SARL_v6om6kpyc4","5dee72917309b950e5262f3a","freq_resp","","","img/blue_2bandit_b.png","70","img/blue_2bandit_b.png","70","test","","","","","","","","","","","1","","","","","","","","",""
"null","205953","SARL_v6","SARL_v6om6kpyc4","5dee72917309b950e5262f3a","fixation","","","img/fixation.png","null","","","test","","","","","","","","","","","","","","","","","","","",""
"356.7999999523163","206314","SARL_v6","SARL_v6om6kpyc4","5dee72917309b950e5262f3a","freq","","","img/blue_2bandit_b2.png","70","","70","test","1","","7","","","","circle","square","7","7","1","1","","","","","","","",""
"null","206773","SARL_v6","SARL_v6om6kpyc4","5dee72917309b950e5262f3a","freq_resp","","","img/blue_2bandit_b.png","70","img/blue_2bandit_b.png","70","test","","","","","","","","","","","1","","","","","","","","",""
"null","206929","SARL_v6","SARL_v6om6kpyc4","5dee72917309b950e5262f3a","fixation","","","img/fixation.png","null","","","test","","","","","","","","","","","","","","","","","","","",""
"365.30000019073486","207298","SARL_v6","SARL_v6om6kpyc4","5dee72917309b950e5262f3a","infreq","","","img/orange_2bandit_b2.png","68","","68","test","1","","8","","","","circle","square","8","8","1","1","","","","","","","",""
"null","207745","SARL_v6","SARL_v6om6kpyc4","5dee72917309b950e5262f3a","infreq_resp","","","img/orange_2bandit_b.png","68","img/orange_2bandit_b.png","68","test","","","","","","","","","","","1","","","","","","","","",""
"null","207908","SARL_v6","SARL_v6om6kpyc4","5dee72917309b950e5262f3a","fixation","","","img/fixation.png","null","","","test","","","","","","","","","","","","","","","","","","","",""
"356.2999999523163","208269","SARL_v6","SARL_v6om6kpyc4","5dee72917309b950e5262f3a","freq","","","img/blue_2bandit_b2.png","70","","70","test","1","","9","","","","circle","square","9","9","1","1","","","","","","","",""
"null","208732","SARL_v6","SARL_v6om6kpyc4","5dee72917309b950e5262f3a","freq_resp","","","img/blue_2bandit_b.png","70","img/blue_2bandit_b.png","70","test","","","","","","","","","","","1","","","","","","","","",""
"null","208888","SARL_v6","SARL_v6om6kpyc4","5dee72917309b950e5262f3a","fixation","","","img/fixation.png","null","","","test","","","","","","","","","","","","","","","","","","","",""
"343.10000014305115","209235","SARL_v6","SARL_v6om6kpyc4","5dee72917309b950e5262f3a","freq","","","img/blue_2bandit_b2.png","70","","70","test","1","","10","","","","circle","square","10","10","1","1","","","","","","","",""
"null","209696","SARL_v6","SARL_v6om6kpyc4","5dee72917309b950e5262f3a","freq_resp","","","img/blue_2bandit_b.png","70","img/blue_2bandit_b.png","70","test","","","","","","","","","","","1","","","","","","","","",""
"null","209852","SARL_v6","SARL_v6om6kpyc4","5dee72917309b950e5262f3a","fixation","","","img/fixation.png","null","","","test","","","","","","","","","","","","","","","","","","","",""
"357.09999990463257","210212","SARL_v6","SARL_v6om6kpyc4","5dee72917309b950e5262f3a","freq","","","img/blue_2bandit_b2.png","70","","70","test","1","","11","","","","circle","square","11","11","1","1","","","","","","","",""
"null","210665","SARL_v6","SARL_v6om6kpyc4","5dee72917309b950e5262f3a","freq_resp","","","img/blue_2bandit_b.png","70","img/blue_2bandit_b.png","70","test","","","","","","","","","","","1","","","","","","","","",""
"null","210822","SARL_v6","SARL_v6om6kpyc4","5dee72917309b950e5262f3a","fixation","","","img/fixation.png","null","","","test","","","","","","","","","","","","","","","","","","","",""
"365.7999999523163","211192","SARL_v6","SARL_v6om6kpyc4","5dee72917309b950e5262f3a","freq","","","img/blue_2bandit_b2.png","70","","70","test","1","","12","","","","circle","square","12","12","1","1","","","","","","","",""
"null","211644","SARL_v6","SARL_v6om6kpyc4","5dee72917309b950e5262f3a","freq_resp","","","img/blue_2bandit_b.png","70","img/blue_2bandit_b.png","70","test","","","","","","","","","","","1","","","","","","","","",""
"null","211801","SARL_v6","SARL_v6om6kpyc4","5dee72917309b950e5262f3a","fixation","","","img/fixation.png","null","","","test","","","","","","","","","","","","","","","","","","","",""
"334.09999990463257","212140","SARL_v6","SARL_v6om6kpyc4","5dee72917309b950e5262f3a","freq","","","img/blue_2bandit_b2.png","70","","70","test","1","","13","","","","circle","square","13","13","1","1","","","","","","","",""
"null","212619","SARL_v6","SARL_v6om6kpyc4","5dee72917309b950e5262f3a","freq_resp","","","img/blue_2bandit_b.png","70","img/blue_2bandit_b.png","70","test","","","","","","","","","","","1","","","","","","","","",""
"null","212777","SARL_v6","SARL_v6om6kpyc4","5dee72917309b950e5262f3a","fixation","","","img/fixation.png","null","","","test","","","","","","","","","","","","","","","","","","","",""
"312.7999999523163","213094","SARL_v6","SARL_v6om6kpyc4","5dee72917309b950e5262f3a","freq","","","img/blue_2bandit_b2.png","70","","70","test","1","","14","","","","circle","square","14","14","1","1","","","","","","","",""
"null","213594","SARL_v6","SARL_v6om6kpyc4","5dee72917309b950e5262f3a","freq_resp","","","img/blue_2bandit_b.png","70","img/blue_2bandit_b.png","70","test","","","","","","","","","","","1","","","","","","","","",""
"null","213762","SARL_v6","SARL_v6om6kpyc4","5dee72917309b950e5262f3a","fixation","","","img/fixation.png","null","","","test","","","","","","","","","","","","","","","","","","","",""
"399.90000009536743","214166","SARL_v6","SARL_v6om6kpyc4","5dee72917309b950e5262f3a","infreq","","","img/orange_2bandit_b2.png","68","","68","test","1","","15","","","","circle","square","15","15","1","1","","","","","","","",""
"null","214583","SARL_v6","SARL_v6om6kpyc4","5dee72917309b950e5262f3a","infreq_resp","","","img/orange_2bandit_b.png","68","img/orange_2bandit_b.png","68","test","","","","","","","","","","","1","","","","","","","","",""
"null","214742","SARL_v6","SARL_v6om6kpyc4","5dee72917309b950e5262f3a","fixation","","","img/fixation.png","null","","","test","","","","","","","","","","","","","","","","","","","",""
"433.7000000476837","215180","SARL_v6","SARL_v6om6kpyc4","5dee72917309b950e5262f3a","freq","","","img/blue_2bandit_b2.png","68","","70","test","0","","16","","","","circle","square","16","16","1","0.9375","","","","","","","",""
"null","215558","SARL_v6","SARL_v6om6kpyc4","5dee72917309b950e5262f3a","freq_resp","","","img/blue_2bandit_b.png","68","img/blue_2bandit_b.png","70","test","","","","","","","","","","","1","","","","","","","","",""
"null","215721","SARL_v6","SARL_v6om6kpyc4","5dee72917309b950e5262f3a","fixation","","","img/fixation.png","null","","","test","","","","","","","","","","","","","","","","","","","",""
"427.5","216152","SARL_v6","SARL_v6om6kpyc4","5dee72917309b950e5262f3a","freq","","","img/blue_2bandit_b2.png","70","","70","test","1","","17","","","","circle","square","17","17","1","0.9411764705882353","","","","","","","",""
"null","216545","SARL_v6","SARL_v6om6kpyc4","5dee72917309b950e5262f3a","freq_resp","","","img/blue_2bandit_b.png","70","img/blue_2bandit_b.png","70","test","","","","","","","","","","","1","","","","","","","","",""
"null","216715","SARL_v6","SARL_v6om6kpyc4","5dee72917309b950e5262f3a","fixation","","","img/fixation.png","null","","","test","","","","","","","","","","","","","","","","","","","",""
"417","217137","SARL_v6","SARL_v6om6kpyc4","5dee72917309b950e5262f3a","freq","","","img/blue_2bandit_b2.png","70","","70","test","1","","18","","","","circle","square","18","18","1","0.9444444444444444","","","","","","","",""
"null","217530","SARL_v6","SARL_v6om6kpyc4","5dee72917309b950e5262f3a","freq_resp","","","img/blue_2bandit_b.png","70","img/blue_2bandit_b.png","70","test","","","","","","","","","","","1","","","","","","","","",""
"null","217684","SARL_v6","SARL_v6om6kpyc4","5dee72917309b950e5262f3a","fixation","","","img/fixation.png","null","","","test","","","","","","","","","","","","","","","","","","","",""
"391.80000019073486","218080","SARL_v6","SARL_v6om6kpyc4","5dee72917309b950e5262f3a","freq","","","img/blue_2bandit_b2.png","70","","70","test","1","","19","","","","circle","square","19","19","1","0.9473684210526315","","","","","","","",""
"null","218498","SARL_v6","SARL_v6om6kpyc4","5dee72917309b950e5262f3a","freq_resp","","","img/blue_2bandit_b.png","70","img/blue_2bandit_b.png","70","test","","","","","","","","","","","1","","","","","","","","",""
"null","218654","SARL_v6","SARL_v6om6kpyc4","5dee72917309b950e5262f3a","fixation","","","img/fixation.png","null","","","test","","","","","","","","","","","","","","","","","","","",""
"351.2000000476837","219010","SARL_v6","SARL_v6om6kpyc4","5dee72917309b950e5262f3a","freq","","","img/blue_2bandit_b2.png","70","","70","test","1","","20","","","","circle","square","20","20","1","0.95","","","","","","","",""
"null","219475","SARL_v6","SARL_v6om6kpyc4","5dee72917309b950e5262f3a","freq_resp","","","img/blue_2bandit_b.png","70","img/blue_2bandit_b.png","70","test","","","","","","","","","","","1","","","","","","","","",""
"null","219630","SARL_v6","SARL_v6om6kpyc4","5dee72917309b950e5262f3a","fixation","","","img/fixation.png","null","","","test","","","","","","","","","","","","","","","","","","","",""
"355.10000014305115","219989","SARL_v6","SARL_v6om6kpyc4","5dee72917309b950e5262f3a","freq","","","img/blue_2bandit_b2.png","70","","70","test","1","","21","","","","circle","square","21","21","1","0.9523809523809523","","","","","","","",""
"null","220444","SARL_v6","SARL_v6om6kpyc4","5dee72917309b950e5262f3a","freq_resp","","","img/blue_2bandit_b.png","70","img/blue_2bandit_b.png","70","test","","","","","","","","","","","1","","","","","","","","",""
"null","220602","SARL_v6","SARL_v6om6kpyc4","5dee72917309b950e5262f3a","fixation","","","img/fixation.png","null","","","test","","","","","","","","","","","","","","","","","","","",""
"372.5","220979","SARL_v6","SARL_v6om6kpyc4","5dee72917309b950e5262f3a","freq","","","img/blue_2bandit_b2.png","70","","70","test","1","","22","","","","circle","square","22","22","1","0.9545454545454546","","","","","","","",""
"null","221438","SARL_v6","SARL_v6om6kpyc4","5dee72917309b950e5262f3a","freq_resp","","","img/blue_2bandit_b.png","70","img/blue_2bandit_b.png","70","test","","","","","","","","","","","1","","","","","","","","",""
"null","221594","SARL_v6","SARL_v6om6kpyc4","5dee72917309b950e5262f3a","fixation","","","img/fixation.png","null","","","test","","","","","","","","","","","","","","","","","","","",""
"353.2000000476837","221951","SARL_v6","SARL_v6om6kpyc4","5dee72917309b950e5262f3a","rl","","","img/black_2bandit_b2.png","75","","0","test","","","23","","","-3","circle","square","","0","1","","75","-3","-3","-3","-3","square","1","0"
"null","222715","SARL_v6","SARL_v6om6kpyc4","5dee72917309b950e5262f3a","feedback","","","<div class=""verylowPoints_sq""> -3 </div>","null","","na","test","","","NaN","","","","","","","","1","","75","","","","","","1",""
"680.0999999046326","223401","SARL_v6","SARL_v6om6kpyc4","5dee72917309b950e5262f3a","freq","","","img/blue_2bandit_b2.png","70","","70","test","1","","24","","","","circle","square","23","1","2","0.9565217391304348","","","","","","","",""
"null","223528","SARL_v6","SARL_v6om6kpyc4","5dee72917309b950e5262f3a","freq_resp","","","img/blue_2bandit_b.png","70","img/blue_2bandit_b.png","70","test","","","","","","","","","","","2","","","","","","","","",""
"null","223694","SARL_v6","SARL_v6om6kpyc4","5dee72917309b950e5262f3a","fixation","","","img/fixation.png","null","","","test","","","","","","","","","","","","","","","","","","","",""
"439.7999999523163","224138","SARL_v6","SARL_v6om6kpyc4","5dee72917309b950e5262f3a","freq","","","img/blue_2bandit_b2.png","70","","70","test","1","","25","","","","circle","square","24","2","2","0.9583333333333334","","","","","","","",""
"null","224508","SARL_v6","SARL_v6om6kpyc4","5dee72917309b950e5262f3a","freq_resp","","","img/blue_2bandit_b.png","70","img/blue_2bandit_b.png","70","test","","","","","","","","","","","2","","","","","","","","",""
"null","224664","SARL_v6","SARL_v6om6kpyc4","5dee72917309b950e5262f3a","fixation","","","img/fixation.png","null","","","test","","","","","","","","","","","","","","","","","","","",""
"372.39999985694885","225041","SARL_v6","SARL_v6om6kpyc4","5dee72917309b950e5262f3a","freq","","","img/blue_2bandit_b2.png","70","","70","test","1","","26","","","","circle","square","25","3","2","0.96","","","","","","","",""
"null","225484","SARL_v6","SARL_v6om6kpyc4","5dee72917309b950e5262f3a","freq_resp","","","img/blue_2bandit_b.png","70","img/blue_2bandit_b.png","70","test","","","","","","","","","","","2","","","","","","","","",""
"null","225640","SARL_v6","SARL_v6om6kpyc4","5dee72917309b950e5262f3a","fixation","","","img/fixation.png","null","","","test","","","","","","","","","","","","","","","","","","","",""
"465.2999999523163","226110","SARL_v6","SARL_v6om6kpyc4","5dee72917309b950e5262f3a","freq","","","img/blue_2bandit_b2.png","70","","70","test","1","","27","","","","circle","square","26","4","2","0.9615384615384616","","","","","","","",""
"null","226455","SARL_v6","SARL_v6om6kpyc4","5dee72917309b950e5262f3a","freq_resp","","","img/blue_2bandit_b.png","70","img/blue_2bandit_b.png","70","test","","","","","","","","","","","2","","","","","","","","",""
"null","226612","SARL_v6","SARL_v6om6kpyc4","5dee72917309b950e5262f3a","fixation","","","img/fixation.png","null","","","test","","","","","","","","","","","","","","","","","","","",""
"502.7000000476837","227120","SARL_v6","SARL_v6om6kpyc4","5dee72917309b950e5262f3a","freq","","","img/blue_2bandit_b2.png","70","","70","test","1","","28","","","","circle","square","27","5","2","0.9629629629629629","","","","","","","",""
"null","227431","SARL_v6","SARL_v6om6kpyc4","5dee72917309b950e5262f3a","freq_resp","","","img/blue_2bandit_b.png","70","img/blue_2bandit_b.png","70","test","","","","","","","","","","","2","","","","","","","","",""
"null","227589","SARL_v6","SARL_v6om6kpyc4","5dee72917309b950e5262f3a","fixation","","","img/fixation.png","null","","","test","","","","","","","","","","","","","","","","","","","",""
"450","228044","SARL_v6","SARL_v6om6kpyc4","5dee72917309b950e5262f3a","freq","","","img/blue_2bandit_b2.png","70","","70","test","1","","29","","","","circle","square","28","6","2","0.9642857142857143","","","","","","","",""
"null","228408","SARL_v6","SARL_v6om6kpyc4","5dee72917309b950e5262f3a","freq_resp","","","img/blue_2bandit_b.png","70","img/blue_2bandit_b.png","70","test","","","","","","","","","","","2","","","","","","","","",""
"null","228565","SARL_v6","SARL_v6om6kpyc4","5dee72917309b950e5262f3a","fixation","","","img/fixation.png","null","","","test","","","","","","","","","","","","","","","","","","","",""
"405.2999999523163","228975","SARL_v6","SARL_v6om6kpyc4","5dee72917309b950e5262f3a","freq","","","img/blue_2bandit_b2.png","70","","70","test","1","","30","","","","circle","square","29","7","2","0.9655172413793104","","","","","","","",""
"null","229379","SARL_v6","SARL_v6om6kpyc4","5dee72917309b950e5262f3a","freq_resp","","","img/blue_2bandit_b.png","70","img/blue_2bandit_b.png","70","test","","","","","","","","","","","2","","","","","","","","",""
"null","229533","SARL_v6","SARL_v6om6kpyc4","5dee72917309b950e5262f3a","fixation","","","img/fixation.png","null","","","test","","","","","","","","","","","","","","","","","","","",""
"356.2999999523163","229893","SARL_v6","SARL_v6om6kpyc4","5dee72917309b950e5262f3a","freq","","","img/blue_2bandit_b2.png","70","","70","test","1","","31","","","","circle","square","30","8","2","0.9666666666666667","","","","","","","",""
"null","230354","SARL_v6","SARL_v6om6kpyc4","5dee72917309b950e5262f3a","freq_resp","","","img/blue_2bandit_b.png","70","img/blue_2bandit_b.png","70","test","","","","","","","","","","","2","","","","","","","","",""
"null","230510","SARL_v6","SARL_v6om6kpyc4","5dee72917309b950e5262f3a","fixation","","","img/fixation.png","null","","","test","","","","","","","","","","","","","","","","","","","",""
"329.7000000476837","230844","SARL_v6","SARL_v6om6kpyc4","5dee72917309b950e5262f3a","freq","","","img/blue_2bandit_b2.png","70","","70","test","1","","32","","","","circle","square","31","9","2","0.967741935483871","","","","","","","",""
"null","231324","SARL_v6","SARL_v6om6kpyc4","5dee72917309b950e5262f3a","freq_resp","","","img/blue_2bandit_b.png","70","img/blue_2bandit_b.png","70","test","","","","","","","","","","","2","","","","","","","","",""
"null","231493","SARL_v6","SARL_v6om6kpyc4","5dee72917309b950e5262f3a","fixation","","","img/fixation.png","null","","","test","","","","","","","","","","","","","","","","","","","",""
"369.80000019073486","231867","SARL_v6","SARL_v6om6kpyc4","5dee72917309b950e5262f3a","freq","","","img/blue_2bandit_b2.png","70","","70","test","1","","33","","","","circle","square","32","10","2","0.96875","","","","","","","",""
"null","232315","SARL_v6","SARL_v6om6kpyc4","5dee72917309b950e5262f3a","freq_resp","","","img/blue_2bandit_b.png","70","img/blue_2bandit_b.png","70","test","","","","","","","","","","","2","","","","","","","","",""
"null","232472","SARL_v6","SARL_v6om6kpyc4","5dee72917309b950e5262f3a","fixation","","","img/fixation.png","null","","","test","","","","","","","","","","","","","","","","","","","",""
"410.7999999523163","232888","SARL_v6","SARL_v6om6kpyc4","5dee72917309b950e5262f3a","freq","","","img/blue_2bandit_b2.png","70","","70","test","1","","34","","","","circle","square","33","11","2","0.9696969696969697","","","","","","","",""
"null","233295","SARL_v6","SARL_v6om6kpyc4","5dee72917309b950e5262f3a","freq_resp","","","img/blue_2bandit_b.png","70","img/blue_2bandit_b.png","70","test","","","","","","","","","","","2","","","","","","","","",""
"null","233456","SARL_v6","SARL_v6om6kpyc4","5dee72917309b950e5262f3a","fixation","","","img/fixation.png","null","","","test","","","","","","","","","","","","","","","","","","","",""
"347.40000009536743","233807","SARL_v6","SARL_v6om6kpyc4","5dee72917309b950e5262f3a","infreq","","","img/orange_2bandit_b2.png","68","","68","test","1","","35","","","","circle","square","34","12","2","0.9705882352941176","","","","","","","",""
"null","234269","SARL_v6","SARL_v6om6kpyc4","5dee72917309b950e5262f3a","infreq_resp","","","img/orange_2bandit_b.png","68","img/orange_2bandit_b.png","68","test","","","","","","","","","","","2","","","","","","","","",""
"null","234428","SARL_v6","SARL_v6om6kpyc4","5dee72917309b950e5262f3a","fixation","","","img/fixation.png","null","","","test","","","","","","","","","","","","","","","","","","","",""
"500.19999980926514","234932","SARL_v6","SARL_v6om6kpyc4","5dee72917309b950e5262f3a","freq","","","img/blue_2bandit_b2.png","70","","70","test","1","","36","","","","circle","square","35","13","2","0.9714285714285714","","","","","","","",""
"null","235247","SARL_v6","SARL_v6om6kpyc4","5dee72917309b950e5262f3a","freq_resp","","","img/blue_2bandit_b.png","70","img/blue_2bandit_b.png","70","test","","","","","","","","","","","2","","","","","","","","",""
"null","235411","SARL_v6","SARL_v6om6kpyc4","5dee72917309b950e5262f3a","fixation","","","img/fixation.png","null","","","test","","","","","","","","","","","","","","","","","","","",""
"404.89999985694885","235818","SARL_v6","SARL_v6om6kpyc4","5dee72917309b950e5262f3a","freq","","","img/blue_2bandit_b2.png","70","","70","test","1","","37","","","","circle","square","36","14","2","0.9722222222222222","","","","","","","",""
"null","236224","SARL_v6","SARL_v6om6kpyc4","5dee72917309b950e5262f3a","freq_resp","","","img/blue_2bandit_b.png","70","img/blue_2bandit_b.png","70","test","","","","","","","","","","","2","","","","","","","","",""
"null","236383","SARL_v6","SARL_v6om6kpyc4","5dee72917309b950e5262f3a","fixation","","","img/fixation.png","null","","","test","","","","","","","","","","","","","","","","","","","",""
"382.7999999523163","236770","SARL_v6","SARL_v6om6kpyc4","5dee72917309b950e5262f3a","freq","","","img/blue_2bandit_b2.png","70","","70","test","1","","38","","","","circle","square","37","15","2","0.972972972972973","","","","","","","",""
"null","237198","SARL_v6","SARL_v6om6kpyc4","5dee72917309b950e5262f3a","freq_resp","","","img/blue_2bandit_b.png","70","img/blue_2bandit_b.png","70","test","","","","","","","","","","","2","","","","","","","","",""
"null","237353","SARL_v6","SARL_v6om6kpyc4","5dee72917309b950e5262f3a","fixation","","","img/fixation.png","null","","","test","","","","","","","","","","","","","","","","","","","",""
"373.90000009536743","237729","SARL_v6","SARL_v6om6kpyc4","5dee72917309b950e5262f3a","freq","","","img/blue_2bandit_b2.png","70","","70","test","1","","39","","","","circle","square","38","16","2","0.9736842105263158","","","","","","","",""
"null","238162","SARL_v6","SARL_v6om6kpyc4","5dee72917309b950e5262f3a","freq_resp","","","img/blue_2bandit_b.png","70","img/blue_2bandit_b.png","70","test","","","","","","","","","","","2","","","","","","","","",""
"null","238320","SARL_v6","SARL_v6om6kpyc4","5dee72917309b950e5262f3a","fixation","","","img/fixation.png","null","","","test","","","","","","","","","","","","","","","","","","","",""
"589.8999998569489","238914","SARL_v6","SARL_v6om6kpyc4","5dee72917309b950e5262f3a","infreq","","","img/orange_2bandit_b2.png","68","","68","test","1","","40","","","","circle","square","39","17","2","0.9743589743589743","","","","","","","",""
"null","239133","SARL_v6","SARL_v6om6kpyc4","5dee72917309b950e5262f3a","infreq_resp","","","img/orange_2bandit_b.png","68","img/orange_2bandit_b.png","68","test","","","","","","","","","","","2","","","","","","","","",""
"null","239290","SARL_v6","SARL_v6om6kpyc4","5dee72917309b950e5262f3a","fixation","","","img/fixation.png","null","","","test","","","","","","","","","","","","","","","","","","","",""
"480","239773","SARL_v6","SARL_v6om6kpyc4","5dee72917309b950e5262f3a","freq","","","img/blue_2bandit_b2.png","70","","70","test","1","","41","","","","circle","square","40","18","2","0.975","","","","","","","",""
"null","240110","SARL_v6","SARL_v6om6kpyc4","5dee72917309b950e5262f3a","freq_resp","","","img/blue_2bandit_b.png","70","img/blue_2bandit_b.png","70","test","","","","","","","","","","","2","","","","","","","","",""
"null","240267","SARL_v6","SARL_v6om6kpyc4","5dee72917309b950e5262f3a","fixation","","","img/fixation.png","null","","","test","","","","","","","","","","","","","","","","","","","",""
"358.7000000476837","240629","SARL_v6","SARL_v6om6kpyc4","5dee72917309b950e5262f3a","freq","","","img/blue_2bandit_b2.png","70","","70","test","1","","42","","","","circle","square","41","19","2","0.975609756097561","","","","","","","",""
"null","241090","SARL_v6","SARL_v6om6kpyc4","5dee72917309b950e5262f3a","freq_resp","","","img/blue_2bandit_b.png","70","img/blue_2bandit_b.png","70","test","","","","","","","","","","","2","","","","","","","","",""
"null","241247","SARL_v6","SARL_v6om6kpyc4","5dee72917309b950e5262f3a","fixation","","","img/fixation.png","null","","","test","","","","","","","","","","","","","","","","","","","",""
"400.7999999523163","241650","SARL_v6","SARL_v6om6kpyc4","5dee72917309b950e5262f3a","freq","","","img/blue_2bandit_b2.png","70","","70","test","1","","43","","","","circle","square","42","20","2","0.9761904761904762","","","","","","","",""
"null","242066","SARL_v6","SARL_v6om6kpyc4","5dee72917309b950e5262f3a","freq_resp","","","img/blue_2bandit_b.png","70","img/blue_2bandit_b.png","70","test","","","","","","","","","","","2","","","","","","","","",""
"null","242223","SARL_v6","SARL_v6om6kpyc4","5dee72917309b950e5262f3a","fixation","","","img/fixation.png","null","","","test","","","","","","","","","","","","","","","","","","","",""
"438.10000014305115","242666","SARL_v6","SARL_v6om6kpyc4","5dee72917309b950e5262f3a","rl","","","img/black_2bandit_b2.png","75","","0","test","","","44","","","-8","circle","square","","0","2","","75","-5","-8","-5","-8","square","2","0"
"null","243430","SARL_v6","SARL_v6om6kpyc4","5dee72917309b950e5262f3a","feedback","","","<div class=""verylowPoints_sq""> -8 </div>","null","","na","test","","","NaN","","","","","","","","2","","75","","","","","","2",""
"701.5","244136","SARL_v6","SARL_v6om6kpyc4","5dee72917309b950e5262f3a","freq","","","img/blue_2bandit_b2.png","70","","70","test","1","","45","","","","circle","square","43","1","3","0.9767441860465116","","","","","","","",""
"null","244242","SARL_v6","SARL_v6om6kpyc4","5dee72917309b950e5262f3a","freq_resp","","","img/blue_2bandit_b.png","70","img/blue_2bandit_b.png","70","test","","","","","","","","","","","3","","","","","","","","",""
"null","244407","SARL_v6","SARL_v6om6kpyc4","5dee72917309b950e5262f3a","fixation","","","img/fixation.png","null","","","test","","","","","","","","","","","","","","","","","","","",""
"560.5999999046326","244972","SARL_v6","SARL_v6om6kpyc4","5dee72917309b950e5262f3a","freq","","","img/blue_2bandit_b2.png","70","","70","test","1","","46","","","","circle","square","44","2","3","0.9772727272727273","","","","","","","",""
"null","245225","SARL_v6","SARL_v6om6kpyc4","5dee72917309b950e5262f3a","freq_resp","","","img/blue_2bandit_b.png","70","img/blue_2bandit_b.png","70","test","","","","","","","","","","","3","","","","","","","","",""
"null","245396","SARL_v6","SARL_v6om6kpyc4","5dee72917309b950e5262f3a","fixation","","","img/fixation.png","null","","","test","","","","","","","","","","","","","","","","","","","",""
"429.40000009536743","245830","SARL_v6","SARL_v6om6kpyc4","5dee72917309b950e5262f3a","freq","","","img/blue_2bandit_b2.png","70","","70","test","1","","47","","","","circle","square","45","3","3","0.9777777777777777","","","","","","","",""
"null","246219","SARL_v6","SARL_v6om6kpyc4","5dee72917309b950e5262f3a","freq_resp","","","img/blue_2bandit_b.png","70","img/blue_2bandit_b.png","70","test","","","","","","","","","","","3","","","","","","","","",""
"null","246377","SARL_v6","SARL_v6om6kpyc4","5dee72917309b950e5262f3a","fixation","","","img/fixation.png","null","","","test","","","","","","","","","","","","","","","","","","","",""
"396.7999999523163","246779","SARL_v6","SARL_v6om6kpyc4","5dee72917309b950e5262f3a","freq","","","img/blue_2bandit_b2.png","70","","70","test","1","","48","","","","circle","square","46","4","3","0.9782608695652174","","","","","","","",""
"null","247193","SARL_v6","SARL_v6om6kpyc4","5dee72917309b950e5262f3a","freq_resp","","","img/blue_2bandit_b.png","70","img/blue_2bandit_b.png","70","test","","","","","","","","","","","3","","","","","","","","",""
"null","247351","SARL_v6","SARL_v6om6kpyc4","5dee72917309b950e5262f3a","fixation","","","img/fixation.png","null","","","test","","","","","","","","","","","","","","","","","","","",""
"431.10000014305115","247786","SARL_v6","SARL_v6om6kpyc4","5dee72917309b950e5262f3a","freq","","","img/blue_2bandit_b2.png","70","","70","test","1","","49","","","","circle","square","47","5","3","0.9787234042553191","","","","","","","",""
"null","248167","SARL_v6","SARL_v6om6kpyc4","5dee72917309b950e5262f3a","freq_resp","","","img/blue_2bandit_b.png","70","img/blue_2bandit_b.png","70","test","","","","","","","","","","","3","","","","","","","","",""
"null","248323","SARL_v6","SARL_v6om6kpyc4","5dee72917309b950e5262f3a","fixation","","","img/fixation.png","null","","","test","","","","","","","","","","","","","","","","","","","",""
"467.40000009536743","248794","SARL_v6","SARL_v6om6kpyc4","5dee72917309b950e5262f3a","freq","","","img/blue_2bandit_b2.png","70","","70","test","1","","50","","","","circle","square","48","6","3","0.9791666666666666","","","","","","","",""
"null","249137","SARL_v6","SARL_v6om6kpyc4","5dee72917309b950e5262f3a","freq_resp","","","img/blue_2bandit_b.png","70","img/blue_2bandit_b.png","70","test","","","","","","","","","","","3","","","","","","","","",""
"null","249292","SARL_v6","SARL_v6om6kpyc4","5dee72917309b950e5262f3a","fixation","","","img/fixation.png","null","","","test","","","","","","","","","","","","","","","","","","","",""
"431.40000009536743","249726","SARL_v6","SARL_v6om6kpyc4","5dee72917309b950e5262f3a","freq","","","img/blue_2bandit_b2.png","70","","70","test","1","","51","","","","circle","square","49","7","3","0.9795918367346939","","","","","","","",""
"null","250111","SARL_v6","SARL_v6om6kpyc4","5dee72917309b950e5262f3a","freq_resp","","","img/blue_2bandit_b.png","70","img/blue_2bandit_b.png","70","test","","","","","","","","","","","3","","","","","","","","",""
"null","250266","SARL_v6","SARL_v6om6kpyc4","5dee72917309b950e5262f3a","fixation","","","img/fixation.png","null","","","test","","","","","","","","","","","","","","","","","","","",""
"450","250721","SARL_v6","SARL_v6om6kpyc4","5dee72917309b950e5262f3a","freq","","","img/blue_2bandit_b2.png","70","","70","test","1","","52","","","","circle","square","50","8","3","0.98","","","","","","","",""
"null","251086","SARL_v6","SARL_v6om6kpyc4","5dee72917309b950e5262f3a","freq_resp","","","img/blue_2bandit_b.png","70","img/blue_2bandit_b.png","70","test","","","","","","","","","","","3","","","","","","","","",""
"null","251242","SARL_v6","SARL_v6om6kpyc4","5dee72917309b950e5262f3a","fixation","","","img/fixation.png","null","","","test","","","","","","","","","","","","","","","","","","","",""
"424.2000000476837","251669","SARL_v6","SARL_v6om6kpyc4","5dee72917309b950e5262f3a","infreq","","","img/orange_2bandit_b2.png","68","","68","test","1","","53","","","","circle","square","51","9","3","0.9803921568627451","","","","","","","",""
"null","252051","SARL_v6","SARL_v6om6kpyc4","5dee72917309b950e5262f3a","infreq_resp","","","img/orange_2bandit_b.png","68","img/orange_2bandit_b.png","68","test","","","","","","","","","","","3","","","","","","","","",""
"null","252207","SARL_v6","SARL_v6om6kpyc4","5dee72917309b950e5262f3a","fixation","","","img/fixation.png","null","","","test","","","","","","","","","","","","","","","","","","","",""
"449","252661","SARL_v6","SARL_v6om6kpyc4","5dee72917309b950e5262f3a","freq","","","img/blue_2bandit_b2.png","70","","70","test","1","","54","","","","circle","square","52","10","3","0.9807692307692307","","","","","","","",""
"null","253019","SARL_v6","SARL_v6om6kpyc4","5dee72917309b950e5262f3a","freq_resp","","","img/blue_2bandit_b.png","70","img/blue_2bandit_b.png","70","test","","","","","","","","","","","3","","","","","","","","",""
"null","253175","SARL_v6","SARL_v6om6kpyc4","5dee72917309b950e5262f3a","fixation","","","img/fixation.png","null","","","test","","","","","","","","","","","","","","","","","","","",""
"346.59999990463257","253526","SARL_v6","SARL_v6om6kpyc4","5dee72917309b950e5262f3a","freq","","","img/blue_2bandit_b2.png","70","","70","test","1","","55","","","","circle","square","53","11","3","0.9811320754716981","","","","","","","",""
"null","253989","SARL_v6","SARL_v6om6kpyc4","5dee72917309b950e5262f3a","freq_resp","","","img/blue_2bandit_b.png","70","img/blue_2bandit_b.png","70","test","","","","","","","","","","","3","","","","","","","","",""
"null","254146","SARL_v6","SARL_v6om6kpyc4","5dee72917309b950e5262f3a","fixation","","","img/fixation.png","null","","","test","","","","","","","","","","","","","","","","","","","",""
"528","254679","SARL_v6","SARL_v6om6kpyc4","5dee72917309b950e5262f3a","infreq","","","img/orange_2bandit_b2.png","68","","68","test","1","","56","","","","circle","square","54","12","3","0.9814814814814815","","","","","","","",""
"null","254957","SARL_v6","SARL_v6om6kpyc4","5dee72917309b950e5262f3a","infreq_resp","","","img/orange_2bandit_b.png","68","img/orange_2bandit_b.png","68","test","","","","","","","","","","","3","","","","","","","","",""
"null","255114","SARL_v6","SARL_v6om6kpyc4","5dee72917309b950e5262f3a","fixation","","","img/fixation.png","null","","","test","","","","","","","","","","","","","","","","","","","",""
"509.2999999523163","255629","SARL_v6","SARL_v6om6kpyc4","5dee72917309b950e5262f3a","freq","","","img/blue_2bandit_b2.png","70","","70","test","1","","57","","","","circle","square","55","13","3","0.9818181818181818","","","","","","","",""
"null","255924","SARL_v6","SARL_v6om6kpyc4","5dee72917309b950e5262f3a","freq_resp","","","img/blue_2bandit_b.png","70","img/blue_2bandit_b.png","70","test","","","","","","","","","","","3","","","","","","","","",""
"null","256082","SARL_v6","SARL_v6om6kpyc4","5dee72917309b950e5262f3a","fixation","","","img/fixation.png","null","","","test","","","","","","","","","","","","","","","","","","","",""
"429.7999999523163","256517","SARL_v6","SARL_v6om6kpyc4","5dee72917309b950e5262f3a","freq","","","img/blue_2bandit_b2.png","70","","70","test","1","","58","","","","circle","square","56","14","3","0.9821428571428571","","","","","","","",""
"null","256898","SARL_v6","SARL_v6om6kpyc4","5dee72917309b950e5262f3a","freq_resp","","","img/blue_2bandit_b.png","70","img/blue_2bandit_b.png","70","test","","","","","","","","","","","3","","","","","","","","",""
"null","257069","SARL_v6","SARL_v6om6kpyc4","5dee72917309b950e5262f3a","fixation","","","img/fixation.png","null","","","test","","","","","","","","","","","","","","","","","","","",""
"395.2999999523163","257468","SARL_v6","SARL_v6om6kpyc4","5dee72917309b950e5262f3a","freq","","","img/blue_2bandit_b2.png","70","","70","test","1","","59","","","","circle","square","57","15","3","0.9824561403508771","","","","","","","",""
"null","257878","SARL_v6","SARL_v6om6kpyc4","5dee72917309b950e5262f3a","freq_resp","","","img/blue_2bandit_b.png","70","img/blue_2bandit_b.png","70","test","","","","","","","","","","","3","","","","","","","","",""
"null","258032","SARL_v6","SARL_v6om6kpyc4","5dee72917309b950e5262f3a","fixation","","","img/fixation.png","null","","","test","","","","","","","","","","","","","","","","","","","",""
"408.40000009536743","258444","SARL_v6","SARL_v6om6kpyc4","5dee72917309b950e5262f3a","freq","","","img/blue_2bandit_b2.png","70","","70","test","1","","60","","","","circle","square","58","16","3","0.9827586206896551","","","","","","","",""
"null","258848","SARL_v6","SARL_v6om6kpyc4","5dee72917309b950e5262f3a","freq_resp","","","img/blue_2bandit_b.png","70","img/blue_2bandit_b.png","70","test","","","","","","","","","","","3","","","","","","","","",""
"null","259003","SARL_v6","SARL_v6om6kpyc4","5dee72917309b950e5262f3a","fixation","","","img/fixation.png","null","","","test","","","","","","","","","","","","","","","","","","","",""
"426.7000000476837","259433","SARL_v6","SARL_v6om6kpyc4","5dee72917309b950e5262f3a","freq","","","img/blue_2bandit_b2.png","70","","70","test","1","","61","","","","circle","square","59","17","3","0.9830508474576272","","","","","","","",""
"null","259814","SARL_v6","SARL_v6om6kpyc4","5dee72917309b950e5262f3a","freq_resp","","","img/blue_2bandit_b.png","70","img/blue_2bandit_b.png","70","test","","","","","","","","","","","3","","","","","","","","",""
"null","259971","SARL_v6","SARL_v6om6kpyc4","5dee72917309b950e5262f3a","fixation","","","img/fixation.png","null","","","test","","","","","","","","","","","","","","","","","","","",""
"390.2000000476837","260367","SARL_v6","SARL_v6om6kpyc4","5dee72917309b950e5262f3a","freq","","","img/blue_2bandit_b2.png","70","","70","test","1","","62","","","","circle","square","60","18","3","0.9833333333333333","","","","","","","",""
"null","260788","SARL_v6","SARL_v6om6kpyc4","5dee72917309b950e5262f3a","freq_resp","","","img/blue_2bandit_b.png","70","img/blue_2bandit_b.png","70","test","","","","","","","","","","","3","","","","","","","","",""
"null","260947","SARL_v6","SARL_v6om6kpyc4","5dee72917309b950e5262f3a","fixation","","","img/fixation.png","null","","","test","","","","","","","","","","","","","","","","","","","",""
"432","261383","SARL_v6","SARL_v6om6kpyc4","5dee72917309b950e5262f3a","freq","","","img/blue_2bandit_b2.png","70","","70","test","1","","63","","","","circle","square","61","19","3","0.9836065573770492","","","","","","","",""
"null","261770","SARL_v6","SARL_v6om6kpyc4","5dee72917309b950e5262f3a","freq_resp","","","img/blue_2bandit_b.png","70","img/blue_2bandit_b.png","70","test","","","","","","","","","","","3","","","","","","","","",""
"null","261927","SARL_v6","SARL_v6om6kpyc4","5dee72917309b950e5262f3a","fixation","","","img/fixation.png","null","","","test","","","","","","","","","","","","","","","","","","","",""
"364.80000019073486","262296","SARL_v6","SARL_v6om6kpyc4","5dee72917309b950e5262f3a","freq","","","img/blue_2bandit_b2.png","70","","70","test","1","","64","","","","circle","square","62","20","3","0.9838709677419355","","","","","","","",""
"null","262742","SARL_v6","SARL_v6om6kpyc4","5dee72917309b950e5262f3a","freq_resp","","","img/blue_2bandit_b.png","70","img/blue_2bandit_b.png","70","test","","","","","","","","","","","3","","","","","","","","",""
"null","262914","SARL_v6","SARL_v6om6kpyc4","5dee72917309b950e5262f3a","fixation","","","img/fixation.png","null","","","test","","","","","","","","","","","","","","","","","","","",""
"451.2999999523163","263370","SARL_v6","SARL_v6om6kpyc4","5dee72917309b950e5262f3a","freq","","","img/blue_2bandit_b2.png","70","","70","test","1","","65","","","","circle","square","63","21","3","0.9841269841269841","","","","","","","",""
"null","263735","SARL_v6","SARL_v6om6kpyc4","5dee72917309b950e5262f3a","freq_resp","","","img/blue_2bandit_b.png","70","img/blue_2bandit_b.png","70","test","","","","","","","","","","","3","","","","","","","","",""
"null","263903","SARL_v6","SARL_v6om6kpyc4","5dee72917309b950e5262f3a","fixation","","","img/fixation.png","null","","","test","","","","","","","","","","","","","","","","","","","",""
"375.10000014305115","264282","SARL_v6","SARL_v6om6kpyc4","5dee72917309b950e5262f3a","freq","","","img/blue_2bandit_b2.png","70","","70","test","1","","66","","","","circle","square","64","22","3","0.984375","","","","","","","",""
"null","264714","SARL_v6","SARL_v6om6kpyc4","5dee72917309b950e5262f3a","freq_resp","","","img/blue_2bandit_b.png","70","img/blue_2bandit_b.png","70","test","","","","","","","","","","","3","","","","","","","","",""
"null","264869","SARL_v6","SARL_v6om6kpyc4","5dee72917309b950e5262f3a","fixation","","","img/fixation.png","null","","","test","","","","","","","","","","","","","","","","","","","",""
"432.2000000476837","265305","SARL_v6","SARL_v6om6kpyc4","5dee72917309b950e5262f3a","freq","","","img/blue_2bandit_b2.png","70","","70","test","1","","67","","","","circle","square","65","23","3","0.9846153846153847","","","","","","","",""
"null","265685","SARL_v6","SARL_v6om6kpyc4","5dee72917309b950e5262f3a","freq_resp","","","img/blue_2bandit_b.png","70","img/blue_2bandit_b.png","70","test","","","","","","","","","","","3","","","","","","","","",""
"null","265842","SARL_v6","SARL_v6om6kpyc4","5dee72917309b950e5262f3a","fixation","","","img/fixation.png","null","","","test","","","","","","","","","","","","","","","","","","","",""
"421.40000009536743","266268","SARL_v6","SARL_v6om6kpyc4","5dee72917309b950e5262f3a","rl","","","img/black_2bandit_b2.png","74","","0","test","","","68","","","-4","circle","square","","0","3","","74","-4","-8","-4","-8","circle","3","0"
"null","267031","SARL_v6","SARL_v6om6kpyc4","5dee72917309b950e5262f3a","feedback","","","<div class=""verylowPoints""> -4 </div>","null","","na","test","","","NaN","","","","","","","","3","","74","","","","","","3",""
"490.7000000476837","267527","SARL_v6","SARL_v6om6kpyc4","5dee72917309b950e5262f3a","freq","","","img/blue_2bandit_b2.png","70","","70","test","1","","69","","","","circle","square","66","1","4","0.9848484848484849","","","","","","","",""
"null","267840","SARL_v6","SARL_v6om6kpyc4","5dee72917309b950e5262f3a","freq_resp","","","img/blue_2bandit_b.png","70","img/blue_2bandit_b.png","70","test","","","","","","","","","","","4","","","","","","","","",""
"null","267997","SARL_v6","SARL_v6om6kpyc4","5dee72917309b950e5262f3a","fixation","","","img/fixation.png","null","","","test","","","","","","","","","","","","","","","","","","","",""
"449.40000009536743","268452","SARL_v6","SARL_v6om6kpyc4","5dee72917309b950e5262f3a","freq","","","img/blue_2bandit_b2.png","70","","70","test","1","","70","","","","circle","square","67","2","4","0.9850746268656716","","","","","","","",""
"null","268810","SARL_v6","SARL_v6om6kpyc4","5dee72917309b950e5262f3a","freq_resp","","","img/blue_2bandit_b.png","70","img/blue_2bandit_b.png","70","test","","","","","","","","","","","4","","","","","","","","",""
"null","268976","SARL_v6","SARL_v6om6kpyc4","5dee72917309b950e5262f3a","fixation","","","img/fixation.png","null","","","test","","","","","","","","","","","","","","","","","","","",""
"332.7999999523163","269314","SARL_v6","SARL_v6om6kpyc4","5dee72917309b950e5262f3a","freq","","","img/blue_2bandit_b2.png","70","","70","test","1","","71","","","","circle","square","68","3","4","0.9852941176470589","","","","","","","",""
"null","269790","SARL_v6","SARL_v6om6kpyc4","5dee72917309b950e5262f3a","freq_resp","","","img/blue_2bandit_b.png","70","img/blue_2bandit_b.png","70","test","","","","","","","","","","","4","","","","","","","","",""
"null","269943","SARL_v6","SARL_v6om6kpyc4","5dee72917309b950e5262f3a","fixation","","","img/fixation.png","null","","","test","","","","","","","","","","","","","","","","","","","",""
"406.40000009536743","270353","SARL_v6","SARL_v6om6kpyc4","5dee72917309b950e5262f3a","infreq","","","img/orange_2bandit_b2.png","68","","68","test","1","","72","","","","circle","square","69","4","4","0.9855072463768116","","","","","","","",""
"null","270755","SARL_v6","SARL_v6om6kpyc4","5dee72917309b950e5262f3a","infreq_resp","","","img/orange_2bandit_b.png","68","img/orange_2bandit_b.png","68","test","","","","","","","","","","","4","","","","","","","","",""
"null","270917","SARL_v6","SARL_v6om6kpyc4","5dee72917309b950e5262f3a","fixation","","","img/fixation.png","null","","","test","","","","","","","","","","","","","","","","","","","",""
"427.09999990463257","271347","SARL_v6","SARL_v6om6kpyc4","5dee72917309b950e5262f3a","freq","","","img/blue_2bandit_b2.png","70","","70","test","1","","73","","","","circle","square","70","5","4","0.9857142857142858","","","","","","","",""
"null","271726","SARL_v6","SARL_v6om6kpyc4","5dee72917309b950e5262f3a","freq_resp","","","img/blue_2bandit_b.png","70","img/blue_2bandit_b.png","70","test","","","","","","","","","","","4","","","","","","","","",""
"null","271883","SARL_v6","SARL_v6om6kpyc4","5dee72917309b950e5262f3a","fixation","","","img/fixation.png","null","","","test","","","","","","","","","","","","","","","","","","","",""
"320.2999999523163","272209","SARL_v6","SARL_v6om6kpyc4","5dee72917309b950e5262f3a","freq","","","img/blue_2bandit_b2.png","70","","70","test","1","","74","","","","circle","square","71","6","4","0.9859154929577465","","","","","","","",""
"null","272702","SARL_v6","SARL_v6om6kpyc4","5dee72917309b950e5262f3a","freq_resp","","","img/blue_2bandit_b.png","70","img/blue_2bandit_b.png","70","test","","","","","","","","","","","4","","","","","","","","",""
"null","272857","SARL_v6","SARL_v6om6kpyc4","5dee72917309b950e5262f3a","fixation","","","img/fixation.png","null","","","test","","","","","","","","","","","","","","","","","","","",""
"365.5","273225","SARL_v6","SARL_v6om6kpyc4","5dee72917309b950e5262f3a","freq","","","img/blue_2bandit_b2.png","70","","70","test","1","","75","","","","circle","square","72","7","4","0.9861111111111112","","","","","","","",""
"null","273667","SARL_v6","SARL_v6om6kpyc4","5dee72917309b950e5262f3a","freq_resp","","","img/blue_2bandit_b.png","70","img/blue_2bandit_b.png","70","test","","","","","","","","","","","4","","","","","","","","",""
"null","273820","SARL_v6","SARL_v6om6kpyc4","5dee72917309b950e5262f3a","fixation","","","img/fixation.png","null","","","test","","","","","","","","","","","","","","","","","","","",""
"430.90000009536743","274255","SARL_v6","SARL_v6om6kpyc4","5dee72917309b950e5262f3a","freq","","","img/blue_2bandit_b2.png","70","","70","test","1","","76","","","","circle","square","73","8","4","0.9863013698630136","","","","","","","",""
"null","274636","SARL_v6","SARL_v6om6kpyc4","5dee72917309b950e5262f3a","freq_resp","","","img/blue_2bandit_b.png","70","img/blue_2bandit_b.png","70","test","","","","","","","","","","","4","","","","","","","","",""
"null","274794","SARL_v6","SARL_v6om6kpyc4","5dee72917309b950e5262f3a","fixation","","","img/fixation.png","null","","","test","","","","","","","","","","","","","","","","","","","",""
"400.60000014305115","275201","SARL_v6","SARL_v6om6kpyc4","5dee72917309b950e5262f3a","freq","","","img/blue_2bandit_b2.png","70","","70","test","1","","77","","","","circle","square","74","9","4","0.9864864864864865","","","","","","","",""
"null","275606","SARL_v6","SARL_v6om6kpyc4","5dee72917309b950e5262f3a","freq_resp","","","img/blue_2bandit_b.png","70","img/blue_2bandit_b.png","70","test","","","","","","","","","","","4","","","","","","","","",""
"null","275762","SARL_v6","SARL_v6om6kpyc4","5dee72917309b950e5262f3a","fixation","","","img/fixation.png","null","","","test","","","","","","","","","","","","","","","","","","","",""
"399.7999999523163","276166","SARL_v6","SARL_v6om6kpyc4","5dee72917309b950e5262f3a","freq","","","img/blue_2bandit_b2.png","70","","70","test","1","","78","","","","circle","square","75","10","4","0.9866666666666667","","","","","","","",""
"null","276572","SARL_v6","SARL_v6om6kpyc4","5dee72917309b950e5262f3a","freq_resp","","","img/blue_2bandit_b.png","70","img/blue_2bandit_b.png","70","test","","","","","","","","","","","4","","","","","","","","",""
"null","276727","SARL_v6","SARL_v6om6kpyc4","5dee72917309b950e5262f3a","fixation","","","img/fixation.png","null","","","test","","","","","","","","","","","","","","","","","","","",""
"353.2000000476837","277086","SARL_v6","SARL_v6om6kpyc4","5dee72917309b950e5262f3a","freq","","","img/blue_2bandit_b2.png","70","","70","test","1","","79","","","","circle","square","76","11","4","0.9868421052631579","","","","","","","",""
"null","277547","SARL_v6","SARL_v6om6kpyc4","5dee72917309b950e5262f3a","freq_resp","","","img/blue_2bandit_b.png","70","img/blue_2bandit_b.png","70","test","","","","","","","","","","","4","","","","","","","","",""
"null","277711","SARL_v6","SARL_v6om6kpyc4","5dee72917309b950e5262f3a","fixation","","","img/fixation.png","null","","","test","","","","","","","","","","","","","","","","","","","",""
"369.09999990463257","278085","SARL_v6","SARL_v6om6kpyc4","5dee72917309b950e5262f3a","freq","","","img/blue_2bandit_b2.png","70","","70","test","1","","80","","","","circle","square","77","12","4","0.987012987012987","","","","","","","",""
"null","278522","SARL_v6","SARL_v6om6kpyc4","5dee72917309b950e5262f3a","freq_resp","","","img/blue_2bandit_b.png","70","img/blue_2bandit_b.png","70","test","","","","","","","","","","","4","","","","","","","","",""
"null","278676","SARL_v6","SARL_v6om6kpyc4","5dee72917309b950e5262f3a","fixation","","","img/fixation.png","null","","","test","","","","","","","","","","","","","","","","","","","",""
"356.09999990463257","279036","SARL_v6","SARL_v6om6kpyc4","5dee72917309b950e5262f3a","freq","","","img/blue_2bandit_b2.png","70","","70","test","1","","81","","","","circle","square","78","13","4","0.9871794871794872","","","","","","","",""
"null","279498","SARL_v6","SARL_v6om6kpyc4","5dee72917309b950e5262f3a","freq_resp","","","img/blue_2bandit_b.png","70","img/blue_2bandit_b.png","70","test","","","","","","","","","","","4","","","","","","","","",""
"null","279669","SARL_v6","SARL_v6om6kpyc4","5dee72917309b950e5262f3a","fixation","","","img/fixation.png","null","","","test","","","","","","","","","","","","","","","","","","","",""
"362.69999980926514","280037","SARL_v6","SARL_v6om6kpyc4","5dee72917309b950e5262f3a","freq","","","img/blue_2bandit_b2.png","70","","70","test","1","","82","","","","circle","square","79","14","4","0.9873417721518988","","","","","","","",""
"null","280491","SARL_v6","SARL_v6om6kpyc4","5dee72917309b950e5262f3a","freq_resp","","","img/blue_2bandit_b.png","70","img/blue_2bandit_b.png","70","test","","","","","","","","","","","4","","","","","","","","",""
"null","280649","SARL_v6","SARL_v6om6kpyc4","5dee72917309b950e5262f3a","fixation","","","img/fixation.png","null","","","test","","","","","","","","","","","","","","","","","","","",""
"326.5","280979","SARL_v6","SARL_v6om6kpyc4","5dee72917309b950e5262f3a","freq","","","img/blue_2bandit_b2.png","70","","70","test","1","","83","","","","circle","square","80","15","4","0.9875","","","","","","","",""
"null","281467","SARL_v6","SARL_v6om6kpyc4","5dee72917309b950e5262f3a","freq_resp","","","img/blue_2bandit_b.png","70","img/blue_2bandit_b.png","70","test","","","","","","","","","","","4","","","","","","","","",""
"null","281622","SARL_v6","SARL_v6om6kpyc4","5dee72917309b950e5262f3a","fixation","","","img/fixation.png","null","","","test","","","","","","","","","","","","","","","","","","","",""
"470.09999990463257","282097","SARL_v6","SARL_v6om6kpyc4","5dee72917309b950e5262f3a","freq","","","img/blue_2bandit_b2.png","70","","70","test","1","","84","","","","circle","square","81","16","4","0.9876543209876543","","","","","","","",""
"null","282433","SARL_v6","SARL_v6om6kpyc4","5dee72917309b950e5262f3a","freq_resp","","","img/blue_2bandit_b.png","70","img/blue_2bandit_b.png","70","test","","","","","","","","","","","4","","","","","","","","",""
"null","282602","SARL_v6","SARL_v6om6kpyc4","5dee72917309b950e5262f3a","fixation","","","img/fixation.png","null","","","test","","","","","","","","","","","","","","","","","","","",""
"405.89999985694885","283013","SARL_v6","SARL_v6om6kpyc4","5dee72917309b950e5262f3a","infreq","","","img/orange_2bandit_b2.png","68","","68","test","1","","85","","","","circle","square","82","17","4","0.9878048780487805","","","","","","","",""
"null","283419","SARL_v6","SARL_v6om6kpyc4","5dee72917309b950e5262f3a","infreq_resp","","","img/orange_2bandit_b.png","68","img/orange_2bandit_b.png","68","test","","","","","","","","","","","4","","","","","","","","",""
"null","283576","SARL_v6","SARL_v6om6kpyc4","5dee72917309b950e5262f3a","fixation","","","img/fixation.png","null","","","test","","","","","","","","","","","","","","","","","","","",""
"417.5","283999","SARL_v6","SARL_v6om6kpyc4","5dee72917309b950e5262f3a","freq","","","img/blue_2bandit_b2.png","70","","70","test","1","","86","","","","circle","square","83","18","4","0.9879518072289156","","","","","","","",""
"null","284390","SARL_v6","SARL_v6om6kpyc4","5dee72917309b950e5262f3a","freq_resp","","","img/blue_2bandit_b.png","70","img/blue_2bandit_b.png","70","test","","","","","","","","","","","4","","","","","","","","",""
"null","284547","SARL_v6","SARL_v6om6kpyc4","5dee72917309b950e5262f3a","fixation","","","img/fixation.png","null","","","test","","","","","","","","","","","","","","","","","","","",""
"445.59999990463257","284998","SARL_v6","SARL_v6om6kpyc4","5dee72917309b950e5262f3a","freq","","","img/blue_2bandit_b2.png","70","","70","test","1","","87","","","","circle","square","84","19","4","0.9880952380952381","","","","","","","",""
"null","285370","SARL_v6","SARL_v6om6kpyc4","5dee72917309b950e5262f3a","freq_resp","","","img/blue_2bandit_b.png","70","img/blue_2bandit_b.png","70","test","","","","","","","","","","","4","","","","","","","","",""
"null","285524","SARL_v6","SARL_v6om6kpyc4","5dee72917309b950e5262f3a","fixation","","","img/fixation.png","null","","","test","","","","","","","","","","","","","","","","","","","",""
"394.2999999523163","285923","SARL_v6","SARL_v6om6kpyc4","5dee72917309b950e5262f3a","freq","","","img/blue_2bandit_b2.png","70","","70","test","1","","88","","","","circle","square","85","20","4","0.9882352941176471","","","","","","","",""
"null","286343","SARL_v6","SARL_v6om6kpyc4","5dee72917309b950e5262f3a","freq_resp","","","img/blue_2bandit_b.png","70","img/blue_2bandit_b.png","70","test","","","","","","","","","","","4","","","","","","","","",""
"null","286500","SARL_v6","SARL_v6om6kpyc4","5dee72917309b950e5262f3a","fixation","","","img/fixation.png","null","","","test","","","","","","","","","","","","","","","","","","","",""
"345.2000000476837","286851","SARL_v6","SARL_v6om6kpyc4","5dee72917309b950e5262f3a","freq","","","img/blue_2bandit_b2.png","70","","70","test","1","","89","","","","circle","square","86","21","4","0.9883720930232558","","","","","","","",""
"null","287324","SARL_v6","SARL_v6om6kpyc4","5dee72917309b950e5262f3a","freq_resp","","","img/blue_2bandit_b.png","70","img/blue_2bandit_b.png","70","test","","","","","","","","","","","4","","","","","","","","",""
"null","287480","SARL_v6","SARL_v6om6kpyc4","5dee72917309b950e5262f3a","fixation","","","img/fixation.png","null","","","test","","","","","","","","","","","","","","","","","","","",""
"343.10000014305115","287827","SARL_v6","SARL_v6om6kpyc4","5dee72917309b950e5262f3a","freq","","","img/blue_2bandit_b2.png","70","","70","test","1","","90","","","","circle","square","87","22","4","0.9885057471264368","","","","","","","",""
"null","288303","SARL_v6","SARL_v6om6kpyc4","5dee72917309b950e5262f3a","freq_resp","","","img/blue_2bandit_b.png","70","img/blue_2bandit_b.png","70","test","","","","","","","","","","","4","","","","","","","","",""
"null","288459","SARL_v6","SARL_v6om6kpyc4","5dee72917309b950e5262f3a","fixation","","","img/fixation.png","null","","","test","","","","","","","","","","","","","","","","","","","",""
"750.6999998092651","289214","SARL_v6","SARL_v6om6kpyc4","5dee72917309b950e5262f3a","rl","","","img/black_2bandit_b2.png","74","","0","test","","","91","","","0","circle","square","","0","4","","74","0","-12","0","-12","circle","4","0"
"null","289982","SARL_v6","SARL_v6om6kpyc4","5dee72917309b950e5262f3a","feedback","","","<div class=""verylowPoints""> 0 </div>","null","","na","test","","","NaN","","","","","","","","4","","74","","","","","","4",""
"648.2000000476837","290635","SARL_v6","SARL_v6om6kpyc4","5dee72917309b950e5262f3a","freq","","","img/blue_2bandit_b2.png","70","","70","test","1","","92","","","","circle","square","88","1","5","0.9886363636363636","","","","","","","",""
"null","290793","SARL_v6","SARL_v6om6kpyc4","5dee72917309b950e5262f3a","freq_resp","","","img/blue_2bandit_b.png","70","img/blue_2bandit_b.png","70","test","","","","","","","","","","","5","","","","","","","","",""
"null","290951","SARL_v6","SARL_v6om6kpyc4","5dee72917309b950e5262f3a","fixation","","","img/fixation.png","null","","","test","","","","","","","","","","","","","","","","","","","",""
"643.1999998092651","291599","SARL_v6","SARL_v6om6kpyc4","5dee72917309b950e5262f3a","freq","","","img/blue_2bandit_b2.png","70","","70","test","1","","93","","","","circle","square","89","2","5","0.9887640449438202","","","","","","","",""
"null","291760","SARL_v6","SARL_v6om6kpyc4","5dee72917309b950e5262f3a","freq_resp","","","img/blue_2bandit_b.png","70","img/blue_2bandit_b.png","70","test","","","","","","","","","","","5","","","","","","","","",""
"null","291918","SARL_v6","SARL_v6om6kpyc4","5dee72917309b950e5262f3a","fixation","","","img/fixation.png","null","","","test","","","","","","","","","","","","","","","","","","","",""
"678.3999998569489","292602","SARL_v6","SARL_v6om6kpyc4","5dee72917309b950e5262f3a","freq","","","img/blue_2bandit_b2.png","70","","70","test","1","","94","","","","circle","square","90","3","5","0.9888888888888889","","","","","","","",""
"null","292736","SARL_v6","SARL_v6om6kpyc4","5dee72917309b950e5262f3a","freq_resp","","","img/blue_2bandit_b.png","70","img/blue_2bandit_b.png","70","test","","","","","","","","","","","5","","","","","","","","",""
"null","292891","SARL_v6","SARL_v6om6kpyc4","5dee72917309b950e5262f3a","fixation","","","img/fixation.png","null","","","test","","","","","","","","","","","","","","","","","","","",""
"674.7000000476837","293571","SARL_v6","SARL_v6om6kpyc4","5dee72917309b950e5262f3a","freq","","","img/blue_2bandit_b2.png","70","","70","test","1","","95","","","","circle","square","91","4","5","0.989010989010989","","","","","","","",""
"null","293710","SARL_v6","SARL_v6om6kpyc4","5dee72917309b950e5262f3a","freq_resp","","","img/blue_2bandit_b.png","70","img/blue_2bandit_b.png","70","test","","","","","","","","","","","5","","","","","","","","",""
"null","293877","SARL_v6","SARL_v6om6kpyc4","5dee72917309b950e5262f3a","fixation","","","img/fixation.png","null","","","test","","","","","","","","","","","","","","","","","","","",""
"772.7999999523163","294653","SARL_v6","SARL_v6om6kpyc4","5dee72917309b950e5262f3a","freq","","","img/blue_2bandit_b2.png","70","","70","test","1","","96","","","","circle","square","92","5","5","0.9891304347826086","","","","","","","",""
"null","294684","SARL_v6","SARL_v6om6kpyc4","5dee72917309b950e5262f3a","freq_resp","","","img/blue_2bandit_b.png","70","img/blue_2bandit_b.png","70","test","","","","","","","","","","","5","","","","","","","","",""
"null","294840","SARL_v6","SARL_v6om6kpyc4","5dee72917309b950e5262f3a","fixation","","","img/fixation.png","null","","","test","","","","","","","","","","","","","","","","","","","",""
"591.6999998092651","295435","SARL_v6","SARL_v6om6kpyc4","5dee72917309b950e5262f3a","freq","","","img/blue_2bandit_b2.png","70","","70","test","1","","97","","","","circle","square","93","6","5","0.989247311827957","","","","","","","",""
"null","295660","SARL_v6","SARL_v6om6kpyc4","5dee72917309b950e5262f3a","freq_resp","","","img/blue_2bandit_b.png","70","img/blue_2bandit_b.png","70","test","","","","","","","","","","","5","","","","","","","","",""
"null","295826","SARL_v6","SARL_v6om6kpyc4","5dee72917309b950e5262f3a","fixation","","","img/fixation.png","null","","","test","","","","","","","","","","","","","","","","","","","",""
"463","296293","SARL_v6","SARL_v6om6kpyc4","5dee72917309b950e5262f3a","freq","","","img/blue_2bandit_b2.png","70","","70","test","1","","98","","","","circle","square","94","7","5","0.9893617021276596","","","","","","","",""
"null","296644","SARL_v6","SARL_v6om6kpyc4","5dee72917309b950e5262f3a","freq_resp","","","img/blue_2bandit_b.png","70","img/blue_2bandit_b.png","70","test","","","","","","","","","","","5","","","","","","","","",""
"null","296803","SARL_v6","SARL_v6om6kpyc4","5dee72917309b950e5262f3a","fixation","","","img/fixation.png","null","","","test","","","","","","","","","","","","","","","","","","","",""
"390.90000009536743","297199","SARL_v6","SARL_v6om6kpyc4","5dee72917309b950e5262f3a","freq","","","img/blue_2bandit_b2.png","70","","70","test","1","","99","","","","circle","square","95","8","5","0.9894736842105263","","","","","","","",""
"null","297625","SARL_v6","SARL_v6om6kpyc4","5dee72917309b950e5262f3a","freq_resp","","","img/blue_2bandit_b.png","70","img/blue_2bandit_b.png","70","test","","","","","","","","","","","5","","","","","","","","",""
"null","297782","SARL_v6","SARL_v6om6kpyc4","5dee72917309b950e5262f3a","fixation","","","img/fixation.png","null","","","test","","","","","","","","","","","","","","","","","","","",""
"303.40000009536743","298090","SARL_v6","SARL_v6om6kpyc4","5dee72917309b950e5262f3a","freq","","","img/blue_2bandit_b2.png","70","","70","test","1","","100","","","","circle","square","96","9","5","0.9895833333333334","","","","","","","",""
"null","298597","SARL_v6","SARL_v6om6kpyc4","5dee72917309b950e5262f3a","freq_resp","","","img/blue_2bandit_b.png","70","img/blue_2bandit_b.png","70","test","","","","","","","","","","","5","","","","","","","","",""
"null","298755","SARL_v6","SARL_v6om6kpyc4","5dee72917309b950e5262f3a","fixation","","","img/fixation.png","null","","","test","","","","","","","","","","","","","","","","","","","",""
"277.59999990463257","299038","SARL_v6","SARL_v6om6kpyc4","5dee72917309b950e5262f3a","freq","","","img/blue_2bandit_b2.png","70","","70","test","1","","101","","","","circle","square","97","10","5","0.9896907216494846","","","","","","","",""
"null","299568","SARL_v6","SARL_v6om6kpyc4","5dee72917309b950e5262f3a","freq_resp","","","img/blue_2bandit_b.png","70","img/blue_2bandit_b.png","70","test","","","","","","","","","","","5","","","","","","","","",""
"null","299725","SARL_v6","SARL_v6om6kpyc4","5dee72917309b950e5262f3a","fixation","","","img/fixation.png","null","","","test","","","","","","","","","","","","","","","","","","","",""
"290.5","300021","SARL_v6","SARL_v6om6kpyc4","5dee72917309b950e5262f3a","freq","","","img/blue_2bandit_b2.png","70","","70","test","1","","102","","","","circle","square","98","11","5","0.9897959183673469","","","","","","","",""
"null","300537","SARL_v6","SARL_v6om6kpyc4","5dee72917309b950e5262f3a","freq_resp","","","img/blue_2bandit_b.png","70","img/blue_2bandit_b.png","70","test","","","","","","","","","","","5","","","","","","","","",""
"null","300694","SARL_v6","SARL_v6om6kpyc4","5dee72917309b950e5262f3a","fixation","","","img/fixation.png","null","","","test","","","","","","","","","","","","","","","","","","","",""
"281.39999985694885","300979","SARL_v6","SARL_v6om6kpyc4","5dee72917309b950e5262f3a","freq","","","img/blue_2bandit_b2.png","70","","70","test","1","","103","","","","circle","square","99","12","5","0.98989898989899","","","","","","","",""
"null","301502","SARL_v6","SARL_v6om6kpyc4","5dee72917309b950e5262f3a","freq_resp","","","img/blue_2bandit_b.png","70","img/blue_2bandit_b.png","70","test","","","","","","","","","","","5","","","","","","","","",""
"null","301658","SARL_v6","SARL_v6om6kpyc4","5dee72917309b950e5262f3a","fixation","","","img/fixation.png","null","","","test","","","","","","","","","","","","","","","","","","","",""
"303.40000009536743","301967","SARL_v6","SARL_v6om6kpyc4","5dee72917309b950e5262f3a","freq","","","img/blue_2bandit_b2.png","70","","70","test","1","","104","","","","circle","square","100","13","5","0.99","","","","","","","",""
"null","302483","SARL_v6","SARL_v6om6kpyc4","5dee72917309b950e5262f3a","freq_resp","","","img/blue_2bandit_b.png","70","img/blue_2bandit_b.png","70","test","","","","","","","","","","","5","","","","","","","","",""
"null","302638","SARL_v6","SARL_v6om6kpyc4","5dee72917309b950e5262f3a","fixation","","","img/fixation.png","null","","","test","","","","","","","","","","","","","","","","","","","",""
"227.79999995231628","302872","SARL_v6","SARL_v6om6kpyc4","5dee72917309b950e5262f3a","freq","","","img/blue_2bandit_b2.png","70","","70","test","1","","105","","","","circle","square","101","14","5","0.9900990099009901","","","","","","","",""
"null","303459","SARL_v6","SARL_v6om6kpyc4","5dee72917309b950e5262f3a","freq_resp","","","img/blue_2bandit_b.png","70","img/blue_2bandit_b.png","70","test","","","","","","","","","","","5","","","","","","","","",""
"null","303612","SARL_v6","SARL_v6om6kpyc4","5dee72917309b950e5262f3a","fixation","","","img/fixation.png","null","","","test","","","","","","","","","","","","","","","","","","","",""
"270.39999985694885","303885","SARL_v6","SARL_v6om6kpyc4","5dee72917309b950e5262f3a","freq","","","img/blue_2bandit_b2.png","70","","70","test","1","","106","","","","circle","square","102","15","5","0.9901960784313726","","","","","","","",""
"null","304435","SARL_v6","SARL_v6om6kpyc4","5dee72917309b950e5262f3a","freq_resp","","","img/blue_2bandit_b.png","70","img/blue_2bandit_b.png","70","test","","","","","","","","","","","5","","","","","","","","",""
"null","304590","SARL_v6","SARL_v6om6kpyc4","5dee72917309b950e5262f3a","fixation","","","img/fixation.png","null","","","test","","","","","","","","","","","","","","","","","","","",""
"291.7000000476837","304889","SARL_v6","SARL_v6om6kpyc4","5dee72917309b950e5262f3a","freq","","","img/blue_2bandit_b2.png","70","","70","test","1","","107","","","","circle","square","103","16","5","0.9902912621359223","","","","","","","",""
"null","305416","SARL_v6","SARL_v6om6kpyc4","5dee72917309b950e5262f3a","freq_resp","","","img/blue_2bandit_b.png","70","img/blue_2bandit_b.png","70","test","","","","","","","","","","","5","","","","","","","","",""
"null","305569","SARL_v6","SARL_v6om6kpyc4","5dee72917309b950e5262f3a","fixation","","","img/fixation.png","null","","","test","","","","","","","","","","","","","","","","","","","",""
"332.2000000476837","305906","SARL_v6","SARL_v6om6kpyc4","5dee72917309b950e5262f3a","infreq","","","img/orange_2bandit_b2.png","68","","68","test","1","","108","","","","circle","square","104","17","5","0.9903846153846154","","","","","","","",""
"null","306381","SARL_v6","SARL_v6om6kpyc4","5dee72917309b950e5262f3a","infreq_resp","","","img/orange_2bandit_b.png","68","img/orange_2bandit_b.png","68","test","","","","","","","","","","","5","","","","","","","","",""
"null","306538","SARL_v6","SARL_v6om6kpyc4","5dee72917309b950e5262f3a","fixation","","","img/fixation.png","null","","","test","","","","","","","","","","","","","","","","","","","",""
"336.10000014305115","306879","SARL_v6","SARL_v6om6kpyc4","5dee72917309b950e5262f3a","infreq","","","img/orange_2bandit_b2.png","68","","68","test","1","","109","","","","circle","square","105","18","5","0.9904761904761905","","","","","","","",""
"null","307356","SARL_v6","SARL_v6om6kpyc4","5dee72917309b950e5262f3a","infreq_resp","","","img/orange_2bandit_b.png","68","img/orange_2bandit_b.png","68","test","","","","","","","","","","","5","","","","","","","","",""
"null","307511","SARL_v6","SARL_v6om6kpyc4","5dee72917309b950e5262f3a","fixation","","","img/fixation.png","null","","","test","","","","","","","","","","","","","","","","","","","",""
"574.5999999046326","308089","SARL_v6","SARL_v6om6kpyc4","5dee72917309b950e5262f3a","freq","","","img/blue_2bandit_b2.png","70","","70","test","1","","110","","","","circle","square","106","19","5","0.9905660377358491","","","","","","","",""
"null","308321","SARL_v6","SARL_v6om6kpyc4","5dee72917309b950e5262f3a","freq_resp","","","img/blue_2bandit_b.png","70","img/blue_2bandit_b.png","70","test","","","","","","","","","","","5","","","","","","","","",""
"null","308477","SARL_v6","SARL_v6om6kpyc4","5dee72917309b950e5262f3a","fixation","","","img/fixation.png","null","","","test","","","","","","","","","","","","","","","","","","","",""
"536.1000001430511","309016","SARL_v6","SARL_v6om6kpyc4","5dee72917309b950e5262f3a","infreq","","","img/orange_2bandit_b2.png","68","","68","test","1","","111","","","","circle","square","107","20","5","0.9906542056074766","","","","","","","",""
"null","309285","SARL_v6","SARL_v6om6kpyc4","5dee72917309b950e5262f3a","infreq_resp","","","img/orange_2bandit_b.png","68","img/orange_2bandit_b.png","68","test","","","","","","","","","","","5","","","","","","","","",""
"null","309440","SARL_v6","SARL_v6om6kpyc4","5dee72917309b950e5262f3a","fixation","","","img/fixation.png","null","","","test","","","","","","","","","","","","","","","","","","","",""
"491.5","309936","SARL_v6","SARL_v6om6kpyc4","5dee72917309b950e5262f3a","freq","","","img/blue_2bandit_b2.png","70","","70","test","1","","112","","","","circle","square","108","21","5","0.9907407407407407","","","","","","","",""
"null","310262","SARL_v6","SARL_v6om6kpyc4","5dee72917309b950e5262f3a","freq_resp","","","img/blue_2bandit_b.png","70","img/blue_2bandit_b.png","70","test","","","","","","","","","","","5","","","","","","","","",""
"null","310419","SARL_v6","SARL_v6om6kpyc4","5dee72917309b950e5262f3a","fixation","","","img/fixation.png","null","","","test","","","","","","","","","","","","","","","","","","","",""
"321","310745","SARL_v6","SARL_v6om6kpyc4","5dee72917309b950e5262f3a","freq","","","img/blue_2bandit_b2.png","70","","70","test","1","","113","","","","circle","square","109","22","5","0.9908256880733946","","","","","","","",""
"null","311232","SARL_v6","SARL_v6om6kpyc4","5dee72917309b950e5262f3a","freq_resp","","","img/blue_2bandit_b.png","70","img/blue_2bandit_b.png","70","test","","","","","","","","","","","5","","","","","","","","",""
"null","311394","SARL_v6","SARL_v6om6kpyc4","5dee72917309b950e5262f3a","fixation","","","img/fixation.png","null","","","test","","","","","","","","","","","","","","","","","","","",""
"333","311732","SARL_v6","SARL_v6om6kpyc4","5dee72917309b950e5262f3a","freq","","","img/blue_2bandit_b2.png","70","","70","test","1","","114","","","","circle","square","110","23","5","0.990909090909091","","","","","","","",""
"null","312208","SARL_v6","SARL_v6om6kpyc4","5dee72917309b950e5262f3a","freq_resp","","","img/blue_2bandit_b.png","70","img/blue_2bandit_b.png","70","test","","","","","","","","","","","5","","","","","","","","",""
"null","312378","SARL_v6","SARL_v6om6kpyc4","5dee72917309b950e5262f3a","fixation","","","img/fixation.png","null","","","test","","","","","","","","","","","","","","","","","","","",""
"333.2999999523163","312716","SARL_v6","SARL_v6om6kpyc4","5dee72917309b950e5262f3a","freq","","","img/blue_2bandit_b2.png","70","","70","test","1","","115","","","","circle","square","111","24","5","0.990990990990991","","","","","","","",""
"null","313198","SARL_v6","SARL_v6om6kpyc4","5dee72917309b950e5262f3a","freq_resp","","","img/blue_2bandit_b.png","70","img/blue_2bandit_b.png","70","test","","","","","","","","","","","5","","","","","","","","",""
"null","313353","SARL_v6","SARL_v6om6kpyc4","5dee72917309b950e5262f3a","fixation","","","img/fixation.png","null","","","test","","","","","","","","","","","","","","","","","","","",""
"325.40000009536743","313683","SARL_v6","SARL_v6om6kpyc4","5dee72917309b950e5262f3a","freq","","","img/blue_2bandit_b2.png","70","","70","test","1","","116","","","","circle","square","112","25","5","0.9910714285714286","","","","","","","",""
"null","314177","SARL_v6","SARL_v6om6kpyc4","5dee72917309b950e5262f3a","freq_resp","","","img/blue_2bandit_b.png","70","img/blue_2bandit_b.png","70","test","","","","","","","","","","","5","","","","","","","","",""
"null","314334","SARL_v6","SARL_v6om6kpyc4","5dee72917309b950e5262f3a","fixation","","","img/fixation.png","null","","","test","","","","","","","","","","","","","","","","","","","",""
"416.59999990463257","314756","SARL_v6","SARL_v6om6kpyc4","5dee72917309b950e5262f3a","rl","","","img/black_2bandit_b2.png","74","","0","test","","","117","","","4","circle","square","","0","5","","74","4","-7","4","-7","circle","5","0"
"null","315526","SARL_v6","SARL_v6om6kpyc4","5dee72917309b950e5262f3a","feedback","","","<div class=""veryhighPoints""> 4 </div>","null","","na","test","","","NaN","","","","","","","","5","","74","","","","","","5",""
"560.5999999046326","316091","SARL_v6","SARL_v6om6kpyc4","5dee72917309b950e5262f3a","freq","","","img/blue_2bandit_b2.png","70","","70","test","1","","118","","","","circle","square","113","1","6","0.9911504424778761","","","","","","","",""
"null","316348","SARL_v6","SARL_v6om6kpyc4","5dee72917309b950e5262f3a","freq_resp","","","img/blue_2bandit_b.png","70","img/blue_2bandit_b.png","70","test","","","","","","","","","","","6","","","","","","","","",""
"null","316503","SARL_v6","SARL_v6om6kpyc4","5dee72917309b950e5262f3a","fixation","","","img/fixation.png","null","","","test","","","","","","","","","","","","","","","","","","","",""
"352.7999999523163","316861","SARL_v6","SARL_v6om6kpyc4","5dee72917309b950e5262f3a","freq","","","img/blue_2bandit_b2.png","70","","70","test","1","","119","","","","circle","square","114","2","6","0.9912280701754386","","","","","","","",""
"null","317325","SARL_v6","SARL_v6om6kpyc4","5dee72917309b950e5262f3a","freq_resp","","","img/blue_2bandit_b.png","70","img/blue_2bandit_b.png","70","test","","","","","","","","","","","6","","","","","","","","",""
"null","317482","SARL_v6","SARL_v6om6kpyc4","5dee72917309b950e5262f3a","fixation","","","img/fixation.png","null","","","test","","","","","","","","","","","","","","","","","","","",""
"381.2999999523163","317870","SARL_v6","SARL_v6om6kpyc4","5dee72917309b950e5262f3a","freq","","","img/blue_2bandit_b2.png","70","","70","test","1","","120","","","","circle","square","115","3","6","0.991304347826087","","","","","","","",""
"null","318304","SARL_v6","SARL_v6om6kpyc4","5dee72917309b950e5262f3a","freq_resp","","","img/blue_2bandit_b.png","70","img/blue_2bandit_b.png","70","test","","","","","","","","","","","6","","","","","","","","",""
"null","318459","SARL_v6","SARL_v6om6kpyc4","5dee72917309b950e5262f3a","fixation","","","img/fixation.png","null","","","test","","","","","","","","","","","","","","","","","","","",""
"351.7999999523163","318814","SARL_v6","SARL_v6om6kpyc4","5dee72917309b950e5262f3a","freq","","","img/blue_2bandit_b2.png","70","","70","test","1","","121","","","","circle","square","116","4","6","0.9913793103448276","","","","","","","",""
"null","319291","SARL_v6","SARL_v6om6kpyc4","5dee72917309b950e5262f3a","freq_resp","","","img/blue_2bandit_b.png","70","img/blue_2bandit_b.png","70","test","","","","","","","","","","","6","","","","","","","","",""
"null","319456","SARL_v6","SARL_v6om6kpyc4","5dee72917309b950e5262f3a","fixation","","","img/fixation.png","null","","","test","","","","","","","","","","","","","","","","","","","",""
"318.09999990463257","319779","SARL_v6","SARL_v6om6kpyc4","5dee72917309b950e5262f3a","freq","","","img/blue_2bandit_b2.png","70","","70","test","1","","122","","","","circle","square","117","5","6","0.9914529914529915","","","","","","","",""
"null","320279","SARL_v6","SARL_v6om6kpyc4","5dee72917309b950e5262f3a","freq_resp","","","img/blue_2bandit_b.png","70","img/blue_2bandit_b.png","70","test","","","","","","","","","","","6","","","","","","","","",""
"null","320431","SARL_v6","SARL_v6om6kpyc4","5dee72917309b950e5262f3a","fixation","","","img/fixation.png","null","","","test","","","","","","","","","","","","","","","","","","","",""
"341.09999990463257","320774","SARL_v6","SARL_v6om6kpyc4","5dee72917309b950e5262f3a","freq","","","img/blue_2bandit_b2.png","70","","70","test","1","","123","","","","circle","square","118","6","6","0.9915254237288136","","","","","","","",""
"null","321243","SARL_v6","SARL_v6om6kpyc4","5dee72917309b950e5262f3a","freq_resp","","","img/blue_2bandit_b.png","70","img/blue_2bandit_b.png","70","test","","","","","","","","","","","6","","","","","","","","",""
"null","321398","SARL_v6","SARL_v6om6kpyc4","5dee72917309b950e5262f3a","fixation","","","img/fixation.png","null","","","test","","","","","","","","","","","","","","","","","","","",""
"324.09999990463257","321727","SARL_v6","SARL_v6om6kpyc4","5dee72917309b950e5262f3a","freq","","","img/blue_2bandit_b2.png","70","","70","test","1","","124","","","","circle","square","119","7","6","0.9915966386554622","","","","","","","",""
"null","322208","SARL_v6","SARL_v6om6kpyc4","5dee72917309b950e5262f3a","freq_resp","","","img/blue_2bandit_b.png","70","img/blue_2bandit_b.png","70","test","","","","","","","","","","","6","","","","","","","","",""
"null","322363","SARL_v6","SARL_v6om6kpyc4","5dee72917309b950e5262f3a","fixation","","","img/fixation.png","null","","","test","","","","","","","","","","","","","","","","","","","",""
"372","322741","SARL_v6","SARL_v6om6kpyc4","5dee72917309b950e5262f3a","freq","","","img/blue_2bandit_b2.png","70","","70","test","1","","125","","","","circle","square","120","8","6","0.9916666666666667","","","","","","","",""
"null","323182","SARL_v6","SARL_v6om6kpyc4","5dee72917309b950e5262f3a","freq_resp","","","img/blue_2bandit_b.png","70","img/blue_2bandit_b.png","70","test","","","","","","","","","","","6","","","","","","","","",""
"null","323336","SARL_v6","SARL_v6om6kpyc4","5dee72917309b950e5262f3a","fixation","","","img/fixation.png","null","","","test","","","","","","","","","","","","","","","","","","","",""
"365.7000000476837","323705","SARL_v6","SARL_v6om6kpyc4","5dee72917309b950e5262f3a","freq","","","img/blue_2bandit_b2.png","70","","70","test","1","","126","","","","circle","square","121","9","6","0.9917355371900827","","","","","","","",""
"null","324157","SARL_v6","SARL_v6om6kpyc4","5dee72917309b950e5262f3a","freq_resp","","","img/blue_2bandit_b.png","70","img/blue_2bandit_b.png","70","test","","","","","","","","","","","6","","","","","","","","",""
"null","324313","SARL_v6","SARL_v6om6kpyc4","5dee72917309b950e5262f3a","fixation","","","img/fixation.png","null","","","test","","","","","","","","","","","","","","","","","","","",""
"333.5","324651","SARL_v6","SARL_v6om6kpyc4","5dee72917309b950e5262f3a","freq","","","img/blue_2bandit_b2.png","70","","70","test","1","","127","","","","circle","square","122","10","6","0.9918032786885246","","","","","","","",""
"null","325126","SARL_v6","SARL_v6om6kpyc4","5dee72917309b950e5262f3a","freq_resp","","","img/blue_2bandit_b.png","70","img/blue_2bandit_b.png","70","test","","","","","","","","","","","6","","","","","","","","",""
"null","325287","SARL_v6","SARL_v6om6kpyc4","5dee72917309b950e5262f3a","fixation","","","img/fixation.png","null","","","test","","","","","","","","","","","","","","","","","","","",""
"378.7000000476837","325669","SARL_v6","SARL_v6om6kpyc4","5dee72917309b950e5262f3a","freq","","","img/blue_2bandit_b2.png","70","","70","test","1","","128","","","","circle","square","123","11","6","0.991869918699187","","","","","","","",""
"null","326103","SARL_v6","SARL_v6om6kpyc4","5dee72917309b950e5262f3a","freq_resp","","","img/blue_2bandit_b.png","70","img/blue_2bandit_b.png","70","test","","","","","","","","","","","6","","","","","","","","",""
"null","326259","SARL_v6","SARL_v6om6kpyc4","5dee72917309b950e5262f3a","fixation","","","img/fixation.png","null","","","test","","","","","","","","","","","","","","","","","","","",""
"532.6000001430511","326795","SARL_v6","SARL_v6om6kpyc4","5dee72917309b950e5262f3a","freq","","","img/blue_2bandit_b2.png","70","","70","test","1","","129","","","","circle","square","124","12","6","0.9919354838709677","","","","","","","",""
"null","327078","SARL_v6","SARL_v6om6kpyc4","5dee72917309b950e5262f3a","freq_resp","","","img/blue_2bandit_b.png","70","img/blue_2bandit_b.png","70","test","","","","","","","","","","","6","","","","","","","","",""
"null","327248","SARL_v6","SARL_v6om6kpyc4","5dee72917309b950e5262f3a","fixation","","","img/fixation.png","null","","","test","","","","","","","","","","","","","","","","","","","",""
"512.3999998569489","327766","SARL_v6","SARL_v6om6kpyc4","5dee72917309b950e5262f3a","freq","","","img/blue_2bandit_b2.png","70","","70","test","1","","130","","","","circle","square","125","13","6","0.992","","","","","","","",""
"null","328063","SARL_v6","SARL_v6om6kpyc4","5dee72917309b950e5262f3a","freq_resp","","","img/blue_2bandit_b.png","70","img/blue_2bandit_b.png","70","test","","","","","","","","","","","6","","","","","","","","",""
"null","328219","SARL_v6","SARL_v6om6kpyc4","5dee72917309b950e5262f3a","fixation","","","img/fixation.png","null","","","test","","","","","","","","","","","","","","","","","","","",""
