"rt","time_elapsed","expId","subject","prolificID","trialType","rlType","attType","stimulus","key_press","stim","corrresp","phase","corr","pracCounter","trialNum","rewardOne","rewardTwo","reward","bandOne","bandTwo","attentionNum","attentionRunNum","blockNum","performance","bandChosen","circleVal","squareVal","bandOneVal","bandTwoVal","shapeChosen","rlNum","badFlag"
"17646.60000014305","17651","SARL_v6","SARL_v6saywkvlj","62b473736986d2b27c1427d2","","","","","","","","","","","","","","","","","","","","","","","","","","","",""
"","41863","SARL_v6","SARL_v6saywkvlj","62b473736986d2b27c1427d2","fullscreen","fullscreen","fullscreen","","","","","","","","","","","","","","","","","","","","","","","","",""
"35831.5","77696","SARL_v6","SARL_v6saywkvlj","62b473736986d2b27c1427d2","","","","","","","","","","","","","","","","","","","","","","","","","","","",""
"null","78510","SARL_v6","SARL_v6saywkvlj","62b473736986d2b27c1427d2","freqPrac","","","img/blue_2bandit_a2.png","null","img/blue_2bandit_a2.png","70","prac","0","1","","","","","","","","","","","","","","","","","",""
"null","79516","SARL_v6","SARL_v6saywkvlj","62b473736986d2b27c1427d2","feedback","","","img/tooSlow.png","null","","na","prac","","","","","","","","","","","","","","","","","","","",""
"null","79673","SARL_v6","SARL_v6saywkvlj","62b473736986d2b27c1427d2","fixation","","","img/fixation.png","null","","","prac","","","","","","","","","","","","","","","","","","","",""
"null","80488","SARL_v6","SARL_v6saywkvlj","62b473736986d2b27c1427d2","infreqPrac","","","img/orange_2bandit_a2.png","null","img/orange_2bandit_a2.png","68","prac","0","2","","","","","","","","","","","","","","","","","",""
"null","81501","SARL_v6","SARL_v6saywkvlj","62b473736986d2b27c1427d2","feedback","","","img/tooSlow.png","null","","na","prac","","","","","","","","","","","","","","","","","","","",""
"null","81654","SARL_v6","SARL_v6saywkvlj","62b473736986d2b27c1427d2","fixation","","","img/fixation.png","null","","","prac","","","","","","","","","","","","","","","","","","","",""
"621.7000000476837","82278","SARL_v6","SARL_v6saywkvlj","62b473736986d2b27c1427d2","freqPrac","","","img/blue_2bandit_a2.png","70","img/blue_2bandit_a2.png","70","prac","1","2","","","","","","","","","","","","","","","","","",""
"621.7000000476837","82465","SARL_v6","SARL_v6saywkvlj","62b473736986d2b27c1427d2","freqPrac_resp","","","img/blue_2bandit_a.png","70","img/blue_2bandit_a.png","70","prac","","","","","","","","","","","","","","","","","","","",""
"null","82623","SARL_v6","SARL_v6saywkvlj","62b473736986d2b27c1427d2","fixation","","","img/fixation.png","null","","","prac","","","","","","","","","","","","","","","","","","","",""
"null","83436","SARL_v6","SARL_v6saywkvlj","62b473736986d2b27c1427d2","infreqPrac","","","img/orange_2bandit_a2.png","null","img/orange_2bandit_a2.png","68","prac","0","3","","","","","","","","","","","","","","","","","",""
"null","84450","SARL_v6","SARL_v6saywkvlj","62b473736986d2b27c1427d2","feedback","","","img/tooSlow.png","null","","na","prac","","","","","","","","","","","","","","","","","","","",""
"null","84605","SARL_v6","SARL_v6saywkvlj","62b473736986d2b27c1427d2","fixation","","","img/fixation.png","null","","","prac","","","","","","","","","","","","","","","","","","","",""
"511","85117","SARL_v6","SARL_v6saywkvlj","62b473736986d2b27c1427d2","infreqPrac","","","img/orange_2bandit_a2.png","70","img/orange_2bandit_a2.png","68","prac","0","4","","","","","","","","","","","","","","","","","",""
"511","85416","SARL_v6","SARL_v6saywkvlj","62b473736986d2b27c1427d2","infreqPrac_resp","","","img/orange_2bandit_a.png","70","img/orange_2bandit_a.png","68","prac","","","","","","","","","","","","","","","","","","","",""
"null","86429","SARL_v6","SARL_v6saywkvlj","62b473736986d2b27c1427d2","feedback","","","img/wrongKey.png","null","","na","prac","","","","","","","","","","","","","","","","","","","",""
"null","86589","SARL_v6","SARL_v6saywkvlj","62b473736986d2b27c1427d2","fixation","","","img/fixation.png","null","","","prac","","","","","","","","","","","","","","","","","","","",""
"617","87208","SARL_v6","SARL_v6saywkvlj","62b473736986d2b27c1427d2","infreqPrac","","","img/orange_2bandit_a2.png","68","img/orange_2bandit_a2.png","68","prac","1","4","","","","","","","","","","","","","","","","","",""
"617","87397","SARL_v6","SARL_v6saywkvlj","62b473736986d2b27c1427d2","infreqPrac_resp","","","img/orange_2bandit_a.png","68","img/orange_2bandit_a.png","68","prac","","","","","","","","","","","","","","","","","","","",""
"null","87557","SARL_v6","SARL_v6saywkvlj","62b473736986d2b27c1427d2","fixation","","","img/fixation.png","null","","","prac","","","","","","","","","","","","","","","","","","","",""
"null","88359","SARL_v6","SARL_v6saywkvlj","62b473736986d2b27c1427d2","freqPrac","","","img/blue_2bandit_a2.png","null","img/blue_2bandit_a2.png","70","prac","0","5","","","","","","","","","","","","","","","","","",""
"null","89367","SARL_v6","SARL_v6saywkvlj","62b473736986d2b27c1427d2","feedback","","","img/tooSlow.png","null","","na","prac","","","","","","","","","","","","","","","","","","","",""
"null","89522","SARL_v6","SARL_v6saywkvlj","62b473736986d2b27c1427d2","fixation","","","img/fixation.png","null","","","prac","","","","","","","","","","","","","","","","","","","",""
"601.7999999523163","90126","SARL_v6","SARL_v6saywkvlj","62b473736986d2b27c1427d2","infreqPrac","","","img/orange_2bandit_a2.png","68","img/orange_2bandit_a2.png","68","prac","1","5","","","","","","","","","","","","","","","","","",""
"601.7999999523163","90332","SARL_v6","SARL_v6saywkvlj","62b473736986d2b27c1427d2","infreqPrac_resp","","","img/orange_2bandit_a.png","68","img/orange_2bandit_a.png","68","prac","","","","","","","","","","","","","","","","","","","",""
"null","90486","SARL_v6","SARL_v6saywkvlj","62b473736986d2b27c1427d2","fixation","","","img/fixation.png","null","","","prac","","","","","","","","","","","","","","","","","","","",""
"null","91288","SARL_v6","SARL_v6saywkvlj","62b473736986d2b27c1427d2","freqPrac","","","img/blue_2bandit_a2.png","null","img/blue_2bandit_a2.png","70","prac","0","6","","","","","","","","","","","","","","","","","",""
"null","92305","SARL_v6","SARL_v6saywkvlj","62b473736986d2b27c1427d2","feedback","","","img/tooSlow.png","null","","na","prac","","","","","","","","","","","","","","","","","","","",""
"null","92457","SARL_v6","SARL_v6saywkvlj","62b473736986d2b27c1427d2","fixation","","","img/fixation.png","null","","","prac","","","","","","","","","","","","","","","","","","","",""
"545.8999998569489","93005","SARL_v6","SARL_v6saywkvlj","62b473736986d2b27c1427d2","freqPrac","","","img/blue_2bandit_a2.png","68","img/blue_2bandit_a2.png","70","prac","0","7","","","","","","","","","","","","","","","","","",""
"545.8999998569489","93272","SARL_v6","SARL_v6saywkvlj","62b473736986d2b27c1427d2","freqPrac_resp","","","img/blue_2bandit_a.png","68","img/blue_2bandit_a.png","70","prac","","","","","","","","","","","","","","","","","","","",""
"null","94288","SARL_v6","SARL_v6saywkvlj","62b473736986d2b27c1427d2","feedback","","","img/wrongKey.png","null","","na","prac","","","","","","","","","","","","","","","","","","","",""
"null","94442","SARL_v6","SARL_v6saywkvlj","62b473736986d2b27c1427d2","fixation","","","img/fixation.png","null","","","prac","","","","","","","","","","","","","","","","","","","",""
"2171073.2000000477","2265521","SARL_v6","SARL_v6saywkvlj","62b473736986d2b27c1427d2","","","","","","","","prac","","","","","","","","","","","","","","","","","","","",""
"768.5","2266292","SARL_v6","SARL_v6saywkvlj","62b473736986d2b27c1427d2","rlPractice","","","img/black_2bandit_a2.png","74","img/black_2bandit_a2.png","","prac","","","0","","","","","","","","","","","","","","","","",""
"null","2267059","SARL_v6","SARL_v6saywkvlj","62b473736986d2b27c1427d2","feedback","","","<div class=""verylowPoints_sq""> -14 </div>","null","","na","prac","","","1","10","-14","10","","","","","","","","","","","","","",""
"null","2267216","SARL_v6","SARL_v6saywkvlj","62b473736986d2b27c1427d2","fixation","","","img/fixation.png","null","","","prac","","","","","","","","","","","","","","","","","","","",""
"533.7000000476837","2267751","SARL_v6","SARL_v6saywkvlj","62b473736986d2b27c1427d2","rlPractice","","","img/black_2bandit_a2.png","75","img/black_2bandit_a2.png","","prac","","","1","","","","","","","","","","","","","","","","",""
"null","2268509","SARL_v6","SARL_v6saywkvlj","62b473736986d2b27c1427d2","feedback","","","<div class=""veryhighPoints""> 5 </div>","null","","na","prac","","","2","5","-5","5","","","","","","","","","","","","","",""
"null","2268665","SARL_v6","SARL_v6saywkvlj","62b473736986d2b27c1427d2","fixation","","","img/fixation.png","null","","","prac","","","","","","","","","","","","","","","","","","","",""
"833","2269500","SARL_v6","SARL_v6saywkvlj","62b473736986d2b27c1427d2","rlPractice","","","img/black_2bandit_a2.png","75","img/black_2bandit_a2.png","","prac","","","2","","","","","","","","","","","","","","","","",""
"null","2270255","SARL_v6","SARL_v6saywkvlj","62b473736986d2b27c1427d2","feedback","","","<div class=""veryhighPoints""> 30 </div>","null","","na","prac","","","3","30","2","30","","","","","","","","","","","","","",""
"null","2270411","SARL_v6","SARL_v6saywkvlj","62b473736986d2b27c1427d2","fixation","","","img/fixation.png","null","","","prac","","","","","","","","","","","","","","","","","","","",""
"770.5","2271183","SARL_v6","SARL_v6saywkvlj","62b473736986d2b27c1427d2","rlPractice","","","img/black_2bandit_a2.png","74","img/black_2bandit_a2.png","","prac","","","3","","","","","","","","","","","","","","","","",""
"null","2271950","SARL_v6","SARL_v6saywkvlj","62b473736986d2b27c1427d2","feedback","","","<div class=""veryhighPoints_sq""> 20 </div>","null","","na","prac","","","4","-2","20","-2","","","","","","","","","","","","","",""
"null","2272107","SARL_v6","SARL_v6saywkvlj","62b473736986d2b27c1427d2","fixation","","","img/fixation.png","null","","","prac","","","","","","","","","","","","","","","","","","","",""
"3972.2999999523163","2276081","SARL_v6","SARL_v6saywkvlj","62b473736986d2b27c1427d2","","","","","","","","prac","","","","","","","","","","","","","","","","","","","",""
"null","2276895","SARL_v6","SARL_v6saywkvlj","62b473736986d2b27c1427d2","mixAttFreqPrac","","","img/blue_2bandit_a2.png","null","img/blue_2bandit_a2.png","70","prac","","","1","","","","","","","","","","","","","","","","",""
"null","2277052","SARL_v6","SARL_v6saywkvlj","62b473736986d2b27c1427d2","fixation","","","img/fixation.png","null","","","prac","","","","","","","","","","","","","","","","","","","",""
"null","2277858","SARL_v6","SARL_v6saywkvlj","62b473736986d2b27c1427d2","mixAttInfreqPrac","","","img/orange_2bandit_a2.png","null","img/orange_2bandit_a2.png","68","prac","","","2","","","","","","","","","","","","","","","","",""
"132.90000009536743","2278011","SARL_v6","SARL_v6saywkvlj","62b473736986d2b27c1427d2","fixation","","","img/fixation.png","68","","","prac","","","","","","","","","","","","","","","","","","","",""
"780.0999999046326","2278793","SARL_v6","SARL_v6saywkvlj","62b473736986d2b27c1427d2","mixAttInfreqPrac","","","img/orange_2bandit_a2.png","68","img/orange_2bandit_a2.png","68","prac","","","3","","","","","","","","","","","","","","","","",""
"780.0999999046326","2278814","SARL_v6","SARL_v6saywkvlj","62b473736986d2b27c1427d2","infreqPrac_resp","","","img/orange_2bandit_a.png","68","img/blue_2bandit_a.png","68","prac","","","3","","","","","","","","","","","","","","","","",""
"null","2278975","SARL_v6","SARL_v6saywkvlj","62b473736986d2b27c1427d2","fixation","","","img/fixation.png","null","","","prac","","","","","","","","","","","","","","","","","","","",""
"null","2279782","SARL_v6","SARL_v6saywkvlj","62b473736986d2b27c1427d2","mixAttInfreqPrac","","","img/orange_2bandit_a2.png","null","img/orange_2bandit_a2.png","68","prac","","","4","","","","","","","","","","","","","","","","",""
"35.5","2279936","SARL_v6","SARL_v6saywkvlj","62b473736986d2b27c1427d2","fixation","","","img/fixation.png","68","","","prac","","","","","","","","","","","","","","","","","","","",""
"null","2280739","SARL_v6","SARL_v6saywkvlj","62b473736986d2b27c1427d2","mixAttFreqPrac","","","img/blue_2bandit_a2.png","null","img/blue_2bandit_a2.png","70","prac","","","5","","","","","","","","","","","","","","","","",""
"null","2280892","SARL_v6","SARL_v6saywkvlj","62b473736986d2b27c1427d2","fixation","","","img/fixation.png","null","","","prac","","","","","","","","","","","","","","","","","","","",""
"null","2282403","SARL_v6","SARL_v6saywkvlj","62b473736986d2b27c1427d2","mixRLPractice","","","img/black_2bandit_a2.png","null","img/black_2bandit_a2.png","","prac","","","5","","","","","","","","","","","","","","","","",""
"null","2283165","SARL_v6","SARL_v6saywkvlj","62b473736986d2b27c1427d2","feedback","","","<div font size = 80> TOO SLOW  </div>","null","","na","prac","","","6","-14","10","-14","","","","","","","","","","","","","",""
"null","2283318","SARL_v6","SARL_v6saywkvlj","62b473736986d2b27c1427d2","fixation","","","img/fixation.png","null","","","prac","","","","","","","","","","","","","","","","","","","",""
"null","2284120","SARL_v6","SARL_v6saywkvlj","62b473736986d2b27c1427d2","mixAttFreqPrac","","","img/blue_2bandit_a2.png","null","img/blue_2bandit_a2.png","70","prac","","","7","","","","","","","","","","","","","","","","",""
"null","2284272","SARL_v6","SARL_v6saywkvlj","62b473736986d2b27c1427d2","fixation","","","img/fixation.png","null","","","prac","","","","","","","","","","","","","","","","","","","",""
"64.20000004768372","2284338","SARL_v6","SARL_v6saywkvlj","62b473736986d2b27c1427d2","mixAttInfreqPrac","","","img/orange_2bandit_a2.png","70","img/orange_2bandit_a2.png","68","prac","","","8","","","","","","","","","","","","","","","","",""
"64.20000004768372","2285075","SARL_v6","SARL_v6saywkvlj","62b473736986d2b27c1427d2","infreqPrac_resp","","","img/orange_2bandit_a.png","70","img/blue_2bandit_a.png","68","prac","","","8","","","","","","","","","","","","","","","","",""
"93.39999985694885","2285238","SARL_v6","SARL_v6saywkvlj","62b473736986d2b27c1427d2","fixation","","","img/fixation.png","68","","","prac","","","","","","","","","","","","","","","","","","","",""
"null","2286046","SARL_v6","SARL_v6saywkvlj","62b473736986d2b27c1427d2","mixAttFreqPrac","","","img/blue_2bandit_a2.png","null","img/blue_2bandit_a2.png","70","prac","","","9","","","","","","","","","","","","","","","","",""
"17.200000047683716","2286202","SARL_v6","SARL_v6saywkvlj","62b473736986d2b27c1427d2","fixation","","","img/fixation.png","70","","","prac","","","","","","","","","","","","","","","","","","","",""
"707.4000000953674","2286912","SARL_v6","SARL_v6saywkvlj","62b473736986d2b27c1427d2","mixAttFreqPrac","","","img/blue_2bandit_a2.png","70","img/blue_2bandit_a2.png","70","prac","","","10","","","","","","","","","","","","","","","","",""
"707.4000000953674","2287011","SARL_v6","SARL_v6saywkvlj","62b473736986d2b27c1427d2","freqPrac_resp","","","img/blue_2bandit_a.png","70","img/blue_2bandit_a.png","70","prac","","","10","","","","","","","","","","","","","","","","",""
"null","2287166","SARL_v6","SARL_v6saywkvlj","62b473736986d2b27c1427d2","fixation","","","img/fixation.png","null","","","prac","","","","","","","","","","","","","","","","","","","",""
"594.5","2287762","SARL_v6","SARL_v6saywkvlj","62b473736986d2b27c1427d2","mixAttInfreqPrac","","","img/orange_2bandit_a2.png","70","img/orange_2bandit_a2.png","68","prac","","","11","","","","","","","","","","","","","","","","",""
"594.5","2287982","SARL_v6","SARL_v6saywkvlj","62b473736986d2b27c1427d2","infreqPrac_resp","","","img/orange_2bandit_a.png","70","img/blue_2bandit_a.png","68","prac","","","11","","","","","","","","","","","","","","","","",""
"68.29999995231628","2288143","SARL_v6","SARL_v6saywkvlj","62b473736986d2b27c1427d2","fixation","","","img/fixation.png","68","","","prac","","","","","","","","","","","","","","","","","","","",""
"1004.5","2289149","SARL_v6","SARL_v6saywkvlj","62b473736986d2b27c1427d2","mixRLPractice","","","img/black_2bandit_a2.png","74","img/black_2bandit_a2.png","","prac","","","11","","","","","","","","","","","","","","","","",""
"null","2289911","SARL_v6","SARL_v6saywkvlj","62b473736986d2b27c1427d2","feedback","","","<div class=""verylowPoints_sq""> -5 </div>","null","","na","prac","","","12","5","-5","5","","","","","","","","","","","","","",""
"null","2290071","SARL_v6","SARL_v6saywkvlj","62b473736986d2b27c1427d2","fixation","","","img/fixation.png","null","","","prac","","","","","","","","","","","","","","","","","","","",""
"9867.399999856949","2299940","SARL_v6","SARL_v6saywkvlj","62b473736986d2b27c1427d2","","","","","","","","prac","","","","","","","","","","","","","","","","","","","",""
"null","2300751","SARL_v6","SARL_v6saywkvlj","62b473736986d2b27c1427d2","freq","","","img/blue_2bandit_a2.png","null","","70","test","0","","1","","","","square","circle","1","1","1","0","","","","","","","",""
"null","2300904","SARL_v6","SARL_v6saywkvlj","62b473736986d2b27c1427d2","fixation","","","img/fixation.png","null","","","test","","","","","","","","","","","","","","","","","","","",""
"44.40000009536743","2300950","SARL_v6","SARL_v6saywkvlj","62b473736986d2b27c1427d2","freq","","","img/blue_2bandit_a2.png","68","","70","test","0","","2","","","","square","circle","2","2","1","0","","","","","","","",""
"null","2301710","SARL_v6","SARL_v6saywkvlj","62b473736986d2b27c1427d2","freq_resp","","","img/blue_2bandit_a.png","68","img/blue_2bandit_a.png","70","test","","","","","","","","","","","1","","","","","","","","",""
"null","2301868","SARL_v6","SARL_v6saywkvlj","62b473736986d2b27c1427d2","fixation","","","img/fixation.png","null","","","test","","","","","","","","","","","","","","","","","","","",""
"602.9000000953674","2302472","SARL_v6","SARL_v6saywkvlj","62b473736986d2b27c1427d2","freq","","","img/blue_2bandit_a2.png","70","","70","test","1","","3","","","","square","circle","3","3","1","0.3333333333333333","","","","","","","",""
"null","2302686","SARL_v6","SARL_v6saywkvlj","62b473736986d2b27c1427d2","freq_resp","","","img/blue_2bandit_a.png","70","img/blue_2bandit_a.png","70","test","","","","","","","","","","","1","","","","","","","","",""
"null","2302840","SARL_v6","SARL_v6saywkvlj","62b473736986d2b27c1427d2","fixation","","","img/fixation.png","null","","","test","","","","","","","","","","","","","","","","","","","",""
"359.2000000476837","2303201","SARL_v6","SARL_v6saywkvlj","62b473736986d2b27c1427d2","freq","","","img/blue_2bandit_a2.png","70","","70","test","1","","4","","","","square","circle","4","4","1","0.5","","","","","","","",""
"null","2303651","SARL_v6","SARL_v6saywkvlj","62b473736986d2b27c1427d2","freq_resp","","","img/blue_2bandit_a.png","70","img/blue_2bandit_a.png","70","test","","","","","","","","","","","1","","","","","","","","",""
"null","2303811","SARL_v6","SARL_v6saywkvlj","62b473736986d2b27c1427d2","fixation","","","img/fixation.png","null","","","test","","","","","","","","","","","","","","","","","","","",""
"119.69999980926514","2303932","SARL_v6","SARL_v6saywkvlj","62b473736986d2b27c1427d2","freq","","","img/blue_2bandit_a2.png","70","","70","test","1","","5","","","","square","circle","5","5","1","0.6","","","","","","","",""
"null","2304629","SARL_v6","SARL_v6saywkvlj","62b473736986d2b27c1427d2","freq_resp","","","img/blue_2bandit_a.png","70","img/blue_2bandit_a.png","70","test","","","","","","","","","","","1","","","","","","","","",""
"null","2304786","SARL_v6","SARL_v6saywkvlj","62b473736986d2b27c1427d2","fixation","","","img/fixation.png","null","","","test","","","","","","","","","","","","","","","","","","","",""
"564.8999998569489","2305352","SARL_v6","SARL_v6saywkvlj","62b473736986d2b27c1427d2","freq","","","img/blue_2bandit_a2.png","70","","70","test","1","","6","","","","square","circle","6","6","1","0.6666666666666666","","","","","","","",""
"null","2305601","SARL_v6","SARL_v6saywkvlj","62b473736986d2b27c1427d2","freq_resp","","","img/blue_2bandit_a.png","70","img/blue_2bandit_a.png","70","test","","","","","","","","","","","1","","","","","","","","",""
"null","2305757","SARL_v6","SARL_v6saywkvlj","62b473736986d2b27c1427d2","fixation","","","img/fixation.png","null","","","test","","","","","","","","","","","","","","","","","","","",""
"493.09999990463257","2306252","SARL_v6","SARL_v6saywkvlj","62b473736986d2b27c1427d2","freq","","","img/blue_2bandit_a2.png","70","","70","test","1","","7","","","","square","circle","7","7","1","0.7142857142857143","","","","","","","",""
"null","2306572","SARL_v6","SARL_v6saywkvlj","62b473736986d2b27c1427d2","freq_resp","","","img/blue_2bandit_a.png","70","img/blue_2bandit_a.png","70","test","","","","","","","","","","","1","","","","","","","","",""
"null","2306729","SARL_v6","SARL_v6saywkvlj","62b473736986d2b27c1427d2","fixation","","","img/fixation.png","null","","","test","","","","","","","","","","","","","","","","","","","",""
"641.5","2307372","SARL_v6","SARL_v6saywkvlj","62b473736986d2b27c1427d2","freq","","","img/blue_2bandit_a2.png","70","","70","test","1","","8","","","","square","circle","8","8","1","0.75","","","","","","","",""
"null","2307541","SARL_v6","SARL_v6saywkvlj","62b473736986d2b27c1427d2","freq_resp","","","img/blue_2bandit_a.png","70","img/blue_2bandit_a.png","70","test","","","","","","","","","","","1","","","","","","","","",""
"null","2307701","SARL_v6","SARL_v6saywkvlj","62b473736986d2b27c1427d2","fixation","","","img/fixation.png","null","","","test","","","","","","","","","","","","","","","","","","","",""
"660.0999999046326","2308363","SARL_v6","SARL_v6saywkvlj","62b473736986d2b27c1427d2","freq","","","img/blue_2bandit_a2.png","70","","70","test","1","","9","","","","square","circle","9","9","1","0.7777777777777778","","","","","","","",""
"null","2308511","SARL_v6","SARL_v6saywkvlj","62b473736986d2b27c1427d2","freq_resp","","","img/blue_2bandit_a.png","70","img/blue_2bandit_a.png","70","test","","","","","","","","","","","1","","","","","","","","",""
"null","2308665","SARL_v6","SARL_v6saywkvlj","62b473736986d2b27c1427d2","fixation","","","img/fixation.png","null","","","test","","","","","","","","","","","","","","","","","","","",""
"null","2309473","SARL_v6","SARL_v6saywkvlj","62b473736986d2b27c1427d2","infreq","","","img/orange_2bandit_a2.png","null","","68","test","0","","10","","","","square","circle","10","10","1","0.7","","","","","","","",""
"null","2309629","SARL_v6","SARL_v6saywkvlj","62b473736986d2b27c1427d2","fixation","","","img/fixation.png","null","","","test","","","","","","","","","","","","","","","","","","","",""
"null","2310443","SARL_v6","SARL_v6saywkvlj","62b473736986d2b27c1427d2","freq","","","img/blue_2bandit_a2.png","null","","70","test","0","","11","","","","square","circle","11","11","1","0.6363636363636364","","","","","","","",""
"null","2310597","SARL_v6","SARL_v6saywkvlj","62b473736986d2b27c1427d2","fixation","","","img/fixation.png","null","","","test","","","","","","","","","","","","","","","","","","","",""
"493.90000009536743","2311092","SARL_v6","SARL_v6saywkvlj","62b473736986d2b27c1427d2","freq","","","img/blue_2bandit_a2.png","70","","70","test","1","","12","","","","square","circle","12","12","1","0.6666666666666666","","","","","","","",""
"null","2311411","SARL_v6","SARL_v6saywkvlj","62b473736986d2b27c1427d2","freq_resp","","","img/blue_2bandit_a.png","70","img/blue_2bandit_a.png","70","test","","","","","","","","","","","1","","","","","","","","",""
"null","2311567","SARL_v6","SARL_v6saywkvlj","62b473736986d2b27c1427d2","fixation","","","img/fixation.png","null","","","test","","","","","","","","","","","","","","","","","","","",""
"503.2000000476837","2312072","SARL_v6","SARL_v6saywkvlj","62b473736986d2b27c1427d2","freq","","","img/blue_2bandit_a2.png","70","","70","test","1","","13","","","","square","circle","13","13","1","0.6923076923076923","","","","","","","",""
"null","2312383","SARL_v6","SARL_v6saywkvlj","62b473736986d2b27c1427d2","freq_resp","","","img/blue_2bandit_a.png","70","img/blue_2bandit_a.png","70","test","","","","","","","","","","","1","","","","","","","","",""
"null","2312537","SARL_v6","SARL_v6saywkvlj","62b473736986d2b27c1427d2","fixation","","","img/fixation.png","null","","","test","","","","","","","","","","","","","","","","","","","",""
"253.70000004768372","2312792","SARL_v6","SARL_v6saywkvlj","62b473736986d2b27c1427d2","infreq","","","img/orange_2bandit_a2.png","70","","68","test","0","","14","","","","square","circle","14","14","1","0.6428571428571429","","","","","","","",""
"null","2313341","SARL_v6","SARL_v6saywkvlj","62b473736986d2b27c1427d2","infreq_resp","","","img/orange_2bandit_a.png","70","img/orange_2bandit_a.png","68","test","","","","","","","","","","","1","","","","","","","","",""
"null","2313494","SARL_v6","SARL_v6saywkvlj","62b473736986d2b27c1427d2","fixation","","","img/fixation.png","null","","","test","","","","","","","","","","","","","","","","","","","",""
"null","2314306","SARL_v6","SARL_v6saywkvlj","62b473736986d2b27c1427d2","freq","","","img/blue_2bandit_a2.png","null","","70","test","0","","15","","","","square","circle","15","15","1","0.6","","","","","","","",""
"null","2314463","SARL_v6","SARL_v6saywkvlj","62b473736986d2b27c1427d2","fixation","","","img/fixation.png","null","","","test","","","","","","","","","","","","","","","","","","","",""
"null","2315270","SARL_v6","SARL_v6saywkvlj","62b473736986d2b27c1427d2","freq","","","img/blue_2bandit_a2.png","null","","70","test","0","","16","","","","square","circle","16","16","1","0.5625","","","","","","","",""
"null","2315427","SARL_v6","SARL_v6saywkvlj","62b473736986d2b27c1427d2","fixation","","","img/fixation.png","null","","","test","","","","","","","","","","","","","","","","","","","",""
"563.4000000953674","2315992","SARL_v6","SARL_v6saywkvlj","62b473736986d2b27c1427d2","freq","","","img/blue_2bandit_a2.png","70","","70","test","1","","17","","","","square","circle","17","17","1","0.5882352941176471","","","","","","","",""
"null","2316234","SARL_v6","SARL_v6saywkvlj","62b473736986d2b27c1427d2","freq_resp","","","img/blue_2bandit_a.png","70","img/blue_2bandit_a.png","70","test","","","","","","","","","","","1","","","","","","","","",""
"null","2316391","SARL_v6","SARL_v6saywkvlj","62b473736986d2b27c1427d2","fixation","","","img/fixation.png","null","","","test","","","","","","","","","","","","","","","","","","","",""
"677.2999999523163","2317070","SARL_v6","SARL_v6saywkvlj","62b473736986d2b27c1427d2","freq","","","img/blue_2bandit_a2.png","70","","70","test","1","","18","","","","square","circle","18","18","1","0.6111111111111112","","","","","","","",""
"null","2317199","SARL_v6","SARL_v6saywkvlj","62b473736986d2b27c1427d2","freq_resp","","","img/blue_2bandit_a.png","70","img/blue_2bandit_a.png","70","test","","","","","","","","","","","1","","","","","","","","",""
"null","2317361","SARL_v6","SARL_v6saywkvlj","62b473736986d2b27c1427d2","fixation","","","img/fixation.png","null","","","test","","","","","","","","","","","","","","","","","","","",""
"null","2318170","SARL_v6","SARL_v6saywkvlj","62b473736986d2b27c1427d2","freq","","","img/blue_2bandit_a2.png","null","","70","test","0","","19","","","","square","circle","19","19","1","0.5789473684210527","","","","","","","",""
"null","2318325","SARL_v6","SARL_v6saywkvlj","62b473736986d2b27c1427d2","fixation","","","img/fixation.png","null","","","test","","","","","","","","","","","","","","","","","","","",""
"64.10000014305115","2318391","SARL_v6","SARL_v6saywkvlj","62b473736986d2b27c1427d2","freq","","","img/blue_2bandit_a2.png","70","","70","test","1","","20","","","","square","circle","20","20","1","0.6","","","","","","","",""
"null","2319131","SARL_v6","SARL_v6saywkvlj","62b473736986d2b27c1427d2","freq_resp","","","img/blue_2bandit_a.png","70","img/blue_2bandit_a.png","70","test","","","","","","","","","","","1","","","","","","","","",""
"null","2319286","SARL_v6","SARL_v6saywkvlj","62b473736986d2b27c1427d2","fixation","","","img/fixation.png","null","","","test","","","","","","","","","","","","","","","","","","","",""
"93.89999985694885","2319382","SARL_v6","SARL_v6saywkvlj","62b473736986d2b27c1427d2","freq","","","img/blue_2bandit_a2.png","70","","70","test","1","","21","","","","square","circle","21","21","1","0.6190476190476191","","","","","","","",""
"null","2320092","SARL_v6","SARL_v6saywkvlj","62b473736986d2b27c1427d2","freq_resp","","","img/blue_2bandit_a.png","70","img/blue_2bandit_a.png","70","test","","","","","","","","","","","1","","","","","","","","",""
"null","2320246","SARL_v6","SARL_v6saywkvlj","62b473736986d2b27c1427d2","fixation","","","img/fixation.png","null","","","test","","","","","","","","","","","","","","","","","","","",""
"982.6000001430511","2321230","SARL_v6","SARL_v6saywkvlj","62b473736986d2b27c1427d2","rl","","","img/black_2bandit_a2.png","75","","0","test","","","22","","","-3","square","circle","","0","1","","75","-3","-3","-3","-3","circle","1","0"
"null","2321997","SARL_v6","SARL_v6saywkvlj","62b473736986d2b27c1427d2","feedback","","","<div class=""verylowPoints""> -3 </div>","null","","na","test","","","NaN","","","","","","","","1","","75","","","","","","1",""
"null","2322805","SARL_v6","SARL_v6saywkvlj","62b473736986d2b27c1427d2","freq","","","img/blue_2bandit_a2.png","null","","70","test","0","","23","","","","square","circle","22","1","2","0.5909090909090909","","","","","","","",""
"null","2322963","SARL_v6","SARL_v6saywkvlj","62b473736986d2b27c1427d2","fixation","","","img/fixation.png","null","","","test","","","","","","","","","","","","","","","","","","","",""
"69.29999995231628","2323034","SARL_v6","SARL_v6saywkvlj","62b473736986d2b27c1427d2","freq","","","img/blue_2bandit_a2.png","70","","70","test","1","","24","","","","square","circle","23","2","2","0.6086956521739131","","","","","","","",""
"null","2323767","SARL_v6","SARL_v6saywkvlj","62b473736986d2b27c1427d2","freq_resp","","","img/blue_2bandit_a.png","70","img/blue_2bandit_a.png","70","test","","","","","","","","","","","2","","","","","","","","",""
"null","2323922","SARL_v6","SARL_v6saywkvlj","62b473736986d2b27c1427d2","fixation","","","img/fixation.png","null","","","test","","","","","","","","","","","","","","","","","","","",""
"716.5","2324640","SARL_v6","SARL_v6saywkvlj","62b473736986d2b27c1427d2","freq","","","img/blue_2bandit_a2.png","70","","70","test","1","","25","","","","square","circle","24","3","2","0.625","","","","","","","",""
"null","2324732","SARL_v6","SARL_v6saywkvlj","62b473736986d2b27c1427d2","freq_resp","","","img/blue_2bandit_a.png","70","img/blue_2bandit_a.png","70","test","","","","","","","","","","","2","","","","","","","","",""
"null","2324888","SARL_v6","SARL_v6saywkvlj","62b473736986d2b27c1427d2","fixation","","","img/fixation.png","null","","","test","","","","","","","","","","","","","","","","","","","",""
"569.2000000476837","2325459","SARL_v6","SARL_v6saywkvlj","62b473736986d2b27c1427d2","freq","","","img/blue_2bandit_a2.png","70","","70","test","1","","26","","","","square","circle","25","4","2","0.64","","","","","","","",""
"null","2325698","SARL_v6","SARL_v6saywkvlj","62b473736986d2b27c1427d2","freq_resp","","","img/blue_2bandit_a.png","70","img/blue_2bandit_a.png","70","test","","","","","","","","","","","2","","","","","","","","",""
"null","2325852","SARL_v6","SARL_v6saywkvlj","62b473736986d2b27c1427d2","fixation","","","img/fixation.png","null","","","test","","","","","","","","","","","","","","","","","","","",""
"546.9000000953674","2326400","SARL_v6","SARL_v6saywkvlj","62b473736986d2b27c1427d2","freq","","","img/blue_2bandit_a2.png","70","","70","test","1","","27","","","","square","circle","26","5","2","0.6538461538461539","","","","","","","",""
"null","2326656","SARL_v6","SARL_v6saywkvlj","62b473736986d2b27c1427d2","freq_resp","","","img/blue_2bandit_a.png","70","img/blue_2bandit_a.png","70","test","","","","","","","","","","","2","","","","","","","","",""
"null","2326814","SARL_v6","SARL_v6saywkvlj","62b473736986d2b27c1427d2","fixation","","","img/fixation.png","null","","","test","","","","","","","","","","","","","","","","","","","",""
"694.5","2327510","SARL_v6","SARL_v6saywkvlj","62b473736986d2b27c1427d2","freq","","","img/blue_2bandit_a2.png","70","","70","test","1","","28","","","","square","circle","27","6","2","0.6666666666666666","","","","","","","",""
"null","2327621","SARL_v6","SARL_v6saywkvlj","62b473736986d2b27c1427d2","freq_resp","","","img/blue_2bandit_a.png","70","img/blue_2bandit_a.png","70","test","","","","","","","","","","","2","","","","","","","","",""
"null","2327776","SARL_v6","SARL_v6saywkvlj","62b473736986d2b27c1427d2","fixation","","","img/fixation.png","null","","","test","","","","","","","","","","","","","","","","","","","",""
"497.39999985694885","2328275","SARL_v6","SARL_v6saywkvlj","62b473736986d2b27c1427d2","freq","","","img/blue_2bandit_a2.png","70","","70","test","1","","29","","","","square","circle","28","7","2","0.6785714285714286","","","","","","","",""
"null","2328588","SARL_v6","SARL_v6saywkvlj","62b473736986d2b27c1427d2","freq_resp","","","img/blue_2bandit_a.png","70","img/blue_2bandit_a.png","70","test","","","","","","","","","","","2","","","","","","","","",""
"null","2328744","SARL_v6","SARL_v6saywkvlj","62b473736986d2b27c1427d2","fixation","","","img/fixation.png","null","","","test","","","","","","","","","","","","","","","","","","","",""
"404.39999985694885","2329150","SARL_v6","SARL_v6saywkvlj","62b473736986d2b27c1427d2","freq","","","img/blue_2bandit_a2.png","70","","70","test","1","","30","","","","square","circle","29","8","2","0.6896551724137931","","","","","","","",""
"null","2329550","SARL_v6","SARL_v6saywkvlj","62b473736986d2b27c1427d2","freq_resp","","","img/blue_2bandit_a.png","70","img/blue_2bandit_a.png","70","test","","","","","","","","","","","2","","","","","","","","",""
"null","2329708","SARL_v6","SARL_v6saywkvlj","62b473736986d2b27c1427d2","fixation","","","img/fixation.png","null","","","test","","","","","","","","","","","","","","","","","","","",""
"249.70000004768372","2329960","SARL_v6","SARL_v6saywkvlj","62b473736986d2b27c1427d2","freq","","","img/blue_2bandit_a2.png","70","","70","test","1","","31","","","","square","circle","30","9","2","0.7","","","","","","","",""
"null","2330525","SARL_v6","SARL_v6saywkvlj","62b473736986d2b27c1427d2","freq_resp","","","img/blue_2bandit_a.png","70","img/blue_2bandit_a.png","70","test","","","","","","","","","","","2","","","","","","","","",""
"null","2330684","SARL_v6","SARL_v6saywkvlj","62b473736986d2b27c1427d2","fixation","","","img/fixation.png","null","","","test","","","","","","","","","","","","","","","","","","","",""
"54.40000009536743","2330740","SARL_v6","SARL_v6saywkvlj","62b473736986d2b27c1427d2","infreq","","","img/orange_2bandit_a2.png","70","","68","test","0","","32","","","","square","circle","31","10","2","0.6774193548387096","","","","","","","",""
"null","2331487","SARL_v6","SARL_v6saywkvlj","62b473736986d2b27c1427d2","infreq_resp","","","img/orange_2bandit_a.png","70","img/orange_2bandit_a.png","68","test","","","","","","","","","","","2","","","","","","","","",""
"null","2331651","SARL_v6","SARL_v6saywkvlj","62b473736986d2b27c1427d2","fixation","","","img/fixation.png","null","","","test","","","","","","","","","","","","","","","","","","","",""
"758.7999999523163","2332412","SARL_v6","SARL_v6saywkvlj","62b473736986d2b27c1427d2","freq","","","img/blue_2bandit_a2.png","70","","70","test","1","","33","","","","square","circle","32","11","2","0.6875","","","","","","","",""
"null","2332465","SARL_v6","SARL_v6saywkvlj","62b473736986d2b27c1427d2","freq_resp","","","img/blue_2bandit_a.png","70","img/blue_2bandit_a.png","70","test","","","","","","","","","","","2","","","","","","","","",""
"null","2332619","SARL_v6","SARL_v6saywkvlj","62b473736986d2b27c1427d2","fixation","","","img/fixation.png","null","","","test","","","","","","","","","","","","","","","","","","","",""
"null","2333429","SARL_v6","SARL_v6saywkvlj","62b473736986d2b27c1427d2","freq","","","img/blue_2bandit_a2.png","null","","70","test","0","","34","","","","square","circle","33","12","2","0.6666666666666666","","","","","","","",""
"null","2333585","SARL_v6","SARL_v6saywkvlj","62b473736986d2b27c1427d2","fixation","","","img/fixation.png","null","","","test","","","","","","","","","","","","","","","","","","","",""
"null","2334399","SARL_v6","SARL_v6saywkvlj","62b473736986d2b27c1427d2","infreq","","","img/orange_2bandit_a2.png","null","","68","test","0","","35","","","","square","circle","34","13","2","0.6470588235294118","","","","","","","",""
"null","2334556","SARL_v6","SARL_v6saywkvlj","62b473736986d2b27c1427d2","fixation","","","img/fixation.png","null","","","test","","","","","","","","","","","","","","","","","","","",""
"24.600000143051147","2334583","SARL_v6","SARL_v6saywkvlj","62b473736986d2b27c1427d2","freq","","","img/blue_2bandit_a2.png","70","","70","test","1","","36","","","","square","circle","35","14","2","0.6571428571428571","","","","","","","",""
"null","2335373","SARL_v6","SARL_v6saywkvlj","62b473736986d2b27c1427d2","freq_resp","","","img/blue_2bandit_a.png","70","img/blue_2bandit_a.png","70","test","","","","","","","","","","","2","","","","","","","","",""
"null","2335532","SARL_v6","SARL_v6saywkvlj","62b473736986d2b27c1427d2","fixation","","","img/fixation.png","null","","","test","","","","","","","","","","","","","","","","","","","",""
"null","2336340","SARL_v6","SARL_v6saywkvlj","62b473736986d2b27c1427d2","freq","","","img/blue_2bandit_a2.png","null","","70","test","0","","37","","","","square","circle","36","15","2","0.6388888888888888","","","","","","","",""
"null","2336495","SARL_v6","SARL_v6saywkvlj","62b473736986d2b27c1427d2","fixation","","","img/fixation.png","null","","","test","","","","","","","","","","","","","","","","","","","",""
"null","2337306","SARL_v6","SARL_v6saywkvlj","62b473736986d2b27c1427d2","freq","","","img/blue_2bandit_a2.png","null","","70","test","0","","38","","","","square","circle","37","16","2","0.6216216216216216","","","","","","","",""
"null","2337461","SARL_v6","SARL_v6saywkvlj","62b473736986d2b27c1427d2","fixation","","","img/fixation.png","null","","","test","","","","","","","","","","","","","","","","","","","",""
"726.5999999046326","2338190","SARL_v6","SARL_v6saywkvlj","62b473736986d2b27c1427d2","freq","","","img/blue_2bandit_a2.png","70","","70","test","1","","39","","","","square","circle","38","17","2","0.631578947368421","","","","","","","",""
"null","2338267","SARL_v6","SARL_v6saywkvlj","62b473736986d2b27c1427d2","freq_resp","","","img/blue_2bandit_a.png","70","img/blue_2bandit_a.png","70","test","","","","","","","","","","","2","","","","","","","","",""
"null","2338424","SARL_v6","SARL_v6saywkvlj","62b473736986d2b27c1427d2","fixation","","","img/fixation.png","null","","","test","","","","","","","","","","","","","","","","","","","",""
"745.2000000476837","2339171","SARL_v6","SARL_v6saywkvlj","62b473736986d2b27c1427d2","freq","","","img/blue_2bandit_a2.png","70","","70","test","1","","40","","","","square","circle","39","18","2","0.6410256410256411","","","","","","","",""
"null","2339237","SARL_v6","SARL_v6saywkvlj","62b473736986d2b27c1427d2","freq_resp","","","img/blue_2bandit_a.png","70","img/blue_2bandit_a.png","70","test","","","","","","","","","","","2","","","","","","","","",""
"null","2339391","SARL_v6","SARL_v6saywkvlj","62b473736986d2b27c1427d2","fixation","","","img/fixation.png","null","","","test","","","","","","","","","","","","","","","","","","","",""
"null","2340194","SARL_v6","SARL_v6saywkvlj","62b473736986d2b27c1427d2","infreq","","","img/orange_2bandit_a2.png","null","","68","test","0","","41","","","","square","circle","40","19","2","0.625","","","","","","","",""
"null","2340348","SARL_v6","SARL_v6saywkvlj","62b473736986d2b27c1427d2","fixation","","","img/fixation.png","null","","","test","","","","","","","","","","","","","","","","","","","",""
"32.5","2340383","SARL_v6","SARL_v6saywkvlj","62b473736986d2b27c1427d2","freq","","","img/blue_2bandit_a2.png","70","","70","test","1","","42","","","","square","circle","41","20","2","0.6341463414634146","","","","","","","",""
"null","2341159","SARL_v6","SARL_v6saywkvlj","62b473736986d2b27c1427d2","freq_resp","","","img/blue_2bandit_a.png","70","img/blue_2bandit_a.png","70","test","","","","","","","","","","","2","","","","","","","","",""
"null","2341312","SARL_v6","SARL_v6saywkvlj","62b473736986d2b27c1427d2","fixation","","","img/fixation.png","null","","","test","","","","","","","","","","","","","","","","","","","",""
"771.2999999523163","2342085","SARL_v6","SARL_v6saywkvlj","62b473736986d2b27c1427d2","freq","","","img/blue_2bandit_a2.png","70","","70","test","1","","43","","","","square","circle","42","21","2","0.6428571428571429","","","","","","","",""
"null","2342115","SARL_v6","SARL_v6saywkvlj","62b473736986d2b27c1427d2","freq_resp","","","img/blue_2bandit_a.png","70","img/blue_2bandit_a.png","70","test","","","","","","","","","","","2","","","","","","","","",""
"null","2342279","SARL_v6","SARL_v6saywkvlj","62b473736986d2b27c1427d2","fixation","","","img/fixation.png","null","","","test","","","","","","","","","","","","","","","","","","","",""
"null","2343085","SARL_v6","SARL_v6saywkvlj","62b473736986d2b27c1427d2","freq","","","img/blue_2bandit_a2.png","null","","70","test","0","","44","","","","square","circle","43","22","2","0.627906976744186","","","","","","","",""
"null","2343242","SARL_v6","SARL_v6saywkvlj","62b473736986d2b27c1427d2","fixation","","","img/fixation.png","null","","","test","","","","","","","","","","","","","","","","","","","",""
"416.7000000476837","2343660","SARL_v6","SARL_v6saywkvlj","62b473736986d2b27c1427d2","freq","","","img/blue_2bandit_a2.png","70","","70","test","1","","45","","","","square","circle","44","23","2","0.6363636363636364","","","","","","","",""
"null","2344055","SARL_v6","SARL_v6saywkvlj","62b473736986d2b27c1427d2","freq_resp","","","img/blue_2bandit_a.png","70","img/blue_2bandit_a.png","70","test","","","","","","","","","","","2","","","","","","","","",""
"null","2344210","SARL_v6","SARL_v6saywkvlj","62b473736986d2b27c1427d2","fixation","","","img/fixation.png","null","","","test","","","","","","","","","","","","","","","","","","","",""
"660.5999999046326","2344872","SARL_v6","SARL_v6saywkvlj","62b473736986d2b27c1427d2","freq","","","img/blue_2bandit_a2.png","70","","70","test","1","","46","","","","square","circle","45","24","2","0.6444444444444445","","","","","","","",""
"null","2345016","SARL_v6","SARL_v6saywkvlj","62b473736986d2b27c1427d2","freq_resp","","","img/blue_2bandit_a.png","70","img/blue_2bandit_a.png","70","test","","","","","","","","","","","2","","","","","","","","",""
"null","2345171","SARL_v6","SARL_v6saywkvlj","62b473736986d2b27c1427d2","fixation","","","img/fixation.png","null","","","test","","","","","","","","","","","","","","","","","","","",""
"717.7000000476837","2345890","SARL_v6","SARL_v6saywkvlj","62b473736986d2b27c1427d2","freq","","","img/blue_2bandit_a2.png","70","","70","test","1","","47","","","","square","circle","46","25","2","0.6521739130434783","","","","","","","",""
"null","2345976","SARL_v6","SARL_v6saywkvlj","62b473736986d2b27c1427d2","freq_resp","","","img/blue_2bandit_a.png","70","img/blue_2bandit_a.png","70","test","","","","","","","","","","","2","","","","","","","","",""
"null","2346130","SARL_v6","SARL_v6saywkvlj","62b473736986d2b27c1427d2","fixation","","","img/fixation.png","null","","","test","","","","","","","","","","","","","","","","","","","",""
"null","2347646","SARL_v6","SARL_v6saywkvlj","62b473736986d2b27c1427d2","rl","","","img/black_2bandit_a2.png","null","","0","test","","","48","","","0","square","circle","","0","2","","null","-8","-5","-5","-8","too slow","2","0"
"null","2348401","SARL_v6","SARL_v6saywkvlj","62b473736986d2b27c1427d2","feedback","","","<div font size = 80> TOO SLOW  </div>","null","","na","test","","","NaN","","","","","","","","2","","null","","","","","","2",""
"349.5","2348752","SARL_v6","SARL_v6saywkvlj","62b473736986d2b27c1427d2","freq","","","img/blue_2bandit_a2.png","70","","70","test","1","","49","","","","square","circle","47","1","3","0.6595744680851063","","","","","","","",""
"null","2349207","SARL_v6","SARL_v6saywkvlj","62b473736986d2b27c1427d2","freq_resp","","","img/blue_2bandit_a.png","70","img/blue_2bandit_a.png","70","test","","","","","","","","","","","3","","","","","","","","",""
"null","2349362","SARL_v6","SARL_v6saywkvlj","62b473736986d2b27c1427d2","fixation","","","img/fixation.png","null","","","test","","","","","","","","","","","","","","","","","","","",""
"390.60000014305115","2349754","SARL_v6","SARL_v6saywkvlj","62b473736986d2b27c1427d2","freq","","","img/blue_2bandit_a2.png","70","","70","test","1","","50","","","","square","circle","48","2","3","0.6666666666666666","","","","","","","",""
"null","2350167","SARL_v6","SARL_v6saywkvlj","62b473736986d2b27c1427d2","freq_resp","","","img/blue_2bandit_a.png","70","img/blue_2bandit_a.png","70","test","","","","","","","","","","","3","","","","","","","","",""
"null","2350321","SARL_v6","SARL_v6saywkvlj","62b473736986d2b27c1427d2","fixation","","","img/fixation.png","null","","","test","","","","","","","","","","","","","","","","","","","",""
"797.9000000953674","2351121","SARL_v6","SARL_v6saywkvlj","62b473736986d2b27c1427d2","freq","","","img/blue_2bandit_a2.png","70","","70","test","1","","51","","","","square","circle","49","3","3","0.673469387755102","","","","","","","",""
"null","2351127","SARL_v6","SARL_v6saywkvlj","62b473736986d2b27c1427d2","freq_resp","","","img/blue_2bandit_a.png","70","img/blue_2bandit_a.png","70","test","","","","","","","","","","","3","","","","","","","","",""
"null","2351292","SARL_v6","SARL_v6saywkvlj","62b473736986d2b27c1427d2","fixation","","","img/fixation.png","null","","","test","","","","","","","","","","","","","","","","","","","",""
"625.7999999523163","2351920","SARL_v6","SARL_v6saywkvlj","62b473736986d2b27c1427d2","freq","","","img/blue_2bandit_a2.png","70","","70","test","1","","52","","","","square","circle","50","4","3","0.68","","","","","","","",""
"null","2352110","SARL_v6","SARL_v6saywkvlj","62b473736986d2b27c1427d2","freq_resp","","","img/blue_2bandit_a.png","70","img/blue_2bandit_a.png","70","test","","","","","","","","","","","3","","","","","","","","",""
"null","2352265","SARL_v6","SARL_v6saywkvlj","62b473736986d2b27c1427d2","fixation","","","img/fixation.png","null","","","test","","","","","","","","","","","","","","","","","","","",""
"502.5","2352770","SARL_v6","SARL_v6saywkvlj","62b473736986d2b27c1427d2","infreq","","","img/orange_2bandit_a2.png","70","","68","test","0","","53","","","","square","circle","51","5","3","0.6666666666666666","","","","","","","",""
"null","2353078","SARL_v6","SARL_v6saywkvlj","62b473736986d2b27c1427d2","infreq_resp","","","img/orange_2bandit_a.png","70","img/orange_2bandit_a.png","68","test","","","","","","","","","","","3","","","","","","","","",""
"null","2353230","SARL_v6","SARL_v6saywkvlj","62b473736986d2b27c1427d2","fixation","","","img/fixation.png","null","","","test","","","","","","","","","","","","","","","","","","","",""
"423.10000014305115","2353655","SARL_v6","SARL_v6saywkvlj","62b473736986d2b27c1427d2","freq","","","img/blue_2bandit_a2.png","70","","70","test","1","","54","","","","square","circle","52","6","3","0.6730769230769231","","","","","","","",""
"null","2354041","SARL_v6","SARL_v6saywkvlj","62b473736986d2b27c1427d2","freq_resp","","","img/blue_2bandit_a.png","70","img/blue_2bandit_a.png","70","test","","","","","","","","","","","3","","","","","","","","",""
"null","2354198","SARL_v6","SARL_v6saywkvlj","62b473736986d2b27c1427d2","fixation","","","img/fixation.png","null","","","test","","","","","","","","","","","","","","","","","","","",""
"353.40000009536743","2354553","SARL_v6","SARL_v6saywkvlj","62b473736986d2b27c1427d2","freq","","","img/blue_2bandit_a2.png","70","","70","test","1","","55","","","","square","circle","53","7","3","0.6792452830188679","","","","","","","",""
"null","2355007","SARL_v6","SARL_v6saywkvlj","62b473736986d2b27c1427d2","freq_resp","","","img/blue_2bandit_a.png","70","img/blue_2bandit_a.png","70","test","","","","","","","","","","","3","","","","","","","","",""
"null","2355160","SARL_v6","SARL_v6saywkvlj","62b473736986d2b27c1427d2","fixation","","","img/fixation.png","null","","","test","","","","","","","","","","","","","","","","","","","",""
"171.29999995231628","2355333","SARL_v6","SARL_v6saywkvlj","62b473736986d2b27c1427d2","freq","","","img/blue_2bandit_a2.png","70","","70","test","1","","56","","","","square","circle","54","8","3","0.6851851851851852","","","","","","","",""
"null","2355976","SARL_v6","SARL_v6saywkvlj","62b473736986d2b27c1427d2","freq_resp","","","img/blue_2bandit_a.png","70","img/blue_2bandit_a.png","70","test","","","","","","","","","","","3","","","","","","","","",""
"null","2356136","SARL_v6","SARL_v6saywkvlj","62b473736986d2b27c1427d2","fixation","","","img/fixation.png","null","","","test","","","","","","","","","","","","","","","","","","","",""
"143.20000004768372","2356281","SARL_v6","SARL_v6saywkvlj","62b473736986d2b27c1427d2","freq","","","img/blue_2bandit_a2.png","70","","70","test","1","","57","","","","square","circle","55","9","3","0.6909090909090909","","","","","","","",""
"null","2356941","SARL_v6","SARL_v6saywkvlj","62b473736986d2b27c1427d2","freq_resp","","","img/blue_2bandit_a.png","70","img/blue_2bandit_a.png","70","test","","","","","","","","","","","3","","","","","","","","",""
"null","2357096","SARL_v6","SARL_v6saywkvlj","62b473736986d2b27c1427d2","fixation","","","img/fixation.png","null","","","test","","","","","","","","","","","","","","","","","","","",""
"677.7000000476837","2357775","SARL_v6","SARL_v6saywkvlj","62b473736986d2b27c1427d2","freq","","","img/blue_2bandit_a2.png","70","","70","test","1","","58","","","","square","circle","56","10","3","0.6964285714285714","","","","","","","",""
"null","2357913","SARL_v6","SARL_v6saywkvlj","62b473736986d2b27c1427d2","freq_resp","","","img/blue_2bandit_a.png","70","img/blue_2bandit_a.png","70","test","","","","","","","","","","","3","","","","","","","","",""
"null","2358073","SARL_v6","SARL_v6saywkvlj","62b473736986d2b27c1427d2","fixation","","","img/fixation.png","null","","","test","","","","","","","","","","","","","","","","","","","",""
"439.2999999523163","2358514","SARL_v6","SARL_v6saywkvlj","62b473736986d2b27c1427d2","infreq","","","img/orange_2bandit_a2.png","70","","68","test","0","","59","","","","square","circle","57","11","3","0.6842105263157895","","","","","","","",""
"null","2358889","SARL_v6","SARL_v6saywkvlj","62b473736986d2b27c1427d2","infreq_resp","","","img/orange_2bandit_a.png","70","img/orange_2bandit_a.png","68","test","","","","","","","","","","","3","","","","","","","","",""
"null","2359046","SARL_v6","SARL_v6saywkvlj","62b473736986d2b27c1427d2","fixation","","","img/fixation.png","null","","","test","","","","","","","","","","","","","","","","","","","",""
"806.1999998092651","2359854","SARL_v6","SARL_v6saywkvlj","62b473736986d2b27c1427d2","freq","","","img/blue_2bandit_a2.png","70","","70","test","1","","60","","","","square","circle","58","12","3","0.6896551724137931","","","","","","","",""
"null","2360013","SARL_v6","SARL_v6saywkvlj","62b473736986d2b27c1427d2","fixation","","","img/fixation.png","null","","","test","","","","","","","","","","","","","","","","","","","",""
"691","2360706","SARL_v6","SARL_v6saywkvlj","62b473736986d2b27c1427d2","freq","","","img/blue_2bandit_a2.png","70","","70","test","1","","61","","","","square","circle","59","13","3","0.6949152542372882","","","","","","","",""
"null","2360829","SARL_v6","SARL_v6saywkvlj","62b473736986d2b27c1427d2","freq_resp","","","img/blue_2bandit_a.png","70","img/blue_2bandit_a.png","70","test","","","","","","","","","","","3","","","","","","","","",""
"null","2360981","SARL_v6","SARL_v6saywkvlj","62b473736986d2b27c1427d2","fixation","","","img/fixation.png","null","","","test","","","","","","","","","","","","","","","","","","","",""
"637.6000001430511","2361621","SARL_v6","SARL_v6saywkvlj","62b473736986d2b27c1427d2","freq","","","img/blue_2bandit_a2.png","70","","70","test","1","","62","","","","square","circle","60","14","3","0.7","","","","","","","",""
"null","2361799","SARL_v6","SARL_v6saywkvlj","62b473736986d2b27c1427d2","freq_resp","","","img/blue_2bandit_a.png","70","img/blue_2bandit_a.png","70","test","","","","","","","","","","","3","","","","","","","","",""
"null","2361956","SARL_v6","SARL_v6saywkvlj","62b473736986d2b27c1427d2","fixation","","","img/fixation.png","null","","","test","","","","","","","","","","","","","","","","","","","",""
"434.2000000476837","2362393","SARL_v6","SARL_v6saywkvlj","62b473736986d2b27c1427d2","freq","","","img/blue_2bandit_a2.png","70","","70","test","1","","63","","","","square","circle","61","15","3","0.7049180327868853","","","","","","","",""
"null","2362766","SARL_v6","SARL_v6saywkvlj","62b473736986d2b27c1427d2","freq_resp","","","img/blue_2bandit_a.png","70","img/blue_2bandit_a.png","70","test","","","","","","","","","","","3","","","","","","","","",""
"null","2362921","SARL_v6","SARL_v6saywkvlj","62b473736986d2b27c1427d2","fixation","","","img/fixation.png","null","","","test","","","","","","","","","","","","","","","","","","","",""
"449","2363372","SARL_v6","SARL_v6saywkvlj","62b473736986d2b27c1427d2","freq","","","img/blue_2bandit_a2.png","70","","70","test","1","","64","","","","square","circle","62","16","3","0.7096774193548387","","","","","","","",""
"null","2363740","SARL_v6","SARL_v6saywkvlj","62b473736986d2b27c1427d2","freq_resp","","","img/blue_2bandit_a.png","70","img/blue_2bandit_a.png","70","test","","","","","","","","","","","3","","","","","","","","",""
"null","2363897","SARL_v6","SARL_v6saywkvlj","62b473736986d2b27c1427d2","fixation","","","img/fixation.png","null","","","test","","","","","","","","","","","","","","","","","","","",""
"182.09999990463257","2364081","SARL_v6","SARL_v6saywkvlj","62b473736986d2b27c1427d2","freq","","","img/blue_2bandit_a2.png","70","","70","test","1","","65","","","","square","circle","63","17","3","0.7142857142857143","","","","","","","",""
"null","2364701","SARL_v6","SARL_v6saywkvlj","62b473736986d2b27c1427d2","freq_resp","","","img/blue_2bandit_a.png","70","img/blue_2bandit_a.png","70","test","","","","","","","","","","","3","","","","","","","","",""
"null","2364868","SARL_v6","SARL_v6saywkvlj","62b473736986d2b27c1427d2","fixation","","","img/fixation.png","null","","","test","","","","","","","","","","","","","","","","","","","",""
"33.200000047683716","2364903","SARL_v6","SARL_v6saywkvlj","62b473736986d2b27c1427d2","freq","","","img/blue_2bandit_a2.png","70","","70","test","1","","66","","","","square","circle","64","18","3","0.71875","","","","","","","",""
"null","2365671","SARL_v6","SARL_v6saywkvlj","62b473736986d2b27c1427d2","freq_resp","","","img/blue_2bandit_a.png","70","img/blue_2bandit_a.png","70","test","","","","","","","","","","","3","","","","","","","","",""
"null","2365838","SARL_v6","SARL_v6saywkvlj","62b473736986d2b27c1427d2","fixation","","","img/fixation.png","null","","","test","","","","","","","","","","","","","","","","","","","",""
"600.5","2366441","SARL_v6","SARL_v6saywkvlj","62b473736986d2b27c1427d2","freq","","","img/blue_2bandit_a2.png","70","","70","test","1","","67","","","","square","circle","65","19","3","0.7230769230769231","","","","","","","",""
"null","2366644","SARL_v6","SARL_v6saywkvlj","62b473736986d2b27c1427d2","freq_resp","","","img/blue_2bandit_a.png","70","img/blue_2bandit_a.png","70","test","","","","","","","","","","","3","","","","","","","","",""
"null","2366807","SARL_v6","SARL_v6saywkvlj","62b473736986d2b27c1427d2","fixation","","","img/fixation.png","null","","","test","","","","","","","","","","","","","","","","","","","",""
"591.7999999523163","2367401","SARL_v6","SARL_v6saywkvlj","62b473736986d2b27c1427d2","freq","","","img/blue_2bandit_a2.png","70","","70","test","1","","68","","","","square","circle","66","20","3","0.7272727272727273","","","","","","","",""
"null","2367624","SARL_v6","SARL_v6saywkvlj","62b473736986d2b27c1427d2","freq_resp","","","img/blue_2bandit_a.png","70","img/blue_2bandit_a.png","70","test","","","","","","","","","","","3","","","","","","","","",""
"null","2367786","SARL_v6","SARL_v6saywkvlj","62b473736986d2b27c1427d2","fixation","","","img/fixation.png","null","","","test","","","","","","","","","","","","","","","","","","","",""
"955","2368743","SARL_v6","SARL_v6saywkvlj","62b473736986d2b27c1427d2","rl","","","img/black_2bandit_a2.png","75","","0","test","","","69","","","-8","square","circle","","0","3","","75","-8","-4","-4","-8","circle","3","0"
"null","2369501","SARL_v6","SARL_v6saywkvlj","62b473736986d2b27c1427d2","feedback","","","<div class=""verylowPoints""> -8 </div>","null","","na","test","","","NaN","","","","","","","","3","","75","","","","","","3",""
"null","2370311","SARL_v6","SARL_v6saywkvlj","62b473736986d2b27c1427d2","freq","","","img/blue_2bandit_a2.png","null","","70","test","0","","70","","","","square","circle","67","1","4","0.7164179104477612","","","","","","","",""
"null","2370464","SARL_v6","SARL_v6saywkvlj","62b473736986d2b27c1427d2","fixation","","","img/fixation.png","null","","","test","","","","","","","","","","","","","","","","","","","",""
"646.1000001430511","2371111","SARL_v6","SARL_v6saywkvlj","62b473736986d2b27c1427d2","freq","","","img/blue_2bandit_a2.png","70","","70","test","1","","71","","","","square","circle","68","2","4","0.7205882352941176","","","","","","","",""
"null","2371280","SARL_v6","SARL_v6saywkvlj","62b473736986d2b27c1427d2","freq_resp","","","img/blue_2bandit_a.png","70","img/blue_2bandit_a.png","70","test","","","","","","","","","","","4","","","","","","","","",""
"null","2371437","SARL_v6","SARL_v6saywkvlj","62b473736986d2b27c1427d2","fixation","","","img/fixation.png","null","","","test","","","","","","","","","","","","","","","","","","","",""
"416.39999985694885","2371855","SARL_v6","SARL_v6saywkvlj","62b473736986d2b27c1427d2","freq","","","img/blue_2bandit_a2.png","70","","70","test","1","","72","","","","square","circle","69","3","4","0.7246376811594203","","","","","","","",""
"null","2372241","SARL_v6","SARL_v6saywkvlj","62b473736986d2b27c1427d2","freq_resp","","","img/blue_2bandit_a.png","70","img/blue_2bandit_a.png","70","test","","","","","","","","","","","4","","","","","","","","",""
"null","2372396","SARL_v6","SARL_v6saywkvlj","62b473736986d2b27c1427d2","fixation","","","img/fixation.png","null","","","test","","","","","","","","","","","","","","","","","","","",""
"214.79999995231628","2372613","SARL_v6","SARL_v6saywkvlj","62b473736986d2b27c1427d2","freq","","","img/blue_2bandit_a2.png","70","","70","test","1","","73","","","","square","circle","70","4","4","0.7285714285714285","","","","","","","",""
"null","2373208","SARL_v6","SARL_v6saywkvlj","62b473736986d2b27c1427d2","freq_resp","","","img/blue_2bandit_a.png","70","img/blue_2bandit_a.png","70","test","","","","","","","","","","","4","","","","","","","","",""
"null","2373370","SARL_v6","SARL_v6saywkvlj","62b473736986d2b27c1427d2","fixation","","","img/fixation.png","null","","","test","","","","","","","","","","","","","","","","","","","",""
"608.6000001430511","2373981","SARL_v6","SARL_v6saywkvlj","62b473736986d2b27c1427d2","freq","","","img/blue_2bandit_a2.png","70","","70","test","1","","74","","","","square","circle","71","5","4","0.7323943661971831","","","","","","","",""
"null","2374174","SARL_v6","SARL_v6saywkvlj","62b473736986d2b27c1427d2","freq_resp","","","img/blue_2bandit_a.png","70","img/blue_2bandit_a.png","70","test","","","","","","","","","","","4","","","","","","","","",""
"null","2374334","SARL_v6","SARL_v6saywkvlj","62b473736986d2b27c1427d2","fixation","","","img/fixation.png","null","","","test","","","","","","","","","","","","","","","","","","","",""
"416.40000009536743","2374752","SARL_v6","SARL_v6saywkvlj","62b473736986d2b27c1427d2","freq","","","img/blue_2bandit_a2.png","70","","70","test","1","","75","","","","square","circle","72","6","4","0.7361111111111112","","","","","","","",""
"null","2375147","SARL_v6","SARL_v6saywkvlj","62b473736986d2b27c1427d2","freq_resp","","","img/blue_2bandit_a.png","70","img/blue_2bandit_a.png","70","test","","","","","","","","","","","4","","","","","","","","",""
"null","2375305","SARL_v6","SARL_v6saywkvlj","62b473736986d2b27c1427d2","fixation","","","img/fixation.png","null","","","test","","","","","","","","","","","","","","","","","","","",""
"693.7999999523163","2376001","SARL_v6","SARL_v6saywkvlj","62b473736986d2b27c1427d2","infreq","","","img/orange_2bandit_a2.png","70","","68","test","0","","76","","","","square","circle","73","7","4","0.726027397260274","","","","","","","",""
"null","2376124","SARL_v6","SARL_v6saywkvlj","62b473736986d2b27c1427d2","infreq_resp","","","img/orange_2bandit_a.png","70","img/orange_2bandit_a.png","68","test","","","","","","","","","","","4","","","","","","","","",""
"null","2376278","SARL_v6","SARL_v6saywkvlj","62b473736986d2b27c1427d2","fixation","","","img/fixation.png","null","","","test","","","","","","","","","","","","","","","","","","","",""
"427.40000009536743","2376707","SARL_v6","SARL_v6saywkvlj","62b473736986d2b27c1427d2","freq","","","img/blue_2bandit_a2.png","70","","70","test","1","","77","","","","square","circle","74","8","4","0.7297297297297297","","","","","","","",""
"null","2377083","SARL_v6","SARL_v6saywkvlj","62b473736986d2b27c1427d2","freq_resp","","","img/blue_2bandit_a.png","70","img/blue_2bandit_a.png","70","test","","","","","","","","","","","4","","","","","","","","",""
"null","2377238","SARL_v6","SARL_v6saywkvlj","62b473736986d2b27c1427d2","fixation","","","img/fixation.png","null","","","test","","","","","","","","","","","","","","","","","","","",""
"401.90000009536743","2377642","SARL_v6","SARL_v6saywkvlj","62b473736986d2b27c1427d2","freq","","","img/blue_2bandit_a2.png","70","","70","test","1","","78","","","","square","circle","75","9","4","0.7333333333333333","","","","","","","",""
"null","2378055","SARL_v6","SARL_v6saywkvlj","62b473736986d2b27c1427d2","freq_resp","","","img/blue_2bandit_a.png","70","img/blue_2bandit_a.png","70","test","","","","","","","","","","","4","","","","","","","","",""
"null","2378208","SARL_v6","SARL_v6saywkvlj","62b473736986d2b27c1427d2","fixation","","","img/fixation.png","null","","","test","","","","","","","","","","","","","","","","","","","",""
"232.70000004768372","2378443","SARL_v6","SARL_v6saywkvlj","62b473736986d2b27c1427d2","freq","","","img/blue_2bandit_a2.png","70","","70","test","1","","79","","","","square","circle","76","10","4","0.7368421052631579","","","","","","","",""
"null","2379012","SARL_v6","SARL_v6saywkvlj","62b473736986d2b27c1427d2","freq_resp","","","img/blue_2bandit_a.png","70","img/blue_2bandit_a.png","70","test","","","","","","","","","","","4","","","","","","","","",""
"null","2379168","SARL_v6","SARL_v6saywkvlj","62b473736986d2b27c1427d2","fixation","","","img/fixation.png","null","","","test","","","","","","","","","","","","","","","","","","","",""
"190.90000009536743","2379361","SARL_v6","SARL_v6saywkvlj","62b473736986d2b27c1427d2","freq","","","img/blue_2bandit_a2.png","70","","70","test","1","","80","","","","square","circle","77","11","4","0.7402597402597403","","","","","","","",""
"null","2379978","SARL_v6","SARL_v6saywkvlj","62b473736986d2b27c1427d2","freq_resp","","","img/blue_2bandit_a.png","70","img/blue_2bandit_a.png","70","test","","","","","","","","","","","4","","","","","","","","",""
"null","2380132","SARL_v6","SARL_v6saywkvlj","62b473736986d2b27c1427d2","fixation","","","img/fixation.png","null","","","test","","","","","","","","","","","","","","","","","","","",""
"null","2380949","SARL_v6","SARL_v6saywkvlj","62b473736986d2b27c1427d2","freq","","","img/blue_2bandit_a2.png","null","","70","test","0","","81","","","","square","circle","78","12","4","0.7307692307692307","","","","","","","",""
"null","2381108","SARL_v6","SARL_v6saywkvlj","62b473736986d2b27c1427d2","fixation","","","img/fixation.png","null","","","test","","","","","","","","","","","","","","","","","","","",""
"62.10000014305115","2381172","SARL_v6","SARL_v6saywkvlj","62b473736986d2b27c1427d2","freq","","","img/blue_2bandit_a2.png","70","","70","test","1","","82","","","","square","circle","79","13","4","0.7341772151898734","","","","","","","",""
"null","2381922","SARL_v6","SARL_v6saywkvlj","62b473736986d2b27c1427d2","freq_resp","","","img/blue_2bandit_a.png","70","img/blue_2bandit_a.png","70","test","","","","","","","","","","","4","","","","","","","","",""
"null","2382078","SARL_v6","SARL_v6saywkvlj","62b473736986d2b27c1427d2","fixation","","","img/fixation.png","null","","","test","","","","","","","","","","","","","","","","","","","",""
"491","2382571","SARL_v6","SARL_v6saywkvlj","62b473736986d2b27c1427d2","infreq","","","img/orange_2bandit_a2.png","70","","68","test","0","","83","","","","square","circle","80","14","4","0.725","","","","","","","",""
"null","2382893","SARL_v6","SARL_v6saywkvlj","62b473736986d2b27c1427d2","infreq_resp","","","img/orange_2bandit_a.png","70","img/orange_2bandit_a.png","68","test","","","","","","","","","","","4","","","","","","","","",""
"null","2383049","SARL_v6","SARL_v6saywkvlj","62b473736986d2b27c1427d2","fixation","","","img/fixation.png","null","","","test","","","","","","","","","","","","","","","","","","","",""
"279.7999999523163","2383331","SARL_v6","SARL_v6saywkvlj","62b473736986d2b27c1427d2","freq","","","img/blue_2bandit_a2.png","70","","70","test","1","","84","","","","square","circle","81","15","4","0.7283950617283951","","","","","","","",""
"null","2383860","SARL_v6","SARL_v6saywkvlj","62b473736986d2b27c1427d2","freq_resp","","","img/blue_2bandit_a.png","70","img/blue_2bandit_a.png","70","test","","","","","","","","","","","4","","","","","","","","",""
"null","2384013","SARL_v6","SARL_v6saywkvlj","62b473736986d2b27c1427d2","fixation","","","img/fixation.png","null","","","test","","","","","","","","","","","","","","","","","","","",""
"354.5","2384370","SARL_v6","SARL_v6saywkvlj","62b473736986d2b27c1427d2","freq","","","img/blue_2bandit_a2.png","70","","70","test","1","","85","","","","square","circle","82","16","4","0.7317073170731707","","","","","","","",""
"null","2384817","SARL_v6","SARL_v6saywkvlj","62b473736986d2b27c1427d2","freq_resp","","","img/blue_2bandit_a.png","70","img/blue_2bandit_a.png","70","test","","","","","","","","","","","4","","","","","","","","",""
"null","2384985","SARL_v6","SARL_v6saywkvlj","62b473736986d2b27c1427d2","fixation","","","img/fixation.png","null","","","test","","","","","","","","","","","","","","","","","","","",""
"283.59999990463257","2385271","SARL_v6","SARL_v6saywkvlj","62b473736986d2b27c1427d2","freq","","","img/blue_2bandit_a2.png","70","","70","test","1","","86","","","","square","circle","83","17","4","0.7349397590361446","","","","","","","",""
"null","2385793","SARL_v6","SARL_v6saywkvlj","62b473736986d2b27c1427d2","freq_resp","","","img/blue_2bandit_a.png","70","img/blue_2bandit_a.png","70","test","","","","","","","","","","","4","","","","","","","","",""
"null","2385949","SARL_v6","SARL_v6saywkvlj","62b473736986d2b27c1427d2","fixation","","","img/fixation.png","null","","","test","","","","","","","","","","","","","","","","","","","",""
"539.7999999523163","2386491","SARL_v6","SARL_v6saywkvlj","62b473736986d2b27c1427d2","freq","","","img/blue_2bandit_a2.png","70","","70","test","1","","87","","","","square","circle","84","18","4","0.7380952380952381","","","","","","","",""
"null","2386761","SARL_v6","SARL_v6saywkvlj","62b473736986d2b27c1427d2","freq_resp","","","img/blue_2bandit_a.png","70","img/blue_2bandit_a.png","70","test","","","","","","","","","","","4","","","","","","","","",""
"null","2386918","SARL_v6","SARL_v6saywkvlj","62b473736986d2b27c1427d2","fixation","","","img/fixation.png","null","","","test","","","","","","","","","","","","","","","","","","","",""
"249.79999995231628","2387170","SARL_v6","SARL_v6saywkvlj","62b473736986d2b27c1427d2","freq","","","img/blue_2bandit_a2.png","70","","70","test","1","","88","","","","square","circle","85","19","4","0.7411764705882353","","","","","","","",""
"null","2387732","SARL_v6","SARL_v6saywkvlj","62b473736986d2b27c1427d2","freq_resp","","","img/blue_2bandit_a.png","70","img/blue_2bandit_a.png","70","test","","","","","","","","","","","4","","","","","","","","",""
"null","2387885","SARL_v6","SARL_v6saywkvlj","62b473736986d2b27c1427d2","fixation","","","img/fixation.png","null","","","test","","","","","","","","","","","","","","","","","","","",""
"426.5","2388313","SARL_v6","SARL_v6saywkvlj","62b473736986d2b27c1427d2","freq","","","img/blue_2bandit_a2.png","70","","70","test","1","","89","","","","square","circle","86","20","4","0.7441860465116279","","","","","","","",""
"null","2388693","SARL_v6","SARL_v6saywkvlj","62b473736986d2b27c1427d2","freq_resp","","","img/blue_2bandit_a.png","70","img/blue_2bandit_a.png","70","test","","","","","","","","","","","4","","","","","","","","",""
"null","2388847","SARL_v6","SARL_v6saywkvlj","62b473736986d2b27c1427d2","fixation","","","img/fixation.png","null","","","test","","","","","","","","","","","","","","","","","","","",""
"854.5","2389703","SARL_v6","SARL_v6saywkvlj","62b473736986d2b27c1427d2","rl","","","img/black_2bandit_a2.png","75","","0","test","","","90","","","-12","square","circle","","0","4","","75","-12","0","0","-12","circle","4","0"
"null","2390463","SARL_v6","SARL_v6saywkvlj","62b473736986d2b27c1427d2","feedback","","","<div class=""verylowPoints""> -12 </div>","null","","na","test","","","NaN","","","","","","","","4","","75","","","","","","4",""
"null","2391266","SARL_v6","SARL_v6saywkvlj","62b473736986d2b27c1427d2","freq","","","img/blue_2bandit_a2.png","null","","70","test","0","","91","","","","square","circle","87","1","5","0.735632183908046","","","","","","","",""
"null","2391430","SARL_v6","SARL_v6saywkvlj","62b473736986d2b27c1427d2","fixation","","","img/fixation.png","null","","","test","","","","","","","","","","","","","","","","","","","",""
"null","2392233","SARL_v6","SARL_v6saywkvlj","62b473736986d2b27c1427d2","freq","","","img/blue_2bandit_a2.png","null","","70","test","0","","92","","","","square","circle","88","2","5","0.7272727272727273","","","","","","","",""
"null","2392392","SARL_v6","SARL_v6saywkvlj","62b473736986d2b27c1427d2","fixation","","","img/fixation.png","null","","","test","","","","","","","","","","","","","","","","","","","",""
"null","2393206","SARL_v6","SARL_v6saywkvlj","62b473736986d2b27c1427d2","freq","","","img/blue_2bandit_a2.png","null","","70","test","0","","93","","","","square","circle","89","3","5","0.7191011235955056","","","","","","","",""
"null","2393360","SARL_v6","SARL_v6saywkvlj","62b473736986d2b27c1427d2","fixation","","","img/fixation.png","null","","","test","","","","","","","","","","","","","","","","","","","",""
"null","2394172","SARL_v6","SARL_v6saywkvlj","62b473736986d2b27c1427d2","infreq","","","img/orange_2bandit_a2.png","null","","68","test","0","","94","","","","square","circle","90","4","5","0.7111111111111111","","","","","","","",""
"null","2394329","SARL_v6","SARL_v6saywkvlj","62b473736986d2b27c1427d2","fixation","","","img/fixation.png","null","","","test","","","","","","","","","","","","","","","","","","","",""
"null","2395141","SARL_v6","SARL_v6saywkvlj","62b473736986d2b27c1427d2","freq","","","img/blue_2bandit_a2.png","null","","70","test","0","","95","","","","square","circle","91","5","5","0.7032967032967034","","","","","","","",""
"null","2395301","SARL_v6","SARL_v6saywkvlj","62b473736986d2b27c1427d2","fixation","","","img/fixation.png","null","","","test","","","","","","","","","","","","","","","","","","","",""
"258.5","2395561","SARL_v6","SARL_v6saywkvlj","62b473736986d2b27c1427d2","freq","","","img/blue_2bandit_a2.png","70","","70","test","1","","96","","","","square","circle","92","6","5","0.7065217391304348","","","","","","","",""
"null","2396118","SARL_v6","SARL_v6saywkvlj","62b473736986d2b27c1427d2","freq_resp","","","img/blue_2bandit_a.png","70","img/blue_2bandit_a.png","70","test","","","","","","","","","","","5","","","","","","","","",""
"null","2396275","SARL_v6","SARL_v6saywkvlj","62b473736986d2b27c1427d2","fixation","","","img/fixation.png","null","","","test","","","","","","","","","","","","","","","","","","","",""
"555.7000000476837","2396833","SARL_v6","SARL_v6saywkvlj","62b473736986d2b27c1427d2","freq","","","img/blue_2bandit_a2.png","70","","70","test","1","","97","","","","square","circle","93","7","5","0.7096774193548387","","","","","","","",""
"null","2397085","SARL_v6","SARL_v6saywkvlj","62b473736986d2b27c1427d2","freq_resp","","","img/blue_2bandit_a.png","70","img/blue_2bandit_a.png","70","test","","","","","","","","","","","5","","","","","","","","",""
"null","2397242","SARL_v6","SARL_v6saywkvlj","62b473736986d2b27c1427d2","fixation","","","img/fixation.png","null","","","test","","","","","","","","","","","","","","","","","","","",""
"null","2398060","SARL_v6","SARL_v6saywkvlj","62b473736986d2b27c1427d2","freq","","","img/blue_2bandit_a2.png","null","","70","test","0","","98","","","","square","circle","94","8","5","0.7021276595744681","","","","","","","",""
"null","2398221","SARL_v6","SARL_v6saywkvlj","62b473736986d2b27c1427d2","fixation","","","img/fixation.png","null","","","test","","","","","","","","","","","","","","","","","","","",""
"410.30000019073486","2398633","SARL_v6","SARL_v6saywkvlj","62b473736986d2b27c1427d2","freq","","","img/blue_2bandit_a2.png","70","","70","test","1","","99","","","","square","circle","95","9","5","0.7052631578947368","","","","","","","",""
"null","2399033","SARL_v6","SARL_v6saywkvlj","62b473736986d2b27c1427d2","freq_resp","","","img/blue_2bandit_a.png","70","img/blue_2bandit_a.png","70","test","","","","","","","","","","","5","","","","","","","","",""
"null","2399190","SARL_v6","SARL_v6saywkvlj","62b473736986d2b27c1427d2","fixation","","","img/fixation.png","null","","","test","","","","","","","","","","","","","","","","","","","",""
"790.9000000953674","2399983","SARL_v6","SARL_v6saywkvlj","62b473736986d2b27c1427d2","freq","","","img/blue_2bandit_a2.png","70","","70","test","1","","100","","","","square","circle","96","10","5","0.7083333333333334","","","","","","","",""
"null","2399994","SARL_v6","SARL_v6saywkvlj","62b473736986d2b27c1427d2","freq_resp","","","img/blue_2bandit_a.png","70","img/blue_2bandit_a.png","70","test","","","","","","","","","","","5","","","","","","","","",""
"null","2400161","SARL_v6","SARL_v6saywkvlj","62b473736986d2b27c1427d2","fixation","","","img/fixation.png","null","","","test","","","","","","","","","","","","","","","","","","","",""
"null","2400974","SARL_v6","SARL_v6saywkvlj","62b473736986d2b27c1427d2","freq","","","img/blue_2bandit_a2.png","null","","70","test","0","","101","","","","square","circle","97","11","5","0.7010309278350515","","","","","","","",""
"null","2401133","SARL_v6","SARL_v6saywkvlj","62b473736986d2b27c1427d2","fixation","","","img/fixation.png","null","","","test","","","","","","","","","","","","","","","","","","","",""
"368.40000009536743","2401504","SARL_v6","SARL_v6saywkvlj","62b473736986d2b27c1427d2","infreq","","","img/orange_2bandit_a2.png","70","","68","test","0","","102","","","","square","circle","98","12","5","0.6938775510204082","","","","","","","",""
"null","2401937","SARL_v6","SARL_v6saywkvlj","62b473736986d2b27c1427d2","infreq_resp","","","img/orange_2bandit_a.png","70","img/orange_2bandit_a.png","68","test","","","","","","","","","","","5","","","","","","","","",""
"null","2402098","SARL_v6","SARL_v6saywkvlj","62b473736986d2b27c1427d2","fixation","","","img/fixation.png","null","","","test","","","","","","","","","","","","","","","","","","","",""
"220.09999990463257","2402320","SARL_v6","SARL_v6saywkvlj","62b473736986d2b27c1427d2","freq","","","img/blue_2bandit_a2.png","68","","70","test","0","","103","","","","square","circle","99","13","5","0.6868686868686869","","","","","","","",""
"null","2402909","SARL_v6","SARL_v6saywkvlj","62b473736986d2b27c1427d2","freq_resp","","","img/blue_2bandit_a.png","68","img/blue_2bandit_a.png","70","test","","","","","","","","","","","5","","","","","","","","",""
"null","2403064","SARL_v6","SARL_v6saywkvlj","62b473736986d2b27c1427d2","fixation","","","img/fixation.png","null","","","test","","","","","","","","","","","","","","","","","","","",""
"7","2403072","SARL_v6","SARL_v6saywkvlj","62b473736986d2b27c1427d2","freq","","","img/blue_2bandit_a2.png","68","","70","test","0","","104","","","","square","circle","100","14","5","0.68","","","","","","","",""
"null","2403872","SARL_v6","SARL_v6saywkvlj","62b473736986d2b27c1427d2","freq_resp","","","img/blue_2bandit_a.png","68","img/blue_2bandit_a.png","70","test","","","","","","","","","","","5","","","","","","","","",""
"null","2404033","SARL_v6","SARL_v6saywkvlj","62b473736986d2b27c1427d2","fixation","","","img/fixation.png","null","","","test","","","","","","","","","","","","","","","","","","","",""
"677.5","2404712","SARL_v6","SARL_v6saywkvlj","62b473736986d2b27c1427d2","freq","","","img/blue_2bandit_a2.png","70","","70","test","1","","105","","","","square","circle","101","15","5","0.6831683168316832","","","","","","","",""
"null","2404837","SARL_v6","SARL_v6saywkvlj","62b473736986d2b27c1427d2","freq_resp","","","img/blue_2bandit_a.png","70","img/blue_2bandit_a.png","70","test","","","","","","","","","","","5","","","","","","","","",""
"null","2404990","SARL_v6","SARL_v6saywkvlj","62b473736986d2b27c1427d2","fixation","","","img/fixation.png","null","","","test","","","","","","","","","","","","","","","","","","","",""
"441.7000000476837","2405434","SARL_v6","SARL_v6saywkvlj","62b473736986d2b27c1427d2","freq","","","img/blue_2bandit_a2.png","70","","70","test","1","","106","","","","square","circle","102","16","5","0.6862745098039216","","","","","","","",""
"null","2405796","SARL_v6","SARL_v6saywkvlj","62b473736986d2b27c1427d2","freq_resp","","","img/blue_2bandit_a.png","70","img/blue_2bandit_a.png","70","test","","","","","","","","","","","5","","","","","","","","",""
"null","2405952","SARL_v6","SARL_v6saywkvlj","62b473736986d2b27c1427d2","fixation","","","img/fixation.png","null","","","test","","","","","","","","","","","","","","","","","","","",""
"188.20000004768372","2406142","SARL_v6","SARL_v6saywkvlj","62b473736986d2b27c1427d2","freq","","","img/blue_2bandit_a2.png","70","","70","test","1","","107","","","","square","circle","103","17","5","0.6893203883495146","","","","","","","",""
"null","2406764","SARL_v6","SARL_v6saywkvlj","62b473736986d2b27c1427d2","freq_resp","","","img/blue_2bandit_a.png","70","img/blue_2bandit_a.png","70","test","","","","","","","","","","","5","","","","","","","","",""
"null","2406919","SARL_v6","SARL_v6saywkvlj","62b473736986d2b27c1427d2","fixation","","","img/fixation.png","null","","","test","","","","","","","","","","","","","","","","","","","",""
"510.2000000476837","2407432","SARL_v6","SARL_v6saywkvlj","62b473736986d2b27c1427d2","freq","","","img/blue_2bandit_a2.png","70","","70","test","1","","108","","","","square","circle","104","18","5","0.6923076923076923","","","","","","","",""
"null","2407727","SARL_v6","SARL_v6saywkvlj","62b473736986d2b27c1427d2","freq_resp","","","img/blue_2bandit_a.png","70","img/blue_2bandit_a.png","70","test","","","","","","","","","","","5","","","","","","","","",""
"null","2407887","SARL_v6","SARL_v6saywkvlj","62b473736986d2b27c1427d2","fixation","","","img/fixation.png","null","","","test","","","","","","","","","","","","","","","","","","","",""
"285.5","2408175","SARL_v6","SARL_v6saywkvlj","62b473736986d2b27c1427d2","freq","","","img/blue_2bandit_a2.png","70","","70","test","1","","109","","","","square","circle","105","19","5","0.6952380952380952","","","","","","","",""
"null","2408699","SARL_v6","SARL_v6saywkvlj","62b473736986d2b27c1427d2","freq_resp","","","img/blue_2bandit_a.png","70","img/blue_2bandit_a.png","70","test","","","","","","","","","","","5","","","","","","","","",""
"null","2408857","SARL_v6","SARL_v6saywkvlj","62b473736986d2b27c1427d2","fixation","","","img/fixation.png","null","","","test","","","","","","","","","","","","","","","","","","","",""
"81.39999985694885","2408940","SARL_v6","SARL_v6saywkvlj","62b473736986d2b27c1427d2","freq","","","img/blue_2bandit_a2.png","70","","70","test","1","","110","","","","square","circle","106","20","5","0.6981132075471698","","","","","","","",""
"null","2409661","SARL_v6","SARL_v6saywkvlj","62b473736986d2b27c1427d2","freq_resp","","","img/blue_2bandit_a.png","70","img/blue_2bandit_a.png","70","test","","","","","","","","","","","5","","","","","","","","",""
"null","2409829","SARL_v6","SARL_v6saywkvlj","62b473736986d2b27c1427d2","fixation","","","img/fixation.png","null","","","test","","","","","","","","","","","","","","","","","","","",""
"528.2000000476837","2410359","SARL_v6","SARL_v6saywkvlj","62b473736986d2b27c1427d2","freq","","","img/blue_2bandit_a2.png","70","","70","test","1","","111","","","","square","circle","107","21","5","0.7009345794392523","","","","","","","",""
"null","2410644","SARL_v6","SARL_v6saywkvlj","62b473736986d2b27c1427d2","freq_resp","","","img/blue_2bandit_a.png","70","img/blue_2bandit_a.png","70","test","","","","","","","","","","","5","","","","","","","","",""
"null","2410800","SARL_v6","SARL_v6saywkvlj","62b473736986d2b27c1427d2","fixation","","","img/fixation.png","null","","","test","","","","","","","","","","","","","","","","","","","",""
"249.5","2411052","SARL_v6","SARL_v6saywkvlj","62b473736986d2b27c1427d2","freq","","","img/blue_2bandit_a2.png","70","","70","test","1","","112","","","","square","circle","108","22","5","0.7037037037037037","","","","","","","",""
"null","2411612","SARL_v6","SARL_v6saywkvlj","62b473736986d2b27c1427d2","freq_resp","","","img/blue_2bandit_a.png","70","img/blue_2bandit_a.png","70","test","","","","","","","","","","","5","","","","","","","","",""
"null","2411774","SARL_v6","SARL_v6saywkvlj","62b473736986d2b27c1427d2","fixation","","","img/fixation.png","null","","","test","","","","","","","","","","","","","","","","","","","",""
"15","2411791","SARL_v6","SARL_v6saywkvlj","62b473736986d2b27c1427d2","freq","","","img/blue_2bandit_a2.png","70","","70","test","1","","113","","","","square","circle","109","23","5","0.7064220183486238","","","","","","","",""
"null","2412584","SARL_v6","SARL_v6saywkvlj","62b473736986d2b27c1427d2","freq_resp","","","img/blue_2bandit_a.png","70","img/blue_2bandit_a.png","70","test","","","","","","","","","","","5","","","","","","","","",""
"null","2412740","SARL_v6","SARL_v6saywkvlj","62b473736986d2b27c1427d2","fixation","","","img/fixation.png","null","","","test","","","","","","","","","","","","","","","","","","","",""
"757.7000000476837","2413499","SARL_v6","SARL_v6saywkvlj","62b473736986d2b27c1427d2","rl","","","img/black_2bandit_a2.png","75","","0","test","","","114","","","-7","square","circle","","0","5","","75","-7","4","4","-7","circle","5","0"
"null","2414264","SARL_v6","SARL_v6saywkvlj","62b473736986d2b27c1427d2","feedback","","","<div class=""verylowPoints""> -7 </div>","null","","na","test","","","NaN","","","","","","","","5","","75","","","","","","5",""
"null","2415078","SARL_v6","SARL_v6saywkvlj","62b473736986d2b27c1427d2","freq","","","img/blue_2bandit_a2.png","null","","70","test","0","","115","","","","square","circle","110","1","6","0.7","","","","","","","",""
"null","2415233","SARL_v6","SARL_v6saywkvlj","62b473736986d2b27c1427d2","fixation","","","img/fixation.png","null","","","test","","","","","","","","","","","","","","","","","","","",""
"191.39999985694885","2415426","SARL_v6","SARL_v6saywkvlj","62b473736986d2b27c1427d2","freq","","","img/blue_2bandit_a2.png","70","","70","test","1","","116","","","","square","circle","111","2","6","0.7027027027027027","","","","","","","",""
"null","2416040","SARL_v6","SARL_v6saywkvlj","62b473736986d2b27c1427d2","freq_resp","","","img/blue_2bandit_a.png","70","img/blue_2bandit_a.png","70","test","","","","","","","","","","","6","","","","","","","","",""
"null","2416203","SARL_v6","SARL_v6saywkvlj","62b473736986d2b27c1427d2","fixation","","","img/fixation.png","null","","","test","","","","","","","","","","","","","","","","","","","",""
"498.10000014305115","2416703","SARL_v6","SARL_v6saywkvlj","62b473736986d2b27c1427d2","freq","","","img/blue_2bandit_a2.png","70","","70","test","1","","117","","","","square","circle","112","3","6","0.7053571428571429","","","","","","","",""
"null","2417018","SARL_v6","SARL_v6saywkvlj","62b473736986d2b27c1427d2","freq_resp","","","img/blue_2bandit_a.png","70","img/blue_2bandit_a.png","70","test","","","","","","","","","","","6","","","","","","","","",""
"null","2417171","SARL_v6","SARL_v6saywkvlj","62b473736986d2b27c1427d2","fixation","","","img/fixation.png","null","","","test","","","","","","","","","","","","","","","","","","","",""
"217.19999980926514","2417390","SARL_v6","SARL_v6saywkvlj","62b473736986d2b27c1427d2","freq","","","img/blue_2bandit_a2.png","70","","70","test","1","","118","","","","square","circle","113","4","6","0.7079646017699115","","","","","","","",""
"null","2417987","SARL_v6","SARL_v6saywkvlj","62b473736986d2b27c1427d2","freq_resp","","","img/blue_2bandit_a.png","70","img/blue_2bandit_a.png","70","test","","","","","","","","","","","6","","","","","","","","",""
"null","2418142","SARL_v6","SARL_v6saywkvlj","62b473736986d2b27c1427d2","fixation","","","img/fixation.png","null","","","test","","","","","","","","","","","","","","","","","","","",""
"747.2000000476837","2418891","SARL_v6","SARL_v6saywkvlj","62b473736986d2b27c1427d2","freq","","","img/blue_2bandit_a2.png","70","","70","test","1","","119","","","","square","circle","114","5","6","0.7105263157894737","","","","","","","",""
"null","2418950","SARL_v6","SARL_v6saywkvlj","62b473736986d2b27c1427d2","freq_resp","","","img/blue_2bandit_a.png","70","img/blue_2bandit_a.png","70","test","","","","","","","","","","","6","","","","","","","","",""
"null","2419105","SARL_v6","SARL_v6saywkvlj","62b473736986d2b27c1427d2","fixation","","","img/fixation.png","null","","","test","","","","","","","","","","","","","","","","","","","",""
"444.09999990463257","2419551","SARL_v6","SARL_v6saywkvlj","62b473736986d2b27c1427d2","infreq","","","img/orange_2bandit_a2.png","70","","68","test","0","","120","","","","square","circle","115","6","6","0.7043478260869566","","","","","","","",""
"null","2419910","SARL_v6","SARL_v6saywkvlj","62b473736986d2b27c1427d2","infreq_resp","","","img/orange_2bandit_a.png","70","img/orange_2bandit_a.png","68","test","","","","","","","","","","","6","","","","","","","","",""
"null","2420066","SARL_v6","SARL_v6saywkvlj","62b473736986d2b27c1427d2","fixation","","","img/fixation.png","null","","","test","","","","","","","","","","","","","","","","","","","",""
"null","2420876","SARL_v6","SARL_v6saywkvlj","62b473736986d2b27c1427d2","freq","","","img/blue_2bandit_a2.png","null","","70","test","0","","121","","","","square","circle","116","7","6","0.6982758620689655","","","","","","","",""
"null","2421034","SARL_v6","SARL_v6saywkvlj","62b473736986d2b27c1427d2","fixation","","","img/fixation.png","null","","","test","","","","","","","","","","","","","","","","","","","",""
"354.89999985694885","2421391","SARL_v6","SARL_v6saywkvlj","62b473736986d2b27c1427d2","freq","","","img/blue_2bandit_a2.png","70","","70","test","1","","122","","","","square","circle","117","8","6","0.7008547008547008","","","","","","","",""
"null","2421851","SARL_v6","SARL_v6saywkvlj","62b473736986d2b27c1427d2","freq_resp","","","img/blue_2bandit_a.png","70","img/blue_2bandit_a.png","70","test","","","","","","","","","","","6","","","","","","","","",""
"null","2422012","SARL_v6","SARL_v6saywkvlj","62b473736986d2b27c1427d2","fixation","","","img/fixation.png","null","","","test","","","","","","","","","","","","","","","","","","","",""
"136.70000004768372","2422150","SARL_v6","SARL_v6saywkvlj","62b473736986d2b27c1427d2","infreq","","","img/orange_2bandit_a2.png","70","","68","test","0","","123","","","","square","circle","118","9","6","0.6949152542372882","","","","","","","",""
"null","2422829","SARL_v6","SARL_v6saywkvlj","62b473736986d2b27c1427d2","infreq_resp","","","img/orange_2bandit_a.png","70","img/orange_2bandit_a.png","68","test","","","","","","","","","","","6","","","","","","","","",""
"null","2422984","SARL_v6","SARL_v6saywkvlj","62b473736986d2b27c1427d2","fixation","","","img/fixation.png","null","","","test","","","","","","","","","","","","","","","","","","","",""
"46.09999990463257","2423032","SARL_v6","SARL_v6saywkvlj","62b473736986d2b27c1427d2","freq","","","img/blue_2bandit_a2.png","70","","70","test","1","","124","","","","square","circle","119","10","6","0.6974789915966386","","","","","","","",""
"null","2423789","SARL_v6","SARL_v6saywkvlj","62b473736986d2b27c1427d2","freq_resp","","","img/blue_2bandit_a.png","70","img/blue_2bandit_a.png","70","test","","","","","","","","","","","6","","","","","","","","",""
"null","2423945","SARL_v6","SARL_v6saywkvlj","62b473736986d2b27c1427d2","fixation","","","img/fixation.png","null","","","test","","","","","","","","","","","","","","","","","","","",""
"315.7000000476837","2424262","SARL_v6","SARL_v6saywkvlj","62b473736986d2b27c1427d2","freq","","","img/blue_2bandit_a2.png","70","","70","test","1","","125","","","","square","circle","120","11","6","0.7","","","","","","","",""
"null","2424761","SARL_v6","SARL_v6saywkvlj","62b473736986d2b27c1427d2","freq_resp","","","img/blue_2bandit_a.png","70","img/blue_2bandit_a.png","70","test","","","","","","","","","","","6","","","","","","","","",""
"null","2424917","SARL_v6","SARL_v6saywkvlj","62b473736986d2b27c1427d2","fixation","","","img/fixation.png","null","","","test","","","","","","","","","","","","","","","","","","","",""
"60.799999952316284","2424979","SARL_v6","SARL_v6saywkvlj","62b473736986d2b27c1427d2","freq","","","img/blue_2bandit_a2.png","70","","70","test","1","","126","","","","square","circle","121","12","6","0.7024793388429752","","","","","","","",""
"null","2425733","SARL_v6","SARL_v6saywkvlj","62b473736986d2b27c1427d2","freq_resp","","","img/blue_2bandit_a.png","70","img/blue_2bandit_a.png","70","test","","","","","","","","","","","6","","","","","","","","",""
"null","2425890","SARL_v6","SARL_v6saywkvlj","62b473736986d2b27c1427d2","fixation","","","img/fixation.png","null","","","test","","","","","","","","","","","","","","","","","","","",""
"506.7999999523163","2426399","SARL_v6","SARL_v6saywkvlj","62b473736986d2b27c1427d2","freq","","","img/blue_2bandit_a2.png","70","","70","test","1","","127","","","","square","circle","122","13","6","0.7049180327868853","","","","","","","",""
"null","2426702","SARL_v6","SARL_v6saywkvlj","62b473736986d2b27c1427d2","freq_resp","","","img/blue_2bandit_a.png","70","img/blue_2bandit_a.png","70","test","","","","","","","","","","","6","","","","","","","","",""
"null","2426855","SARL_v6","SARL_v6saywkvlj","62b473736986d2b27c1427d2","fixation","","","img/fixation.png","null","","","test","","","","","","","","","","","","","","","","","","","",""
"181.80000019073486","2427039","SARL_v6","SARL_v6saywkvlj","62b473736986d2b27c1427d2","freq","","","img/blue_2bandit_a2.png","70","","70","test","1","","128","","","","square","circle","123","14","6","0.7073170731707317","","","","","","","",""
"null","2427665","SARL_v6","SARL_v6saywkvlj","62b473736986d2b27c1427d2","freq_resp","","","img/blue_2bandit_a.png","70","img/blue_2bandit_a.png","70","test","","","","","","","","","","","6","","","","","","","","",""
"null","2427821","SARL_v6","SARL_v6saywkvlj","62b473736986d2b27c1427d2","fixation","","","img/fixation.png","null","","","test","","","","","","","","","","","","","","","","","","","",""
"496.40000009536743","2428319","SARL_v6","SARL_v6saywkvlj","62b473736986d2b27c1427d2","freq","","","img/blue_2bandit_a2.png","70","","70","test","1","","129","","","","square","circle","124","15","6","0.7096774193548387","","","","","","","",""
"null","2428626","SARL_v6","SARL_v6saywkvlj","62b473736986d2b27c1427d2","freq_resp","","","img/blue_2bandit_a.png","70","img/blue_2bandit_a.png","70","test","","","","","","","","","","","6","","","","","","","","",""
"null","2428783","SARL_v6","SARL_v6saywkvlj","62b473736986d2b27c1427d2","fixation","","","img/fixation.png","null","","","test","","","","","","","","","","","","","","","","","","","",""
"118.70000004768372","2428904","SARL_v6","SARL_v6saywkvlj","62b473736986d2b27c1427d2","freq","","","img/blue_2bandit_a2.png","70","","70","test","1","","130","","","","square","circle","125","16","6","0.712","","","","","","","",""
"null","2429601","SARL_v6","SARL_v6saywkvlj","62b473736986d2b27c1427d2","freq_resp","","","img/blue_2bandit_a.png","70","img/blue_2bandit_a.png","70","test","","","","","","","","","","","6","","","","","","","","",""
"null","2429756","SARL_v6","SARL_v6saywkvlj","62b473736986d2b27c1427d2","fixation","","","img/fixation.png","null","","","test","","","","","","","","","","","","","","","","","","","",""
"464.10000014305115","2430222","SARL_v6","SARL_v6saywkvlj","62b473736986d2b27c1427d2","infreq","","","img/orange_2bandit_a2.png","70","","68","test","0","","131","","","","square","circle","126","17","6","0.7063492063492064","","","","","","","",""
"null","2430564","SARL_v6","SARL_v6saywkvlj","62b473736986d2b27c1427d2","infreq_resp","","","img/orange_2bandit_a.png","70","img/orange_2bandit_a.png","68","test","","","","","","","","","","","6","","","","","","","","",""
"null","2430720","SARL_v6","SARL_v6saywkvlj","62b473736986d2b27c1427d2","fixation","","","img/fixation.png","null","","","test","","","","","","","","","","","","","","","","","","","",""
"155","2430877","SARL_v6","SARL_v6saywkvlj","62b473736986d2b27c1427d2","freq","","","img/blue_2bandit_a2.png","68","","70","test","0","","132","","","","square","circle","127","18","6","0.7007874015748031","","","","","","","",""
"null","2431529","SARL_v6","SARL_v6saywkvlj","62b473736986d2b27c1427d2","freq_resp","","","img/blue_2bandit_a.png","68","img/blue_2bandit_a.png","70","test","","","","","","","","","","","6","","","","","","","","",""
"null","2431688","SARL_v6","SARL_v6saywkvlj","62b473736986d2b27c1427d2","fixation","","","img/fixation.png","null","","","test","","","","","","","","","","","","","","","","","","","",""
"539.9000000953674","2432230","SARL_v6","SARL_v6saywkvlj","62b473736986d2b27c1427d2","freq","","","img/blue_2bandit_a2.png","70","","70","test","1","","133","","","","square","circle","128","19","6","0.703125","","","","","","","",""
"null","2432496","SARL_v6","SARL_v6saywkvlj","62b473736986d2b27c1427d2","freq_resp","","","img/blue_2bandit_a.png","70","img/blue_2bandit_a.png","70","test","","","","","","","","","","","6","","","","","","","","",""
"null","2432652","SARL_v6","SARL_v6saywkvlj","62b473736986d2b27c1427d2","fixation","","","img/fixation.png","null","","","test","","","","","","","","","","","","","","","","","","","",""
"301.69999980926514","2432956","SARL_v6","SARL_v6saywkvlj","62b473736986d2b27c1427d2","freq","","","img/blue_2bandit_a2.png","70","","70","test","1","","134","","","","square","circle","129","20","6","0.7054263565891473","","","","","","","",""
"null","2433466","SARL_v6","SARL_v6saywkvlj","62b473736986d2b27c1427d2","freq_resp","","","img/blue_2bandit_a.png","70","img/blue_2bandit_a.png","70","test","","","","","","","","","","","6","","","","","","","","",""
"null","2433623","SARL_v6","SARL_v6saywkvlj","62b473736986d2b27c1427d2","fixation","","","img/fixation.png","null","","","test","","","","","","","","","","","","","","","","","","","",""
"644.9000000953674","2434270","SARL_v6","SARL_v6saywkvlj","62b473736986d2b27c1427d2","freq","","","img/blue_2bandit_a2.png","70","","70","test","1","","135","","","","square","circle","130","21","6","0.7076923076923077","","","","","","","",""
"null","2434431","SARL_v6","SARL_v6saywkvlj","62b473736986d2b27c1427d2","freq_resp","","","img/blue_2bandit_a.png","70","img/blue_2bandit_a.png","70","test","","","","","","","","","","","6","","","","","","","","",""
"null","2434586","SARL_v6","SARL_v6saywkvlj","62b473736986d2b27c1427d2","fixation","","","img/fixation.png","null","","","test","","","","","","","","","","","","","","","","","","","",""
"331.89999985694885","2434920","SARL_v6","SARL_v6saywkvlj","62b473736986d2b27c1427d2","freq","","","img/blue_2bandit_a2.png","70","","70","test","1","","136","","","","square","circle","131","22","6","0.7099236641221374","","","","","","","",""
"null","2435397","SARL_v6","SARL_v6saywkvlj","62b473736986d2b27c1427d2","freq_resp","","","img/blue_2bandit_a.png","70","img/blue_2bandit_a.png","70","test","","","","","","","","","","","6","","","","","","","","",""
"null","2435556","SARL_v6","SARL_v6saywkvlj","62b473736986d2b27c1427d2","fixation","","","img/fixation.png","null","","","test","","","","","","","","","","","","","","","","","","","",""
"145","2435703","SARL_v6","SARL_v6saywkvlj","62b473736986d2b27c1427d2","freq","","","img/blue_2bandit_a2.png","70","","70","test","1","","137","","","","square","circle","132","23","6","0.7121212121212122","","","","","","","",""
"null","2436374","SARL_v6","SARL_v6saywkvlj","62b473736986d2b27c1427d2","freq_resp","","","img/blue_2bandit_a.png","70","img/blue_2bandit_a.png","70","test","","","","","","","","","","","6","","","","","","","","",""
"null","2436530","SARL_v6","SARL_v6saywkvlj","62b473736986d2b27c1427d2","fixation","","","img/fixation.png","null","","","test","","","","","","","","","","","","","","","","","","","",""
"1024.5","2437556","SARL_v6","SARL_v6saywkvlj","62b473736986d2b27c1427d2","rl","","","img/black_2bandit_a2.png","75","","0","test","","","138","","","-1","square","circle","","0","6","","75","-1","-4","-4","-1","circle","6","0"
"null","2438314","SARL_v6","SARL_v6saywkvlj","62b473736986d2b27c1427d2","feedback","","","<div class=""verylowPoints""> -1 </div>","null","","na","test","","","NaN","","","","","","","","6","","75","","","","","","6",""
"154.90000009536743","2438471","SARL_v6","SARL_v6saywkvlj","62b473736986d2b27c1427d2","freq","","","img/blue_2bandit_a2.png","70","","70","test","1","","139","","","","square","circle","133","1","7","0.7142857142857143","","","","","","","",""
"null","2439122","SARL_v6","SARL_v6saywkvlj","62b473736986d2b27c1427d2","freq_resp","","","img/blue_2bandit_a.png","70","img/blue_2bandit_a.png","70","test","","","","","","","","","","","7","","","","","","","","",""
"null","2439281","SARL_v6","SARL_v6saywkvlj","62b473736986d2b27c1427d2","fixation","","","img/fixation.png","null","","","test","","","","","","","","","","","","","","","","","","","",""
"232.79999995231628","2439516","SARL_v6","SARL_v6saywkvlj","62b473736986d2b27c1427d2","infreq","","","img/orange_2bandit_a2.png","70","","68","test","0","","140","","","","square","circle","134","2","7","0.7089552238805971","","","","","","","",""
