"rt","time_elapsed","expId","subject","prolificID","trialType","rlType","attType","stimulus","key_press","stim","corrresp","phase","corr","pracCounter","trialNum","rewardOne","rewardTwo","reward","bandOne","bandTwo","attentionNum","attentionRunNum","blockNum","performance","bandChosen","circleVal","squareVal","bandOneVal","bandTwoVal","shapeChosen","rlNum","badFlag"
"6586.099999904633","6591","SARL_v6","SARL_v6v8s74qmm","5ee5e3b02eebe932ee9559c5","","","","","","","","","","","","","","","","","","","","","","","","","","","",""
"","9971","SARL_v6","SARL_v6v8s74qmm","5ee5e3b02eebe932ee9559c5","fullscreen","fullscreen","fullscreen","","","","","","","","","","","","","","","","","","","","","","","","",""
"81887.5","91861","SARL_v6","SARL_v6v8s74qmm","5ee5e3b02eebe932ee9559c5","","","","","","","","","","","","","","","","","","","","","","","","","","","",""
"null","92674","SARL_v6","SARL_v6v8s74qmm","5ee5e3b02eebe932ee9559c5","freqPrac","","","img/orange_2bandit_b2.png","null","img/orange_2bandit_b2.png","70","prac","0","1","","","","","","","","","","","","","","","","","",""
"null","93680","SARL_v6","SARL_v6v8s74qmm","5ee5e3b02eebe932ee9559c5","feedback","","","img/tooSlow.png","null","","na","prac","","","","","","","","","","","","","","","","","","","",""
"null","93848","SARL_v6","SARL_v6v8s74qmm","5ee5e3b02eebe932ee9559c5","fixation","","","img/fixation.png","null","","","prac","","","","","","","","","","","","","","","","","","","",""
"null","94654","SARL_v6","SARL_v6v8s74qmm","5ee5e3b02eebe932ee9559c5","infreqPrac","","","img/blue_2bandit_b2.png","null","img/blue_2bandit_b2.png","68","prac","0","2","","","","","","","","","","","","","","","","","",""
"null","95665","SARL_v6","SARL_v6v8s74qmm","5ee5e3b02eebe932ee9559c5","feedback","","","img/tooSlow.png","null","","na","prac","","","","","","","","","","","","","","","","","","","",""
"null","95831","SARL_v6","SARL_v6v8s74qmm","5ee5e3b02eebe932ee9559c5","fixation","","","img/fixation.png","null","","","prac","","","","","","","","","","","","","","","","","","","",""
"null","96641","SARL_v6","SARL_v6v8s74qmm","5ee5e3b02eebe932ee9559c5","freqPrac","","","img/orange_2bandit_b2.png","null","img/orange_2bandit_b2.png","70","prac","0","3","","","","","","","","","","","","","","","","","",""
"null","97654","SARL_v6","SARL_v6v8s74qmm","5ee5e3b02eebe932ee9559c5","feedback","","","img/tooSlow.png","null","","na","prac","","","","","","","","","","","","","","","","","","","",""
"null","97813","SARL_v6","SARL_v6v8s74qmm","5ee5e3b02eebe932ee9559c5","fixation","","","img/fixation.png","null","","","prac","","","","","","","","","","","","","","","","","","","",""
"358.10000014305115","98175","SARL_v6","SARL_v6v8s74qmm","5ee5e3b02eebe932ee9559c5","infreqPrac","","","img/blue_2bandit_b2.png","70","img/blue_2bandit_b2.png","68","prac","0","4","","","","","","","","","","","","","","","","","",""
"358.10000014305115","98635","SARL_v6","SARL_v6v8s74qmm","5ee5e3b02eebe932ee9559c5","infreqPrac_resp","","","img/blue_2bandit_b.png","70","img/blue_2bandit_b.png","68","prac","","","","","","","","","","","","","","","","","","","",""
"null","99642","SARL_v6","SARL_v6v8s74qmm","5ee5e3b02eebe932ee9559c5","feedback","","","img/wrongKey.png","null","","na","prac","","","","","","","","","","","","","","","","","","","",""
"null","99795","SARL_v6","SARL_v6v8s74qmm","5ee5e3b02eebe932ee9559c5","fixation","","","img/fixation.png","null","","","prac","","","","","","","","","","","","","","","","","","","",""
"null","100606","SARL_v6","SARL_v6v8s74qmm","5ee5e3b02eebe932ee9559c5","infreqPrac","","","img/blue_2bandit_b2.png","null","img/blue_2bandit_b2.png","68","prac","0","5","","","","","","","","","","","","","","","","","",""
"null","101615","SARL_v6","SARL_v6v8s74qmm","5ee5e3b02eebe932ee9559c5","feedback","","","img/tooSlow.png","null","","na","prac","","","","","","","","","","","","","","","","","","","",""
"null","101778","SARL_v6","SARL_v6v8s74qmm","5ee5e3b02eebe932ee9559c5","fixation","","","img/fixation.png","null","","","prac","","","","","","","","","","","","","","","","","","","",""
"null","102587","SARL_v6","SARL_v6v8s74qmm","5ee5e3b02eebe932ee9559c5","infreqPrac","","","img/blue_2bandit_b2.png","null","img/blue_2bandit_b2.png","68","prac","0","6","","","","","","","","","","","","","","","","","",""
"null","103595","SARL_v6","SARL_v6v8s74qmm","5ee5e3b02eebe932ee9559c5","feedback","","","img/tooSlow.png","null","","na","prac","","","","","","","","","","","","","","","","","","","",""
"null","103751","SARL_v6","SARL_v6v8s74qmm","5ee5e3b02eebe932ee9559c5","fixation","","","img/fixation.png","null","","","prac","","","","","","","","","","","","","","","","","","","",""
"null","104556","SARL_v6","SARL_v6v8s74qmm","5ee5e3b02eebe932ee9559c5","freqPrac","","","img/orange_2bandit_b2.png","null","img/orange_2bandit_b2.png","70","prac","0","7","","","","","","","","","","","","","","","","","",""
"null","105563","SARL_v6","SARL_v6v8s74qmm","5ee5e3b02eebe932ee9559c5","feedback","","","img/tooSlow.png","null","","na","prac","","","","","","","","","","","","","","","","","","","",""
"null","105729","SARL_v6","SARL_v6v8s74qmm","5ee5e3b02eebe932ee9559c5","fixation","","","img/fixation.png","null","","","prac","","","","","","","","","","","","","","","","","","","",""
"148.5","105880","SARL_v6","SARL_v6v8s74qmm","5ee5e3b02eebe932ee9559c5","infreqPrac","","","img/blue_2bandit_b2.png","70","img/blue_2bandit_b2.png","68","prac","0","8","","","","","","","","","","","","","","","","","",""
"148.5","106538","SARL_v6","SARL_v6v8s74qmm","5ee5e3b02eebe932ee9559c5","infreqPrac_resp","","","img/blue_2bandit_b.png","70","img/blue_2bandit_b.png","68","prac","","","","","","","","","","","","","","","","","","","",""
"null","107545","SARL_v6","SARL_v6v8s74qmm","5ee5e3b02eebe932ee9559c5","feedback","","","img/wrongKey.png","null","","na","prac","","","","","","","","","","","","","","","","","","","",""
"null","107711","SARL_v6","SARL_v6v8s74qmm","5ee5e3b02eebe932ee9559c5","fixation","","","img/fixation.png","null","","","prac","","","","","","","","","","","","","","","","","","","",""
"null","108528","SARL_v6","SARL_v6v8s74qmm","5ee5e3b02eebe932ee9559c5","freqPrac","","","img/orange_2bandit_b2.png","null","img/orange_2bandit_b2.png","70","prac","0","9","","","","","","","","","","","","","","","","","",""
"null","109544","SARL_v6","SARL_v6v8s74qmm","5ee5e3b02eebe932ee9559c5","feedback","","","img/tooSlow.png","null","","na","prac","","","","","","","","","","","","","","","","","","","",""
"null","109708","SARL_v6","SARL_v6v8s74qmm","5ee5e3b02eebe932ee9559c5","fixation","","","img/fixation.png","null","","","prac","","","","","","","","","","","","","","","","","","","",""
"79.40000009536743","109791","SARL_v6","SARL_v6v8s74qmm","5ee5e3b02eebe932ee9559c5","freqPrac","","","img/orange_2bandit_b2.png","70","img/orange_2bandit_b2.png","70","prac","1","9","","","","","","","","","","","","","","","","","",""
"79.40000009536743","110524","SARL_v6","SARL_v6v8s74qmm","5ee5e3b02eebe932ee9559c5","freqPrac_resp","","","img/orange_2bandit_b.png","70","img/orange_2bandit_b.png","70","prac","","","","","","","","","","","","","","","","","","","",""
"null","110680","SARL_v6","SARL_v6v8s74qmm","5ee5e3b02eebe932ee9559c5","fixation","","","img/fixation.png","null","","","prac","","","","","","","","","","","","","","","","","","","",""
"58889.199999809265","169572","SARL_v6","SARL_v6v8s74qmm","5ee5e3b02eebe932ee9559c5","","","","","","","","prac","","","","","","","","","","","","","","","","","","","",""
"423.89999985694885","169999","SARL_v6","SARL_v6v8s74qmm","5ee5e3b02eebe932ee9559c5","rlPractice","","","img/black_2bandit_b2.png","74","img/black_2bandit_b2.png","","prac","","","0","","","","","","","","","","","","","","","","",""
"null","170754","SARL_v6","SARL_v6v8s74qmm","5ee5e3b02eebe932ee9559c5","feedback","","","<div class=""veryhighPoints""> 10 </div>","null","","na","prac","","","1","10","-14","10","","","","","","","","","","","","","",""
"null","170917","SARL_v6","SARL_v6v8s74qmm","5ee5e3b02eebe932ee9559c5","fixation","","","img/fixation.png","null","","","prac","","","","","","","","","","","","","","","","","","","",""
"373.5","171293","SARL_v6","SARL_v6v8s74qmm","5ee5e3b02eebe932ee9559c5","rlPractice","","","img/black_2bandit_b2.png","74","img/black_2bandit_b2.png","","prac","","","1","","","","","","","","","","","","","","","","",""
"null","172054","SARL_v6","SARL_v6v8s74qmm","5ee5e3b02eebe932ee9559c5","feedback","","","<div class=""veryhighPoints""> 5 </div>","null","","na","prac","","","2","5","-5","5","","","","","","","","","","","","","",""
"null","172216","SARL_v6","SARL_v6v8s74qmm","5ee5e3b02eebe932ee9559c5","fixation","","","img/fixation.png","null","","","prac","","","","","","","","","","","","","","","","","","","",""
"291.2000000476837","172510","SARL_v6","SARL_v6v8s74qmm","5ee5e3b02eebe932ee9559c5","rlPractice","","","img/black_2bandit_b2.png","75","img/black_2bandit_b2.png","","prac","","","2","","","","","","","","","","","","","","","","",""
"null","173273","SARL_v6","SARL_v6v8s74qmm","5ee5e3b02eebe932ee9559c5","feedback","","","<div class=""veryhighPoints_sq""> 2 </div>","null","","na","prac","","","3","30","2","30","","","","","","","","","","","","","",""
"null","173433","SARL_v6","SARL_v6v8s74qmm","5ee5e3b02eebe932ee9559c5","fixation","","","img/fixation.png","null","","","prac","","","","","","","","","","","","","","","","","","","",""
"393","173828","SARL_v6","SARL_v6v8s74qmm","5ee5e3b02eebe932ee9559c5","rlPractice","","","img/black_2bandit_b2.png","74","img/black_2bandit_b2.png","","prac","","","3","","","","","","","","","","","","","","","","",""
"null","174591","SARL_v6","SARL_v6v8s74qmm","5ee5e3b02eebe932ee9559c5","feedback","","","<div class=""verylowPoints""> -2 </div>","null","","na","prac","","","4","-2","20","-2","","","","","","","","","","","","","",""
"null","174749","SARL_v6","SARL_v6v8s74qmm","5ee5e3b02eebe932ee9559c5","fixation","","","img/fixation.png","null","","","prac","","","","","","","","","","","","","","","","","","","",""
"33580.299999952316","208332","SARL_v6","SARL_v6v8s74qmm","5ee5e3b02eebe932ee9559c5","","","","","","","","prac","","","","","","","","","","","","","","","","","","","",""
"null","209142","SARL_v6","SARL_v6v8s74qmm","5ee5e3b02eebe932ee9559c5","mixAttFreqPrac","","","img/orange_2bandit_b2.png","null","img/orange_2bandit_b2.png","70","prac","","","1","","","","","","","","","","","","","","","","",""
"null","209307","SARL_v6","SARL_v6v8s74qmm","5ee5e3b02eebe932ee9559c5","fixation","","","img/fixation.png","null","","","prac","","","","","","","","","","","","","","","","","","","",""
"9.799999952316284","209319","SARL_v6","SARL_v6v8s74qmm","5ee5e3b02eebe932ee9559c5","mixAttInfreqPrac","","","img/blue_2bandit_b2.png","68","img/blue_2bandit_b2.png","68","prac","","","2","","","","","","","","","","","","","","","","",""
"9.799999952316284","210121","SARL_v6","SARL_v6v8s74qmm","5ee5e3b02eebe932ee9559c5","infreqPrac_resp","","","img/blue_2bandit_b.png","68","img/orange_2bandit_b.png","68","prac","","","2","","","","","","","","","","","","","","","","",""
"null","210276","SARL_v6","SARL_v6v8s74qmm","5ee5e3b02eebe932ee9559c5","fixation","","","img/fixation.png","null","","","prac","","","","","","","","","","","","","","","","","","","",""
"520.9000000953674","210799","SARL_v6","SARL_v6v8s74qmm","5ee5e3b02eebe932ee9559c5","mixAttInfreqPrac","","","img/blue_2bandit_b2.png","68","img/blue_2bandit_b2.png","68","prac","","","3","","","","","","","","","","","","","","","","",""
"520.9000000953674","211086","SARL_v6","SARL_v6v8s74qmm","5ee5e3b02eebe932ee9559c5","infreqPrac_resp","","","img/blue_2bandit_b.png","68","img/orange_2bandit_b.png","68","prac","","","3","","","","","","","","","","","","","","","","",""
"null","211250","SARL_v6","SARL_v6v8s74qmm","5ee5e3b02eebe932ee9559c5","fixation","","","img/fixation.png","null","","","prac","","","","","","","","","","","","","","","","","","","",""
"403.09999990463257","211656","SARL_v6","SARL_v6v8s74qmm","5ee5e3b02eebe932ee9559c5","mixAttInfreqPrac","","","img/blue_2bandit_b2.png","68","img/blue_2bandit_b2.png","68","prac","","","4","","","","","","","","","","","","","","","","",""
"403.09999990463257","212070","SARL_v6","SARL_v6v8s74qmm","5ee5e3b02eebe932ee9559c5","infreqPrac_resp","","","img/blue_2bandit_b.png","68","img/orange_2bandit_b.png","68","prac","","","4","","","","","","","","","","","","","","","","",""
"null","212227","SARL_v6","SARL_v6v8s74qmm","5ee5e3b02eebe932ee9559c5","fixation","","","img/fixation.png","null","","","prac","","","","","","","","","","","","","","","","","","","",""
"280.2000000476837","212510","SARL_v6","SARL_v6v8s74qmm","5ee5e3b02eebe932ee9559c5","mixAttFreqPrac","","","img/orange_2bandit_b2.png","70","img/orange_2bandit_b2.png","70","prac","","","5","","","","","","","","","","","","","","","","",""
"280.2000000476837","213040","SARL_v6","SARL_v6v8s74qmm","5ee5e3b02eebe932ee9559c5","freqPrac_resp","","","img/orange_2bandit_b.png","70","img/orange_2bandit_b.png","70","prac","","","5","","","","","","","","","","","","","","","","",""
"null","213208","SARL_v6","SARL_v6v8s74qmm","5ee5e3b02eebe932ee9559c5","fixation","","","img/fixation.png","null","","","prac","","","","","","","","","","","","","","","","","","","",""
"552.8999998569489","213764","SARL_v6","SARL_v6v8s74qmm","5ee5e3b02eebe932ee9559c5","mixRLPractice","","","img/black_2bandit_b2.png","75","img/black_2bandit_b2.png","","prac","","","5","","","","","","","","","","","","","","","","",""
"null","214528","SARL_v6","SARL_v6v8s74qmm","5ee5e3b02eebe932ee9559c5","feedback","","","<div class=""veryhighPoints_sq""> 10 </div>","null","","na","prac","","","6","-14","10","-14","","","","","","","","","","","","","",""
"null","214692","SARL_v6","SARL_v6v8s74qmm","5ee5e3b02eebe932ee9559c5","fixation","","","img/fixation.png","null","","","prac","","","","","","","","","","","","","","","","","","","",""
"470.5","215165","SARL_v6","SARL_v6v8s74qmm","5ee5e3b02eebe932ee9559c5","mixAttFreqPrac","","","img/orange_2bandit_b2.png","70","img/orange_2bandit_b2.png","70","prac","","","7","","","","","","","","","","","","","","","","",""
"470.5","215499","SARL_v6","SARL_v6v8s74qmm","5ee5e3b02eebe932ee9559c5","freqPrac_resp","","","img/orange_2bandit_b.png","70","img/orange_2bandit_b.png","70","prac","","","7","","","","","","","","","","","","","","","","",""
"null","215658","SARL_v6","SARL_v6v8s74qmm","5ee5e3b02eebe932ee9559c5","fixation","","","img/fixation.png","null","","","prac","","","","","","","","","","","","","","","","","","","",""
"508.7999999523163","216169","SARL_v6","SARL_v6v8s74qmm","5ee5e3b02eebe932ee9559c5","mixAttInfreqPrac","","","img/blue_2bandit_b2.png","68","img/blue_2bandit_b2.png","68","prac","","","8","","","","","","","","","","","","","","","","",""
"508.7999999523163","216468","SARL_v6","SARL_v6v8s74qmm","5ee5e3b02eebe932ee9559c5","infreqPrac_resp","","","img/blue_2bandit_b.png","68","img/orange_2bandit_b.png","68","prac","","","8","","","","","","","","","","","","","","","","",""
"null","216626","SARL_v6","SARL_v6v8s74qmm","5ee5e3b02eebe932ee9559c5","fixation","","","img/fixation.png","null","","","prac","","","","","","","","","","","","","","","","","","","",""
"436.09999990463257","217064","SARL_v6","SARL_v6v8s74qmm","5ee5e3b02eebe932ee9559c5","mixAttFreqPrac","","","img/orange_2bandit_b2.png","68","img/orange_2bandit_b2.png","70","prac","","","9","","","","","","","","","","","","","","","","",""
"436.09999990463257","217433","SARL_v6","SARL_v6v8s74qmm","5ee5e3b02eebe932ee9559c5","freqPrac_resp","","","img/orange_2bandit_b.png","68","img/orange_2bandit_b.png","70","prac","","","9","","","","","","","","","","","","","","","","",""
"null","217597","SARL_v6","SARL_v6v8s74qmm","5ee5e3b02eebe932ee9559c5","fixation","","","img/fixation.png","null","","","prac","","","","","","","","","","","","","","","","","","","",""
"298.90000009536743","217898","SARL_v6","SARL_v6v8s74qmm","5ee5e3b02eebe932ee9559c5","mixAttFreqPrac","","","img/orange_2bandit_b2.png","70","img/orange_2bandit_b2.png","70","prac","","","10","","","","","","","","","","","","","","","","",""
"298.90000009536743","218408","SARL_v6","SARL_v6v8s74qmm","5ee5e3b02eebe932ee9559c5","freqPrac_resp","","","img/orange_2bandit_b.png","70","img/orange_2bandit_b.png","70","prac","","","10","","","","","","","","","","","","","","","","",""
"null","218575","SARL_v6","SARL_v6v8s74qmm","5ee5e3b02eebe932ee9559c5","fixation","","","img/fixation.png","null","","","prac","","","","","","","","","","","","","","","","","","","",""
"529.4000000953674","219107","SARL_v6","SARL_v6v8s74qmm","5ee5e3b02eebe932ee9559c5","mixAttInfreqPrac","","","img/blue_2bandit_b2.png","70","img/blue_2bandit_b2.png","68","prac","","","11","","","","","","","","","","","","","","","","",""
"529.4000000953674","219387","SARL_v6","SARL_v6v8s74qmm","5ee5e3b02eebe932ee9559c5","infreqPrac_resp","","","img/blue_2bandit_b.png","70","img/orange_2bandit_b.png","68","prac","","","11","","","","","","","","","","","","","","","","",""
"null","219544","SARL_v6","SARL_v6v8s74qmm","5ee5e3b02eebe932ee9559c5","fixation","","","img/fixation.png","null","","","prac","","","","","","","","","","","","","","","","","","","",""
"803.6999998092651","220351","SARL_v6","SARL_v6v8s74qmm","5ee5e3b02eebe932ee9559c5","mixRLPractice","","","img/black_2bandit_b2.png","75","img/black_2bandit_b2.png","","prac","","","11","","","","","","","","","","","","","","","","",""
"null","221117","SARL_v6","SARL_v6v8s74qmm","5ee5e3b02eebe932ee9559c5","feedback","","","<div class=""verylowPoints_sq""> -5 </div>","null","","na","prac","","","12","5","-5","5","","","","","","","","","","","","","",""
"null","221273","SARL_v6","SARL_v6v8s74qmm","5ee5e3b02eebe932ee9559c5","fixation","","","img/fixation.png","null","","","prac","","","","","","","","","","","","","","","","","","","",""
"9891.5","231167","SARL_v6","SARL_v6v8s74qmm","5ee5e3b02eebe932ee9559c5","","","","","","","","prac","","","","","","","","","","","","","","","","","","","",""
"537.7000000476837","231707","SARL_v6","SARL_v6v8s74qmm","5ee5e3b02eebe932ee9559c5","freq","","","img/orange_2bandit_b2.png","70","","70","test","1","","1","","","","circle","square","1","1","1","1","","","","","","","",""
"null","231983","SARL_v6","SARL_v6v8s74qmm","5ee5e3b02eebe932ee9559c5","freq_resp","","","img/orange_2bandit_b.png","70","img/orange_2bandit_b.png","70","test","","","","","","","","","","","1","","","","","","","","",""
"null","232138","SARL_v6","SARL_v6v8s74qmm","5ee5e3b02eebe932ee9559c5","fixation","","","img/fixation.png","null","","","test","","","","","","","","","","","","","","","","","","","",""
"367.2000000476837","232508","SARL_v6","SARL_v6v8s74qmm","5ee5e3b02eebe932ee9559c5","freq","","","img/orange_2bandit_b2.png","70","","70","test","1","","2","","","","circle","square","2","2","1","1","","","","","","","",""
"null","232956","SARL_v6","SARL_v6v8s74qmm","5ee5e3b02eebe932ee9559c5","freq_resp","","","img/orange_2bandit_b.png","70","img/orange_2bandit_b.png","70","test","","","","","","","","","","","1","","","","","","","","",""
"null","233110","SARL_v6","SARL_v6v8s74qmm","5ee5e3b02eebe932ee9559c5","fixation","","","img/fixation.png","null","","","test","","","","","","","","","","","","","","","","","","","",""
"429","233542","SARL_v6","SARL_v6v8s74qmm","5ee5e3b02eebe932ee9559c5","infreq","","","img/blue_2bandit_b2.png","68","","68","test","1","","3","","","","circle","square","3","3","1","1","","","","","","","",""
"null","233924","SARL_v6","SARL_v6v8s74qmm","5ee5e3b02eebe932ee9559c5","infreq_resp","","","img/blue_2bandit_b.png","68","img/blue_2bandit_b.png","68","test","","","","","","","","","","","1","","","","","","","","",""
"null","234088","SARL_v6","SARL_v6v8s74qmm","5ee5e3b02eebe932ee9559c5","fixation","","","img/fixation.png","null","","","test","","","","","","","","","","","","","","","","","","","",""
"346.7000000476837","234438","SARL_v6","SARL_v6v8s74qmm","5ee5e3b02eebe932ee9559c5","freq","","","img/orange_2bandit_b2.png","70","","70","test","1","","4","","","","circle","square","4","4","1","1","","","","","","","",""
"null","234907","SARL_v6","SARL_v6v8s74qmm","5ee5e3b02eebe932ee9559c5","freq_resp","","","img/orange_2bandit_b.png","70","img/orange_2bandit_b.png","70","test","","","","","","","","","","","1","","","","","","","","",""
"null","235073","SARL_v6","SARL_v6v8s74qmm","5ee5e3b02eebe932ee9559c5","fixation","","","img/fixation.png","null","","","test","","","","","","","","","","","","","","","","","","","",""
"470.90000009536743","235546","SARL_v6","SARL_v6v8s74qmm","5ee5e3b02eebe932ee9559c5","freq","","","img/orange_2bandit_b2.png","70","","70","test","1","","5","","","","circle","square","5","5","1","1","","","","","","","",""
"null","235894","SARL_v6","SARL_v6v8s74qmm","5ee5e3b02eebe932ee9559c5","freq_resp","","","img/orange_2bandit_b.png","70","img/orange_2bandit_b.png","70","test","","","","","","","","","","","1","","","","","","","","",""
"null","236054","SARL_v6","SARL_v6v8s74qmm","5ee5e3b02eebe932ee9559c5","fixation","","","img/fixation.png","null","","","test","","","","","","","","","","","","","","","","","","","",""
"417.5","236475","SARL_v6","SARL_v6v8s74qmm","5ee5e3b02eebe932ee9559c5","freq","","","img/orange_2bandit_b2.png","70","","70","test","1","","6","","","","circle","square","6","6","1","1","","","","","","","",""
"null","236861","SARL_v6","SARL_v6v8s74qmm","5ee5e3b02eebe932ee9559c5","freq_resp","","","img/orange_2bandit_b.png","70","img/orange_2bandit_b.png","70","test","","","","","","","","","","","1","","","","","","","","",""
"null","237021","SARL_v6","SARL_v6v8s74qmm","5ee5e3b02eebe932ee9559c5","fixation","","","img/fixation.png","null","","","test","","","","","","","","","","","","","","","","","","","",""
"439.7999999523163","237465","SARL_v6","SARL_v6v8s74qmm","5ee5e3b02eebe932ee9559c5","freq","","","img/orange_2bandit_b2.png","70","","70","test","1","","7","","","","circle","square","7","7","1","1","","","","","","","",""
"null","237843","SARL_v6","SARL_v6v8s74qmm","5ee5e3b02eebe932ee9559c5","freq_resp","","","img/orange_2bandit_b.png","70","img/orange_2bandit_b.png","70","test","","","","","","","","","","","1","","","","","","","","",""
"null","238009","SARL_v6","SARL_v6v8s74qmm","5ee5e3b02eebe932ee9559c5","fixation","","","img/fixation.png","null","","","test","","","","","","","","","","","","","","","","","","","",""
"410.39999985694885","238422","SARL_v6","SARL_v6v8s74qmm","5ee5e3b02eebe932ee9559c5","freq","","","img/orange_2bandit_b2.png","70","","70","test","1","","8","","","","circle","square","8","8","1","1","","","","","","","",""
"null","238817","SARL_v6","SARL_v6v8s74qmm","5ee5e3b02eebe932ee9559c5","freq_resp","","","img/orange_2bandit_b.png","70","img/orange_2bandit_b.png","70","test","","","","","","","","","","","1","","","","","","","","",""
"null","238971","SARL_v6","SARL_v6v8s74qmm","5ee5e3b02eebe932ee9559c5","fixation","","","img/fixation.png","null","","","test","","","","","","","","","","","","","","","","","","","",""
"418.5","239392","SARL_v6","SARL_v6v8s74qmm","5ee5e3b02eebe932ee9559c5","freq","","","img/orange_2bandit_b2.png","70","","70","test","1","","9","","","","circle","square","9","9","1","1","","","","","","","",""
"null","239780","SARL_v6","SARL_v6v8s74qmm","5ee5e3b02eebe932ee9559c5","freq_resp","","","img/orange_2bandit_b.png","70","img/orange_2bandit_b.png","70","test","","","","","","","","","","","1","","","","","","","","",""
"null","239941","SARL_v6","SARL_v6v8s74qmm","5ee5e3b02eebe932ee9559c5","fixation","","","img/fixation.png","null","","","test","","","","","","","","","","","","","","","","","","","",""
"347.7000000476837","240292","SARL_v6","SARL_v6v8s74qmm","5ee5e3b02eebe932ee9559c5","freq","","","img/orange_2bandit_b2.png","70","","70","test","1","","10","","","","circle","square","10","10","1","1","","","","","","","",""
"null","240759","SARL_v6","SARL_v6v8s74qmm","5ee5e3b02eebe932ee9559c5","freq_resp","","","img/orange_2bandit_b.png","70","img/orange_2bandit_b.png","70","test","","","","","","","","","","","1","","","","","","","","",""
"null","240923","SARL_v6","SARL_v6v8s74qmm","5ee5e3b02eebe932ee9559c5","fixation","","","img/fixation.png","null","","","test","","","","","","","","","","","","","","","","","","","",""
"513.8999998569489","241440","SARL_v6","SARL_v6v8s74qmm","5ee5e3b02eebe932ee9559c5","freq","","","img/orange_2bandit_b2.png","70","","70","test","1","","11","","","","circle","square","11","11","1","1","","","","","","","",""
"null","241733","SARL_v6","SARL_v6v8s74qmm","5ee5e3b02eebe932ee9559c5","freq_resp","","","img/orange_2bandit_b.png","70","img/orange_2bandit_b.png","70","test","","","","","","","","","","","1","","","","","","","","",""
"null","241889","SARL_v6","SARL_v6v8s74qmm","5ee5e3b02eebe932ee9559c5","fixation","","","img/fixation.png","null","","","test","","","","","","","","","","","","","","","","","","","",""
"448.60000014305115","242340","SARL_v6","SARL_v6v8s74qmm","5ee5e3b02eebe932ee9559c5","freq","","","img/orange_2bandit_b2.png","70","","70","test","1","","12","","","","circle","square","12","12","1","1","","","","","","","",""
"null","242700","SARL_v6","SARL_v6v8s74qmm","5ee5e3b02eebe932ee9559c5","freq_resp","","","img/orange_2bandit_b.png","70","img/orange_2bandit_b.png","70","test","","","","","","","","","","","1","","","","","","","","",""
"null","242855","SARL_v6","SARL_v6v8s74qmm","5ee5e3b02eebe932ee9559c5","fixation","","","img/fixation.png","null","","","test","","","","","","","","","","","","","","","","","","","",""
"416.69999980926514","243275","SARL_v6","SARL_v6v8s74qmm","5ee5e3b02eebe932ee9559c5","freq","","","img/orange_2bandit_b2.png","70","","70","test","1","","13","","","","circle","square","13","13","1","1","","","","","","","",""
"null","243676","SARL_v6","SARL_v6v8s74qmm","5ee5e3b02eebe932ee9559c5","freq_resp","","","img/orange_2bandit_b.png","70","img/orange_2bandit_b.png","70","test","","","","","","","","","","","1","","","","","","","","",""
"null","243837","SARL_v6","SARL_v6v8s74qmm","5ee5e3b02eebe932ee9559c5","fixation","","","img/fixation.png","null","","","test","","","","","","","","","","","","","","","","","","","",""
"432.89999985694885","244273","SARL_v6","SARL_v6v8s74qmm","5ee5e3b02eebe932ee9559c5","freq","","","img/orange_2bandit_b2.png","70","","70","test","1","","14","","","","circle","square","14","14","1","1","","","","","","","",""
"null","244645","SARL_v6","SARL_v6v8s74qmm","5ee5e3b02eebe932ee9559c5","freq_resp","","","img/orange_2bandit_b.png","70","img/orange_2bandit_b.png","70","test","","","","","","","","","","","1","","","","","","","","",""
"null","244805","SARL_v6","SARL_v6v8s74qmm","5ee5e3b02eebe932ee9559c5","fixation","","","img/fixation.png","null","","","test","","","","","","","","","","","","","","","","","","","",""
"454.2000000476837","245262","SARL_v6","SARL_v6v8s74qmm","5ee5e3b02eebe932ee9559c5","freq","","","img/orange_2bandit_b2.png","70","","70","test","1","","15","","","","circle","square","15","15","1","1","","","","","","","",""
"null","245625","SARL_v6","SARL_v6v8s74qmm","5ee5e3b02eebe932ee9559c5","freq_resp","","","img/orange_2bandit_b.png","70","img/orange_2bandit_b.png","70","test","","","","","","","","","","","1","","","","","","","","",""
"null","245787","SARL_v6","SARL_v6v8s74qmm","5ee5e3b02eebe932ee9559c5","fixation","","","img/fixation.png","null","","","test","","","","","","","","","","","","","","","","","","","",""
"709.0999999046326","246500","SARL_v6","SARL_v6v8s74qmm","5ee5e3b02eebe932ee9559c5","freq","","","img/orange_2bandit_b2.png","70","","70","test","1","","16","","","","circle","square","16","16","1","1","","","","","","","",""
"null","246606","SARL_v6","SARL_v6v8s74qmm","5ee5e3b02eebe932ee9559c5","freq_resp","","","img/orange_2bandit_b.png","70","img/orange_2bandit_b.png","70","test","","","","","","","","","","","1","","","","","","","","",""
"null","246771","SARL_v6","SARL_v6v8s74qmm","5ee5e3b02eebe932ee9559c5","fixation","","","img/fixation.png","null","","","test","","","","","","","","","","","","","","","","","","","",""
"599.5","247373","SARL_v6","SARL_v6v8s74qmm","5ee5e3b02eebe932ee9559c5","freq","","","img/orange_2bandit_b2.png","70","","70","test","1","","17","","","","circle","square","17","17","1","1","","","","","","","",""
"null","247587","SARL_v6","SARL_v6v8s74qmm","5ee5e3b02eebe932ee9559c5","freq_resp","","","img/orange_2bandit_b.png","70","img/orange_2bandit_b.png","70","test","","","","","","","","","","","1","","","","","","","","",""
"null","247754","SARL_v6","SARL_v6v8s74qmm","5ee5e3b02eebe932ee9559c5","fixation","","","img/fixation.png","null","","","test","","","","","","","","","","","","","","","","","","","",""
"606.5","248363","SARL_v6","SARL_v6v8s74qmm","5ee5e3b02eebe932ee9559c5","infreq","","","img/blue_2bandit_b2.png","68","","68","test","1","","18","","","","circle","square","18","18","1","1","","","","","","","",""
"null","248567","SARL_v6","SARL_v6v8s74qmm","5ee5e3b02eebe932ee9559c5","infreq_resp","","","img/blue_2bandit_b.png","68","img/blue_2bandit_b.png","68","test","","","","","","","","","","","1","","","","","","","","",""
"null","248721","SARL_v6","SARL_v6v8s74qmm","5ee5e3b02eebe932ee9559c5","fixation","","","img/fixation.png","null","","","test","","","","","","","","","","","","","","","","","","","",""
"479.5","249203","SARL_v6","SARL_v6v8s74qmm","5ee5e3b02eebe932ee9559c5","freq","","","img/orange_2bandit_b2.png","70","","70","test","1","","19","","","","circle","square","19","19","1","1","","","","","","","",""
"null","249531","SARL_v6","SARL_v6v8s74qmm","5ee5e3b02eebe932ee9559c5","freq_resp","","","img/orange_2bandit_b.png","70","img/orange_2bandit_b.png","70","test","","","","","","","","","","","1","","","","","","","","",""
"null","249687","SARL_v6","SARL_v6v8s74qmm","5ee5e3b02eebe932ee9559c5","fixation","","","img/fixation.png","null","","","test","","","","","","","","","","","","","","","","","","","",""
"501.89999985694885","250192","SARL_v6","SARL_v6v8s74qmm","5ee5e3b02eebe932ee9559c5","freq","","","img/orange_2bandit_b2.png","70","","70","test","1","","20","","","","circle","square","20","20","1","1","","","","","","","",""
"null","250499","SARL_v6","SARL_v6v8s74qmm","5ee5e3b02eebe932ee9559c5","freq_resp","","","img/orange_2bandit_b.png","70","img/orange_2bandit_b.png","70","test","","","","","","","","","","","1","","","","","","","","",""
"null","250655","SARL_v6","SARL_v6v8s74qmm","5ee5e3b02eebe932ee9559c5","fixation","","","img/fixation.png","null","","","test","","","","","","","","","","","","","","","","","","","",""
"458.7000000476837","251117","SARL_v6","SARL_v6v8s74qmm","5ee5e3b02eebe932ee9559c5","freq","","","img/orange_2bandit_b2.png","70","","70","test","1","","21","","","","circle","square","21","21","1","1","","","","","","","",""
"null","251476","SARL_v6","SARL_v6v8s74qmm","5ee5e3b02eebe932ee9559c5","freq_resp","","","img/orange_2bandit_b.png","70","img/orange_2bandit_b.png","70","test","","","","","","","","","","","1","","","","","","","","",""
"null","251639","SARL_v6","SARL_v6v8s74qmm","5ee5e3b02eebe932ee9559c5","fixation","","","img/fixation.png","null","","","test","","","","","","","","","","","","","","","","","","","",""
"478.89999985694885","252121","SARL_v6","SARL_v6v8s74qmm","5ee5e3b02eebe932ee9559c5","freq","","","img/orange_2bandit_b2.png","70","","70","test","1","","22","","","","circle","square","22","22","1","1","","","","","","","",""
"null","252461","SARL_v6","SARL_v6v8s74qmm","5ee5e3b02eebe932ee9559c5","freq_resp","","","img/orange_2bandit_b.png","70","img/orange_2bandit_b.png","70","test","","","","","","","","","","","1","","","","","","","","",""
"null","252621","SARL_v6","SARL_v6v8s74qmm","5ee5e3b02eebe932ee9559c5","fixation","","","img/fixation.png","null","","","test","","","","","","","","","","","","","","","","","","","",""
"526.0999999046326","253149","SARL_v6","SARL_v6v8s74qmm","5ee5e3b02eebe932ee9559c5","freq","","","img/orange_2bandit_b2.png","70","","70","test","1","","23","","","","circle","square","23","23","1","1","","","","","","","",""
"null","253436","SARL_v6","SARL_v6v8s74qmm","5ee5e3b02eebe932ee9559c5","freq_resp","","","img/orange_2bandit_b.png","70","img/orange_2bandit_b.png","70","test","","","","","","","","","","","1","","","","","","","","",""
"null","253604","SARL_v6","SARL_v6v8s74qmm","5ee5e3b02eebe932ee9559c5","fixation","","","img/fixation.png","null","","","test","","","","","","","","","","","","","","","","","","","",""
"694.2999999523163","254301","SARL_v6","SARL_v6v8s74qmm","5ee5e3b02eebe932ee9559c5","rl","","","img/black_2bandit_b2.png","75","","0","test","","","24","","","-3","circle","square","","0","1","","75","-3","-3","-3","-3","square","1","0"
"null","255060","SARL_v6","SARL_v6v8s74qmm","5ee5e3b02eebe932ee9559c5","feedback","","","<div class=""verylowPoints_sq""> -3 </div>","null","","na","test","","","NaN","","","","","","","","1","","75","","","","","","1",""
"517.5999999046326","255580","SARL_v6","SARL_v6v8s74qmm","5ee5e3b02eebe932ee9559c5","freq","","","img/orange_2bandit_b2.png","70","","70","test","1","","25","","","","circle","square","24","1","2","1","","","","","","","",""
"null","255878","SARL_v6","SARL_v6v8s74qmm","5ee5e3b02eebe932ee9559c5","freq_resp","","","img/orange_2bandit_b.png","70","img/orange_2bandit_b.png","70","test","","","","","","","","","","","2","","","","","","","","",""
"null","256035","SARL_v6","SARL_v6v8s74qmm","5ee5e3b02eebe932ee9559c5","fixation","","","img/fixation.png","null","","","test","","","","","","","","","","","","","","","","","","","",""
"370.7999999523163","256409","SARL_v6","SARL_v6v8s74qmm","5ee5e3b02eebe932ee9559c5","freq","","","img/orange_2bandit_b2.png","70","","70","test","1","","26","","","","circle","square","25","2","2","1","","","","","","","",""
"null","256850","SARL_v6","SARL_v6v8s74qmm","5ee5e3b02eebe932ee9559c5","freq_resp","","","img/orange_2bandit_b.png","70","img/orange_2bandit_b.png","70","test","","","","","","","","","","","2","","","","","","","","",""
"null","257018","SARL_v6","SARL_v6v8s74qmm","5ee5e3b02eebe932ee9559c5","fixation","","","img/fixation.png","null","","","test","","","","","","","","","","","","","","","","","","","",""
"428.10000014305115","257449","SARL_v6","SARL_v6v8s74qmm","5ee5e3b02eebe932ee9559c5","freq","","","img/orange_2bandit_b2.png","70","","70","test","1","","27","","","","circle","square","26","3","2","1","","","","","","","",""
"null","257837","SARL_v6","SARL_v6v8s74qmm","5ee5e3b02eebe932ee9559c5","freq_resp","","","img/orange_2bandit_b.png","70","img/orange_2bandit_b.png","70","test","","","","","","","","","","","2","","","","","","","","",""
"null","258002","SARL_v6","SARL_v6v8s74qmm","5ee5e3b02eebe932ee9559c5","fixation","","","img/fixation.png","null","","","test","","","","","","","","","","","","","","","","","","","",""
"413.09999990463257","258418","SARL_v6","SARL_v6v8s74qmm","5ee5e3b02eebe932ee9559c5","freq","","","img/orange_2bandit_b2.png","70","","70","test","1","","28","","","","circle","square","27","4","2","1","","","","","","","",""
"null","258821","SARL_v6","SARL_v6v8s74qmm","5ee5e3b02eebe932ee9559c5","freq_resp","","","img/orange_2bandit_b.png","70","img/orange_2bandit_b.png","70","test","","","","","","","","","","","2","","","","","","","","",""
"null","258985","SARL_v6","SARL_v6v8s74qmm","5ee5e3b02eebe932ee9559c5","fixation","","","img/fixation.png","null","","","test","","","","","","","","","","","","","","","","","","","",""
"509","259497","SARL_v6","SARL_v6v8s74qmm","5ee5e3b02eebe932ee9559c5","infreq","","","img/blue_2bandit_b2.png","68","","68","test","1","","29","","","","circle","square","28","5","2","1","","","","","","","",""
"null","259793","SARL_v6","SARL_v6v8s74qmm","5ee5e3b02eebe932ee9559c5","infreq_resp","","","img/blue_2bandit_b.png","68","img/blue_2bandit_b.png","68","test","","","","","","","","","","","2","","","","","","","","",""
"null","259952","SARL_v6","SARL_v6v8s74qmm","5ee5e3b02eebe932ee9559c5","fixation","","","img/fixation.png","null","","","test","","","","","","","","","","","","","","","","","","","",""
"356.7999999523163","260311","SARL_v6","SARL_v6v8s74qmm","5ee5e3b02eebe932ee9559c5","freq","","","img/orange_2bandit_b2.png","70","","70","test","1","","30","","","","circle","square","29","6","2","1","","","","","","","",""
"null","260774","SARL_v6","SARL_v6v8s74qmm","5ee5e3b02eebe932ee9559c5","freq_resp","","","img/orange_2bandit_b.png","70","img/orange_2bandit_b.png","70","test","","","","","","","","","","","2","","","","","","","","",""
"null","260933","SARL_v6","SARL_v6v8s74qmm","5ee5e3b02eebe932ee9559c5","fixation","","","img/fixation.png","null","","","test","","","","","","","","","","","","","","","","","","","",""
"465.19999980926514","261401","SARL_v6","SARL_v6v8s74qmm","5ee5e3b02eebe932ee9559c5","freq","","","img/orange_2bandit_b2.png","70","","70","test","1","","31","","","","circle","square","30","7","2","1","","","","","","","",""
"null","261740","SARL_v6","SARL_v6v8s74qmm","5ee5e3b02eebe932ee9559c5","freq_resp","","","img/orange_2bandit_b.png","70","img/orange_2bandit_b.png","70","test","","","","","","","","","","","2","","","","","","","","",""
"null","261901","SARL_v6","SARL_v6v8s74qmm","5ee5e3b02eebe932ee9559c5","fixation","","","img/fixation.png","null","","","test","","","","","","","","","","","","","","","","","","","",""
"471.89999985694885","262375","SARL_v6","SARL_v6v8s74qmm","5ee5e3b02eebe932ee9559c5","freq","","","img/orange_2bandit_b2.png","70","","70","test","1","","32","","","","circle","square","31","8","2","1","","","","","","","",""
"null","262708","SARL_v6","SARL_v6v8s74qmm","5ee5e3b02eebe932ee9559c5","freq_resp","","","img/orange_2bandit_b.png","70","img/orange_2bandit_b.png","70","test","","","","","","","","","","","2","","","","","","","","",""
"null","262868","SARL_v6","SARL_v6v8s74qmm","5ee5e3b02eebe932ee9559c5","fixation","","","img/fixation.png","null","","","test","","","","","","","","","","","","","","","","","","","",""
"464.7000000476837","263335","SARL_v6","SARL_v6v8s74qmm","5ee5e3b02eebe932ee9559c5","freq","","","img/orange_2bandit_b2.png","70","","70","test","1","","33","","","","circle","square","32","9","2","1","","","","","","","",""
"null","263672","SARL_v6","SARL_v6v8s74qmm","5ee5e3b02eebe932ee9559c5","freq_resp","","","img/orange_2bandit_b.png","70","img/orange_2bandit_b.png","70","test","","","","","","","","","","","2","","","","","","","","",""
"null","263833","SARL_v6","SARL_v6v8s74qmm","5ee5e3b02eebe932ee9559c5","fixation","","","img/fixation.png","null","","","test","","","","","","","","","","","","","","","","","","","",""
"536.9000000953674","264372","SARL_v6","SARL_v6v8s74qmm","5ee5e3b02eebe932ee9559c5","freq","","","img/orange_2bandit_b2.png","70","","70","test","1","","34","","","","circle","square","33","10","2","1","","","","","","","",""
"null","264645","SARL_v6","SARL_v6v8s74qmm","5ee5e3b02eebe932ee9559c5","freq_resp","","","img/orange_2bandit_b.png","70","img/orange_2bandit_b.png","70","test","","","","","","","","","","","2","","","","","","","","",""
"null","264798","SARL_v6","SARL_v6v8s74qmm","5ee5e3b02eebe932ee9559c5","fixation","","","img/fixation.png","null","","","test","","","","","","","","","","","","","","","","","","","",""
"461.5","265263","SARL_v6","SARL_v6v8s74qmm","5ee5e3b02eebe932ee9559c5","freq","","","img/orange_2bandit_b2.png","70","","70","test","1","","35","","","","circle","square","34","11","2","1","","","","","","","",""
"null","265606","SARL_v6","SARL_v6v8s74qmm","5ee5e3b02eebe932ee9559c5","freq_resp","","","img/orange_2bandit_b.png","70","img/orange_2bandit_b.png","70","test","","","","","","","","","","","2","","","","","","","","",""
"null","265766","SARL_v6","SARL_v6v8s74qmm","5ee5e3b02eebe932ee9559c5","fixation","","","img/fixation.png","null","","","test","","","","","","","","","","","","","","","","","","","",""
"434.5","266204","SARL_v6","SARL_v6v8s74qmm","5ee5e3b02eebe932ee9559c5","freq","","","img/orange_2bandit_b2.png","70","","70","test","1","","36","","","","circle","square","35","12","2","1","","","","","","","",""
"null","266572","SARL_v6","SARL_v6v8s74qmm","5ee5e3b02eebe932ee9559c5","freq_resp","","","img/orange_2bandit_b.png","70","img/orange_2bandit_b.png","70","test","","","","","","","","","","","2","","","","","","","","",""
"null","266735","SARL_v6","SARL_v6v8s74qmm","5ee5e3b02eebe932ee9559c5","fixation","","","img/fixation.png","null","","","test","","","","","","","","","","","","","","","","","","","",""
"337.7000000476837","267077","SARL_v6","SARL_v6v8s74qmm","5ee5e3b02eebe932ee9559c5","freq","","","img/orange_2bandit_b2.png","70","","70","test","1","","37","","","","circle","square","36","13","2","1","","","","","","","",""
"null","267550","SARL_v6","SARL_v6v8s74qmm","5ee5e3b02eebe932ee9559c5","freq_resp","","","img/orange_2bandit_b.png","70","img/orange_2bandit_b.png","70","test","","","","","","","","","","","2","","","","","","","","",""
"null","267713","SARL_v6","SARL_v6v8s74qmm","5ee5e3b02eebe932ee9559c5","fixation","","","img/fixation.png","null","","","test","","","","","","","","","","","","","","","","","","","",""
"359.7999999523163","268076","SARL_v6","SARL_v6v8s74qmm","5ee5e3b02eebe932ee9559c5","freq","","","img/orange_2bandit_b2.png","70","","70","test","1","","38","","","","circle","square","37","14","2","1","","","","","","","",""
"null","268534","SARL_v6","SARL_v6v8s74qmm","5ee5e3b02eebe932ee9559c5","freq_resp","","","img/orange_2bandit_b.png","70","img/orange_2bandit_b.png","70","test","","","","","","","","","","","2","","","","","","","","",""
"null","268698","SARL_v6","SARL_v6v8s74qmm","5ee5e3b02eebe932ee9559c5","fixation","","","img/fixation.png","null","","","test","","","","","","","","","","","","","","","","","","","",""
"311","269011","SARL_v6","SARL_v6v8s74qmm","5ee5e3b02eebe932ee9559c5","infreq","","","img/blue_2bandit_b2.png","70","","68","test","0","","39","","","","circle","square","38","15","2","0.9736842105263158","","","","","","","",""
"null","269513","SARL_v6","SARL_v6v8s74qmm","5ee5e3b02eebe932ee9559c5","infreq_resp","","","img/blue_2bandit_b.png","70","img/blue_2bandit_b.png","68","test","","","","","","","","","","","2","","","","","","","","",""
"null","269667","SARL_v6","SARL_v6v8s74qmm","5ee5e3b02eebe932ee9559c5","fixation","","","img/fixation.png","null","","","test","","","","","","","","","","","","","","","","","","","",""
"628.5","270298","SARL_v6","SARL_v6v8s74qmm","5ee5e3b02eebe932ee9559c5","freq","","","img/orange_2bandit_b2.png","68","","70","test","0","","40","","","","circle","square","39","16","2","0.9487179487179487","","","","","","","",""
"null","270479","SARL_v6","SARL_v6v8s74qmm","5ee5e3b02eebe932ee9559c5","freq_resp","","","img/orange_2bandit_b.png","68","img/orange_2bandit_b.png","70","test","","","","","","","","","","","2","","","","","","","","",""
"null","270633","SARL_v6","SARL_v6v8s74qmm","5ee5e3b02eebe932ee9559c5","fixation","","","img/fixation.png","null","","","test","","","","","","","","","","","","","","","","","","","",""
"566.9000000953674","271204","SARL_v6","SARL_v6v8s74qmm","5ee5e3b02eebe932ee9559c5","freq","","","img/orange_2bandit_b2.png","70","","70","test","1","","41","","","","circle","square","40","17","2","0.95","","","","","","","",""
"null","271446","SARL_v6","SARL_v6v8s74qmm","5ee5e3b02eebe932ee9559c5","freq_resp","","","img/orange_2bandit_b.png","70","img/orange_2bandit_b.png","70","test","","","","","","","","","","","2","","","","","","","","",""
"null","271614","SARL_v6","SARL_v6v8s74qmm","5ee5e3b02eebe932ee9559c5","fixation","","","img/fixation.png","null","","","test","","","","","","","","","","","","","","","","","","","",""
"426.89999985694885","272044","SARL_v6","SARL_v6v8s74qmm","5ee5e3b02eebe932ee9559c5","freq","","","img/orange_2bandit_b2.png","70","","70","test","1","","42","","","","circle","square","41","18","2","0.9512195121951219","","","","","","","",""
"null","272428","SARL_v6","SARL_v6v8s74qmm","5ee5e3b02eebe932ee9559c5","freq_resp","","","img/orange_2bandit_b.png","70","img/orange_2bandit_b.png","70","test","","","","","","","","","","","2","","","","","","","","",""
"null","272582","SARL_v6","SARL_v6v8s74qmm","5ee5e3b02eebe932ee9559c5","fixation","","","img/fixation.png","null","","","test","","","","","","","","","","","","","","","","","","","",""
"449.09999990463257","273034","SARL_v6","SARL_v6v8s74qmm","5ee5e3b02eebe932ee9559c5","freq","","","img/orange_2bandit_b2.png","70","","70","test","1","","43","","","","circle","square","42","19","2","0.9523809523809523","","","","","","","",""
"null","273394","SARL_v6","SARL_v6v8s74qmm","5ee5e3b02eebe932ee9559c5","freq_resp","","","img/orange_2bandit_b.png","70","img/orange_2bandit_b.png","70","test","","","","","","","","","","","2","","","","","","","","",""
"null","273549","SARL_v6","SARL_v6v8s74qmm","5ee5e3b02eebe932ee9559c5","fixation","","","img/fixation.png","null","","","test","","","","","","","","","","","","","","","","","","","",""
"461.09999990463257","274012","SARL_v6","SARL_v6v8s74qmm","5ee5e3b02eebe932ee9559c5","freq","","","img/orange_2bandit_b2.png","70","","70","test","1","","44","","","","circle","square","43","20","2","0.9534883720930233","","","","","","","",""
"null","274354","SARL_v6","SARL_v6v8s74qmm","5ee5e3b02eebe932ee9559c5","freq_resp","","","img/orange_2bandit_b.png","70","img/orange_2bandit_b.png","70","test","","","","","","","","","","","2","","","","","","","","",""
"null","274515","SARL_v6","SARL_v6v8s74qmm","5ee5e3b02eebe932ee9559c5","fixation","","","img/fixation.png","null","","","test","","","","","","","","","","","","","","","","","","","",""
"399.90000009536743","274918","SARL_v6","SARL_v6v8s74qmm","5ee5e3b02eebe932ee9559c5","freq","","","img/orange_2bandit_b2.png","70","","70","test","1","","45","","","","circle","square","44","21","2","0.9545454545454546","","","","","","","",""
"null","275335","SARL_v6","SARL_v6v8s74qmm","5ee5e3b02eebe932ee9559c5","freq_resp","","","img/orange_2bandit_b.png","70","img/orange_2bandit_b.png","70","test","","","","","","","","","","","2","","","","","","","","",""
"null","275497","SARL_v6","SARL_v6v8s74qmm","5ee5e3b02eebe932ee9559c5","fixation","","","img/fixation.png","null","","","test","","","","","","","","","","","","","","","","","","","",""
"375.7999999523163","275876","SARL_v6","SARL_v6v8s74qmm","5ee5e3b02eebe932ee9559c5","freq","","","img/orange_2bandit_b2.png","70","","70","test","1","","46","","","","circle","square","45","22","2","0.9555555555555556","","","","","","","",""
"null","276318","SARL_v6","SARL_v6v8s74qmm","5ee5e3b02eebe932ee9559c5","freq_resp","","","img/orange_2bandit_b.png","70","img/orange_2bandit_b.png","70","test","","","","","","","","","","","2","","","","","","","","",""
"null","276482","SARL_v6","SARL_v6v8s74qmm","5ee5e3b02eebe932ee9559c5","fixation","","","img/fixation.png","null","","","test","","","","","","","","","","","","","","","","","","","",""
"320.7000000476837","276805","SARL_v6","SARL_v6v8s74qmm","5ee5e3b02eebe932ee9559c5","freq","","","img/orange_2bandit_b2.png","70","","70","test","1","","47","","","","circle","square","46","23","2","0.9565217391304348","","","","","","","",""
"null","277296","SARL_v6","SARL_v6v8s74qmm","5ee5e3b02eebe932ee9559c5","freq_resp","","","img/orange_2bandit_b.png","70","img/orange_2bandit_b.png","70","test","","","","","","","","","","","2","","","","","","","","",""
"null","277461","SARL_v6","SARL_v6v8s74qmm","5ee5e3b02eebe932ee9559c5","fixation","","","img/fixation.png","null","","","test","","","","","","","","","","","","","","","","","","","",""
"341.59999990463257","277806","SARL_v6","SARL_v6v8s74qmm","5ee5e3b02eebe932ee9559c5","freq","","","img/orange_2bandit_b2.png","70","","70","test","1","","48","","","","circle","square","47","24","2","0.9574468085106383","","","","","","","",""
"null","278279","SARL_v6","SARL_v6v8s74qmm","5ee5e3b02eebe932ee9559c5","freq_resp","","","img/orange_2bandit_b.png","70","img/orange_2bandit_b.png","70","test","","","","","","","","","","","2","","","","","","","","",""
"null","278446","SARL_v6","SARL_v6v8s74qmm","5ee5e3b02eebe932ee9559c5","fixation","","","img/fixation.png","null","","","test","","","","","","","","","","","","","","","","","","","",""
"885.7999999523163","279335","SARL_v6","SARL_v6v8s74qmm","5ee5e3b02eebe932ee9559c5","rl","","","img/black_2bandit_b2.png","75","","0","test","","","49","","","-5","circle","square","","0","2","","75","-8","-5","-8","-5","square","2","0"
"null","280090","SARL_v6","SARL_v6v8s74qmm","5ee5e3b02eebe932ee9559c5","feedback","","","<div class=""verylowPoints_sq""> -5 </div>","null","","na","test","","","NaN","","","","","","","","2","","75","","","","","","2",""
"null","280908","SARL_v6","SARL_v6v8s74qmm","5ee5e3b02eebe932ee9559c5","freq","","","img/orange_2bandit_b2.png","null","","70","test","0","","50","","","","circle","square","48","1","3","0.9375","","","","","","","",""
"null","281071","SARL_v6","SARL_v6v8s74qmm","5ee5e3b02eebe932ee9559c5","fixation","","","img/fixation.png","null","","","test","","","","","","","","","","","","","","","","","","","",""
"140.09999990463257","281214","SARL_v6","SARL_v6v8s74qmm","5ee5e3b02eebe932ee9559c5","freq","","","img/orange_2bandit_b2.png","70","","70","test","1","","51","","","","circle","square","49","2","3","0.9387755102040817","","","","","","","",""
"null","281880","SARL_v6","SARL_v6v8s74qmm","5ee5e3b02eebe932ee9559c5","freq_resp","","","img/orange_2bandit_b.png","70","img/orange_2bandit_b.png","70","test","","","","","","","","","","","3","","","","","","","","",""
"null","282045","SARL_v6","SARL_v6v8s74qmm","5ee5e3b02eebe932ee9559c5","fixation","","","img/fixation.png","null","","","test","","","","","","","","","","","","","","","","","","","",""
"478.2000000476837","282526","SARL_v6","SARL_v6v8s74qmm","5ee5e3b02eebe932ee9559c5","freq","","","img/orange_2bandit_b2.png","70","","70","test","1","","52","","","","circle","square","50","3","3","0.94","","","","","","","",""
"null","282859","SARL_v6","SARL_v6v8s74qmm","5ee5e3b02eebe932ee9559c5","freq_resp","","","img/orange_2bandit_b.png","70","img/orange_2bandit_b.png","70","test","","","","","","","","","","","3","","","","","","","","",""
"null","283022","SARL_v6","SARL_v6v8s74qmm","5ee5e3b02eebe932ee9559c5","fixation","","","img/fixation.png","null","","","test","","","","","","","","","","","","","","","","","","","",""
"576.1000001430511","283601","SARL_v6","SARL_v6v8s74qmm","5ee5e3b02eebe932ee9559c5","freq","","","img/orange_2bandit_b2.png","70","","70","test","1","","53","","","","circle","square","51","4","3","0.9411764705882353","","","","","","","",""
"null","283827","SARL_v6","SARL_v6v8s74qmm","5ee5e3b02eebe932ee9559c5","freq_resp","","","img/orange_2bandit_b.png","70","img/orange_2bandit_b.png","70","test","","","","","","","","","","","3","","","","","","","","",""
"null","283996","SARL_v6","SARL_v6v8s74qmm","5ee5e3b02eebe932ee9559c5","fixation","","","img/fixation.png","null","","","test","","","","","","","","","","","","","","","","","","","",""
"586.2000000476837","284584","SARL_v6","SARL_v6v8s74qmm","5ee5e3b02eebe932ee9559c5","freq","","","img/orange_2bandit_b2.png","70","","70","test","1","","54","","","","circle","square","52","5","3","0.9423076923076923","","","","","","","",""
"null","284809","SARL_v6","SARL_v6v8s74qmm","5ee5e3b02eebe932ee9559c5","freq_resp","","","img/orange_2bandit_b.png","70","img/orange_2bandit_b.png","70","test","","","","","","","","","","","3","","","","","","","","",""
"null","284965","SARL_v6","SARL_v6v8s74qmm","5ee5e3b02eebe932ee9559c5","fixation","","","img/fixation.png","null","","","test","","","","","","","","","","","","","","","","","","","",""
"532","285499","SARL_v6","SARL_v6v8s74qmm","5ee5e3b02eebe932ee9559c5","freq","","","img/orange_2bandit_b2.png","70","","70","test","1","","55","","","","circle","square","53","6","3","0.9433962264150944","","","","","","","",""
"null","285774","SARL_v6","SARL_v6v8s74qmm","5ee5e3b02eebe932ee9559c5","freq_resp","","","img/orange_2bandit_b.png","70","img/orange_2bandit_b.png","70","test","","","","","","","","","","","3","","","","","","","","",""
"null","285929","SARL_v6","SARL_v6v8s74qmm","5ee5e3b02eebe932ee9559c5","fixation","","","img/fixation.png","null","","","test","","","","","","","","","","","","","","","","","","","",""
"510","286442","SARL_v6","SARL_v6v8s74qmm","5ee5e3b02eebe932ee9559c5","freq","","","img/orange_2bandit_b2.png","70","","70","test","1","","56","","","","circle","square","54","7","3","0.9444444444444444","","","","","","","",""
"null","286742","SARL_v6","SARL_v6v8s74qmm","5ee5e3b02eebe932ee9559c5","freq_resp","","","img/orange_2bandit_b.png","70","img/orange_2bandit_b.png","70","test","","","","","","","","","","","3","","","","","","","","",""
"null","286896","SARL_v6","SARL_v6v8s74qmm","5ee5e3b02eebe932ee9559c5","fixation","","","img/fixation.png","null","","","test","","","","","","","","","","","","","","","","","","","",""
"576.8999998569489","287476","SARL_v6","SARL_v6v8s74qmm","5ee5e3b02eebe932ee9559c5","freq","","","img/orange_2bandit_b2.png","70","","70","test","1","","57","","","","circle","square","55","8","3","0.9454545454545454","","","","","","","",""
"null","287712","SARL_v6","SARL_v6v8s74qmm","5ee5e3b02eebe932ee9559c5","freq_resp","","","img/orange_2bandit_b.png","70","img/orange_2bandit_b.png","70","test","","","","","","","","","","","3","","","","","","","","",""
"null","287877","SARL_v6","SARL_v6v8s74qmm","5ee5e3b02eebe932ee9559c5","fixation","","","img/fixation.png","null","","","test","","","","","","","","","","","","","","","","","","","",""
"516.2000000476837","288396","SARL_v6","SARL_v6v8s74qmm","5ee5e3b02eebe932ee9559c5","freq","","","img/orange_2bandit_b2.png","70","","70","test","1","","58","","","","circle","square","56","9","3","0.9464285714285714","","","","","","","",""
"null","288691","SARL_v6","SARL_v6v8s74qmm","5ee5e3b02eebe932ee9559c5","freq_resp","","","img/orange_2bandit_b.png","70","img/orange_2bandit_b.png","70","test","","","","","","","","","","","3","","","","","","","","",""
"null","288845","SARL_v6","SARL_v6v8s74qmm","5ee5e3b02eebe932ee9559c5","fixation","","","img/fixation.png","null","","","test","","","","","","","","","","","","","","","","","","","",""
"427.09999990463257","289275","SARL_v6","SARL_v6v8s74qmm","5ee5e3b02eebe932ee9559c5","freq","","","img/orange_2bandit_b2.png","70","","70","test","1","","59","","","","circle","square","57","10","3","0.9473684210526315","","","","","","","",""
"null","289665","SARL_v6","SARL_v6v8s74qmm","5ee5e3b02eebe932ee9559c5","freq_resp","","","img/orange_2bandit_b.png","70","img/orange_2bandit_b.png","70","test","","","","","","","","","","","3","","","","","","","","",""
"null","289829","SARL_v6","SARL_v6v8s74qmm","5ee5e3b02eebe932ee9559c5","fixation","","","img/fixation.png","null","","","test","","","","","","","","","","","","","","","","","","","",""
"384","290216","SARL_v6","SARL_v6v8s74qmm","5ee5e3b02eebe932ee9559c5","freq","","","img/orange_2bandit_b2.png","70","","70","test","1","","60","","","","circle","square","58","11","3","0.9482758620689655","","","","","","","",""
"null","290646","SARL_v6","SARL_v6v8s74qmm","5ee5e3b02eebe932ee9559c5","freq_resp","","","img/orange_2bandit_b.png","70","img/orange_2bandit_b.png","70","test","","","","","","","","","","","3","","","","","","","","",""
"null","290811","SARL_v6","SARL_v6v8s74qmm","5ee5e3b02eebe932ee9559c5","fixation","","","img/fixation.png","null","","","test","","","","","","","","","","","","","","","","","","","",""
"425","291238","SARL_v6","SARL_v6v8s74qmm","5ee5e3b02eebe932ee9559c5","freq","","","img/orange_2bandit_b2.png","70","","70","test","1","","61","","","","circle","square","59","12","3","0.9491525423728814","","","","","","","",""
"null","291624","SARL_v6","SARL_v6v8s74qmm","5ee5e3b02eebe932ee9559c5","freq_resp","","","img/orange_2bandit_b.png","70","img/orange_2bandit_b.png","70","test","","","","","","","","","","","3","","","","","","","","",""
"null","291792","SARL_v6","SARL_v6v8s74qmm","5ee5e3b02eebe932ee9559c5","fixation","","","img/fixation.png","null","","","test","","","","","","","","","","","","","","","","","","","",""
"392.7000000476837","292188","SARL_v6","SARL_v6v8s74qmm","5ee5e3b02eebe932ee9559c5","freq","","","img/orange_2bandit_b2.png","70","","70","test","1","","62","","","","circle","square","60","13","3","0.95","","","","","","","",""
"null","292605","SARL_v6","SARL_v6v8s74qmm","5ee5e3b02eebe932ee9559c5","freq_resp","","","img/orange_2bandit_b.png","70","img/orange_2bandit_b.png","70","test","","","","","","","","","","","3","","","","","","","","",""
"null","292762","SARL_v6","SARL_v6v8s74qmm","5ee5e3b02eebe932ee9559c5","fixation","","","img/fixation.png","null","","","test","","","","","","","","","","","","","","","","","","","",""
"660.5999999046326","293426","SARL_v6","SARL_v6v8s74qmm","5ee5e3b02eebe932ee9559c5","freq","","","img/orange_2bandit_b2.png","70","","70","test","1","","63","","","","circle","square","61","14","3","0.9508196721311475","","","","","","","",""
"null","293579","SARL_v6","SARL_v6v8s74qmm","5ee5e3b02eebe932ee9559c5","freq_resp","","","img/orange_2bandit_b.png","70","img/orange_2bandit_b.png","70","test","","","","","","","","","","","3","","","","","","","","",""
"null","293734","SARL_v6","SARL_v6v8s74qmm","5ee5e3b02eebe932ee9559c5","fixation","","","img/fixation.png","null","","","test","","","","","","","","","","","","","","","","","","","",""
"589.2000000476837","294326","SARL_v6","SARL_v6v8s74qmm","5ee5e3b02eebe932ee9559c5","freq","","","img/orange_2bandit_b2.png","70","","70","test","1","","64","","","","circle","square","62","15","3","0.9516129032258065","","","","","","","",""
"null","294542","SARL_v6","SARL_v6v8s74qmm","5ee5e3b02eebe932ee9559c5","freq_resp","","","img/orange_2bandit_b.png","70","img/orange_2bandit_b.png","70","test","","","","","","","","","","","3","","","","","","","","",""
"null","294710","SARL_v6","SARL_v6v8s74qmm","5ee5e3b02eebe932ee9559c5","fixation","","","img/fixation.png","null","","","test","","","","","","","","","","","","","","","","","","","",""
"527.5","295240","SARL_v6","SARL_v6v8s74qmm","5ee5e3b02eebe932ee9559c5","infreq","","","img/blue_2bandit_b2.png","68","","68","test","1","","65","","","","circle","square","63","16","3","0.9523809523809523","","","","","","","",""
"null","295520","SARL_v6","SARL_v6v8s74qmm","5ee5e3b02eebe932ee9559c5","infreq_resp","","","img/blue_2bandit_b.png","68","img/blue_2bandit_b.png","68","test","","","","","","","","","","","3","","","","","","","","",""
"null","295678","SARL_v6","SARL_v6v8s74qmm","5ee5e3b02eebe932ee9559c5","fixation","","","img/fixation.png","null","","","test","","","","","","","","","","","","","","","","","","","",""
"525","296205","SARL_v6","SARL_v6v8s74qmm","5ee5e3b02eebe932ee9559c5","freq","","","img/orange_2bandit_b2.png","70","","70","test","1","","66","","","","circle","square","64","17","3","0.953125","","","","","","","",""
"null","296486","SARL_v6","SARL_v6v8s74qmm","5ee5e3b02eebe932ee9559c5","freq_resp","","","img/orange_2bandit_b.png","70","img/orange_2bandit_b.png","70","test","","","","","","","","","","","3","","","","","","","","",""
"null","296645","SARL_v6","SARL_v6v8s74qmm","5ee5e3b02eebe932ee9559c5","fixation","","","img/fixation.png","null","","","test","","","","","","","","","","","","","","","","","","","",""
"609.8000001907349","297257","SARL_v6","SARL_v6v8s74qmm","5ee5e3b02eebe932ee9559c5","infreq","","","img/blue_2bandit_b2.png","68","","68","test","1","","67","","","","circle","square","65","18","3","0.9538461538461539","","","","","","","",""
"null","297459","SARL_v6","SARL_v6v8s74qmm","5ee5e3b02eebe932ee9559c5","infreq_resp","","","img/blue_2bandit_b.png","68","img/blue_2bandit_b.png","68","test","","","","","","","","","","","3","","","","","","","","",""
"null","297625","SARL_v6","SARL_v6v8s74qmm","5ee5e3b02eebe932ee9559c5","fixation","","","img/fixation.png","null","","","test","","","","","","","","","","","","","","","","","","","",""
"450.09999990463257","298078","SARL_v6","SARL_v6v8s74qmm","5ee5e3b02eebe932ee9559c5","freq","","","img/orange_2bandit_b2.png","70","","70","test","1","","68","","","","circle","square","66","19","3","0.9545454545454546","","","","","","","",""
"null","298433","SARL_v6","SARL_v6v8s74qmm","5ee5e3b02eebe932ee9559c5","freq_resp","","","img/orange_2bandit_b.png","70","img/orange_2bandit_b.png","70","test","","","","","","","","","","","3","","","","","","","","",""
"null","298594","SARL_v6","SARL_v6v8s74qmm","5ee5e3b02eebe932ee9559c5","fixation","","","img/fixation.png","null","","","test","","","","","","","","","","","","","","","","","","","",""
"481.5","299078","SARL_v6","SARL_v6v8s74qmm","5ee5e3b02eebe932ee9559c5","freq","","","img/orange_2bandit_b2.png","70","","70","test","1","","69","","","","circle","square","67","20","3","0.9552238805970149","","","","","","","",""
"null","299402","SARL_v6","SARL_v6v8s74qmm","5ee5e3b02eebe932ee9559c5","freq_resp","","","img/orange_2bandit_b.png","70","img/orange_2bandit_b.png","70","test","","","","","","","","","","","3","","","","","","","","",""
"null","299559","SARL_v6","SARL_v6v8s74qmm","5ee5e3b02eebe932ee9559c5","fixation","","","img/fixation.png","null","","","test","","","","","","","","","","","","","","","","","","","",""
"400","299962","SARL_v6","SARL_v6v8s74qmm","5ee5e3b02eebe932ee9559c5","freq","","","img/orange_2bandit_b2.png","70","","70","test","1","","70","","","","circle","square","68","21","3","0.9558823529411765","","","","","","","",""
"null","300381","SARL_v6","SARL_v6v8s74qmm","5ee5e3b02eebe932ee9559c5","freq_resp","","","img/orange_2bandit_b.png","70","img/orange_2bandit_b.png","70","test","","","","","","","","","","","3","","","","","","","","",""
"null","300543","SARL_v6","SARL_v6v8s74qmm","5ee5e3b02eebe932ee9559c5","fixation","","","img/fixation.png","null","","","test","","","","","","","","","","","","","","","","","","","",""
"657.5","301203","SARL_v6","SARL_v6v8s74qmm","5ee5e3b02eebe932ee9559c5","rl","","","img/black_2bandit_b2.png","75","","0","test","","","71","","","-4","circle","square","","0","3","","75","-8","-4","-8","-4","square","3","0"
"null","301972","SARL_v6","SARL_v6v8s74qmm","5ee5e3b02eebe932ee9559c5","feedback","","","<div class=""verylowPoints_sq""> -4 </div>","null","","na","test","","","NaN","","","","","","","","3","","75","","","","","","3",""
"null","302781","SARL_v6","SARL_v6v8s74qmm","5ee5e3b02eebe932ee9559c5","freq","","","img/orange_2bandit_b2.png","null","","70","test","0","","72","","","","circle","square","69","1","4","0.9420289855072463","","","","","","","",""
"null","302944","SARL_v6","SARL_v6v8s74qmm","5ee5e3b02eebe932ee9559c5","fixation","","","img/fixation.png","null","","","test","","","","","","","","","","","","","","","","","","","",""
"null","303750","SARL_v6","SARL_v6v8s74qmm","5ee5e3b02eebe932ee9559c5","freq","","","img/orange_2bandit_b2.png","null","","70","test","0","","73","","","","circle","square","70","2","4","0.9285714285714286","","","","","","","",""
"null","303910","SARL_v6","SARL_v6v8s74qmm","5ee5e3b02eebe932ee9559c5","fixation","","","img/fixation.png","null","","","test","","","","","","","","","","","","","","","","","","","",""
"199.5","304112","SARL_v6","SARL_v6v8s74qmm","5ee5e3b02eebe932ee9559c5","freq","","","img/orange_2bandit_b2.png","70","","70","test","1","","74","","","","circle","square","71","3","4","0.9295774647887324","","","","","","","",""
"null","304722","SARL_v6","SARL_v6v8s74qmm","5ee5e3b02eebe932ee9559c5","freq_resp","","","img/orange_2bandit_b.png","70","img/orange_2bandit_b.png","70","test","","","","","","","","","","","4","","","","","","","","",""
"null","304878","SARL_v6","SARL_v6v8s74qmm","5ee5e3b02eebe932ee9559c5","fixation","","","img/fixation.png","null","","","test","","","","","","","","","","","","","","","","","","","",""
"385.90000009536743","305266","SARL_v6","SARL_v6v8s74qmm","5ee5e3b02eebe932ee9559c5","infreq","","","img/blue_2bandit_b2.png","68","","68","test","1","","75","","","","circle","square","72","4","4","0.9305555555555556","","","","","","","",""
"null","305693","SARL_v6","SARL_v6v8s74qmm","5ee5e3b02eebe932ee9559c5","infreq_resp","","","img/blue_2bandit_b.png","68","img/blue_2bandit_b.png","68","test","","","","","","","","","","","4","","","","","","","","",""
"null","305857","SARL_v6","SARL_v6v8s74qmm","5ee5e3b02eebe932ee9559c5","fixation","","","img/fixation.png","null","","","test","","","","","","","","","","","","","","","","","","","",""
"361.19999980926514","306221","SARL_v6","SARL_v6v8s74qmm","5ee5e3b02eebe932ee9559c5","freq","","","img/orange_2bandit_b2.png","70","","70","test","1","","76","","","","circle","square","73","5","4","0.9315068493150684","","","","","","","",""
"null","306663","SARL_v6","SARL_v6v8s74qmm","5ee5e3b02eebe932ee9559c5","freq_resp","","","img/orange_2bandit_b.png","70","img/orange_2bandit_b.png","70","test","","","","","","","","","","","4","","","","","","","","",""
"null","306825","SARL_v6","SARL_v6v8s74qmm","5ee5e3b02eebe932ee9559c5","fixation","","","img/fixation.png","null","","","test","","","","","","","","","","","","","","","","","","","",""
"412.5","307240","SARL_v6","SARL_v6v8s74qmm","5ee5e3b02eebe932ee9559c5","freq","","","img/orange_2bandit_b2.png","70","","70","test","1","","77","","","","circle","square","74","6","4","0.9324324324324325","","","","","","","",""
"null","307644","SARL_v6","SARL_v6v8s74qmm","5ee5e3b02eebe932ee9559c5","freq_resp","","","img/orange_2bandit_b.png","70","img/orange_2bandit_b.png","70","test","","","","","","","","","","","4","","","","","","","","",""
"null","307808","SARL_v6","SARL_v6v8s74qmm","5ee5e3b02eebe932ee9559c5","fixation","","","img/fixation.png","null","","","test","","","","","","","","","","","","","","","","","","","",""
"323.7000000476837","308135","SARL_v6","SARL_v6v8s74qmm","5ee5e3b02eebe932ee9559c5","freq","","","img/orange_2bandit_b2.png","70","","70","test","1","","78","","","","circle","square","75","7","4","0.9333333333333333","","","","","","","",""
"null","308618","SARL_v6","SARL_v6v8s74qmm","5ee5e3b02eebe932ee9559c5","freq_resp","","","img/orange_2bandit_b.png","70","img/orange_2bandit_b.png","70","test","","","","","","","","","","","4","","","","","","","","",""
"null","308775","SARL_v6","SARL_v6v8s74qmm","5ee5e3b02eebe932ee9559c5","fixation","","","img/fixation.png","null","","","test","","","","","","","","","","","","","","","","","","","",""
"295.39999985694885","309073","SARL_v6","SARL_v6v8s74qmm","5ee5e3b02eebe932ee9559c5","freq","","","img/orange_2bandit_b2.png","70","","70","test","1","","79","","","","circle","square","76","8","4","0.9342105263157895","","","","","","","",""
"null","309588","SARL_v6","SARL_v6v8s74qmm","5ee5e3b02eebe932ee9559c5","freq_resp","","","img/orange_2bandit_b.png","70","img/orange_2bandit_b.png","70","test","","","","","","","","","","","4","","","","","","","","",""
"null","309757","SARL_v6","SARL_v6v8s74qmm","5ee5e3b02eebe932ee9559c5","fixation","","","img/fixation.png","null","","","test","","","","","","","","","","","","","","","","","","","",""
"421.7000000476837","310181","SARL_v6","SARL_v6v8s74qmm","5ee5e3b02eebe932ee9559c5","freq","","","img/orange_2bandit_b2.png","70","","70","test","1","","80","","","","circle","square","77","9","4","0.935064935064935","","","","","","","",""
"null","310564","SARL_v6","SARL_v6v8s74qmm","5ee5e3b02eebe932ee9559c5","freq_resp","","","img/orange_2bandit_b.png","70","img/orange_2bandit_b.png","70","test","","","","","","","","","","","4","","","","","","","","",""
"null","310725","SARL_v6","SARL_v6v8s74qmm","5ee5e3b02eebe932ee9559c5","fixation","","","img/fixation.png","null","","","test","","","","","","","","","","","","","","","","","","","",""
"336.2999999523163","311064","SARL_v6","SARL_v6v8s74qmm","5ee5e3b02eebe932ee9559c5","freq","","","img/orange_2bandit_b2.png","70","","70","test","1","","81","","","","circle","square","78","10","4","0.9358974358974359","","","","","","","",""
"null","311543","SARL_v6","SARL_v6v8s74qmm","5ee5e3b02eebe932ee9559c5","freq_resp","","","img/orange_2bandit_b.png","70","img/orange_2bandit_b.png","70","test","","","","","","","","","","","4","","","","","","","","",""
"null","311704","SARL_v6","SARL_v6v8s74qmm","5ee5e3b02eebe932ee9559c5","fixation","","","img/fixation.png","null","","","test","","","","","","","","","","","","","","","","","","","",""
"299.19999980926514","312006","SARL_v6","SARL_v6v8s74qmm","5ee5e3b02eebe932ee9559c5","freq","","","img/orange_2bandit_b2.png","70","","70","test","1","","82","","","","circle","square","79","11","4","0.9367088607594937","","","","","","","",""
"null","312512","SARL_v6","SARL_v6v8s74qmm","5ee5e3b02eebe932ee9559c5","freq_resp","","","img/orange_2bandit_b.png","70","img/orange_2bandit_b.png","70","test","","","","","","","","","","","4","","","","","","","","",""
"null","312676","SARL_v6","SARL_v6v8s74qmm","5ee5e3b02eebe932ee9559c5","fixation","","","img/fixation.png","null","","","test","","","","","","","","","","","","","","","","","","","",""
"null","313488","SARL_v6","SARL_v6v8s74qmm","5ee5e3b02eebe932ee9559c5","infreq","","","img/blue_2bandit_b2.png","null","","68","test","0","","83","","","","circle","square","80","12","4","0.925","","","","","","","",""
"null","313641","SARL_v6","SARL_v6v8s74qmm","5ee5e3b02eebe932ee9559c5","fixation","","","img/fixation.png","null","","","test","","","","","","","","","","","","","","","","","","","",""
"649.5","314293","SARL_v6","SARL_v6v8s74qmm","5ee5e3b02eebe932ee9559c5","freq","","","img/orange_2bandit_b2.png","70","","70","test","1","","84","","","","circle","square","81","13","4","0.9259259259259259","","","","","","","",""
"null","314447","SARL_v6","SARL_v6v8s74qmm","5ee5e3b02eebe932ee9559c5","freq_resp","","","img/orange_2bandit_b.png","70","img/orange_2bandit_b.png","70","test","","","","","","","","","","","4","","","","","","","","",""
"null","314606","SARL_v6","SARL_v6v8s74qmm","5ee5e3b02eebe932ee9559c5","fixation","","","img/fixation.png","null","","","test","","","","","","","","","","","","","","","","","","","",""
"514.6999998092651","315125","SARL_v6","SARL_v6v8s74qmm","5ee5e3b02eebe932ee9559c5","freq","","","img/orange_2bandit_b2.png","70","","70","test","1","","85","","","","circle","square","82","14","4","0.926829268292683","","","","","","","",""
"null","315417","SARL_v6","SARL_v6v8s74qmm","5ee5e3b02eebe932ee9559c5","freq_resp","","","img/orange_2bandit_b.png","70","img/orange_2bandit_b.png","70","test","","","","","","","","","","","4","","","","","","","","",""
"null","315579","SARL_v6","SARL_v6v8s74qmm","5ee5e3b02eebe932ee9559c5","fixation","","","img/fixation.png","null","","","test","","","","","","","","","","","","","","","","","","","",""
"495.90000009536743","316077","SARL_v6","SARL_v6v8s74qmm","5ee5e3b02eebe932ee9559c5","freq","","","img/orange_2bandit_b2.png","70","","70","test","1","","86","","","","circle","square","83","15","4","0.927710843373494","","","","","","","",""
"null","316400","SARL_v6","SARL_v6v8s74qmm","5ee5e3b02eebe932ee9559c5","freq_resp","","","img/orange_2bandit_b.png","70","img/orange_2bandit_b.png","70","test","","","","","","","","","","","4","","","","","","","","",""
"null","316557","SARL_v6","SARL_v6v8s74qmm","5ee5e3b02eebe932ee9559c5","fixation","","","img/fixation.png","null","","","test","","","","","","","","","","","","","","","","","","","",""
"335.19999980926514","316895","SARL_v6","SARL_v6v8s74qmm","5ee5e3b02eebe932ee9559c5","freq","","","img/orange_2bandit_b2.png","70","","70","test","1","","87","","","","circle","square","84","16","4","0.9285714285714286","","","","","","","",""
"null","317373","SARL_v6","SARL_v6v8s74qmm","5ee5e3b02eebe932ee9559c5","freq_resp","","","img/orange_2bandit_b.png","70","img/orange_2bandit_b.png","70","test","","","","","","","","","","","4","","","","","","","","",""
"null","317541","SARL_v6","SARL_v6v8s74qmm","5ee5e3b02eebe932ee9559c5","fixation","","","img/fixation.png","null","","","test","","","","","","","","","","","","","","","","","","","",""
"437.7000000476837","317981","SARL_v6","SARL_v6v8s74qmm","5ee5e3b02eebe932ee9559c5","freq","","","img/orange_2bandit_b2.png","70","","70","test","1","","88","","","","circle","square","85","17","4","0.9294117647058824","","","","","","","",""
"null","318360","SARL_v6","SARL_v6v8s74qmm","5ee5e3b02eebe932ee9559c5","freq_resp","","","img/orange_2bandit_b.png","70","img/orange_2bandit_b.png","70","test","","","","","","","","","","","4","","","","","","","","",""
"null","318523","SARL_v6","SARL_v6v8s74qmm","5ee5e3b02eebe932ee9559c5","fixation","","","img/fixation.png","null","","","test","","","","","","","","","","","","","","","","","","","",""
"447.40000009536743","318974","SARL_v6","SARL_v6v8s74qmm","5ee5e3b02eebe932ee9559c5","freq","","","img/orange_2bandit_b2.png","70","","70","test","1","","89","","","","circle","square","86","18","4","0.9302325581395349","","","","","","","",""
"null","319344","SARL_v6","SARL_v6v8s74qmm","5ee5e3b02eebe932ee9559c5","freq_resp","","","img/orange_2bandit_b.png","70","img/orange_2bandit_b.png","70","test","","","","","","","","","","","4","","","","","","","","",""
"null","319508","SARL_v6","SARL_v6v8s74qmm","5ee5e3b02eebe932ee9559c5","fixation","","","img/fixation.png","null","","","test","","","","","","","","","","","","","","","","","","","",""
"449.2000000476837","319961","SARL_v6","SARL_v6v8s74qmm","5ee5e3b02eebe932ee9559c5","freq","","","img/orange_2bandit_b2.png","70","","70","test","1","","90","","","","circle","square","87","19","4","0.9310344827586207","","","","","","","",""
"null","320314","SARL_v6","SARL_v6v8s74qmm","5ee5e3b02eebe932ee9559c5","freq_resp","","","img/orange_2bandit_b.png","70","img/orange_2bandit_b.png","70","test","","","","","","","","","","","4","","","","","","","","",""
"null","320475","SARL_v6","SARL_v6v8s74qmm","5ee5e3b02eebe932ee9559c5","fixation","","","img/fixation.png","null","","","test","","","","","","","","","","","","","","","","","","","",""
"456","320934","SARL_v6","SARL_v6v8s74qmm","5ee5e3b02eebe932ee9559c5","freq","","","img/orange_2bandit_b2.png","70","","70","test","1","","91","","","","circle","square","88","20","4","0.9318181818181818","","","","","","","",""
"null","321294","SARL_v6","SARL_v6v8s74qmm","5ee5e3b02eebe932ee9559c5","freq_resp","","","img/orange_2bandit_b.png","70","img/orange_2bandit_b.png","70","test","","","","","","","","","","","4","","","","","","","","",""
"null","321456","SARL_v6","SARL_v6v8s74qmm","5ee5e3b02eebe932ee9559c5","fixation","","","img/fixation.png","null","","","test","","","","","","","","","","","","","","","","","","","",""
"529.7999999523163","321989","SARL_v6","SARL_v6v8s74qmm","5ee5e3b02eebe932ee9559c5","freq","","","img/orange_2bandit_b2.png","70","","70","test","1","","92","","","","circle","square","89","21","4","0.9325842696629213","","","","","","","",""
"null","322268","SARL_v6","SARL_v6v8s74qmm","5ee5e3b02eebe932ee9559c5","freq_resp","","","img/orange_2bandit_b.png","70","img/orange_2bandit_b.png","70","test","","","","","","","","","","","4","","","","","","","","",""
"null","322423","SARL_v6","SARL_v6v8s74qmm","5ee5e3b02eebe932ee9559c5","fixation","","","img/fixation.png","null","","","test","","","","","","","","","","","","","","","","","","","",""
"516.2000000476837","322942","SARL_v6","SARL_v6v8s74qmm","5ee5e3b02eebe932ee9559c5","freq","","","img/orange_2bandit_b2.png","70","","70","test","1","","93","","","","circle","square","90","22","4","0.9333333333333333","","","","","","","",""
"null","323232","SARL_v6","SARL_v6v8s74qmm","5ee5e3b02eebe932ee9559c5","freq_resp","","","img/orange_2bandit_b.png","70","img/orange_2bandit_b.png","70","test","","","","","","","","","","","4","","","","","","","","",""
"null","323390","SARL_v6","SARL_v6v8s74qmm","5ee5e3b02eebe932ee9559c5","fixation","","","img/fixation.png","null","","","test","","","","","","","","","","","","","","","","","","","",""
"484","323876","SARL_v6","SARL_v6v8s74qmm","5ee5e3b02eebe932ee9559c5","freq","","","img/orange_2bandit_b2.png","70","","70","test","1","","94","","","","circle","square","91","23","4","0.9340659340659341","","","","","","","",""
"null","324205","SARL_v6","SARL_v6v8s74qmm","5ee5e3b02eebe932ee9559c5","freq_resp","","","img/orange_2bandit_b.png","70","img/orange_2bandit_b.png","70","test","","","","","","","","","","","4","","","","","","","","",""
"null","324370","SARL_v6","SARL_v6v8s74qmm","5ee5e3b02eebe932ee9559c5","fixation","","","img/fixation.png","null","","","test","","","","","","","","","","","","","","","","","","","",""
"389.39999985694885","324763","SARL_v6","SARL_v6v8s74qmm","5ee5e3b02eebe932ee9559c5","freq","","","img/orange_2bandit_b2.png","70","","70","test","1","","95","","","","circle","square","92","24","4","0.9347826086956522","","","","","","","",""
"null","325178","SARL_v6","SARL_v6v8s74qmm","5ee5e3b02eebe932ee9559c5","freq_resp","","","img/orange_2bandit_b.png","70","img/orange_2bandit_b.png","70","test","","","","","","","","","","","4","","","","","","","","",""
"null","325333","SARL_v6","SARL_v6v8s74qmm","5ee5e3b02eebe932ee9559c5","fixation","","","img/fixation.png","null","","","test","","","","","","","","","","","","","","","","","","","",""
"384.7999999523163","325721","SARL_v6","SARL_v6v8s74qmm","5ee5e3b02eebe932ee9559c5","freq","","","img/orange_2bandit_b2.png","70","","70","test","1","","96","","","","circle","square","93","25","4","0.9354838709677419","","","","","","","",""
"null","326140","SARL_v6","SARL_v6v8s74qmm","5ee5e3b02eebe932ee9559c5","freq_resp","","","img/orange_2bandit_b.png","70","img/orange_2bandit_b.png","70","test","","","","","","","","","","","4","","","","","","","","",""
"null","326305","SARL_v6","SARL_v6v8s74qmm","5ee5e3b02eebe932ee9559c5","fixation","","","img/fixation.png","null","","","test","","","","","","","","","","","","","","","","","","","",""
"825.7000000476837","327133","SARL_v6","SARL_v6v8s74qmm","5ee5e3b02eebe932ee9559c5","rl","","","img/black_2bandit_b2.png","74","","0","test","","","97","","","-12","circle","square","","0","4","","74","-12","0","-12","0","circle","4","0"
"null","327888","SARL_v6","SARL_v6v8s74qmm","5ee5e3b02eebe932ee9559c5","feedback","","","<div class=""verylowPoints""> -12 </div>","null","","na","test","","","NaN","","","","","","","","4","","74","","","","","","4",""
"662","328554","SARL_v6","SARL_v6v8s74qmm","5ee5e3b02eebe932ee9559c5","freq","","","img/orange_2bandit_b2.png","70","","70","test","1","","98","","","","circle","square","94","1","5","0.9361702127659575","","","","","","","",""
"null","328700","SARL_v6","SARL_v6v8s74qmm","5ee5e3b02eebe932ee9559c5","freq_resp","","","img/orange_2bandit_b.png","70","img/orange_2bandit_b.png","70","test","","","","","","","","","","","5","","","","","","","","",""
"null","328856","SARL_v6","SARL_v6v8s74qmm","5ee5e3b02eebe932ee9559c5","fixation","","","img/fixation.png","null","","","test","","","","","","","","","","","","","","","","","","","",""
"566.3999998569489","329425","SARL_v6","SARL_v6v8s74qmm","5ee5e3b02eebe932ee9559c5","infreq","","","img/blue_2bandit_b2.png","68","","68","test","1","","99","","","","circle","square","95","2","5","0.9368421052631579","","","","","","","",""
"null","329667","SARL_v6","SARL_v6v8s74qmm","5ee5e3b02eebe932ee9559c5","infreq_resp","","","img/blue_2bandit_b.png","68","img/blue_2bandit_b.png","68","test","","","","","","","","","","","5","","","","","","","","",""
"null","329822","SARL_v6","SARL_v6v8s74qmm","5ee5e3b02eebe932ee9559c5","fixation","","","img/fixation.png","null","","","test","","","","","","","","","","","","","","","","","","","",""
"395.09999990463257","330220","SARL_v6","SARL_v6v8s74qmm","5ee5e3b02eebe932ee9559c5","freq","","","img/orange_2bandit_b2.png","70","","70","test","1","","100","","","","circle","square","96","3","5","0.9375","","","","","","","",""
"null","330632","SARL_v6","SARL_v6v8s74qmm","5ee5e3b02eebe932ee9559c5","freq_resp","","","img/orange_2bandit_b.png","70","img/orange_2bandit_b.png","70","test","","","","","","","","","","","5","","","","","","","","",""
"null","330789","SARL_v6","SARL_v6v8s74qmm","5ee5e3b02eebe932ee9559c5","fixation","","","img/fixation.png","null","","","test","","","","","","","","","","","","","","","","","","","",""
"461.60000014305115","331254","SARL_v6","SARL_v6v8s74qmm","5ee5e3b02eebe932ee9559c5","freq","","","img/orange_2bandit_b2.png","70","","70","test","1","","101","","","","circle","square","97","4","5","0.9381443298969072","","","","","","","",""
"null","331609","SARL_v6","SARL_v6v8s74qmm","5ee5e3b02eebe932ee9559c5","freq_resp","","","img/orange_2bandit_b.png","70","img/orange_2bandit_b.png","70","test","","","","","","","","","","","5","","","","","","","","",""
"null","331779","SARL_v6","SARL_v6v8s74qmm","5ee5e3b02eebe932ee9559c5","fixation","","","img/fixation.png","null","","","test","","","","","","","","","","","","","","","","","","","",""
"397.09999990463257","332178","SARL_v6","SARL_v6v8s74qmm","5ee5e3b02eebe932ee9559c5","freq","","","img/orange_2bandit_b2.png","70","","70","test","1","","102","","","","circle","square","98","5","5","0.9387755102040817","","","","","","","",""
"null","332594","SARL_v6","SARL_v6v8s74qmm","5ee5e3b02eebe932ee9559c5","freq_resp","","","img/orange_2bandit_b.png","70","img/orange_2bandit_b.png","70","test","","","","","","","","","","","5","","","","","","","","",""
"null","332755","SARL_v6","SARL_v6v8s74qmm","5ee5e3b02eebe932ee9559c5","fixation","","","img/fixation.png","null","","","test","","","","","","","","","","","","","","","","","","","",""
"296.30000019073486","333054","SARL_v6","SARL_v6v8s74qmm","5ee5e3b02eebe932ee9559c5","freq","","","img/orange_2bandit_b2.png","70","","70","test","1","","103","","","","circle","square","99","6","5","0.9393939393939394","","","","","","","",""
"null","333570","SARL_v6","SARL_v6v8s74qmm","5ee5e3b02eebe932ee9559c5","freq_resp","","","img/orange_2bandit_b.png","70","img/orange_2bandit_b.png","70","test","","","","","","","","","","","5","","","","","","","","",""
"null","333738","SARL_v6","SARL_v6v8s74qmm","5ee5e3b02eebe932ee9559c5","fixation","","","img/fixation.png","null","","","test","","","","","","","","","","","","","","","","","","","",""
"306.90000009536743","334047","SARL_v6","SARL_v6v8s74qmm","5ee5e3b02eebe932ee9559c5","freq","","","img/orange_2bandit_b2.png","70","","70","test","1","","104","","","","circle","square","100","7","5","0.94","","","","","","","",""
"null","334555","SARL_v6","SARL_v6v8s74qmm","5ee5e3b02eebe932ee9559c5","freq_resp","","","img/orange_2bandit_b.png","70","img/orange_2bandit_b.png","70","test","","","","","","","","","","","5","","","","","","","","",""
"null","334722","SARL_v6","SARL_v6v8s74qmm","5ee5e3b02eebe932ee9559c5","fixation","","","img/fixation.png","null","","","test","","","","","","","","","","","","","","","","","","","",""
"380.60000014305115","335106","SARL_v6","SARL_v6v8s74qmm","5ee5e3b02eebe932ee9559c5","freq","","","img/orange_2bandit_b2.png","70","","70","test","1","","105","","","","circle","square","101","8","5","0.9405940594059405","","","","","","","",""
"null","335538","SARL_v6","SARL_v6v8s74qmm","5ee5e3b02eebe932ee9559c5","freq_resp","","","img/orange_2bandit_b.png","70","img/orange_2bandit_b.png","70","test","","","","","","","","","","","5","","","","","","","","",""
"null","335706","SARL_v6","SARL_v6v8s74qmm","5ee5e3b02eebe932ee9559c5","fixation","","","img/fixation.png","null","","","test","","","","","","","","","","","","","","","","","","","",""
"431.2999999523163","336140","SARL_v6","SARL_v6v8s74qmm","5ee5e3b02eebe932ee9559c5","freq","","","img/orange_2bandit_b2.png","70","","70","test","1","","106","","","","circle","square","102","9","5","0.9411764705882353","","","","","","","",""
"null","336525","SARL_v6","SARL_v6v8s74qmm","5ee5e3b02eebe932ee9559c5","freq_resp","","","img/orange_2bandit_b.png","70","img/orange_2bandit_b.png","70","test","","","","","","","","","","","5","","","","","","","","",""
"null","336688","SARL_v6","SARL_v6v8s74qmm","5ee5e3b02eebe932ee9559c5","fixation","","","img/fixation.png","null","","","test","","","","","","","","","","","","","","","","","","","",""
"439","337130","SARL_v6","SARL_v6v8s74qmm","5ee5e3b02eebe932ee9559c5","freq","","","img/orange_2bandit_b2.png","70","","70","test","1","","107","","","","circle","square","103","10","5","0.941747572815534","","","","","","","",""
"null","337498","SARL_v6","SARL_v6v8s74qmm","5ee5e3b02eebe932ee9559c5","freq_resp","","","img/orange_2bandit_b.png","70","img/orange_2bandit_b.png","70","test","","","","","","","","","","","5","","","","","","","","",""
"null","337652","SARL_v6","SARL_v6v8s74qmm","5ee5e3b02eebe932ee9559c5","fixation","","","img/fixation.png","null","","","test","","","","","","","","","","","","","","","","","","","",""
"369.39999985694885","338024","SARL_v6","SARL_v6v8s74qmm","5ee5e3b02eebe932ee9559c5","freq","","","img/orange_2bandit_b2.png","70","","70","test","1","","108","","","","circle","square","104","11","5","0.9423076923076923","","","","","","","",""
"null","338460","SARL_v6","SARL_v6v8s74qmm","5ee5e3b02eebe932ee9559c5","freq_resp","","","img/orange_2bandit_b.png","70","img/orange_2bandit_b.png","70","test","","","","","","","","","","","5","","","","","","","","",""
"null","338621","SARL_v6","SARL_v6v8s74qmm","5ee5e3b02eebe932ee9559c5","fixation","","","img/fixation.png","null","","","test","","","","","","","","","","","","","","","","","","","",""
"533.0999999046326","339157","SARL_v6","SARL_v6v8s74qmm","5ee5e3b02eebe932ee9559c5","infreq","","","img/blue_2bandit_b2.png","68","","68","test","1","","109","","","","circle","square","105","12","5","0.9428571428571428","","","","","","","",""
"null","339435","SARL_v6","SARL_v6v8s74qmm","5ee5e3b02eebe932ee9559c5","infreq_resp","","","img/blue_2bandit_b.png","68","img/blue_2bandit_b.png","68","test","","","","","","","","","","","5","","","","","","","","",""
"null","339603","SARL_v6","SARL_v6v8s74qmm","5ee5e3b02eebe932ee9559c5","fixation","","","img/fixation.png","null","","","test","","","","","","","","","","","","","","","","","","","",""
"411.59999990463257","340016","SARL_v6","SARL_v6v8s74qmm","5ee5e3b02eebe932ee9559c5","freq","","","img/orange_2bandit_b2.png","70","","70","test","1","","110","","","","circle","square","106","13","5","0.9433962264150944","","","","","","","",""
"null","340421","SARL_v6","SARL_v6v8s74qmm","5ee5e3b02eebe932ee9559c5","freq_resp","","","img/orange_2bandit_b.png","70","img/orange_2bandit_b.png","70","test","","","","","","","","","","","5","","","","","","","","",""
"null","340585","SARL_v6","SARL_v6v8s74qmm","5ee5e3b02eebe932ee9559c5","fixation","","","img/fixation.png","null","","","test","","","","","","","","","","","","","","","","","","","",""
"369","340957","SARL_v6","SARL_v6v8s74qmm","5ee5e3b02eebe932ee9559c5","freq","","","img/orange_2bandit_b2.png","70","","70","test","1","","111","","","","circle","square","107","14","5","0.9439252336448598","","","","","","","",""
"null","341404","SARL_v6","SARL_v6v8s74qmm","5ee5e3b02eebe932ee9559c5","freq_resp","","","img/orange_2bandit_b.png","70","img/orange_2bandit_b.png","70","test","","","","","","","","","","","5","","","","","","","","",""
"null","341570","SARL_v6","SARL_v6v8s74qmm","5ee5e3b02eebe932ee9559c5","fixation","","","img/fixation.png","null","","","test","","","","","","","","","","","","","","","","","","","",""
"353.5","341928","SARL_v6","SARL_v6v8s74qmm","5ee5e3b02eebe932ee9559c5","freq","","","img/orange_2bandit_b2.png","70","","70","test","1","","112","","","","circle","square","108","15","5","0.9444444444444444","","","","","","","",""
"null","342391","SARL_v6","SARL_v6v8s74qmm","5ee5e3b02eebe932ee9559c5","freq_resp","","","img/orange_2bandit_b.png","70","img/orange_2bandit_b.png","70","test","","","","","","","","","","","5","","","","","","","","",""
"null","342554","SARL_v6","SARL_v6v8s74qmm","5ee5e3b02eebe932ee9559c5","fixation","","","img/fixation.png","null","","","test","","","","","","","","","","","","","","","","","","","",""
"319.2999999523163","342876","SARL_v6","SARL_v6v8s74qmm","5ee5e3b02eebe932ee9559c5","freq","","","img/orange_2bandit_b2.png","70","","70","test","1","","113","","","","circle","square","109","16","5","0.944954128440367","","","","","","","",""
"null","343367","SARL_v6","SARL_v6v8s74qmm","5ee5e3b02eebe932ee9559c5","freq_resp","","","img/orange_2bandit_b.png","70","img/orange_2bandit_b.png","70","test","","","","","","","","","","","5","","","","","","","","",""
"null","343535","SARL_v6","SARL_v6v8s74qmm","5ee5e3b02eebe932ee9559c5","fixation","","","img/fixation.png","null","","","test","","","","","","","","","","","","","","","","","","","",""
"391.39999985694885","343929","SARL_v6","SARL_v6v8s74qmm","5ee5e3b02eebe932ee9559c5","freq","","","img/orange_2bandit_b2.png","70","","70","test","1","","114","","","","circle","square","110","17","5","0.9454545454545454","","","","","","","",""
"null","344352","SARL_v6","SARL_v6v8s74qmm","5ee5e3b02eebe932ee9559c5","freq_resp","","","img/orange_2bandit_b.png","70","img/orange_2bandit_b.png","70","test","","","","","","","","","","","5","","","","","","","","",""
"null","344518","SARL_v6","SARL_v6v8s74qmm","5ee5e3b02eebe932ee9559c5","fixation","","","img/fixation.png","null","","","test","","","","","","","","","","","","","","","","","","","",""
"284.69999980926514","344806","SARL_v6","SARL_v6v8s74qmm","5ee5e3b02eebe932ee9559c5","freq","","","img/orange_2bandit_b2.png","70","","70","test","1","","115","","","","circle","square","111","18","5","0.9459459459459459","","","","","","","",""
"null","345326","SARL_v6","SARL_v6v8s74qmm","5ee5e3b02eebe932ee9559c5","freq_resp","","","img/orange_2bandit_b.png","70","img/orange_2bandit_b.png","70","test","","","","","","","","","","","5","","","","","","","","",""
"null","345488","SARL_v6","SARL_v6v8s74qmm","5ee5e3b02eebe932ee9559c5","fixation","","","img/fixation.png","null","","","test","","","","","","","","","","","","","","","","","","","",""
"307.2000000476837","345797","SARL_v6","SARL_v6v8s74qmm","5ee5e3b02eebe932ee9559c5","freq","","","img/orange_2bandit_b2.png","70","","70","test","1","","116","","","","circle","square","112","19","5","0.9464285714285714","","","","","","","",""
"null","346297","SARL_v6","SARL_v6v8s74qmm","5ee5e3b02eebe932ee9559c5","freq_resp","","","img/orange_2bandit_b.png","70","img/orange_2bandit_b.png","70","test","","","","","","","","","","","5","","","","","","","","",""
"null","346454","SARL_v6","SARL_v6v8s74qmm","5ee5e3b02eebe932ee9559c5","fixation","","","img/fixation.png","null","","","test","","","","","","","","","","","","","","","","","","","",""
"305.7000000476837","346763","SARL_v6","SARL_v6v8s74qmm","5ee5e3b02eebe932ee9559c5","freq","","","img/orange_2bandit_b2.png","70","","70","test","1","","117","","","","circle","square","113","20","5","0.9469026548672567","","","","","","","",""
"null","347264","SARL_v6","SARL_v6v8s74qmm","5ee5e3b02eebe932ee9559c5","freq_resp","","","img/orange_2bandit_b.png","70","img/orange_2bandit_b.png","70","test","","","","","","","","","","","5","","","","","","","","",""
"null","347418","SARL_v6","SARL_v6v8s74qmm","5ee5e3b02eebe932ee9559c5","fixation","","","img/fixation.png","null","","","test","","","","","","","","","","","","","","","","","","","",""
"326.2000000476837","347748","SARL_v6","SARL_v6v8s74qmm","5ee5e3b02eebe932ee9559c5","freq","","","img/orange_2bandit_b2.png","70","","70","test","1","","118","","","","circle","square","114","21","5","0.9473684210526315","","","","","","","",""
"null","348231","SARL_v6","SARL_v6v8s74qmm","5ee5e3b02eebe932ee9559c5","freq_resp","","","img/orange_2bandit_b.png","70","img/orange_2bandit_b.png","70","test","","","","","","","","","","","5","","","","","","","","",""
"null","348385","SARL_v6","SARL_v6v8s74qmm","5ee5e3b02eebe932ee9559c5","fixation","","","img/fixation.png","null","","","test","","","","","","","","","","","","","","","","","","","",""
"513.5","348901","SARL_v6","SARL_v6v8s74qmm","5ee5e3b02eebe932ee9559c5","rl","","","img/black_2bandit_b2.png","74","","0","test","","","119","","","-7","circle","square","","0","5","","74","-7","4","-7","4","circle","5","0"
"null","349659","SARL_v6","SARL_v6v8s74qmm","5ee5e3b02eebe932ee9559c5","feedback","","","<div class=""verylowPoints""> -7 </div>","null","","na","test","","","NaN","","","","","","","","5","","74","","","","","","5",""
"451.39999985694885","350114","SARL_v6","SARL_v6v8s74qmm","5ee5e3b02eebe932ee9559c5","freq","","","img/orange_2bandit_b2.png","70","","70","test","1","","120","","","","circle","square","115","1","6","0.9478260869565217","","","","","","","",""
"null","350473","SARL_v6","SARL_v6v8s74qmm","5ee5e3b02eebe932ee9559c5","freq_resp","","","img/orange_2bandit_b.png","70","img/orange_2bandit_b.png","70","test","","","","","","","","","","","6","","","","","","","","",""
"null","350635","SARL_v6","SARL_v6v8s74qmm","5ee5e3b02eebe932ee9559c5","fixation","","","img/fixation.png","null","","","test","","","","","","","","","","","","","","","","","","","",""
"300.7999999523163","350939","SARL_v6","SARL_v6v8s74qmm","5ee5e3b02eebe932ee9559c5","freq","","","img/orange_2bandit_b2.png","70","","70","test","1","","121","","","","circle","square","116","2","6","0.9482758620689655","","","","","","","",""
"null","351453","SARL_v6","SARL_v6v8s74qmm","5ee5e3b02eebe932ee9559c5","freq_resp","","","img/orange_2bandit_b.png","70","img/orange_2bandit_b.png","70","test","","","","","","","","","","","6","","","","","","","","",""
"null","351607","SARL_v6","SARL_v6v8s74qmm","5ee5e3b02eebe932ee9559c5","fixation","","","img/fixation.png","null","","","test","","","","","","","","","","","","","","","","","","","",""
"293","351903","SARL_v6","SARL_v6v8s74qmm","5ee5e3b02eebe932ee9559c5","freq","","","img/orange_2bandit_b2.png","70","","70","test","1","","122","","","","circle","square","117","3","6","0.9487179487179487","","","","","","","",""
"null","352415","SARL_v6","SARL_v6v8s74qmm","5ee5e3b02eebe932ee9559c5","freq_resp","","","img/orange_2bandit_b.png","70","img/orange_2bandit_b.png","70","test","","","","","","","","","","","6","","","","","","","","",""
"null","352571","SARL_v6","SARL_v6v8s74qmm","5ee5e3b02eebe932ee9559c5","fixation","","","img/fixation.png","null","","","test","","","","","","","","","","","","","","","","","","","",""
"363.10000014305115","352937","SARL_v6","SARL_v6v8s74qmm","5ee5e3b02eebe932ee9559c5","freq","","","img/orange_2bandit_b2.png","70","","70","test","1","","123","","","","circle","square","118","4","6","0.9491525423728814","","","","","","","",""
"null","353384","SARL_v6","SARL_v6v8s74qmm","5ee5e3b02eebe932ee9559c5","freq_resp","","","img/orange_2bandit_b.png","70","img/orange_2bandit_b.png","70","test","","","","","","","","","","","6","","","","","","","","",""
"null","353549","SARL_v6","SARL_v6v8s74qmm","5ee5e3b02eebe932ee9559c5","fixation","","","img/fixation.png","null","","","test","","","","","","","","","","","","","","","","","","","",""
"359.09999990463257","353911","SARL_v6","SARL_v6v8s74qmm","5ee5e3b02eebe932ee9559c5","freq","","","img/orange_2bandit_b2.png","70","","70","test","1","","124","","","","circle","square","119","5","6","0.9495798319327731","","","","","","","",""
"null","354362","SARL_v6","SARL_v6v8s74qmm","5ee5e3b02eebe932ee9559c5","freq_resp","","","img/orange_2bandit_b.png","70","img/orange_2bandit_b.png","70","test","","","","","","","","","","","6","","","","","","","","",""
"null","354520","SARL_v6","SARL_v6v8s74qmm","5ee5e3b02eebe932ee9559c5","fixation","","","img/fixation.png","null","","","test","","","","","","","","","","","","","","","","","","","",""
"448.90000009536743","354971","SARL_v6","SARL_v6v8s74qmm","5ee5e3b02eebe932ee9559c5","freq","","","img/orange_2bandit_b2.png","70","","70","test","1","","125","","","","circle","square","120","6","6","0.95","","","","","","","",""
"null","355341","SARL_v6","SARL_v6v8s74qmm","5ee5e3b02eebe932ee9559c5","freq_resp","","","img/orange_2bandit_b.png","70","img/orange_2bandit_b.png","70","test","","","","","","","","","","","6","","","","","","","","",""
"null","355504","SARL_v6","SARL_v6v8s74qmm","5ee5e3b02eebe932ee9559c5","fixation","","","img/fixation.png","null","","","test","","","","","","","","","","","","","","","","","","","",""
"467.40000009536743","355974","SARL_v6","SARL_v6v8s74qmm","5ee5e3b02eebe932ee9559c5","freq","","","img/orange_2bandit_b2.png","70","","70","test","1","","126","","","","circle","square","121","7","6","0.9504132231404959","","","","","","","",""
"null","356325","SARL_v6","SARL_v6v8s74qmm","5ee5e3b02eebe932ee9559c5","freq_resp","","","img/orange_2bandit_b.png","70","img/orange_2bandit_b.png","70","test","","","","","","","","","","","6","","","","","","","","",""
"null","356484","SARL_v6","SARL_v6v8s74qmm","5ee5e3b02eebe932ee9559c5","fixation","","","img/fixation.png","null","","","test","","","","","","","","","","","","","","","","","","","",""
"456.10000014305115","356943","SARL_v6","SARL_v6v8s74qmm","5ee5e3b02eebe932ee9559c5","freq","","","img/orange_2bandit_b2.png","70","","70","test","1","","127","","","","circle","square","122","8","6","0.9508196721311475","","","","","","","",""
"null","357295","SARL_v6","SARL_v6v8s74qmm","5ee5e3b02eebe932ee9559c5","freq_resp","","","img/orange_2bandit_b.png","70","img/orange_2bandit_b.png","70","test","","","","","","","","","","","6","","","","","","","","",""
"null","357447","SARL_v6","SARL_v6v8s74qmm","5ee5e3b02eebe932ee9559c5","fixation","","","img/fixation.png","null","","","test","","","","","","","","","","","","","","","","","","","",""
"341.09999990463257","357791","SARL_v6","SARL_v6v8s74qmm","5ee5e3b02eebe932ee9559c5","freq","","","img/orange_2bandit_b2.png","70","","70","test","1","","128","","","","circle","square","123","9","6","0.9512195121951219","","","","","","","",""
"null","358256","SARL_v6","SARL_v6v8s74qmm","5ee5e3b02eebe932ee9559c5","freq_resp","","","img/orange_2bandit_b.png","70","img/orange_2bandit_b.png","70","test","","","","","","","","","","","6","","","","","","","","",""
"null","358417","SARL_v6","SARL_v6v8s74qmm","5ee5e3b02eebe932ee9559c5","fixation","","","img/fixation.png","null","","","test","","","","","","","","","","","","","","","","","","","",""
"322.7999999523163","358743","SARL_v6","SARL_v6v8s74qmm","5ee5e3b02eebe932ee9559c5","freq","","","img/orange_2bandit_b2.png","70","","70","test","1","","129","","","","circle","square","124","10","6","0.9516129032258065","","","","","","","",""
"null","359232","SARL_v6","SARL_v6v8s74qmm","5ee5e3b02eebe932ee9559c5","freq_resp","","","img/orange_2bandit_b.png","70","img/orange_2bandit_b.png","70","test","","","","","","","","","","","6","","","","","","","","",""
"null","359397","SARL_v6","SARL_v6v8s74qmm","5ee5e3b02eebe932ee9559c5","fixation","","","img/fixation.png","null","","","test","","","","","","","","","","","","","","","","","","","",""
"248.70000004768372","359648","SARL_v6","SARL_v6v8s74qmm","5ee5e3b02eebe932ee9559c5","freq","","","img/orange_2bandit_b2.png","70","","70","test","1","","130","","","","circle","square","125","11","6","0.952","","","","","","","",""
"null","360211","SARL_v6","SARL_v6v8s74qmm","5ee5e3b02eebe932ee9559c5","freq_resp","","","img/orange_2bandit_b.png","70","img/orange_2bandit_b.png","70","test","","","","","","","","","","","6","","","","","","","","",""
"null","360368","SARL_v6","SARL_v6v8s74qmm","5ee5e3b02eebe932ee9559c5","fixation","","","img/fixation.png","null","","","test","","","","","","","","","","","","","","","","","","","",""
"256.2000000476837","360627","SARL_v6","SARL_v6v8s74qmm","5ee5e3b02eebe932ee9559c5","freq","","","img/orange_2bandit_b2.png","70","","70","test","1","","131","","","","circle","square","126","12","6","0.9523809523809523","","","","","","","",""
