"rt","time_elapsed","expId","subject","prolificID","trialType","rlType","attType","stimulus","key_press","stim","corrresp","phase","corr","pracCounter","trialNum","rewardOne","rewardTwo","reward","bandOne","bandTwo","attentionNum","attentionRunNum","blockNum","performance","bandChosen","circleVal","squareVal","bandOneVal","bandTwoVal","shapeChosen","rlNum","badFlag"
"33993","34001","SARL_v6","SARL_v6zm1favdk","63614a46bd1e8547e0a8b8ba","","","","","","","","","","","","","","","","","","","","","","","","","","","",""
"","36129","SARL_v6","SARL_v6zm1favdk","63614a46bd1e8547e0a8b8ba","fullscreen","fullscreen","fullscreen","","","","","","","","","","","","","","","","","","","","","","","","",""
"82767","118903","SARL_v6","SARL_v6zm1favdk","63614a46bd1e8547e0a8b8ba","","","","","","","","","","","","","","","","","","","","","","","","","","","",""
"null","119707","SARL_v6","SARL_v6zm1favdk","63614a46bd1e8547e0a8b8ba","freqPrac","","","img/blue_2bandit_a2.png","null","img/blue_2bandit_a2.png","70","prac","0","1","","","","","","","","","","","","","","","","","",""
"null","120712","SARL_v6","SARL_v6zm1favdk","63614a46bd1e8547e0a8b8ba","feedback","","","img/tooSlow.png","null","","na","prac","","","","","","","","","","","","","","","","","","","",""
"null","120865","SARL_v6","SARL_v6zm1favdk","63614a46bd1e8547e0a8b8ba","fixation","","","img/fixation.png","null","","","prac","","","","","","","","","","","","","","","","","","","",""
"427","121295","SARL_v6","SARL_v6zm1favdk","63614a46bd1e8547e0a8b8ba","infreqPrac","","","img/orange_2bandit_a2.png","70","img/orange_2bandit_a2.png","68","prac","0","2","","","","","","","","","","","","","","","","","",""
"427","121684","SARL_v6","SARL_v6zm1favdk","63614a46bd1e8547e0a8b8ba","infreqPrac_resp","","","img/orange_2bandit_a.png","70","img/orange_2bandit_a.png","68","prac","","","","","","","","","","","","","","","","","","","",""
"null","122687","SARL_v6","SARL_v6zm1favdk","63614a46bd1e8547e0a8b8ba","feedback","","","img/wrongKey.png","null","","na","prac","","","","","","","","","","","","","","","","","","","",""
"null","122839","SARL_v6","SARL_v6zm1favdk","63614a46bd1e8547e0a8b8ba","fixation","","","img/fixation.png","null","","","prac","","","","","","","","","","","","","","","","","","","",""
"620","123462","SARL_v6","SARL_v6zm1favdk","63614a46bd1e8547e0a8b8ba","freqPrac","","","img/blue_2bandit_a2.png","68","img/blue_2bandit_a2.png","70","prac","0","3","","","","","","","","","","","","","","","","","",""
"620","123648","SARL_v6","SARL_v6zm1favdk","63614a46bd1e8547e0a8b8ba","freqPrac_resp","","","img/blue_2bandit_a.png","68","img/blue_2bandit_a.png","70","prac","","","","","","","","","","","","","","","","","","","",""
"null","124651","SARL_v6","SARL_v6zm1favdk","63614a46bd1e8547e0a8b8ba","feedback","","","img/wrongKey.png","null","","na","prac","","","","","","","","","","","","","","","","","","","",""
"null","124805","SARL_v6","SARL_v6zm1favdk","63614a46bd1e8547e0a8b8ba","fixation","","","img/fixation.png","null","","","prac","","","","","","","","","","","","","","","","","","","",""
"639","125447","SARL_v6","SARL_v6zm1favdk","63614a46bd1e8547e0a8b8ba","infreqPrac","","","img/orange_2bandit_a2.png","70","img/orange_2bandit_a2.png","68","prac","0","4","","","","","","","","","","","","","","","","","",""
"639","125612","SARL_v6","SARL_v6zm1favdk","63614a46bd1e8547e0a8b8ba","infreqPrac_resp","","","img/orange_2bandit_a.png","70","img/orange_2bandit_a.png","68","prac","","","","","","","","","","","","","","","","","","","",""
"null","126614","SARL_v6","SARL_v6zm1favdk","63614a46bd1e8547e0a8b8ba","feedback","","","img/wrongKey.png","null","","na","prac","","","","","","","","","","","","","","","","","","","",""
"null","126767","SARL_v6","SARL_v6zm1favdk","63614a46bd1e8547e0a8b8ba","fixation","","","img/fixation.png","null","","","prac","","","","","","","","","","","","","","","","","","","",""
"573","127342","SARL_v6","SARL_v6zm1favdk","63614a46bd1e8547e0a8b8ba","infreqPrac","","","img/orange_2bandit_a2.png","68","img/orange_2bandit_a2.png","68","prac","1","4","","","","","","","","","","","","","","","","","",""
"573","127572","SARL_v6","SARL_v6zm1favdk","63614a46bd1e8547e0a8b8ba","infreqPrac_resp","","","img/orange_2bandit_a.png","68","img/orange_2bandit_a.png","68","prac","","","","","","","","","","","","","","","","","","","",""
"null","127725","SARL_v6","SARL_v6zm1favdk","63614a46bd1e8547e0a8b8ba","fixation","","","img/fixation.png","null","","","prac","","","","","","","","","","","","","","","","","","","",""
"422","128149","SARL_v6","SARL_v6zm1favdk","63614a46bd1e8547e0a8b8ba","infreqPrac","","","img/orange_2bandit_a2.png","68","img/orange_2bandit_a2.png","68","prac","1","4","","","","","","","","","","","","","","","","","",""
"422","128531","SARL_v6","SARL_v6zm1favdk","63614a46bd1e8547e0a8b8ba","infreqPrac_resp","","","img/orange_2bandit_a.png","68","img/orange_2bandit_a.png","68","prac","","","","","","","","","","","","","","","","","","","",""
"null","128684","SARL_v6","SARL_v6zm1favdk","63614a46bd1e8547e0a8b8ba","fixation","","","img/fixation.png","null","","","prac","","","","","","","","","","","","","","","","","","","",""
"455","129142","SARL_v6","SARL_v6zm1favdk","63614a46bd1e8547e0a8b8ba","freqPrac","","","img/blue_2bandit_a2.png","70","img/blue_2bandit_a2.png","70","prac","1","4","","","","","","","","","","","","","","","","","",""
"455","129491","SARL_v6","SARL_v6zm1favdk","63614a46bd1e8547e0a8b8ba","freqPrac_resp","","","img/blue_2bandit_a.png","70","img/blue_2bandit_a.png","70","prac","","","","","","","","","","","","","","","","","","","",""
"null","129644","SARL_v6","SARL_v6zm1favdk","63614a46bd1e8547e0a8b8ba","fixation","","","img/fixation.png","null","","","prac","","","","","","","","","","","","","","","","","","","",""
"505","130153","SARL_v6","SARL_v6zm1favdk","63614a46bd1e8547e0a8b8ba","infreqPrac","","","img/orange_2bandit_a2.png","68","img/orange_2bandit_a2.png","68","prac","1","4","","","","","","","","","","","","","","","","","",""
"505","130459","SARL_v6","SARL_v6zm1favdk","63614a46bd1e8547e0a8b8ba","infreqPrac_resp","","","img/orange_2bandit_a.png","68","img/orange_2bandit_a.png","68","prac","","","","","","","","","","","","","","","","","","","",""
"null","130612","SARL_v6","SARL_v6zm1favdk","63614a46bd1e8547e0a8b8ba","fixation","","","img/fixation.png","null","","","prac","","","","","","","","","","","","","","","","","","","",""
"537","131150","SARL_v6","SARL_v6zm1favdk","63614a46bd1e8547e0a8b8ba","freqPrac","","","img/blue_2bandit_a2.png","70","img/blue_2bandit_a2.png","70","prac","1","4","","","","","","","","","","","","","","","","","",""
"537","131418","SARL_v6","SARL_v6zm1favdk","63614a46bd1e8547e0a8b8ba","freqPrac_resp","","","img/blue_2bandit_a.png","70","img/blue_2bandit_a.png","70","prac","","","","","","","","","","","","","","","","","","","",""
"null","131570","SARL_v6","SARL_v6zm1favdk","63614a46bd1e8547e0a8b8ba","fixation","","","img/fixation.png","null","","","prac","","","","","","","","","","","","","","","","","","","",""
"378","131950","SARL_v6","SARL_v6zm1favdk","63614a46bd1e8547e0a8b8ba","freqPrac","","","img/blue_2bandit_a2.png","70","img/blue_2bandit_a2.png","70","prac","1","4","","","","","","","","","","","","","","","","","",""
"378","132374","SARL_v6","SARL_v6zm1favdk","63614a46bd1e8547e0a8b8ba","freqPrac_resp","","","img/blue_2bandit_a.png","70","img/blue_2bandit_a.png","70","prac","","","","","","","","","","","","","","","","","","","",""
"null","132527","SARL_v6","SARL_v6zm1favdk","63614a46bd1e8547e0a8b8ba","fixation","","","img/fixation.png","null","","","prac","","","","","","","","","","","","","","","","","","","",""
"24260","156790","SARL_v6","SARL_v6zm1favdk","63614a46bd1e8547e0a8b8ba","","","","","","","","prac","","","","","","","","","","","","","","","","","","","",""
"725","157518","SARL_v6","SARL_v6zm1favdk","63614a46bd1e8547e0a8b8ba","rlPractice","","","img/black_2bandit_a2.png","75","img/black_2bandit_a2.png","","prac","","","0","","","","","","","","","","","","","","","","",""
"null","158271","SARL_v6","SARL_v6zm1favdk","63614a46bd1e8547e0a8b8ba","feedback","","","<div class=""veryhighPoints""> 10 </div>","null","","na","prac","","","1","10","-14","10","","","","","","","","","","","","","",""
"null","158425","SARL_v6","SARL_v6zm1favdk","63614a46bd1e8547e0a8b8ba","fixation","","","img/fixation.png","null","","","prac","","","","","","","","","","","","","","","","","","","",""
"425","158853","SARL_v6","SARL_v6zm1favdk","63614a46bd1e8547e0a8b8ba","rlPractice","","","img/black_2bandit_a2.png","74","img/black_2bandit_a2.png","","prac","","","1","","","","","","","","","","","","","","","","",""
"null","159606","SARL_v6","SARL_v6zm1favdk","63614a46bd1e8547e0a8b8ba","feedback","","","<div class=""verylowPoints_sq""> -5 </div>","null","","na","prac","","","2","5","-5","5","","","","","","","","","","","","","",""
"null","159760","SARL_v6","SARL_v6zm1favdk","63614a46bd1e8547e0a8b8ba","fixation","","","img/fixation.png","null","","","prac","","","","","","","","","","","","","","","","","","","",""
"364","160124","SARL_v6","SARL_v6zm1favdk","63614a46bd1e8547e0a8b8ba","rlPractice","","","img/black_2bandit_a2.png","75","img/black_2bandit_a2.png","","prac","","","2","","","","","","","","","","","","","","","","",""
"null","160879","SARL_v6","SARL_v6zm1favdk","63614a46bd1e8547e0a8b8ba","feedback","","","<div class=""veryhighPoints""> 30 </div>","null","","na","prac","","","3","30","2","30","","","","","","","","","","","","","",""
"null","161031","SARL_v6","SARL_v6zm1favdk","63614a46bd1e8547e0a8b8ba","fixation","","","img/fixation.png","null","","","prac","","","","","","","","","","","","","","","","","","","",""
"364","161397","SARL_v6","SARL_v6zm1favdk","63614a46bd1e8547e0a8b8ba","rlPractice","","","img/black_2bandit_a2.png","75","img/black_2bandit_a2.png","","prac","","","3","","","","","","","","","","","","","","","","",""
"null","162150","SARL_v6","SARL_v6zm1favdk","63614a46bd1e8547e0a8b8ba","feedback","","","<div class=""verylowPoints""> -2 </div>","null","","na","prac","","","4","-2","20","-2","","","","","","","","","","","","","",""
"null","162304","SARL_v6","SARL_v6zm1favdk","63614a46bd1e8547e0a8b8ba","fixation","","","img/fixation.png","null","","","prac","","","","","","","","","","","","","","","","","","","",""
"3491","165797","SARL_v6","SARL_v6zm1favdk","63614a46bd1e8547e0a8b8ba","","","","","","","","prac","","","","","","","","","","","","","","","","","","","",""
"733","166533","SARL_v6","SARL_v6zm1favdk","63614a46bd1e8547e0a8b8ba","mixAttFreqPrac","","","img/blue_2bandit_a2.png","70","img/blue_2bandit_a2.png","70","prac","","","1","","","","","","","","","","","","","","","","",""
"733","166604","SARL_v6","SARL_v6zm1favdk","63614a46bd1e8547e0a8b8ba","freqPrac_resp","","","img/blue_2bandit_a.png","70","img/blue_2bandit_a.png","70","prac","","","1","","","","","","","","","","","","","","","","",""
"null","166759","SARL_v6","SARL_v6zm1favdk","63614a46bd1e8547e0a8b8ba","fixation","","","img/fixation.png","null","","","prac","","","","","","","","","","","","","","","","","","","",""
"522","167285","SARL_v6","SARL_v6zm1favdk","63614a46bd1e8547e0a8b8ba","mixAttInfreqPrac","","","img/orange_2bandit_a2.png","68","img/orange_2bandit_a2.png","68","prac","","","2","","","","","","","","","","","","","","","","",""
"522","167567","SARL_v6","SARL_v6zm1favdk","63614a46bd1e8547e0a8b8ba","infreqPrac_resp","","","img/orange_2bandit_a.png","68","img/blue_2bandit_a.png","68","prac","","","2","","","","","","","","","","","","","","","","",""
"null","167719","SARL_v6","SARL_v6zm1favdk","63614a46bd1e8547e0a8b8ba","fixation","","","img/fixation.png","null","","","prac","","","","","","","","","","","","","","","","","","","",""
"418","168140","SARL_v6","SARL_v6zm1favdk","63614a46bd1e8547e0a8b8ba","mixAttInfreqPrac","","","img/orange_2bandit_a2.png","68","img/orange_2bandit_a2.png","68","prac","","","3","","","","","","","","","","","","","","","","",""
"418","168526","SARL_v6","SARL_v6zm1favdk","63614a46bd1e8547e0a8b8ba","infreqPrac_resp","","","img/orange_2bandit_a.png","68","img/blue_2bandit_a.png","68","prac","","","3","","","","","","","","","","","","","","","","",""
"null","168679","SARL_v6","SARL_v6zm1favdk","63614a46bd1e8547e0a8b8ba","fixation","","","img/fixation.png","null","","","prac","","","","","","","","","","","","","","","","","","","",""
"459","169141","SARL_v6","SARL_v6zm1favdk","63614a46bd1e8547e0a8b8ba","mixAttInfreqPrac","","","img/orange_2bandit_a2.png","68","img/orange_2bandit_a2.png","68","prac","","","4","","","","","","","","","","","","","","","","",""
"459","169487","SARL_v6","SARL_v6zm1favdk","63614a46bd1e8547e0a8b8ba","infreqPrac_resp","","","img/orange_2bandit_a.png","68","img/blue_2bandit_a.png","68","prac","","","4","","","","","","","","","","","","","","","","",""
"null","169640","SARL_v6","SARL_v6zm1favdk","63614a46bd1e8547e0a8b8ba","fixation","","","img/fixation.png","null","","","prac","","","","","","","","","","","","","","","","","","","",""
"482","170125","SARL_v6","SARL_v6zm1favdk","63614a46bd1e8547e0a8b8ba","mixAttFreqPrac","","","img/blue_2bandit_a2.png","70","img/blue_2bandit_a2.png","70","prac","","","5","","","","","","","","","","","","","","","","",""
"482","170445","SARL_v6","SARL_v6zm1favdk","63614a46bd1e8547e0a8b8ba","freqPrac_resp","","","img/blue_2bandit_a.png","70","img/blue_2bandit_a.png","70","prac","","","5","","","","","","","","","","","","","","","","",""
"null","170599","SARL_v6","SARL_v6zm1favdk","63614a46bd1e8547e0a8b8ba","fixation","","","img/fixation.png","null","","","prac","","","","","","","","","","","","","","","","","","","",""
"555","171159","SARL_v6","SARL_v6zm1favdk","63614a46bd1e8547e0a8b8ba","mixRLPractice","","","img/black_2bandit_a2.png","74","img/black_2bandit_a2.png","","prac","","","5","","","","","","","","","","","","","","","","",""
"null","171913","SARL_v6","SARL_v6zm1favdk","63614a46bd1e8547e0a8b8ba","feedback","","","<div class=""veryhighPoints_sq""> 10 </div>","null","","na","prac","","","6","-14","10","-14","","","","","","","","","","","","","",""
"null","172066","SARL_v6","SARL_v6zm1favdk","63614a46bd1e8547e0a8b8ba","fixation","","","img/fixation.png","null","","","prac","","","","","","","","","","","","","","","","","","","",""
"552","172620","SARL_v6","SARL_v6zm1favdk","63614a46bd1e8547e0a8b8ba","mixAttFreqPrac","","","img/blue_2bandit_a2.png","68","img/blue_2bandit_a2.png","70","prac","","","7","","","","","","","","","","","","","","","","",""
"552","172873","SARL_v6","SARL_v6zm1favdk","63614a46bd1e8547e0a8b8ba","freqPrac_resp","","","img/blue_2bandit_a.png","68","img/blue_2bandit_a.png","70","prac","","","7","","","","","","","","","","","","","","","","",""
"null","173026","SARL_v6","SARL_v6zm1favdk","63614a46bd1e8547e0a8b8ba","fixation","","","img/fixation.png","null","","","prac","","","","","","","","","","","","","","","","","","","",""
"455","173484","SARL_v6","SARL_v6zm1favdk","63614a46bd1e8547e0a8b8ba","mixAttInfreqPrac","","","img/orange_2bandit_a2.png","70","img/orange_2bandit_a2.png","68","prac","","","8","","","","","","","","","","","","","","","","",""
"455","173833","SARL_v6","SARL_v6zm1favdk","63614a46bd1e8547e0a8b8ba","infreqPrac_resp","","","img/orange_2bandit_a.png","70","img/blue_2bandit_a.png","68","prac","","","8","","","","","","","","","","","","","","","","",""
"null","173986","SARL_v6","SARL_v6zm1favdk","63614a46bd1e8547e0a8b8ba","fixation","","","img/fixation.png","null","","","prac","","","","","","","","","","","","","","","","","","","",""
"null","174790","SARL_v6","SARL_v6zm1favdk","63614a46bd1e8547e0a8b8ba","mixAttFreqPrac","","","img/blue_2bandit_a2.png","null","img/blue_2bandit_a2.png","70","prac","","","9","","","","","","","","","","","","","","","","",""
"null","174943","SARL_v6","SARL_v6zm1favdk","63614a46bd1e8547e0a8b8ba","fixation","","","img/fixation.png","null","","","prac","","","","","","","","","","","","","","","","","","","",""
"668","175614","SARL_v6","SARL_v6zm1favdk","63614a46bd1e8547e0a8b8ba","mixAttFreqPrac","","","img/blue_2bandit_a2.png","70","img/blue_2bandit_a2.png","70","prac","","","10","","","","","","","","","","","","","","","","",""
"668","175748","SARL_v6","SARL_v6zm1favdk","63614a46bd1e8547e0a8b8ba","freqPrac_resp","","","img/blue_2bandit_a.png","70","img/blue_2bandit_a.png","70","prac","","","10","","","","","","","","","","","","","","","","",""
"null","175903","SARL_v6","SARL_v6zm1favdk","63614a46bd1e8547e0a8b8ba","fixation","","","img/fixation.png","null","","","prac","","","","","","","","","","","","","","","","","","","",""
"539","176444","SARL_v6","SARL_v6zm1favdk","63614a46bd1e8547e0a8b8ba","mixAttInfreqPrac","","","img/orange_2bandit_a2.png","68","img/orange_2bandit_a2.png","68","prac","","","11","","","","","","","","","","","","","","","","",""
"539","176708","SARL_v6","SARL_v6zm1favdk","63614a46bd1e8547e0a8b8ba","infreqPrac_resp","","","img/orange_2bandit_a.png","68","img/blue_2bandit_a.png","68","prac","","","11","","","","","","","","","","","","","","","","",""
"null","176862","SARL_v6","SARL_v6zm1favdk","63614a46bd1e8547e0a8b8ba","fixation","","","img/fixation.png","null","","","prac","","","","","","","","","","","","","","","","","","","",""
"739","177604","SARL_v6","SARL_v6zm1favdk","63614a46bd1e8547e0a8b8ba","mixRLPractice","","","img/black_2bandit_a2.png","75","img/black_2bandit_a2.png","","prac","","","11","","","","","","","","","","","","","","","","",""
"null","178357","SARL_v6","SARL_v6zm1favdk","63614a46bd1e8547e0a8b8ba","feedback","","","<div class=""veryhighPoints""> 5 </div>","null","","na","prac","","","12","5","-5","5","","","","","","","","","","","","","",""
"null","178510","SARL_v6","SARL_v6zm1favdk","63614a46bd1e8547e0a8b8ba","fixation","","","img/fixation.png","null","","","prac","","","","","","","","","","","","","","","","","","","",""
"6213","184725","SARL_v6","SARL_v6zm1favdk","63614a46bd1e8547e0a8b8ba","","","","","","","","prac","","","","","","","","","","","","","","","","","","","",""
"null","185528","SARL_v6","SARL_v6zm1favdk","63614a46bd1e8547e0a8b8ba","freq","","","img/blue_2bandit_a2.png","null","","70","test","0","","1","","","","square","circle","1","1","1","0","","","","","","","",""
"null","185681","SARL_v6","SARL_v6zm1favdk","63614a46bd1e8547e0a8b8ba","fixation","","","img/fixation.png","null","","","test","","","","","","","","","","","","","","","","","","","",""
"496","186180","SARL_v6","SARL_v6zm1favdk","63614a46bd1e8547e0a8b8ba","freq","","","img/blue_2bandit_a2.png","70","","70","test","1","","2","","","","square","circle","2","2","1","0.5","","","","","","","",""
"null","186488","SARL_v6","SARL_v6zm1favdk","63614a46bd1e8547e0a8b8ba","freq_resp","","","img/blue_2bandit_a.png","70","img/blue_2bandit_a.png","70","test","","","","","","","","","","","1","","","","","","","","",""
"null","186641","SARL_v6","SARL_v6zm1favdk","63614a46bd1e8547e0a8b8ba","fixation","","","img/fixation.png","null","","","test","","","","","","","","","","","","","","","","","","","",""
"345","186988","SARL_v6","SARL_v6zm1favdk","63614a46bd1e8547e0a8b8ba","freq","","","img/blue_2bandit_a2.png","70","","70","test","1","","3","","","","square","circle","3","3","1","0.6666666666666666","","","","","","","",""
"null","187446","SARL_v6","SARL_v6zm1favdk","63614a46bd1e8547e0a8b8ba","freq_resp","","","img/blue_2bandit_a.png","70","img/blue_2bandit_a.png","70","test","","","","","","","","","","","1","","","","","","","","",""
"null","187600","SARL_v6","SARL_v6zm1favdk","63614a46bd1e8547e0a8b8ba","fixation","","","img/fixation.png","null","","","test","","","","","","","","","","","","","","","","","","","",""
"369","187973","SARL_v6","SARL_v6zm1favdk","63614a46bd1e8547e0a8b8ba","freq","","","img/blue_2bandit_a2.png","70","","70","test","1","","4","","","","square","circle","4","4","1","0.75","","","","","","","",""
"null","188407","SARL_v6","SARL_v6zm1favdk","63614a46bd1e8547e0a8b8ba","freq_resp","","","img/blue_2bandit_a.png","70","img/blue_2bandit_a.png","70","test","","","","","","","","","","","1","","","","","","","","",""
"null","188560","SARL_v6","SARL_v6zm1favdk","63614a46bd1e8547e0a8b8ba","fixation","","","img/fixation.png","null","","","test","","","","","","","","","","","","","","","","","","","",""
"312","188876","SARL_v6","SARL_v6zm1favdk","63614a46bd1e8547e0a8b8ba","freq","","","img/blue_2bandit_a2.png","70","","70","test","1","","5","","","","square","circle","5","5","1","0.8","","","","","","","",""
"null","189367","SARL_v6","SARL_v6zm1favdk","63614a46bd1e8547e0a8b8ba","freq_resp","","","img/blue_2bandit_a.png","70","img/blue_2bandit_a.png","70","test","","","","","","","","","","","1","","","","","","","","",""
"null","189530","SARL_v6","SARL_v6zm1favdk","63614a46bd1e8547e0a8b8ba","fixation","","","img/fixation.png","null","","","test","","","","","","","","","","","","","","","","","","","",""
"320","189852","SARL_v6","SARL_v6zm1favdk","63614a46bd1e8547e0a8b8ba","freq","","","img/blue_2bandit_a2.png","70","","70","test","1","","6","","","","square","circle","6","6","1","0.8333333333333334","","","","","","","",""
"null","190335","SARL_v6","SARL_v6zm1favdk","63614a46bd1e8547e0a8b8ba","freq_resp","","","img/blue_2bandit_a.png","70","img/blue_2bandit_a.png","70","test","","","","","","","","","","","1","","","","","","","","",""
"null","190488","SARL_v6","SARL_v6zm1favdk","63614a46bd1e8547e0a8b8ba","fixation","","","img/fixation.png","null","","","test","","","","","","","","","","","","","","","","","","","",""
"305","190798","SARL_v6","SARL_v6zm1favdk","63614a46bd1e8547e0a8b8ba","freq","","","img/blue_2bandit_a2.png","70","","70","test","1","","7","","","","square","circle","7","7","1","0.8571428571428571","","","","","","","",""
"null","191296","SARL_v6","SARL_v6zm1favdk","63614a46bd1e8547e0a8b8ba","freq_resp","","","img/blue_2bandit_a.png","70","img/blue_2bandit_a.png","70","test","","","","","","","","","","","1","","","","","","","","",""
"null","191449","SARL_v6","SARL_v6zm1favdk","63614a46bd1e8547e0a8b8ba","fixation","","","img/fixation.png","null","","","test","","","","","","","","","","","","","","","","","","","",""
"312","191765","SARL_v6","SARL_v6zm1favdk","63614a46bd1e8547e0a8b8ba","freq","","","img/blue_2bandit_a2.png","70","","70","test","1","","8","","","","square","circle","8","8","1","0.875","","","","","","","",""
"null","192255","SARL_v6","SARL_v6zm1favdk","63614a46bd1e8547e0a8b8ba","freq_resp","","","img/blue_2bandit_a.png","70","img/blue_2bandit_a.png","70","test","","","","","","","","","","","1","","","","","","","","",""
"null","192408","SARL_v6","SARL_v6zm1favdk","63614a46bd1e8547e0a8b8ba","fixation","","","img/fixation.png","null","","","test","","","","","","","","","","","","","","","","","","","",""
"296","192708","SARL_v6","SARL_v6zm1favdk","63614a46bd1e8547e0a8b8ba","freq","","","img/blue_2bandit_a2.png","70","","70","test","1","","9","","","","square","circle","9","9","1","0.8888888888888888","","","","","","","",""
"null","193214","SARL_v6","SARL_v6zm1favdk","63614a46bd1e8547e0a8b8ba","freq_resp","","","img/blue_2bandit_a.png","70","img/blue_2bandit_a.png","70","test","","","","","","","","","","","1","","","","","","","","",""
"null","193367","SARL_v6","SARL_v6zm1favdk","63614a46bd1e8547e0a8b8ba","fixation","","","img/fixation.png","null","","","test","","","","","","","","","","","","","","","","","","","",""
"442","193813","SARL_v6","SARL_v6zm1favdk","63614a46bd1e8547e0a8b8ba","infreq","","","img/orange_2bandit_a2.png","68","","68","test","1","","10","","","","square","circle","10","10","1","0.9","","","","","","","",""
"null","194175","SARL_v6","SARL_v6zm1favdk","63614a46bd1e8547e0a8b8ba","infreq_resp","","","img/orange_2bandit_a.png","68","img/orange_2bandit_a.png","68","test","","","","","","","","","","","1","","","","","","","","",""
"null","194327","SARL_v6","SARL_v6zm1favdk","63614a46bd1e8547e0a8b8ba","fixation","","","img/fixation.png","null","","","test","","","","","","","","","","","","","","","","","","","",""
"698","195029","SARL_v6","SARL_v6zm1favdk","63614a46bd1e8547e0a8b8ba","freq","","","img/blue_2bandit_a2.png","70","","70","test","1","","11","","","","square","circle","11","11","1","0.9090909090909091","","","","","","","",""
"null","195134","SARL_v6","SARL_v6zm1favdk","63614a46bd1e8547e0a8b8ba","freq_resp","","","img/blue_2bandit_a.png","70","img/blue_2bandit_a.png","70","test","","","","","","","","","","","1","","","","","","","","",""
"null","195288","SARL_v6","SARL_v6zm1favdk","63614a46bd1e8547e0a8b8ba","fixation","","","img/fixation.png","null","","","test","","","","","","","","","","","","","","","","","","","",""
"552","195843","SARL_v6","SARL_v6zm1favdk","63614a46bd1e8547e0a8b8ba","freq","","","img/blue_2bandit_a2.png","70","","70","test","1","","12","","","","square","circle","12","12","1","0.9166666666666666","","","","","","","",""
"null","196095","SARL_v6","SARL_v6zm1favdk","63614a46bd1e8547e0a8b8ba","freq_resp","","","img/blue_2bandit_a.png","70","img/blue_2bandit_a.png","70","test","","","","","","","","","","","1","","","","","","","","",""
"null","196249","SARL_v6","SARL_v6zm1favdk","63614a46bd1e8547e0a8b8ba","fixation","","","img/fixation.png","null","","","test","","","","","","","","","","","","","","","","","","","",""
"360","196612","SARL_v6","SARL_v6zm1favdk","63614a46bd1e8547e0a8b8ba","freq","","","img/blue_2bandit_a2.png","70","","70","test","1","","13","","","","square","circle","13","13","1","0.9230769230769231","","","","","","","",""
"null","197055","SARL_v6","SARL_v6zm1favdk","63614a46bd1e8547e0a8b8ba","freq_resp","","","img/blue_2bandit_a.png","70","img/blue_2bandit_a.png","70","test","","","","","","","","","","","1","","","","","","","","",""
"null","197209","SARL_v6","SARL_v6zm1favdk","63614a46bd1e8547e0a8b8ba","fixation","","","img/fixation.png","null","","","test","","","","","","","","","","","","","","","","","","","",""
"458","197670","SARL_v6","SARL_v6zm1favdk","63614a46bd1e8547e0a8b8ba","infreq","","","img/orange_2bandit_a2.png","68","","68","test","1","","14","","","","square","circle","14","14","1","0.9285714285714286","","","","","","","",""
"null","198014","SARL_v6","SARL_v6zm1favdk","63614a46bd1e8547e0a8b8ba","infreq_resp","","","img/orange_2bandit_a.png","68","img/orange_2bandit_a.png","68","test","","","","","","","","","","","1","","","","","","","","",""
"null","198167","SARL_v6","SARL_v6zm1favdk","63614a46bd1e8547e0a8b8ba","fixation","","","img/fixation.png","null","","","test","","","","","","","","","","","","","","","","","","","",""
"434","198604","SARL_v6","SARL_v6zm1favdk","63614a46bd1e8547e0a8b8ba","freq","","","img/blue_2bandit_a2.png","68","","70","test","0","","15","","","","square","circle","15","15","1","0.8666666666666667","","","","","","","",""
"null","198972","SARL_v6","SARL_v6zm1favdk","63614a46bd1e8547e0a8b8ba","freq_resp","","","img/blue_2bandit_a.png","68","img/blue_2bandit_a.png","70","test","","","","","","","","","","","1","","","","","","","","",""
"null","199126","SARL_v6","SARL_v6zm1favdk","63614a46bd1e8547e0a8b8ba","fixation","","","img/fixation.png","null","","","test","","","","","","","","","","","","","","","","","","","",""
"516","199644","SARL_v6","SARL_v6zm1favdk","63614a46bd1e8547e0a8b8ba","freq","","","img/blue_2bandit_a2.png","70","","70","test","1","","16","","","","square","circle","16","16","1","0.875","","","","","","","",""
"null","199931","SARL_v6","SARL_v6zm1favdk","63614a46bd1e8547e0a8b8ba","freq_resp","","","img/blue_2bandit_a.png","70","img/blue_2bandit_a.png","70","test","","","","","","","","","","","1","","","","","","","","",""
"null","200084","SARL_v6","SARL_v6zm1favdk","63614a46bd1e8547e0a8b8ba","fixation","","","img/fixation.png","null","","","test","","","","","","","","","","","","","","","","","","","",""
"311","200399","SARL_v6","SARL_v6zm1favdk","63614a46bd1e8547e0a8b8ba","freq","","","img/blue_2bandit_a2.png","70","","70","test","1","","17","","","","square","circle","17","17","1","0.8823529411764706","","","","","","","",""
"null","200891","SARL_v6","SARL_v6zm1favdk","63614a46bd1e8547e0a8b8ba","freq_resp","","","img/blue_2bandit_a.png","70","img/blue_2bandit_a.png","70","test","","","","","","","","","","","1","","","","","","","","",""
"null","201043","SARL_v6","SARL_v6zm1favdk","63614a46bd1e8547e0a8b8ba","fixation","","","img/fixation.png","null","","","test","","","","","","","","","","","","","","","","","","","",""
"334","201380","SARL_v6","SARL_v6zm1favdk","63614a46bd1e8547e0a8b8ba","freq","","","img/blue_2bandit_a2.png","70","","70","test","1","","18","","","","square","circle","18","18","1","0.8888888888888888","","","","","","","",""
"null","201850","SARL_v6","SARL_v6zm1favdk","63614a46bd1e8547e0a8b8ba","freq_resp","","","img/blue_2bandit_a.png","70","img/blue_2bandit_a.png","70","test","","","","","","","","","","","1","","","","","","","","",""
"null","202004","SARL_v6","SARL_v6zm1favdk","63614a46bd1e8547e0a8b8ba","fixation","","","img/fixation.png","null","","","test","","","","","","","","","","","","","","","","","","","",""
"342","202349","SARL_v6","SARL_v6zm1favdk","63614a46bd1e8547e0a8b8ba","freq","","","img/blue_2bandit_a2.png","70","","70","test","1","","19","","","","square","circle","19","19","1","0.8947368421052632","","","","","","","",""
"null","202809","SARL_v6","SARL_v6zm1favdk","63614a46bd1e8547e0a8b8ba","freq_resp","","","img/blue_2bandit_a.png","70","img/blue_2bandit_a.png","70","test","","","","","","","","","","","1","","","","","","","","",""
"null","202964","SARL_v6","SARL_v6zm1favdk","63614a46bd1e8547e0a8b8ba","fixation","","","img/fixation.png","null","","","test","","","","","","","","","","","","","","","","","","","",""
"405","203371","SARL_v6","SARL_v6zm1favdk","63614a46bd1e8547e0a8b8ba","freq","","","img/blue_2bandit_a2.png","70","","70","test","1","","20","","","","square","circle","20","20","1","0.9","","","","","","","",""
"null","203781","SARL_v6","SARL_v6zm1favdk","63614a46bd1e8547e0a8b8ba","freq_resp","","","img/blue_2bandit_a.png","70","img/blue_2bandit_a.png","70","test","","","","","","","","","","","1","","","","","","","","",""
"null","203935","SARL_v6","SARL_v6zm1favdk","63614a46bd1e8547e0a8b8ba","fixation","","","img/fixation.png","null","","","test","","","","","","","","","","","","","","","","","","","",""
"354","204291","SARL_v6","SARL_v6zm1favdk","63614a46bd1e8547e0a8b8ba","freq","","","img/blue_2bandit_a2.png","70","","70","test","1","","21","","","","square","circle","21","21","1","0.9047619047619048","","","","","","","",""
"null","204739","SARL_v6","SARL_v6zm1favdk","63614a46bd1e8547e0a8b8ba","freq_resp","","","img/blue_2bandit_a.png","70","img/blue_2bandit_a.png","70","test","","","","","","","","","","","1","","","","","","","","",""
"null","204893","SARL_v6","SARL_v6zm1favdk","63614a46bd1e8547e0a8b8ba","fixation","","","img/fixation.png","null","","","test","","","","","","","","","","","","","","","","","","","",""
"347","205244","SARL_v6","SARL_v6zm1favdk","63614a46bd1e8547e0a8b8ba","freq","","","img/blue_2bandit_a2.png","70","","70","test","1","","22","","","","square","circle","22","22","1","0.9090909090909091","","","","","","","",""
"null","205701","SARL_v6","SARL_v6zm1favdk","63614a46bd1e8547e0a8b8ba","freq_resp","","","img/blue_2bandit_a.png","70","img/blue_2bandit_a.png","70","test","","","","","","","","","","","1","","","","","","","","",""
"null","205853","SARL_v6","SARL_v6zm1favdk","63614a46bd1e8547e0a8b8ba","fixation","","","img/fixation.png","null","","","test","","","","","","","","","","","","","","","","","","","",""
"1106","206963","SARL_v6","SARL_v6zm1favdk","63614a46bd1e8547e0a8b8ba","rl","","","img/black_2bandit_a2.png","75","","0","test","","","23","","","-3","square","circle","","0","1","","75","-3","-3","-3","-3","circle","1","0"
"null","207717","SARL_v6","SARL_v6zm1favdk","63614a46bd1e8547e0a8b8ba","feedback","","","<div class=""verylowPoints""> -3 </div>","null","","na","test","","","NaN","","","","","","","","1","","75","","","","","","1",""
"613","208331","SARL_v6","SARL_v6zm1favdk","63614a46bd1e8547e0a8b8ba","freq","","","img/blue_2bandit_a2.png","70","","70","test","1","","24","","","","square","circle","23","1","2","0.9130434782608695","","","","","","","",""
"null","208520","SARL_v6","SARL_v6zm1favdk","63614a46bd1e8547e0a8b8ba","freq_resp","","","img/blue_2bandit_a.png","70","img/blue_2bandit_a.png","70","test","","","","","","","","","","","2","","","","","","","","",""
"null","208674","SARL_v6","SARL_v6zm1favdk","63614a46bd1e8547e0a8b8ba","fixation","","","img/fixation.png","null","","","test","","","","","","","","","","","","","","","","","","","",""
"422","209100","SARL_v6","SARL_v6zm1favdk","63614a46bd1e8547e0a8b8ba","freq","","","img/blue_2bandit_a2.png","70","","70","test","1","","25","","","","square","circle","24","2","2","0.9166666666666666","","","","","","","",""
"null","209481","SARL_v6","SARL_v6zm1favdk","63614a46bd1e8547e0a8b8ba","freq_resp","","","img/blue_2bandit_a.png","70","img/blue_2bandit_a.png","70","test","","","","","","","","","","","2","","","","","","","","",""
"null","209634","SARL_v6","SARL_v6zm1favdk","63614a46bd1e8547e0a8b8ba","fixation","","","img/fixation.png","null","","","test","","","","","","","","","","","","","","","","","","","",""
"455","210091","SARL_v6","SARL_v6zm1favdk","63614a46bd1e8547e0a8b8ba","infreq","","","img/orange_2bandit_a2.png","68","","68","test","1","","26","","","","square","circle","25","3","2","0.92","","","","","","","",""
"null","210439","SARL_v6","SARL_v6zm1favdk","63614a46bd1e8547e0a8b8ba","infreq_resp","","","img/orange_2bandit_a.png","68","img/orange_2bandit_a.png","68","test","","","","","","","","","","","2","","","","","","","","",""
"null","210592","SARL_v6","SARL_v6zm1favdk","63614a46bd1e8547e0a8b8ba","fixation","","","img/fixation.png","null","","","test","","","","","","","","","","","","","","","","","","","",""
"461","211055","SARL_v6","SARL_v6zm1favdk","63614a46bd1e8547e0a8b8ba","freq","","","img/blue_2bandit_a2.png","70","","70","test","1","","27","","","","square","circle","26","4","2","0.9230769230769231","","","","","","","",""
"null","211399","SARL_v6","SARL_v6zm1favdk","63614a46bd1e8547e0a8b8ba","freq_resp","","","img/blue_2bandit_a.png","70","img/blue_2bandit_a.png","70","test","","","","","","","","","","","2","","","","","","","","",""
"null","211555","SARL_v6","SARL_v6zm1favdk","63614a46bd1e8547e0a8b8ba","fixation","","","img/fixation.png","null","","","test","","","","","","","","","","","","","","","","","","","",""
"622","212179","SARL_v6","SARL_v6zm1favdk","63614a46bd1e8547e0a8b8ba","freq","","","img/blue_2bandit_a2.png","70","","70","test","1","","28","","","","square","circle","27","5","2","0.9259259259259259","","","","","","","",""
"null","212359","SARL_v6","SARL_v6zm1favdk","63614a46bd1e8547e0a8b8ba","freq_resp","","","img/blue_2bandit_a.png","70","img/blue_2bandit_a.png","70","test","","","","","","","","","","","2","","","","","","","","",""
"null","212513","SARL_v6","SARL_v6zm1favdk","63614a46bd1e8547e0a8b8ba","fixation","","","img/fixation.png","null","","","test","","","","","","","","","","","","","","","","","","","",""
"439","212955","SARL_v6","SARL_v6zm1favdk","63614a46bd1e8547e0a8b8ba","freq","","","img/blue_2bandit_a2.png","70","","70","test","1","","29","","","","square","circle","28","6","2","0.9285714285714286","","","","","","","",""
"null","213318","SARL_v6","SARL_v6zm1favdk","63614a46bd1e8547e0a8b8ba","freq_resp","","","img/blue_2bandit_a.png","70","img/blue_2bandit_a.png","70","test","","","","","","","","","","","2","","","","","","","","",""
"null","213472","SARL_v6","SARL_v6zm1favdk","63614a46bd1e8547e0a8b8ba","fixation","","","img/fixation.png","null","","","test","","","","","","","","","","","","","","","","","","","",""
"361","213837","SARL_v6","SARL_v6zm1favdk","63614a46bd1e8547e0a8b8ba","freq","","","img/blue_2bandit_a2.png","70","","70","test","1","","30","","","","square","circle","29","7","2","0.9310344827586207","","","","","","","",""
"null","214279","SARL_v6","SARL_v6zm1favdk","63614a46bd1e8547e0a8b8ba","freq_resp","","","img/blue_2bandit_a.png","70","img/blue_2bandit_a.png","70","test","","","","","","","","","","","2","","","","","","","","",""
"null","214432","SARL_v6","SARL_v6zm1favdk","63614a46bd1e8547e0a8b8ba","fixation","","","img/fixation.png","null","","","test","","","","","","","","","","","","","","","","","","","",""
"489","214923","SARL_v6","SARL_v6zm1favdk","63614a46bd1e8547e0a8b8ba","infreq","","","img/orange_2bandit_a2.png","68","","68","test","1","","31","","","","square","circle","30","8","2","0.9333333333333333","","","","","","","",""
"null","215238","SARL_v6","SARL_v6zm1favdk","63614a46bd1e8547e0a8b8ba","infreq_resp","","","img/orange_2bandit_a.png","68","img/orange_2bandit_a.png","68","test","","","","","","","","","","","2","","","","","","","","",""
"null","215402","SARL_v6","SARL_v6zm1favdk","63614a46bd1e8547e0a8b8ba","fixation","","","img/fixation.png","null","","","test","","","","","","","","","","","","","","","","","","","",""
"446","215851","SARL_v6","SARL_v6zm1favdk","63614a46bd1e8547e0a8b8ba","freq","","","img/blue_2bandit_a2.png","70","","70","test","1","","32","","","","square","circle","31","9","2","0.9354838709677419","","","","","","","",""
"null","216209","SARL_v6","SARL_v6zm1favdk","63614a46bd1e8547e0a8b8ba","freq_resp","","","img/blue_2bandit_a.png","70","img/blue_2bandit_a.png","70","test","","","","","","","","","","","2","","","","","","","","",""
"null","216364","SARL_v6","SARL_v6zm1favdk","63614a46bd1e8547e0a8b8ba","fixation","","","img/fixation.png","null","","","test","","","","","","","","","","","","","","","","","","","",""
"381","216747","SARL_v6","SARL_v6zm1favdk","63614a46bd1e8547e0a8b8ba","freq","","","img/blue_2bandit_a2.png","70","","70","test","1","","33","","","","square","circle","32","10","2","0.9375","","","","","","","",""
"null","217168","SARL_v6","SARL_v6zm1favdk","63614a46bd1e8547e0a8b8ba","freq_resp","","","img/blue_2bandit_a.png","70","img/blue_2bandit_a.png","70","test","","","","","","","","","","","2","","","","","","","","",""
"null","217322","SARL_v6","SARL_v6zm1favdk","63614a46bd1e8547e0a8b8ba","fixation","","","img/fixation.png","null","","","test","","","","","","","","","","","","","","","","","","","",""
"287","217611","SARL_v6","SARL_v6zm1favdk","63614a46bd1e8547e0a8b8ba","freq","","","img/blue_2bandit_a2.png","70","","70","test","1","","34","","","","square","circle","33","11","2","0.9393939393939394","","","","","","","",""
"null","218128","SARL_v6","SARL_v6zm1favdk","63614a46bd1e8547e0a8b8ba","freq_resp","","","img/blue_2bandit_a.png","70","img/blue_2bandit_a.png","70","test","","","","","","","","","","","2","","","","","","","","",""
"null","218281","SARL_v6","SARL_v6zm1favdk","63614a46bd1e8547e0a8b8ba","fixation","","","img/fixation.png","null","","","test","","","","","","","","","","","","","","","","","","","",""
"343","218627","SARL_v6","SARL_v6zm1favdk","63614a46bd1e8547e0a8b8ba","freq","","","img/blue_2bandit_a2.png","70","","70","test","1","","35","","","","square","circle","34","12","2","0.9411764705882353","","","","","","","",""
"null","219087","SARL_v6","SARL_v6zm1favdk","63614a46bd1e8547e0a8b8ba","freq_resp","","","img/blue_2bandit_a.png","70","img/blue_2bandit_a.png","70","test","","","","","","","","","","","2","","","","","","","","",""
"null","219240","SARL_v6","SARL_v6zm1favdk","63614a46bd1e8547e0a8b8ba","fixation","","","img/fixation.png","null","","","test","","","","","","","","","","","","","","","","","","","",""
"361","219603","SARL_v6","SARL_v6zm1favdk","63614a46bd1e8547e0a8b8ba","freq","","","img/blue_2bandit_a2.png","70","","70","test","1","","36","","","","square","circle","35","13","2","0.9428571428571428","","","","","","","",""
"null","220045","SARL_v6","SARL_v6zm1favdk","63614a46bd1e8547e0a8b8ba","freq_resp","","","img/blue_2bandit_a.png","70","img/blue_2bandit_a.png","70","test","","","","","","","","","","","2","","","","","","","","",""
"null","220199","SARL_v6","SARL_v6zm1favdk","63614a46bd1e8547e0a8b8ba","fixation","","","img/fixation.png","null","","","test","","","","","","","","","","","","","","","","","","","",""
"362","220565","SARL_v6","SARL_v6zm1favdk","63614a46bd1e8547e0a8b8ba","freq","","","img/blue_2bandit_a2.png","70","","70","test","1","","37","","","","square","circle","36","14","2","0.9444444444444444","","","","","","","",""
"null","221007","SARL_v6","SARL_v6zm1favdk","63614a46bd1e8547e0a8b8ba","freq_resp","","","img/blue_2bandit_a.png","70","img/blue_2bandit_a.png","70","test","","","","","","","","","","","2","","","","","","","","",""
"null","221160","SARL_v6","SARL_v6zm1favdk","63614a46bd1e8547e0a8b8ba","fixation","","","img/fixation.png","null","","","test","","","","","","","","","","","","","","","","","","","",""
"345","221506","SARL_v6","SARL_v6zm1favdk","63614a46bd1e8547e0a8b8ba","freq","","","img/blue_2bandit_a2.png","70","","70","test","1","","38","","","","square","circle","37","15","2","0.9459459459459459","","","","","","","",""
"null","221965","SARL_v6","SARL_v6zm1favdk","63614a46bd1e8547e0a8b8ba","freq_resp","","","img/blue_2bandit_a.png","70","img/blue_2bandit_a.png","70","test","","","","","","","","","","","2","","","","","","","","",""
"null","222117","SARL_v6","SARL_v6zm1favdk","63614a46bd1e8547e0a8b8ba","fixation","","","img/fixation.png","null","","","test","","","","","","","","","","","","","","","","","","","",""
"307","222428","SARL_v6","SARL_v6zm1favdk","63614a46bd1e8547e0a8b8ba","freq","","","img/blue_2bandit_a2.png","70","","70","test","1","","39","","","","square","circle","38","16","2","0.9473684210526315","","","","","","","",""
"null","222925","SARL_v6","SARL_v6zm1favdk","63614a46bd1e8547e0a8b8ba","freq_resp","","","img/blue_2bandit_a.png","70","img/blue_2bandit_a.png","70","test","","","","","","","","","","","2","","","","","","","","",""
"null","223077","SARL_v6","SARL_v6zm1favdk","63614a46bd1e8547e0a8b8ba","fixation","","","img/fixation.png","null","","","test","","","","","","","","","","","","","","","","","","","",""
"331","223410","SARL_v6","SARL_v6zm1favdk","63614a46bd1e8547e0a8b8ba","freq","","","img/blue_2bandit_a2.png","70","","70","test","1","","40","","","","square","circle","39","17","2","0.9487179487179487","","","","","","","",""
"null","223884","SARL_v6","SARL_v6zm1favdk","63614a46bd1e8547e0a8b8ba","freq_resp","","","img/blue_2bandit_a.png","70","img/blue_2bandit_a.png","70","test","","","","","","","","","","","2","","","","","","","","",""
"null","224037","SARL_v6","SARL_v6zm1favdk","63614a46bd1e8547e0a8b8ba","fixation","","","img/fixation.png","null","","","test","","","","","","","","","","","","","","","","","","","",""
"356","224394","SARL_v6","SARL_v6zm1favdk","63614a46bd1e8547e0a8b8ba","freq","","","img/blue_2bandit_a2.png","70","","70","test","1","","41","","","","square","circle","40","18","2","0.95","","","","","","","",""
"null","224843","SARL_v6","SARL_v6zm1favdk","63614a46bd1e8547e0a8b8ba","freq_resp","","","img/blue_2bandit_a.png","70","img/blue_2bandit_a.png","70","test","","","","","","","","","","","2","","","","","","","","",""
"null","224996","SARL_v6","SARL_v6zm1favdk","63614a46bd1e8547e0a8b8ba","fixation","","","img/fixation.png","null","","","test","","","","","","","","","","","","","","","","","","","",""
"331","225330","SARL_v6","SARL_v6zm1favdk","63614a46bd1e8547e0a8b8ba","freq","","","img/blue_2bandit_a2.png","70","","70","test","1","","42","","","","square","circle","41","19","2","0.9512195121951219","","","","","","","",""
"null","225802","SARL_v6","SARL_v6zm1favdk","63614a46bd1e8547e0a8b8ba","freq_resp","","","img/blue_2bandit_a.png","70","img/blue_2bandit_a.png","70","test","","","","","","","","","","","2","","","","","","","","",""
"null","225955","SARL_v6","SARL_v6zm1favdk","63614a46bd1e8547e0a8b8ba","fixation","","","img/fixation.png","null","","","test","","","","","","","","","","","","","","","","","","","",""
"325","226283","SARL_v6","SARL_v6zm1favdk","63614a46bd1e8547e0a8b8ba","freq","","","img/blue_2bandit_a2.png","70","","70","test","1","","43","","","","square","circle","42","20","2","0.9523809523809523","","","","","","","",""
"null","226761","SARL_v6","SARL_v6zm1favdk","63614a46bd1e8547e0a8b8ba","freq_resp","","","img/blue_2bandit_a.png","70","img/blue_2bandit_a.png","70","test","","","","","","","","","","","2","","","","","","","","",""
"null","226915","SARL_v6","SARL_v6zm1favdk","63614a46bd1e8547e0a8b8ba","fixation","","","img/fixation.png","null","","","test","","","","","","","","","","","","","","","","","","","",""
"277","227194","SARL_v6","SARL_v6zm1favdk","63614a46bd1e8547e0a8b8ba","freq","","","img/blue_2bandit_a2.png","70","","70","test","1","","44","","","","square","circle","43","21","2","0.9534883720930233","","","","","","","",""
"null","227720","SARL_v6","SARL_v6zm1favdk","63614a46bd1e8547e0a8b8ba","freq_resp","","","img/blue_2bandit_a.png","70","img/blue_2bandit_a.png","70","test","","","","","","","","","","","2","","","","","","","","",""
"null","227873","SARL_v6","SARL_v6zm1favdk","63614a46bd1e8547e0a8b8ba","fixation","","","img/fixation.png","null","","","test","","","","","","","","","","","","","","","","","","","",""
"663","228540","SARL_v6","SARL_v6zm1favdk","63614a46bd1e8547e0a8b8ba","rl","","","img/black_2bandit_a2.png","74","","0","test","","","45","","","-5","square","circle","","0","2","","74","-8","-5","-5","-8","square","2","0"
"null","229293","SARL_v6","SARL_v6zm1favdk","63614a46bd1e8547e0a8b8ba","feedback","","","<div class=""verylowPoints_sq""> -5 </div>","null","","na","test","","","NaN","","","","","","","","2","","74","","","","","","2",""
"null","230111","SARL_v6","SARL_v6zm1favdk","63614a46bd1e8547e0a8b8ba","freq","","","img/blue_2bandit_a2.png","null","","70","test","0","","46","","","","square","circle","44","1","3","0.9318181818181818","","","","","","","",""
"null","230265","SARL_v6","SARL_v6zm1favdk","63614a46bd1e8547e0a8b8ba","fixation","","","img/fixation.png","null","","","test","","","","","","","","","","","","","","","","","","","",""
"104","230370","SARL_v6","SARL_v6zm1favdk","63614a46bd1e8547e0a8b8ba","freq","","","img/blue_2bandit_a2.png","70","","70","test","1","","47","","","","square","circle","45","2","3","0.9333333333333333","","","","","","","",""
"null","231069","SARL_v6","SARL_v6zm1favdk","63614a46bd1e8547e0a8b8ba","freq_resp","","","img/blue_2bandit_a.png","70","img/blue_2bandit_a.png","70","test","","","","","","","","","","","3","","","","","","","","",""
"null","231223","SARL_v6","SARL_v6zm1favdk","63614a46bd1e8547e0a8b8ba","fixation","","","img/fixation.png","null","","","test","","","","","","","","","","","","","","","","","","","",""
"266","231491","SARL_v6","SARL_v6zm1favdk","63614a46bd1e8547e0a8b8ba","freq","","","img/blue_2bandit_a2.png","70","","70","test","1","","48","","","","square","circle","46","3","3","0.9347826086956522","","","","","","","",""
"null","232028","SARL_v6","SARL_v6zm1favdk","63614a46bd1e8547e0a8b8ba","freq_resp","","","img/blue_2bandit_a.png","70","img/blue_2bandit_a.png","70","test","","","","","","","","","","","3","","","","","","","","",""
"null","232181","SARL_v6","SARL_v6zm1favdk","63614a46bd1e8547e0a8b8ba","fixation","","","img/fixation.png","null","","","test","","","","","","","","","","","","","","","","","","","",""
"380","232563","SARL_v6","SARL_v6zm1favdk","63614a46bd1e8547e0a8b8ba","freq","","","img/blue_2bandit_a2.png","70","","70","test","1","","49","","","","square","circle","47","4","3","0.9361702127659575","","","","","","","",""
"null","232987","SARL_v6","SARL_v6zm1favdk","63614a46bd1e8547e0a8b8ba","freq_resp","","","img/blue_2bandit_a.png","70","img/blue_2bandit_a.png","70","test","","","","","","","","","","","3","","","","","","","","",""
"null","233139","SARL_v6","SARL_v6zm1favdk","63614a46bd1e8547e0a8b8ba","fixation","","","img/fixation.png","null","","","test","","","","","","","","","","","","","","","","","","","",""
"324","233466","SARL_v6","SARL_v6zm1favdk","63614a46bd1e8547e0a8b8ba","freq","","","img/blue_2bandit_a2.png","70","","70","test","1","","50","","","","square","circle","48","5","3","0.9375","","","","","","","",""
"null","233946","SARL_v6","SARL_v6zm1favdk","63614a46bd1e8547e0a8b8ba","freq_resp","","","img/blue_2bandit_a.png","70","img/blue_2bandit_a.png","70","test","","","","","","","","","","","3","","","","","","","","",""
"null","234099","SARL_v6","SARL_v6zm1favdk","63614a46bd1e8547e0a8b8ba","fixation","","","img/fixation.png","null","","","test","","","","","","","","","","","","","","","","","","","",""
"285","234386","SARL_v6","SARL_v6zm1favdk","63614a46bd1e8547e0a8b8ba","freq","","","img/blue_2bandit_a2.png","70","","70","test","1","","51","","","","square","circle","49","6","3","0.9387755102040817","","","","","","","",""
"null","234905","SARL_v6","SARL_v6zm1favdk","63614a46bd1e8547e0a8b8ba","freq_resp","","","img/blue_2bandit_a.png","70","img/blue_2bandit_a.png","70","test","","","","","","","","","","","3","","","","","","","","",""
"null","235058","SARL_v6","SARL_v6zm1favdk","63614a46bd1e8547e0a8b8ba","fixation","","","img/fixation.png","null","","","test","","","","","","","","","","","","","","","","","","","",""
"293","235355","SARL_v6","SARL_v6zm1favdk","63614a46bd1e8547e0a8b8ba","freq","","","img/blue_2bandit_a2.png","70","","70","test","1","","52","","","","square","circle","50","7","3","0.94","","","","","","","",""
"null","235864","SARL_v6","SARL_v6zm1favdk","63614a46bd1e8547e0a8b8ba","freq_resp","","","img/blue_2bandit_a.png","70","img/blue_2bandit_a.png","70","test","","","","","","","","","","","3","","","","","","","","",""
"null","236017","SARL_v6","SARL_v6zm1favdk","63614a46bd1e8547e0a8b8ba","fixation","","","img/fixation.png","null","","","test","","","","","","","","","","","","","","","","","","","",""
"318","236338","SARL_v6","SARL_v6zm1favdk","63614a46bd1e8547e0a8b8ba","freq","","","img/blue_2bandit_a2.png","70","","70","test","1","","53","","","","square","circle","51","8","3","0.9411764705882353","","","","","","","",""
"null","236824","SARL_v6","SARL_v6zm1favdk","63614a46bd1e8547e0a8b8ba","freq_resp","","","img/blue_2bandit_a.png","70","img/blue_2bandit_a.png","70","test","","","","","","","","","","","3","","","","","","","","",""
"null","236979","SARL_v6","SARL_v6zm1favdk","63614a46bd1e8547e0a8b8ba","fixation","","","img/fixation.png","null","","","test","","","","","","","","","","","","","","","","","","","",""
"301","237283","SARL_v6","SARL_v6zm1favdk","63614a46bd1e8547e0a8b8ba","freq","","","img/blue_2bandit_a2.png","70","","70","test","1","","54","","","","square","circle","52","9","3","0.9423076923076923","","","","","","","",""
"null","237785","SARL_v6","SARL_v6zm1favdk","63614a46bd1e8547e0a8b8ba","freq_resp","","","img/blue_2bandit_a.png","70","img/blue_2bandit_a.png","70","test","","","","","","","","","","","3","","","","","","","","",""
"null","237938","SARL_v6","SARL_v6zm1favdk","63614a46bd1e8547e0a8b8ba","fixation","","","img/fixation.png","null","","","test","","","","","","","","","","","","","","","","","","","",""
"303","238244","SARL_v6","SARL_v6zm1favdk","63614a46bd1e8547e0a8b8ba","freq","","","img/blue_2bandit_a2.png","70","","70","test","1","","55","","","","square","circle","53","10","3","0.9433962264150944","","","","","","","",""
"null","238743","SARL_v6","SARL_v6zm1favdk","63614a46bd1e8547e0a8b8ba","freq_resp","","","img/blue_2bandit_a.png","70","img/blue_2bandit_a.png","70","test","","","","","","","","","","","3","","","","","","","","",""
"null","238897","SARL_v6","SARL_v6zm1favdk","63614a46bd1e8547e0a8b8ba","fixation","","","img/fixation.png","null","","","test","","","","","","","","","","","","","","","","","","","",""
"311","239210","SARL_v6","SARL_v6zm1favdk","63614a46bd1e8547e0a8b8ba","freq","","","img/blue_2bandit_a2.png","70","","70","test","1","","56","","","","square","circle","54","11","3","0.9444444444444444","","","","","","","",""
"null","239702","SARL_v6","SARL_v6zm1favdk","63614a46bd1e8547e0a8b8ba","freq_resp","","","img/blue_2bandit_a.png","70","img/blue_2bandit_a.png","70","test","","","","","","","","","","","3","","","","","","","","",""
"null","239856","SARL_v6","SARL_v6zm1favdk","63614a46bd1e8547e0a8b8ba","fixation","","","img/fixation.png","null","","","test","","","","","","","","","","","","","","","","","","","",""
"319","240179","SARL_v6","SARL_v6zm1favdk","63614a46bd1e8547e0a8b8ba","freq","","","img/blue_2bandit_a2.png","70","","70","test","1","","57","","","","square","circle","55","12","3","0.9454545454545454","","","","","","","",""
"null","240677","SARL_v6","SARL_v6zm1favdk","63614a46bd1e8547e0a8b8ba","freq_resp","","","img/blue_2bandit_a.png","70","img/blue_2bandit_a.png","70","test","","","","","","","","","","","3","","","","","","","","",""
"null","240832","SARL_v6","SARL_v6zm1favdk","63614a46bd1e8547e0a8b8ba","fixation","","","img/fixation.png","null","","","test","","","","","","","","","","","","","","","","","","","",""
"330","241164","SARL_v6","SARL_v6zm1favdk","63614a46bd1e8547e0a8b8ba","freq","","","img/blue_2bandit_a2.png","70","","70","test","1","","58","","","","square","circle","56","13","3","0.9464285714285714","","","","","","","",""
"null","241638","SARL_v6","SARL_v6zm1favdk","63614a46bd1e8547e0a8b8ba","freq_resp","","","img/blue_2bandit_a.png","70","img/blue_2bandit_a.png","70","test","","","","","","","","","","","3","","","","","","","","",""
"null","241791","SARL_v6","SARL_v6zm1favdk","63614a46bd1e8547e0a8b8ba","fixation","","","img/fixation.png","null","","","test","","","","","","","","","","","","","","","","","","","",""
"697","242490","SARL_v6","SARL_v6zm1favdk","63614a46bd1e8547e0a8b8ba","infreq","","","img/orange_2bandit_a2.png","68","","68","test","1","","59","","","","square","circle","57","14","3","0.9473684210526315","","","","","","","",""
"null","242598","SARL_v6","SARL_v6zm1favdk","63614a46bd1e8547e0a8b8ba","infreq_resp","","","img/orange_2bandit_a.png","68","img/orange_2bandit_a.png","68","test","","","","","","","","","","","3","","","","","","","","",""
"null","242751","SARL_v6","SARL_v6zm1favdk","63614a46bd1e8547e0a8b8ba","fixation","","","img/fixation.png","null","","","test","","","","","","","","","","","","","","","","","","","",""
"456","243211","SARL_v6","SARL_v6zm1favdk","63614a46bd1e8547e0a8b8ba","freq","","","img/blue_2bandit_a2.png","70","","70","test","1","","60","","","","square","circle","58","15","3","0.9482758620689655","","","","","","","",""
"null","243578","SARL_v6","SARL_v6zm1favdk","63614a46bd1e8547e0a8b8ba","freq_resp","","","img/blue_2bandit_a.png","70","img/blue_2bandit_a.png","70","test","","","","","","","","","","","3","","","","","","","","",""
"null","243731","SARL_v6","SARL_v6zm1favdk","63614a46bd1e8547e0a8b8ba","fixation","","","img/fixation.png","null","","","test","","","","","","","","","","","","","","","","","","","",""
"444","244177","SARL_v6","SARL_v6zm1favdk","63614a46bd1e8547e0a8b8ba","freq","","","img/blue_2bandit_a2.png","70","","70","test","1","","61","","","","square","circle","59","16","3","0.9491525423728814","","","","","","","",""
"null","244538","SARL_v6","SARL_v6zm1favdk","63614a46bd1e8547e0a8b8ba","freq_resp","","","img/blue_2bandit_a.png","70","img/blue_2bandit_a.png","70","test","","","","","","","","","","","3","","","","","","","","",""
"null","244691","SARL_v6","SARL_v6zm1favdk","63614a46bd1e8547e0a8b8ba","fixation","","","img/fixation.png","null","","","test","","","","","","","","","","","","","","","","","","","",""
"373","245066","SARL_v6","SARL_v6zm1favdk","63614a46bd1e8547e0a8b8ba","freq","","","img/blue_2bandit_a2.png","70","","70","test","1","","62","","","","square","circle","60","17","3","0.95","","","","","","","",""
"null","245496","SARL_v6","SARL_v6zm1favdk","63614a46bd1e8547e0a8b8ba","freq_resp","","","img/blue_2bandit_a.png","70","img/blue_2bandit_a.png","70","test","","","","","","","","","","","3","","","","","","","","",""
"null","245649","SARL_v6","SARL_v6zm1favdk","63614a46bd1e8547e0a8b8ba","fixation","","","img/fixation.png","null","","","test","","","","","","","","","","","","","","","","","","","",""
"382","246033","SARL_v6","SARL_v6zm1favdk","63614a46bd1e8547e0a8b8ba","freq","","","img/blue_2bandit_a2.png","70","","70","test","1","","63","","","","square","circle","61","18","3","0.9508196721311475","","","","","","","",""
"null","246455","SARL_v6","SARL_v6zm1favdk","63614a46bd1e8547e0a8b8ba","freq_resp","","","img/blue_2bandit_a.png","70","img/blue_2bandit_a.png","70","test","","","","","","","","","","","3","","","","","","","","",""
"null","246607","SARL_v6","SARL_v6zm1favdk","63614a46bd1e8547e0a8b8ba","fixation","","","img/fixation.png","null","","","test","","","","","","","","","","","","","","","","","","","",""
"328","246937","SARL_v6","SARL_v6zm1favdk","63614a46bd1e8547e0a8b8ba","freq","","","img/blue_2bandit_a2.png","70","","70","test","1","","64","","","","square","circle","62","19","3","0.9516129032258065","","","","","","","",""
"null","247414","SARL_v6","SARL_v6zm1favdk","63614a46bd1e8547e0a8b8ba","freq_resp","","","img/blue_2bandit_a.png","70","img/blue_2bandit_a.png","70","test","","","","","","","","","","","3","","","","","","","","",""
"null","247567","SARL_v6","SARL_v6zm1favdk","63614a46bd1e8547e0a8b8ba","fixation","","","img/fixation.png","null","","","test","","","","","","","","","","","","","","","","","","","",""
"288","247859","SARL_v6","SARL_v6zm1favdk","63614a46bd1e8547e0a8b8ba","freq","","","img/blue_2bandit_a2.png","70","","70","test","1","","65","","","","square","circle","63","20","3","0.9523809523809523","","","","","","","",""
"null","248373","SARL_v6","SARL_v6zm1favdk","63614a46bd1e8547e0a8b8ba","freq_resp","","","img/blue_2bandit_a.png","70","img/blue_2bandit_a.png","70","test","","","","","","","","","","","3","","","","","","","","",""
"null","248527","SARL_v6","SARL_v6zm1favdk","63614a46bd1e8547e0a8b8ba","fixation","","","img/fixation.png","null","","","test","","","","","","","","","","","","","","","","","","","",""
"575","249105","SARL_v6","SARL_v6zm1favdk","63614a46bd1e8547e0a8b8ba","infreq","","","img/orange_2bandit_a2.png","68","","68","test","1","","66","","","","square","circle","64","21","3","0.953125","","","","","","","",""
"null","249334","SARL_v6","SARL_v6zm1favdk","63614a46bd1e8547e0a8b8ba","infreq_resp","","","img/orange_2bandit_a.png","68","img/orange_2bandit_a.png","68","test","","","","","","","","","","","3","","","","","","","","",""
"null","249487","SARL_v6","SARL_v6zm1favdk","63614a46bd1e8547e0a8b8ba","fixation","","","img/fixation.png","null","","","test","","","","","","","","","","","","","","","","","","","",""
"416","249906","SARL_v6","SARL_v6zm1favdk","63614a46bd1e8547e0a8b8ba","freq","","","img/blue_2bandit_a2.png","68","","70","test","0","","67","","","","square","circle","65","22","3","0.9384615384615385","","","","","","","",""
"null","250293","SARL_v6","SARL_v6zm1favdk","63614a46bd1e8547e0a8b8ba","freq_resp","","","img/blue_2bandit_a.png","68","img/blue_2bandit_a.png","70","test","","","","","","","","","","","3","","","","","","","","",""
"null","250447","SARL_v6","SARL_v6zm1favdk","63614a46bd1e8547e0a8b8ba","fixation","","","img/fixation.png","null","","","test","","","","","","","","","","","","","","","","","","","",""
"801","251249","SARL_v6","SARL_v6zm1favdk","63614a46bd1e8547e0a8b8ba","rl","","","img/black_2bandit_a2.png","75","","0","test","","","68","","","-8","square","circle","","0","3","","75","-8","-4","-4","-8","circle","3","0"
"null","252002","SARL_v6","SARL_v6zm1favdk","63614a46bd1e8547e0a8b8ba","feedback","","","<div class=""verylowPoints""> -8 </div>","null","","na","test","","","NaN","","","","","","","","3","","75","","","","","","3",""
"700","252705","SARL_v6","SARL_v6zm1favdk","63614a46bd1e8547e0a8b8ba","freq","","","img/blue_2bandit_a2.png","70","","70","test","1","","69","","","","square","circle","66","1","4","0.9393939393939394","","","","","","","",""
"null","252810","SARL_v6","SARL_v6zm1favdk","63614a46bd1e8547e0a8b8ba","freq_resp","","","img/blue_2bandit_a.png","70","img/blue_2bandit_a.png","70","test","","","","","","","","","","","4","","","","","","","","",""
"null","252967","SARL_v6","SARL_v6zm1favdk","63614a46bd1e8547e0a8b8ba","fixation","","","img/fixation.png","null","","","test","","","","","","","","","","","","","","","","","","","",""
"338","253306","SARL_v6","SARL_v6zm1favdk","63614a46bd1e8547e0a8b8ba","freq","","","img/blue_2bandit_a2.png","70","","70","test","1","","70","","","","square","circle","67","2","4","0.9402985074626866","","","","","","","",""
"null","253772","SARL_v6","SARL_v6zm1favdk","63614a46bd1e8547e0a8b8ba","freq_resp","","","img/blue_2bandit_a.png","70","img/blue_2bandit_a.png","70","test","","","","","","","","","","","4","","","","","","","","",""
"null","253926","SARL_v6","SARL_v6zm1favdk","63614a46bd1e8547e0a8b8ba","fixation","","","img/fixation.png","null","","","test","","","","","","","","","","","","","","","","","","","",""
"305","254234","SARL_v6","SARL_v6zm1favdk","63614a46bd1e8547e0a8b8ba","freq","","","img/blue_2bandit_a2.png","70","","70","test","1","","71","","","","square","circle","68","3","4","0.9411764705882353","","","","","","","",""
"null","254733","SARL_v6","SARL_v6zm1favdk","63614a46bd1e8547e0a8b8ba","freq_resp","","","img/blue_2bandit_a.png","70","img/blue_2bandit_a.png","70","test","","","","","","","","","","","4","","","","","","","","",""
"null","254886","SARL_v6","SARL_v6zm1favdk","63614a46bd1e8547e0a8b8ba","fixation","","","img/fixation.png","null","","","test","","","","","","","","","","","","","","","","","","","",""
"536","255426","SARL_v6","SARL_v6zm1favdk","63614a46bd1e8547e0a8b8ba","freq","","","img/blue_2bandit_a2.png","70","","70","test","1","","72","","","","square","circle","69","4","4","0.9420289855072463","","","","","","","",""
"null","255694","SARL_v6","SARL_v6zm1favdk","63614a46bd1e8547e0a8b8ba","freq_resp","","","img/blue_2bandit_a.png","70","img/blue_2bandit_a.png","70","test","","","","","","","","","","","4","","","","","","","","",""
"null","255848","SARL_v6","SARL_v6zm1favdk","63614a46bd1e8547e0a8b8ba","fixation","","","img/fixation.png","null","","","test","","","","","","","","","","","","","","","","","","","",""
"334","256185","SARL_v6","SARL_v6zm1favdk","63614a46bd1e8547e0a8b8ba","freq","","","img/blue_2bandit_a2.png","70","","70","test","1","","73","","","","square","circle","70","5","4","0.9428571428571428","","","","","","","",""
"null","256654","SARL_v6","SARL_v6zm1favdk","63614a46bd1e8547e0a8b8ba","freq_resp","","","img/blue_2bandit_a.png","70","img/blue_2bandit_a.png","70","test","","","","","","","","","","","4","","","","","","","","",""
"null","256808","SARL_v6","SARL_v6zm1favdk","63614a46bd1e8547e0a8b8ba","fixation","","","img/fixation.png","null","","","test","","","","","","","","","","","","","","","","","","","",""
"383","257193","SARL_v6","SARL_v6zm1favdk","63614a46bd1e8547e0a8b8ba","freq","","","img/blue_2bandit_a2.png","70","","70","test","1","","74","","","","square","circle","71","6","4","0.9436619718309859","","","","","","","",""
"null","257613","SARL_v6","SARL_v6zm1favdk","63614a46bd1e8547e0a8b8ba","freq_resp","","","img/blue_2bandit_a.png","70","img/blue_2bandit_a.png","70","test","","","","","","","","","","","4","","","","","","","","",""
"null","257766","SARL_v6","SARL_v6zm1favdk","63614a46bd1e8547e0a8b8ba","fixation","","","img/fixation.png","null","","","test","","","","","","","","","","","","","","","","","","","",""
"320","258091","SARL_v6","SARL_v6zm1favdk","63614a46bd1e8547e0a8b8ba","freq","","","img/blue_2bandit_a2.png","70","","70","test","1","","75","","","","square","circle","72","7","4","0.9444444444444444","","","","","","","",""
"null","258579","SARL_v6","SARL_v6zm1favdk","63614a46bd1e8547e0a8b8ba","freq_resp","","","img/blue_2bandit_a.png","70","img/blue_2bandit_a.png","70","test","","","","","","","","","","","4","","","","","","","","",""
"null","258734","SARL_v6","SARL_v6zm1favdk","63614a46bd1e8547e0a8b8ba","fixation","","","img/fixation.png","null","","","test","","","","","","","","","","","","","","","","","","","",""
"298","259034","SARL_v6","SARL_v6zm1favdk","63614a46bd1e8547e0a8b8ba","freq","","","img/blue_2bandit_a2.png","70","","70","test","1","","76","","","","square","circle","73","8","4","0.9452054794520548","","","","","","","",""
"null","259540","SARL_v6","SARL_v6zm1favdk","63614a46bd1e8547e0a8b8ba","freq_resp","","","img/blue_2bandit_a.png","70","img/blue_2bandit_a.png","70","test","","","","","","","","","","","4","","","","","","","","",""
"null","259693","SARL_v6","SARL_v6zm1favdk","63614a46bd1e8547e0a8b8ba","fixation","","","img/fixation.png","null","","","test","","","","","","","","","","","","","","","","","","","",""
"330","260025","SARL_v6","SARL_v6zm1favdk","63614a46bd1e8547e0a8b8ba","freq","","","img/blue_2bandit_a2.png","70","","70","test","1","","77","","","","square","circle","74","9","4","0.9459459459459459","","","","","","","",""
"null","260500","SARL_v6","SARL_v6zm1favdk","63614a46bd1e8547e0a8b8ba","freq_resp","","","img/blue_2bandit_a.png","70","img/blue_2bandit_a.png","70","test","","","","","","","","","","","4","","","","","","","","",""
"null","260654","SARL_v6","SARL_v6zm1favdk","63614a46bd1e8547e0a8b8ba","fixation","","","img/fixation.png","null","","","test","","","","","","","","","","","","","","","","","","","",""
"342","260999","SARL_v6","SARL_v6zm1favdk","63614a46bd1e8547e0a8b8ba","freq","","","img/blue_2bandit_a2.png","70","","70","test","1","","78","","","","square","circle","75","10","4","0.9466666666666667","","","","","","","",""
"null","261460","SARL_v6","SARL_v6zm1favdk","63614a46bd1e8547e0a8b8ba","freq_resp","","","img/blue_2bandit_a.png","70","img/blue_2bandit_a.png","70","test","","","","","","","","","","","4","","","","","","","","",""
"null","261613","SARL_v6","SARL_v6zm1favdk","63614a46bd1e8547e0a8b8ba","fixation","","","img/fixation.png","null","","","test","","","","","","","","","","","","","","","","","","","",""
"314","261931","SARL_v6","SARL_v6zm1favdk","63614a46bd1e8547e0a8b8ba","freq","","","img/blue_2bandit_a2.png","70","","70","test","1","","79","","","","square","circle","76","11","4","0.9473684210526315","","","","","","","",""
"null","262420","SARL_v6","SARL_v6zm1favdk","63614a46bd1e8547e0a8b8ba","freq_resp","","","img/blue_2bandit_a.png","70","img/blue_2bandit_a.png","70","test","","","","","","","","","","","4","","","","","","","","",""
"null","262574","SARL_v6","SARL_v6zm1favdk","63614a46bd1e8547e0a8b8ba","fixation","","","img/fixation.png","null","","","test","","","","","","","","","","","","","","","","","","","",""
"383","262961","SARL_v6","SARL_v6zm1favdk","63614a46bd1e8547e0a8b8ba","freq","","","img/blue_2bandit_a2.png","70","","70","test","1","","80","","","","square","circle","77","12","4","0.948051948051948","","","","","","","",""
"null","263383","SARL_v6","SARL_v6zm1favdk","63614a46bd1e8547e0a8b8ba","freq_resp","","","img/blue_2bandit_a.png","70","img/blue_2bandit_a.png","70","test","","","","","","","","","","","4","","","","","","","","",""
"null","263537","SARL_v6","SARL_v6zm1favdk","63614a46bd1e8547e0a8b8ba","fixation","","","img/fixation.png","null","","","test","","","","","","","","","","","","","","","","","","","",""
"333","263873","SARL_v6","SARL_v6zm1favdk","63614a46bd1e8547e0a8b8ba","freq","","","img/blue_2bandit_a2.png","70","","70","test","1","","81","","","","square","circle","78","13","4","0.9487179487179487","","","","","","","",""
"null","264344","SARL_v6","SARL_v6zm1favdk","63614a46bd1e8547e0a8b8ba","freq_resp","","","img/blue_2bandit_a.png","70","img/blue_2bandit_a.png","70","test","","","","","","","","","","","4","","","","","","","","",""
"null","264498","SARL_v6","SARL_v6zm1favdk","63614a46bd1e8547e0a8b8ba","fixation","","","img/fixation.png","null","","","test","","","","","","","","","","","","","","","","","","","",""
"325","264825","SARL_v6","SARL_v6zm1favdk","63614a46bd1e8547e0a8b8ba","freq","","","img/blue_2bandit_a2.png","70","","70","test","1","","82","","","","square","circle","79","14","4","0.9493670886075949","","","","","","","",""
"null","265305","SARL_v6","SARL_v6zm1favdk","63614a46bd1e8547e0a8b8ba","freq_resp","","","img/blue_2bandit_a.png","70","img/blue_2bandit_a.png","70","test","","","","","","","","","","","4","","","","","","","","",""
"null","265463","SARL_v6","SARL_v6zm1favdk","63614a46bd1e8547e0a8b8ba","fixation","","","img/fixation.png","null","","","test","","","","","","","","","","","","","","","","","","","",""
"288","265754","SARL_v6","SARL_v6zm1favdk","63614a46bd1e8547e0a8b8ba","freq","","","img/blue_2bandit_a2.png","70","","70","test","1","","83","","","","square","circle","80","15","4","0.95","","","","","","","",""
"null","266271","SARL_v6","SARL_v6zm1favdk","63614a46bd1e8547e0a8b8ba","freq_resp","","","img/blue_2bandit_a.png","70","img/blue_2bandit_a.png","70","test","","","","","","","","","","","4","","","","","","","","",""
"null","266424","SARL_v6","SARL_v6zm1favdk","63614a46bd1e8547e0a8b8ba","fixation","","","img/fixation.png","null","","","test","","","","","","","","","","","","","","","","","","","",""
"246","266674","SARL_v6","SARL_v6zm1favdk","63614a46bd1e8547e0a8b8ba","freq","","","img/blue_2bandit_a2.png","70","","70","test","1","","84","","","","square","circle","81","16","4","0.9506172839506173","","","","","","","",""
"null","267230","SARL_v6","SARL_v6zm1favdk","63614a46bd1e8547e0a8b8ba","freq_resp","","","img/blue_2bandit_a.png","70","img/blue_2bandit_a.png","70","test","","","","","","","","","","","4","","","","","","","","",""
"null","267385","SARL_v6","SARL_v6zm1favdk","63614a46bd1e8547e0a8b8ba","fixation","","","img/fixation.png","null","","","test","","","","","","","","","","","","","","","","","","","",""
"325","267714","SARL_v6","SARL_v6zm1favdk","63614a46bd1e8547e0a8b8ba","freq","","","img/blue_2bandit_a2.png","70","","70","test","1","","85","","","","square","circle","82","17","4","0.9512195121951219","","","","","","","",""
"null","268192","SARL_v6","SARL_v6zm1favdk","63614a46bd1e8547e0a8b8ba","freq_resp","","","img/blue_2bandit_a.png","70","img/blue_2bandit_a.png","70","test","","","","","","","","","","","4","","","","","","","","",""
"null","268349","SARL_v6","SARL_v6zm1favdk","63614a46bd1e8547e0a8b8ba","fixation","","","img/fixation.png","null","","","test","","","","","","","","","","","","","","","","","","","",""
"290","268642","SARL_v6","SARL_v6zm1favdk","63614a46bd1e8547e0a8b8ba","freq","","","img/blue_2bandit_a2.png","70","","70","test","1","","86","","","","square","circle","83","18","4","0.9518072289156626","","","","","","","",""
"null","269155","SARL_v6","SARL_v6zm1favdk","63614a46bd1e8547e0a8b8ba","freq_resp","","","img/blue_2bandit_a.png","70","img/blue_2bandit_a.png","70","test","","","","","","","","","","","4","","","","","","","","",""
"null","269308","SARL_v6","SARL_v6zm1favdk","63614a46bd1e8547e0a8b8ba","fixation","","","img/fixation.png","null","","","test","","","","","","","","","","","","","","","","","","","",""
"290","269602","SARL_v6","SARL_v6zm1favdk","63614a46bd1e8547e0a8b8ba","freq","","","img/blue_2bandit_a2.png","70","","70","test","1","","87","","","","square","circle","84","19","4","0.9523809523809523","","","","","","","",""
"null","270116","SARL_v6","SARL_v6zm1favdk","63614a46bd1e8547e0a8b8ba","freq_resp","","","img/blue_2bandit_a.png","70","img/blue_2bandit_a.png","70","test","","","","","","","","","","","4","","","","","","","","",""
"null","270271","SARL_v6","SARL_v6zm1favdk","63614a46bd1e8547e0a8b8ba","fixation","","","img/fixation.png","null","","","test","","","","","","","","","","","","","","","","","","","",""
"296","270570","SARL_v6","SARL_v6zm1favdk","63614a46bd1e8547e0a8b8ba","freq","","","img/blue_2bandit_a2.png","70","","70","test","1","","88","","","","square","circle","85","20","4","0.9529411764705882","","","","","","","",""
"null","271076","SARL_v6","SARL_v6zm1favdk","63614a46bd1e8547e0a8b8ba","freq_resp","","","img/blue_2bandit_a.png","70","img/blue_2bandit_a.png","70","test","","","","","","","","","","","4","","","","","","","","",""
"null","271229","SARL_v6","SARL_v6zm1favdk","63614a46bd1e8547e0a8b8ba","fixation","","","img/fixation.png","null","","","test","","","","","","","","","","","","","","","","","","","",""
"482","271714","SARL_v6","SARL_v6zm1favdk","63614a46bd1e8547e0a8b8ba","infreq","","","img/orange_2bandit_a2.png","68","","68","test","1","","89","","","","square","circle","86","21","4","0.9534883720930233","","","","","","","",""
"null","272034","SARL_v6","SARL_v6zm1favdk","63614a46bd1e8547e0a8b8ba","infreq_resp","","","img/orange_2bandit_a.png","68","img/orange_2bandit_a.png","68","test","","","","","","","","","","","4","","","","","","","","",""
"null","272187","SARL_v6","SARL_v6zm1favdk","63614a46bd1e8547e0a8b8ba","fixation","","","img/fixation.png","null","","","test","","","","","","","","","","","","","","","","","","","",""
"548","272738","SARL_v6","SARL_v6zm1favdk","63614a46bd1e8547e0a8b8ba","freq","","","img/blue_2bandit_a2.png","70","","70","test","1","","90","","","","square","circle","87","22","4","0.9540229885057471","","","","","","","",""
"null","272993","SARL_v6","SARL_v6zm1favdk","63614a46bd1e8547e0a8b8ba","freq_resp","","","img/blue_2bandit_a.png","70","img/blue_2bandit_a.png","70","test","","","","","","","","","","","4","","","","","","","","",""
"null","273145","SARL_v6","SARL_v6zm1favdk","63614a46bd1e8547e0a8b8ba","fixation","","","img/fixation.png","null","","","test","","","","","","","","","","","","","","","","","","","",""
"541","273690","SARL_v6","SARL_v6zm1favdk","63614a46bd1e8547e0a8b8ba","infreq","","","img/orange_2bandit_a2.png","68","","68","test","1","","91","","","","square","circle","88","23","4","0.9545454545454546","","","","","","","",""
"null","273957","SARL_v6","SARL_v6zm1favdk","63614a46bd1e8547e0a8b8ba","infreq_resp","","","img/orange_2bandit_a.png","68","img/orange_2bandit_a.png","68","test","","","","","","","","","","","4","","","","","","","","",""
"null","274110","SARL_v6","SARL_v6zm1favdk","63614a46bd1e8547e0a8b8ba","fixation","","","img/fixation.png","null","","","test","","","","","","","","","","","","","","","","","","","",""
"450","274561","SARL_v6","SARL_v6zm1favdk","63614a46bd1e8547e0a8b8ba","freq","","","img/blue_2bandit_a2.png","70","","70","test","1","","92","","","","square","circle","89","24","4","0.9550561797752809","","","","","","","",""
"null","274916","SARL_v6","SARL_v6zm1favdk","63614a46bd1e8547e0a8b8ba","freq_resp","","","img/blue_2bandit_a.png","70","img/blue_2bandit_a.png","70","test","","","","","","","","","","","4","","","","","","","","",""
"null","275068","SARL_v6","SARL_v6zm1favdk","63614a46bd1e8547e0a8b8ba","fixation","","","img/fixation.png","null","","","test","","","","","","","","","","","","","","","","","","","",""
"354","275425","SARL_v6","SARL_v6zm1favdk","63614a46bd1e8547e0a8b8ba","freq","","","img/blue_2bandit_a2.png","70","","70","test","1","","93","","","","square","circle","90","25","4","0.9555555555555556","","","","","","","",""
"null","275875","SARL_v6","SARL_v6zm1favdk","63614a46bd1e8547e0a8b8ba","freq_resp","","","img/blue_2bandit_a.png","70","img/blue_2bandit_a.png","70","test","","","","","","","","","","","4","","","","","","","","",""
"null","276027","SARL_v6","SARL_v6zm1favdk","63614a46bd1e8547e0a8b8ba","fixation","","","img/fixation.png","null","","","test","","","","","","","","","","","","","","","","","","","",""
"851","276881","SARL_v6","SARL_v6zm1favdk","63614a46bd1e8547e0a8b8ba","rl","","","img/black_2bandit_a2.png","74","","0","test","","","94","","","0","square","circle","","0","4","","74","-12","0","0","-12","square","4","0"
"null","277635","SARL_v6","SARL_v6zm1favdk","63614a46bd1e8547e0a8b8ba","feedback","","","<div class=""verylowPoints_sq""> 0 </div>","null","","na","test","","","NaN","","","","","","","","4","","74","","","","","","4",""
"null","278439","SARL_v6","SARL_v6zm1favdk","63614a46bd1e8547e0a8b8ba","freq","","","img/blue_2bandit_a2.png","null","","70","test","0","","95","","","","square","circle","91","1","5","0.945054945054945","","","","","","","",""
"null","278591","SARL_v6","SARL_v6zm1favdk","63614a46bd1e8547e0a8b8ba","fixation","","","img/fixation.png","null","","","test","","","","","","","","","","","","","","","","","","","",""
"551","279145","SARL_v6","SARL_v6zm1favdk","63614a46bd1e8547e0a8b8ba","freq","","","img/blue_2bandit_a2.png","70","","70","test","1","","96","","","","square","circle","92","2","5","0.9456521739130435","","","","","","","",""
"null","279398","SARL_v6","SARL_v6zm1favdk","63614a46bd1e8547e0a8b8ba","freq_resp","","","img/blue_2bandit_a.png","70","img/blue_2bandit_a.png","70","test","","","","","","","","","","","5","","","","","","","","",""
"null","279552","SARL_v6","SARL_v6zm1favdk","63614a46bd1e8547e0a8b8ba","fixation","","","img/fixation.png","null","","","test","","","","","","","","","","","","","","","","","","","",""
"438","279994","SARL_v6","SARL_v6zm1favdk","63614a46bd1e8547e0a8b8ba","freq","","","img/blue_2bandit_a2.png","70","","70","test","1","","97","","","","square","circle","93","3","5","0.946236559139785","","","","","","","",""
"null","280359","SARL_v6","SARL_v6zm1favdk","63614a46bd1e8547e0a8b8ba","freq_resp","","","img/blue_2bandit_a.png","70","img/blue_2bandit_a.png","70","test","","","","","","","","","","","5","","","","","","","","",""
"null","280513","SARL_v6","SARL_v6zm1favdk","63614a46bd1e8547e0a8b8ba","fixation","","","img/fixation.png","null","","","test","","","","","","","","","","","","","","","","","","","",""
"325","280841","SARL_v6","SARL_v6zm1favdk","63614a46bd1e8547e0a8b8ba","freq","","","img/blue_2bandit_a2.png","70","","70","test","1","","98","","","","square","circle","94","4","5","0.9468085106382979","","","","","","","",""
"null","281321","SARL_v6","SARL_v6zm1favdk","63614a46bd1e8547e0a8b8ba","freq_resp","","","img/blue_2bandit_a.png","70","img/blue_2bandit_a.png","70","test","","","","","","","","","","","5","","","","","","","","",""
"null","281474","SARL_v6","SARL_v6zm1favdk","63614a46bd1e8547e0a8b8ba","fixation","","","img/fixation.png","null","","","test","","","","","","","","","","","","","","","","","","","",""
"355","281833","SARL_v6","SARL_v6zm1favdk","63614a46bd1e8547e0a8b8ba","freq","","","img/blue_2bandit_a2.png","70","","70","test","1","","99","","","","square","circle","95","5","5","0.9473684210526315","","","","","","","",""
"null","282282","SARL_v6","SARL_v6zm1favdk","63614a46bd1e8547e0a8b8ba","freq_resp","","","img/blue_2bandit_a.png","70","img/blue_2bandit_a.png","70","test","","","","","","","","","","","5","","","","","","","","",""
"null","282434","SARL_v6","SARL_v6zm1favdk","63614a46bd1e8547e0a8b8ba","fixation","","","img/fixation.png","null","","","test","","","","","","","","","","","","","","","","","","","",""
"331","282769","SARL_v6","SARL_v6zm1favdk","63614a46bd1e8547e0a8b8ba","freq","","","img/blue_2bandit_a2.png","70","","70","test","1","","100","","","","square","circle","96","6","5","0.9479166666666666","","","","","","","",""
"null","283243","SARL_v6","SARL_v6zm1favdk","63614a46bd1e8547e0a8b8ba","freq_resp","","","img/blue_2bandit_a.png","70","img/blue_2bandit_a.png","70","test","","","","","","","","","","","5","","","","","","","","",""
"null","283396","SARL_v6","SARL_v6zm1favdk","63614a46bd1e8547e0a8b8ba","fixation","","","img/fixation.png","null","","","test","","","","","","","","","","","","","","","","","","","",""
"329","283729","SARL_v6","SARL_v6zm1favdk","63614a46bd1e8547e0a8b8ba","freq","","","img/blue_2bandit_a2.png","70","","70","test","1","","101","","","","square","circle","97","7","5","0.9484536082474226","","","","","","","",""
"null","284207","SARL_v6","SARL_v6zm1favdk","63614a46bd1e8547e0a8b8ba","freq_resp","","","img/blue_2bandit_a.png","70","img/blue_2bandit_a.png","70","test","","","","","","","","","","","5","","","","","","","","",""
"null","284359","SARL_v6","SARL_v6zm1favdk","63614a46bd1e8547e0a8b8ba","fixation","","","img/fixation.png","null","","","test","","","","","","","","","","","","","","","","","","","",""
"351","284714","SARL_v6","SARL_v6zm1favdk","63614a46bd1e8547e0a8b8ba","freq","","","img/blue_2bandit_a2.png","70","","70","test","1","","102","","","","square","circle","98","8","5","0.9489795918367347","","","","","","","",""
"null","285166","SARL_v6","SARL_v6zm1favdk","63614a46bd1e8547e0a8b8ba","freq_resp","","","img/blue_2bandit_a.png","70","img/blue_2bandit_a.png","70","test","","","","","","","","","","","5","","","","","","","","",""
"null","285318","SARL_v6","SARL_v6zm1favdk","63614a46bd1e8547e0a8b8ba","fixation","","","img/fixation.png","null","","","test","","","","","","","","","","","","","","","","","","","",""
"280","285601","SARL_v6","SARL_v6zm1favdk","63614a46bd1e8547e0a8b8ba","freq","","","img/blue_2bandit_a2.png","70","","70","test","1","","103","","","","square","circle","99","9","5","0.9494949494949495","","","","","","","",""
"null","286124","SARL_v6","SARL_v6zm1favdk","63614a46bd1e8547e0a8b8ba","freq_resp","","","img/blue_2bandit_a.png","70","img/blue_2bandit_a.png","70","test","","","","","","","","","","","5","","","","","","","","",""
"null","286277","SARL_v6","SARL_v6zm1favdk","63614a46bd1e8547e0a8b8ba","fixation","","","img/fixation.png","null","","","test","","","","","","","","","","","","","","","","","","","",""
"329","286609","SARL_v6","SARL_v6zm1favdk","63614a46bd1e8547e0a8b8ba","freq","","","img/blue_2bandit_a2.png","70","","70","test","1","","104","","","","square","circle","100","10","5","0.95","","","","","","","",""
"null","287083","SARL_v6","SARL_v6zm1favdk","63614a46bd1e8547e0a8b8ba","freq_resp","","","img/blue_2bandit_a.png","70","img/blue_2bandit_a.png","70","test","","","","","","","","","","","5","","","","","","","","",""
"null","287237","SARL_v6","SARL_v6zm1favdk","63614a46bd1e8547e0a8b8ba","fixation","","","img/fixation.png","null","","","test","","","","","","","","","","","","","","","","","","","",""
"328","287570","SARL_v6","SARL_v6zm1favdk","63614a46bd1e8547e0a8b8ba","freq","","","img/blue_2bandit_a2.png","70","","70","test","1","","105","","","","square","circle","101","11","5","0.9504950495049505","","","","","","","",""
"null","288063","SARL_v6","SARL_v6zm1favdk","63614a46bd1e8547e0a8b8ba","freq_resp","","","img/blue_2bandit_a.png","70","img/blue_2bandit_a.png","70","test","","","","","","","","","","","5","","","","","","","","",""
"null","288215","SARL_v6","SARL_v6zm1favdk","63614a46bd1e8547e0a8b8ba","fixation","","","img/fixation.png","null","","","test","","","","","","","","","","","","","","","","","","","",""
"375","288594","SARL_v6","SARL_v6zm1favdk","63614a46bd1e8547e0a8b8ba","freq","","","img/blue_2bandit_a2.png","70","","70","test","1","","106","","","","square","circle","102","12","5","0.9509803921568627","","","","","","","",""
"null","289025","SARL_v6","SARL_v6zm1favdk","63614a46bd1e8547e0a8b8ba","freq_resp","","","img/blue_2bandit_a.png","70","img/blue_2bandit_a.png","70","test","","","","","","","","","","","5","","","","","","","","",""
"null","289178","SARL_v6","SARL_v6zm1favdk","63614a46bd1e8547e0a8b8ba","fixation","","","img/fixation.png","null","","","test","","","","","","","","","","","","","","","","","","","",""
"363","289544","SARL_v6","SARL_v6zm1favdk","63614a46bd1e8547e0a8b8ba","freq","","","img/blue_2bandit_a2.png","70","","70","test","1","","107","","","","square","circle","103","13","5","0.9514563106796117","","","","","","","",""
"null","289985","SARL_v6","SARL_v6zm1favdk","63614a46bd1e8547e0a8b8ba","freq_resp","","","img/blue_2bandit_a.png","70","img/blue_2bandit_a.png","70","test","","","","","","","","","","","5","","","","","","","","",""
"null","290137","SARL_v6","SARL_v6zm1favdk","63614a46bd1e8547e0a8b8ba","fixation","","","img/fixation.png","null","","","test","","","","","","","","","","","","","","","","","","","",""
"300","290440","SARL_v6","SARL_v6zm1favdk","63614a46bd1e8547e0a8b8ba","freq","","","img/blue_2bandit_a2.png","70","","70","test","1","","108","","","","square","circle","104","14","5","0.9519230769230769","","","","","","","",""
"null","290943","SARL_v6","SARL_v6zm1favdk","63614a46bd1e8547e0a8b8ba","freq_resp","","","img/blue_2bandit_a.png","70","img/blue_2bandit_a.png","70","test","","","","","","","","","","","5","","","","","","","","",""
"null","291096","SARL_v6","SARL_v6zm1favdk","63614a46bd1e8547e0a8b8ba","fixation","","","img/fixation.png","null","","","test","","","","","","","","","","","","","","","","","","","",""
"335","291432","SARL_v6","SARL_v6zm1favdk","63614a46bd1e8547e0a8b8ba","freq","","","img/blue_2bandit_a2.png","70","","70","test","1","","109","","","","square","circle","105","15","5","0.9523809523809523","","","","","","","",""
"null","291901","SARL_v6","SARL_v6zm1favdk","63614a46bd1e8547e0a8b8ba","freq_resp","","","img/blue_2bandit_a.png","70","img/blue_2bandit_a.png","70","test","","","","","","","","","","","5","","","","","","","","",""
"null","292054","SARL_v6","SARL_v6zm1favdk","63614a46bd1e8547e0a8b8ba","fixation","","","img/fixation.png","null","","","test","","","","","","","","","","","","","","","","","","","",""
"328","292384","SARL_v6","SARL_v6zm1favdk","63614a46bd1e8547e0a8b8ba","freq","","","img/blue_2bandit_a2.png","70","","70","test","1","","110","","","","square","circle","106","16","5","0.9528301886792453","","","","","","","",""
"null","292859","SARL_v6","SARL_v6zm1favdk","63614a46bd1e8547e0a8b8ba","freq_resp","","","img/blue_2bandit_a.png","70","img/blue_2bandit_a.png","70","test","","","","","","","","","","","5","","","","","","","","",""
"null","293012","SARL_v6","SARL_v6zm1favdk","63614a46bd1e8547e0a8b8ba","fixation","","","img/fixation.png","null","","","test","","","","","","","","","","","","","","","","","","","",""
"307","293321","SARL_v6","SARL_v6zm1favdk","63614a46bd1e8547e0a8b8ba","freq","","","img/blue_2bandit_a2.png","70","","70","test","1","","111","","","","square","circle","107","17","5","0.9532710280373832","","","","","","","",""
"null","293817","SARL_v6","SARL_v6zm1favdk","63614a46bd1e8547e0a8b8ba","freq_resp","","","img/blue_2bandit_a.png","70","img/blue_2bandit_a.png","70","test","","","","","","","","","","","5","","","","","","","","",""
"null","293970","SARL_v6","SARL_v6zm1favdk","63614a46bd1e8547e0a8b8ba","fixation","","","img/fixation.png","null","","","test","","","","","","","","","","","","","","","","","","","",""
"355","294330","SARL_v6","SARL_v6zm1favdk","63614a46bd1e8547e0a8b8ba","freq","","","img/blue_2bandit_a2.png","70","","70","test","1","","112","","","","square","circle","108","18","5","0.9537037037037037","","","","","","","",""
"null","294778","SARL_v6","SARL_v6zm1favdk","63614a46bd1e8547e0a8b8ba","freq_resp","","","img/blue_2bandit_a.png","70","img/blue_2bandit_a.png","70","test","","","","","","","","","","","5","","","","","","","","",""
"null","294931","SARL_v6","SARL_v6zm1favdk","63614a46bd1e8547e0a8b8ba","fixation","","","img/fixation.png","null","","","test","","","","","","","","","","","","","","","","","","","",""
"316","295251","SARL_v6","SARL_v6zm1favdk","63614a46bd1e8547e0a8b8ba","freq","","","img/blue_2bandit_a2.png","70","","70","test","1","","113","","","","square","circle","109","19","5","0.9541284403669725","","","","","","","",""
"null","295737","SARL_v6","SARL_v6zm1favdk","63614a46bd1e8547e0a8b8ba","freq_resp","","","img/blue_2bandit_a.png","70","img/blue_2bandit_a.png","70","test","","","","","","","","","","","5","","","","","","","","",""
"null","295891","SARL_v6","SARL_v6zm1favdk","63614a46bd1e8547e0a8b8ba","fixation","","","img/fixation.png","null","","","test","","","","","","","","","","","","","","","","","","","",""
"298","296193","SARL_v6","SARL_v6zm1favdk","63614a46bd1e8547e0a8b8ba","freq","","","img/blue_2bandit_a2.png","70","","70","test","1","","114","","","","square","circle","110","20","5","0.9545454545454546","","","","","","","",""
"null","296698","SARL_v6","SARL_v6zm1favdk","63614a46bd1e8547e0a8b8ba","freq_resp","","","img/blue_2bandit_a.png","70","img/blue_2bandit_a.png","70","test","","","","","","","","","","","5","","","","","","","","",""
"null","296853","SARL_v6","SARL_v6zm1favdk","63614a46bd1e8547e0a8b8ba","fixation","","","img/fixation.png","null","","","test","","","","","","","","","","","","","","","","","","","",""
"560","297416","SARL_v6","SARL_v6zm1favdk","63614a46bd1e8547e0a8b8ba","infreq","","","img/orange_2bandit_a2.png","68","","68","test","1","","115","","","","square","circle","111","21","5","0.954954954954955","","","","","","","",""
"null","297659","SARL_v6","SARL_v6zm1favdk","63614a46bd1e8547e0a8b8ba","infreq_resp","","","img/orange_2bandit_a.png","68","img/orange_2bandit_a.png","68","test","","","","","","","","","","","5","","","","","","","","",""
"null","297813","SARL_v6","SARL_v6zm1favdk","63614a46bd1e8547e0a8b8ba","fixation","","","img/fixation.png","null","","","test","","","","","","","","","","","","","","","","","","","",""
"408","298223","SARL_v6","SARL_v6zm1favdk","63614a46bd1e8547e0a8b8ba","infreq","","","img/orange_2bandit_a2.png","68","","68","test","1","","116","","","","square","circle","112","22","5","0.9553571428571429","","","","","","","",""
"null","298621","SARL_v6","SARL_v6zm1favdk","63614a46bd1e8547e0a8b8ba","infreq_resp","","","img/orange_2bandit_a.png","68","img/orange_2bandit_a.png","68","test","","","","","","","","","","","5","","","","","","","","",""
"null","298773","SARL_v6","SARL_v6zm1favdk","63614a46bd1e8547e0a8b8ba","fixation","","","img/fixation.png","null","","","test","","","","","","","","","","","","","","","","","","","",""
"432","299208","SARL_v6","SARL_v6zm1favdk","63614a46bd1e8547e0a8b8ba","freq","","","img/blue_2bandit_a2.png","70","","70","test","1","","117","","","","square","circle","113","23","5","0.9557522123893806","","","","","","","",""
"null","299581","SARL_v6","SARL_v6zm1favdk","63614a46bd1e8547e0a8b8ba","freq_resp","","","img/blue_2bandit_a.png","70","img/blue_2bandit_a.png","70","test","","","","","","","","","","","5","","","","","","","","",""
"null","299734","SARL_v6","SARL_v6zm1favdk","63614a46bd1e8547e0a8b8ba","fixation","","","img/fixation.png","null","","","test","","","","","","","","","","","","","","","","","","","",""
"368","300103","SARL_v6","SARL_v6zm1favdk","63614a46bd1e8547e0a8b8ba","freq","","","img/blue_2bandit_a2.png","70","","70","test","1","","118","","","","square","circle","114","24","5","0.956140350877193","","","","","","","",""
"null","300539","SARL_v6","SARL_v6zm1favdk","63614a46bd1e8547e0a8b8ba","freq_resp","","","img/blue_2bandit_a.png","70","img/blue_2bandit_a.png","70","test","","","","","","","","","","","5","","","","","","","","",""
"null","300692","SARL_v6","SARL_v6zm1favdk","63614a46bd1e8547e0a8b8ba","fixation","","","img/fixation.png","null","","","test","","","","","","","","","","","","","","","","","","","",""
"793","301489","SARL_v6","SARL_v6zm1favdk","63614a46bd1e8547e0a8b8ba","rl","","","img/black_2bandit_a2.png","75","","0","test","","","119","","","-7","square","circle","","0","5","","75","-7","4","4","-7","circle","5","0"
"null","302242","SARL_v6","SARL_v6zm1favdk","63614a46bd1e8547e0a8b8ba","feedback","","","<div class=""verylowPoints""> -7 </div>","null","","na","test","","","NaN","","","","","","","","5","","75","","","","","","5",""
"null","303045","SARL_v6","SARL_v6zm1favdk","63614a46bd1e8547e0a8b8ba","freq","","","img/blue_2bandit_a2.png","null","","70","test","0","","120","","","","square","circle","115","1","6","0.9478260869565217","","","","","","","",""
"null","303199","SARL_v6","SARL_v6zm1favdk","63614a46bd1e8547e0a8b8ba","fixation","","","img/fixation.png","null","","","test","","","","","","","","","","","","","","","","","","","",""
"87","303288","SARL_v6","SARL_v6zm1favdk","63614a46bd1e8547e0a8b8ba","freq","","","img/blue_2bandit_a2.png","70","","70","test","1","","121","","","","square","circle","116","2","6","0.9482758620689655","","","","","","","",""
"null","304003","SARL_v6","SARL_v6zm1favdk","63614a46bd1e8547e0a8b8ba","freq_resp","","","img/blue_2bandit_a.png","70","img/blue_2bandit_a.png","70","test","","","","","","","","","","","6","","","","","","","","",""
"null","304157","SARL_v6","SARL_v6zm1favdk","63614a46bd1e8547e0a8b8ba","fixation","","","img/fixation.png","null","","","test","","","","","","","","","","","","","","","","","","","",""
"87","304247","SARL_v6","SARL_v6zm1favdk","63614a46bd1e8547e0a8b8ba","freq","","","img/blue_2bandit_a2.png","70","","70","test","1","","122","","","","square","circle","117","3","6","0.9487179487179487","","","","","","","",""
"null","304965","SARL_v6","SARL_v6zm1favdk","63614a46bd1e8547e0a8b8ba","freq_resp","","","img/blue_2bandit_a.png","70","img/blue_2bandit_a.png","70","test","","","","","","","","","","","6","","","","","","","","",""
"null","305117","SARL_v6","SARL_v6zm1favdk","63614a46bd1e8547e0a8b8ba","fixation","","","img/fixation.png","null","","","test","","","","","","","","","","","","","","","","","","","",""
"304","305424","SARL_v6","SARL_v6zm1favdk","63614a46bd1e8547e0a8b8ba","infreq","","","img/orange_2bandit_a2.png","70","","68","test","0","","123","","","","square","circle","118","4","6","0.940677966101695","","","","","","","",""
"null","305948","SARL_v6","SARL_v6zm1favdk","63614a46bd1e8547e0a8b8ba","infreq_resp","","","img/orange_2bandit_a.png","70","img/orange_2bandit_a.png","68","test","","","","","","","","","","","6","","","","","","","","",""
"null","306101","SARL_v6","SARL_v6zm1favdk","63614a46bd1e8547e0a8b8ba","fixation","","","img/fixation.png","null","","","test","","","","","","","","","","","","","","","","","","","",""
"481","306584","SARL_v6","SARL_v6zm1favdk","63614a46bd1e8547e0a8b8ba","freq","","","img/blue_2bandit_a2.png","70","","70","test","1","","124","","","","square","circle","119","5","6","0.9411764705882353","","","","","","","",""
"null","306908","SARL_v6","SARL_v6zm1favdk","63614a46bd1e8547e0a8b8ba","freq_resp","","","img/blue_2bandit_a.png","70","img/blue_2bandit_a.png","70","test","","","","","","","","","","","6","","","","","","","","",""
"null","307064","SARL_v6","SARL_v6zm1favdk","63614a46bd1e8547e0a8b8ba","fixation","","","img/fixation.png","null","","","test","","","","","","","","","","","","","","","","","","","",""
"501","307568","SARL_v6","SARL_v6zm1favdk","63614a46bd1e8547e0a8b8ba","freq","","","img/blue_2bandit_a2.png","70","","70","test","1","","125","","","","square","circle","120","6","6","0.9416666666666667","","","","","","","",""
"null","307869","SARL_v6","SARL_v6zm1favdk","63614a46bd1e8547e0a8b8ba","freq_resp","","","img/blue_2bandit_a.png","70","img/blue_2bandit_a.png","70","test","","","","","","","","","","","6","","","","","","","","",""
"null","308025","SARL_v6","SARL_v6zm1favdk","63614a46bd1e8547e0a8b8ba","fixation","","","img/fixation.png","null","","","test","","","","","","","","","","","","","","","","","","","",""
"364","308392","SARL_v6","SARL_v6zm1favdk","63614a46bd1e8547e0a8b8ba","freq","","","img/blue_2bandit_a2.png","70","","70","test","1","","126","","","","square","circle","121","7","6","0.9421487603305785","","","","","","","",""
"null","308831","SARL_v6","SARL_v6zm1favdk","63614a46bd1e8547e0a8b8ba","freq_resp","","","img/blue_2bandit_a.png","70","img/blue_2bandit_a.png","70","test","","","","","","","","","","","6","","","","","","","","",""
"null","308983","SARL_v6","SARL_v6zm1favdk","63614a46bd1e8547e0a8b8ba","fixation","","","img/fixation.png","null","","","test","","","","","","","","","","","","","","","","","","","",""
"357","309345","SARL_v6","SARL_v6zm1favdk","63614a46bd1e8547e0a8b8ba","freq","","","img/blue_2bandit_a2.png","70","","70","test","1","","127","","","","square","circle","122","8","6","0.9426229508196722","","","","","","","",""
"null","309791","SARL_v6","SARL_v6zm1favdk","63614a46bd1e8547e0a8b8ba","freq_resp","","","img/blue_2bandit_a.png","70","img/blue_2bandit_a.png","70","test","","","","","","","","","","","6","","","","","","","","",""
"null","309946","SARL_v6","SARL_v6zm1favdk","63614a46bd1e8547e0a8b8ba","fixation","","","img/fixation.png","null","","","test","","","","","","","","","","","","","","","","","","","",""
"436","310384","SARL_v6","SARL_v6zm1favdk","63614a46bd1e8547e0a8b8ba","infreq","","","img/orange_2bandit_a2.png","68","","68","test","1","","128","","","","square","circle","123","9","6","0.943089430894309","","","","","","","",""
"null","310752","SARL_v6","SARL_v6zm1favdk","63614a46bd1e8547e0a8b8ba","infreq_resp","","","img/orange_2bandit_a.png","68","img/orange_2bandit_a.png","68","test","","","","","","","","","","","6","","","","","","","","",""
"null","310906","SARL_v6","SARL_v6zm1favdk","63614a46bd1e8547e0a8b8ba","fixation","","","img/fixation.png","null","","","test","","","","","","","","","","","","","","","","","","","",""
"499","311408","SARL_v6","SARL_v6zm1favdk","63614a46bd1e8547e0a8b8ba","freq","","","img/blue_2bandit_a2.png","70","","70","test","1","","129","","","","square","circle","124","10","6","0.9435483870967742","","","","","","","",""
"null","311711","SARL_v6","SARL_v6zm1favdk","63614a46bd1e8547e0a8b8ba","freq_resp","","","img/blue_2bandit_a.png","70","img/blue_2bandit_a.png","70","test","","","","","","","","","","","6","","","","","","","","",""
"null","311866","SARL_v6","SARL_v6zm1favdk","63614a46bd1e8547e0a8b8ba","fixation","","","img/fixation.png","null","","","test","","","","","","","","","","","","","","","","","","","",""
"387","312255","SARL_v6","SARL_v6zm1favdk","63614a46bd1e8547e0a8b8ba","freq","","","img/blue_2bandit_a2.png","70","","70","test","1","","130","","","","square","circle","125","11","6","0.944","","","","","","","",""
"null","312671","SARL_v6","SARL_v6zm1favdk","63614a46bd1e8547e0a8b8ba","freq_resp","","","img/blue_2bandit_a.png","70","img/blue_2bandit_a.png","70","test","","","","","","","","","","","6","","","","","","","","",""
"null","312826","SARL_v6","SARL_v6zm1favdk","63614a46bd1e8547e0a8b8ba","fixation","","","img/fixation.png","null","","","test","","","","","","","","","","","","","","","","","","","",""
"396","313224","SARL_v6","SARL_v6zm1favdk","63614a46bd1e8547e0a8b8ba","freq","","","img/blue_2bandit_a2.png","70","","70","test","1","","131","","","","square","circle","126","12","6","0.9444444444444444","","","","","","","",""
"null","313632","SARL_v6","SARL_v6zm1favdk","63614a46bd1e8547e0a8b8ba","freq_resp","","","img/blue_2bandit_a.png","70","img/blue_2bandit_a.png","70","test","","","","","","","","","","","6","","","","","","","","",""
"null","313787","SARL_v6","SARL_v6zm1favdk","63614a46bd1e8547e0a8b8ba","fixation","","","img/fixation.png","null","","","test","","","","","","","","","","","","","","","","","","","",""
"339","314127","SARL_v6","SARL_v6zm1favdk","63614a46bd1e8547e0a8b8ba","freq","","","img/blue_2bandit_a2.png","70","","70","test","1","","132","","","","square","circle","127","13","6","0.9448818897637795","","","","","","","",""
"null","314593","SARL_v6","SARL_v6zm1favdk","63614a46bd1e8547e0a8b8ba","freq_resp","","","img/blue_2bandit_a.png","70","img/blue_2bandit_a.png","70","test","","","","","","","","","","","6","","","","","","","","",""
"null","314746","SARL_v6","SARL_v6zm1favdk","63614a46bd1e8547e0a8b8ba","fixation","","","img/fixation.png","null","","","test","","","","","","","","","","","","","","","","","","","",""
"386","315135","SARL_v6","SARL_v6zm1favdk","63614a46bd1e8547e0a8b8ba","freq","","","img/blue_2bandit_a2.png","70","","70","test","1","","133","","","","square","circle","128","14","6","0.9453125","","","","","","","",""
"null","315556","SARL_v6","SARL_v6zm1favdk","63614a46bd1e8547e0a8b8ba","freq_resp","","","img/blue_2bandit_a.png","70","img/blue_2bandit_a.png","70","test","","","","","","","","","","","6","","","","","","","","",""
