"rt","time_elapsed","expId","subject","prolificID","trialType","rlType","attType","stimulus","key_press","stim","corrresp","phase","corr","pracCounter","trialNum","rewardOne","rewardTwo","reward","bandOne","bandTwo","attentionNum","attentionRunNum","blockNum","performance","bandChosen","circleVal","squareVal","bandOneVal","bandTwoVal","shapeChosen","rlNum","badFlag"
"2593.100000023842","2599","SARL_v6","SARL_v61mxyzco0","631916c5e920aea5076777b0","","","","","","","","","","","","","","","","","","","","","","","","","","","",""
"","4932","SARL_v6","SARL_v61mxyzco0","631916c5e920aea5076777b0","fullscreen","fullscreen","fullscreen","","","","","","","","","","","","","","","","","","","","","","","","",""
"75973.39999997616","80908","SARL_v6","SARL_v61mxyzco0","631916c5e920aea5076777b0","","","","","","","","","","","","","","","","","","","","","","","","","","","",""
"null","81714","SARL_v6","SARL_v61mxyzco0","631916c5e920aea5076777b0","freqPrac","","","img/blue_2bandit_b2.png","null","img/blue_2bandit_b2.png","70","prac","0","1","","","","","","","","","","","","","","","","","",""
"null","82729","SARL_v6","SARL_v61mxyzco0","631916c5e920aea5076777b0","feedback","","","img/tooSlow.png","null","","na","prac","","","","","","","","","","","","","","","","","","","",""
"null","82895","SARL_v6","SARL_v61mxyzco0","631916c5e920aea5076777b0","fixation","","","img/fixation.png","null","","","prac","","","","","","","","","","","","","","","","","","","",""
"459","83358","SARL_v6","SARL_v61mxyzco0","631916c5e920aea5076777b0","infreqPrac","","","img/orange_2bandit_b2.png","68","img/orange_2bandit_b2.png","68","prac","1","1","","","","","","","","","","","","","","","","","",""
"459","83718","SARL_v6","SARL_v61mxyzco0","631916c5e920aea5076777b0","infreqPrac_resp","","","img/orange_2bandit_b.png","68","img/orange_2bandit_b.png","68","prac","","","","","","","","","","","","","","","","","","","",""
"null","83879","SARL_v6","SARL_v61mxyzco0","631916c5e920aea5076777b0","fixation","","","img/fixation.png","null","","","prac","","","","","","","","","","","","","","","","","","","",""
"399.7999999523163","84282","SARL_v6","SARL_v61mxyzco0","631916c5e920aea5076777b0","freqPrac","","","img/blue_2bandit_b2.png","70","img/blue_2bandit_b2.png","70","prac","1","1","","","","","","","","","","","","","","","","","",""
"399.7999999523163","84700","SARL_v6","SARL_v61mxyzco0","631916c5e920aea5076777b0","freqPrac_resp","","","img/blue_2bandit_b.png","70","img/blue_2bandit_b.png","70","prac","","","","","","","","","","","","","","","","","","","",""
"null","84864","SARL_v6","SARL_v61mxyzco0","631916c5e920aea5076777b0","fixation","","","img/fixation.png","null","","","prac","","","","","","","","","","","","","","","","","","","",""
"368.2999999523163","85236","SARL_v6","SARL_v61mxyzco0","631916c5e920aea5076777b0","infreqPrac","","","img/orange_2bandit_b2.png","68","img/orange_2bandit_b2.png","68","prac","1","1","","","","","","","","","","","","","","","","","",""
"368.2999999523163","85680","SARL_v6","SARL_v61mxyzco0","631916c5e920aea5076777b0","infreqPrac_resp","","","img/orange_2bandit_b.png","68","img/orange_2bandit_b.png","68","prac","","","","","","","","","","","","","","","","","","","",""
"null","85846","SARL_v6","SARL_v61mxyzco0","631916c5e920aea5076777b0","fixation","","","img/fixation.png","null","","","prac","","","","","","","","","","","","","","","","","","","",""
"410.10000002384186","86260","SARL_v6","SARL_v61mxyzco0","631916c5e920aea5076777b0","infreqPrac","","","img/orange_2bandit_b2.png","68","img/orange_2bandit_b2.png","68","prac","1","1","","","","","","","","","","","","","","","","","",""
"410.10000002384186","86664","SARL_v6","SARL_v61mxyzco0","631916c5e920aea5076777b0","infreqPrac_resp","","","img/orange_2bandit_b.png","68","img/orange_2bandit_b.png","68","prac","","","","","","","","","","","","","","","","","","","",""
"null","86822","SARL_v6","SARL_v61mxyzco0","631916c5e920aea5076777b0","fixation","","","img/fixation.png","null","","","prac","","","","","","","","","","","","","","","","","","","",""
"225.19999992847443","87050","SARL_v6","SARL_v61mxyzco0","631916c5e920aea5076777b0","infreqPrac","","","img/orange_2bandit_b2.png","68","img/orange_2bandit_b2.png","68","prac","1","1","","","","","","","","","","","","","","","","","",""
"225.19999992847443","87639","SARL_v6","SARL_v61mxyzco0","631916c5e920aea5076777b0","infreqPrac_resp","","","img/orange_2bandit_b.png","68","img/orange_2bandit_b.png","68","prac","","","","","","","","","","","","","","","","","","","",""
"null","87797","SARL_v6","SARL_v61mxyzco0","631916c5e920aea5076777b0","fixation","","","img/fixation.png","null","","","prac","","","","","","","","","","","","","","","","","","","",""
"188.20000004768372","87989","SARL_v6","SARL_v61mxyzco0","631916c5e920aea5076777b0","freqPrac","","","img/blue_2bandit_b2.png","70","img/blue_2bandit_b2.png","70","prac","1","1","","","","","","","","","","","","","","","","","",""
"188.20000004768372","88606","SARL_v6","SARL_v61mxyzco0","631916c5e920aea5076777b0","freqPrac_resp","","","img/blue_2bandit_b.png","70","img/blue_2bandit_b.png","70","prac","","","","","","","","","","","","","","","","","","","",""
"null","88764","SARL_v6","SARL_v61mxyzco0","631916c5e920aea5076777b0","fixation","","","img/fixation.png","null","","","prac","","","","","","","","","","","","","","","","","","","",""
"548.2000000476837","89316","SARL_v6","SARL_v61mxyzco0","631916c5e920aea5076777b0","infreqPrac","","","img/orange_2bandit_b2.png","68","img/orange_2bandit_b2.png","68","prac","1","1","","","","","","","","","","","","","","","","","",""
"548.2000000476837","89572","SARL_v6","SARL_v61mxyzco0","631916c5e920aea5076777b0","infreqPrac_resp","","","img/orange_2bandit_b.png","68","img/orange_2bandit_b.png","68","prac","","","","","","","","","","","","","","","","","","","",""
"null","89729","SARL_v6","SARL_v61mxyzco0","631916c5e920aea5076777b0","fixation","","","img/fixation.png","null","","","prac","","","","","","","","","","","","","","","","","","","",""
"447.5","90180","SARL_v6","SARL_v61mxyzco0","631916c5e920aea5076777b0","freqPrac","","","img/blue_2bandit_b2.png","70","img/blue_2bandit_b2.png","70","prac","1","1","","","","","","","","","","","","","","","","","",""
"447.5","90550","SARL_v6","SARL_v61mxyzco0","631916c5e920aea5076777b0","freqPrac_resp","","","img/blue_2bandit_b.png","70","img/blue_2bandit_b.png","70","prac","","","","","","","","","","","","","","","","","","","",""
"null","90713","SARL_v6","SARL_v61mxyzco0","631916c5e920aea5076777b0","fixation","","","img/fixation.png","null","","","prac","","","","","","","","","","","","","","","","","","","",""
"577","91293","SARL_v6","SARL_v61mxyzco0","631916c5e920aea5076777b0","freqPrac","","","img/blue_2bandit_b2.png","70","img/blue_2bandit_b2.png","70","prac","1","1","","","","","","","","","","","","","","","","","",""
"577","91525","SARL_v6","SARL_v61mxyzco0","631916c5e920aea5076777b0","freqPrac_resp","","","img/blue_2bandit_b.png","70","img/blue_2bandit_b.png","70","prac","","","","","","","","","","","","","","","","","","","",""
"null","91695","SARL_v6","SARL_v61mxyzco0","631916c5e920aea5076777b0","fixation","","","img/fixation.png","null","","","prac","","","","","","","","","","","","","","","","","","","",""
"21066.5","112764","SARL_v6","SARL_v61mxyzco0","631916c5e920aea5076777b0","","","","","","","","prac","","","","","","","","","","","","","","","","","","","",""
"1163.2000000476837","113931","SARL_v6","SARL_v61mxyzco0","631916c5e920aea5076777b0","rlPractice","","","img/black_2bandit_b2.png","74","img/black_2bandit_b2.png","","prac","","","0","","","","","","","","","","","","","","","","",""
"null","114695","SARL_v6","SARL_v61mxyzco0","631916c5e920aea5076777b0","feedback","","","<div class=""veryhighPoints""> 10 </div>","null","","na","prac","","","1","10","-14","10","","","","","","","","","","","","","",""
"null","114863","SARL_v6","SARL_v61mxyzco0","631916c5e920aea5076777b0","fixation","","","img/fixation.png","null","","","prac","","","","","","","","","","","","","","","","","","","",""
"609.1000000238419","115476","SARL_v6","SARL_v61mxyzco0","631916c5e920aea5076777b0","rlPractice","","","img/black_2bandit_b2.png","75","img/black_2bandit_b2.png","","prac","","","1","","","","","","","","","","","","","","","","",""
"null","116245","SARL_v6","SARL_v61mxyzco0","631916c5e920aea5076777b0","feedback","","","<div class=""verylowPoints_sq""> -5 </div>","null","","na","prac","","","2","5","-5","5","","","","","","","","","","","","","",""
"null","116412","SARL_v6","SARL_v61mxyzco0","631916c5e920aea5076777b0","fixation","","","img/fixation.png","null","","","prac","","","","","","","","","","","","","","","","","","","",""
"333","116749","SARL_v6","SARL_v61mxyzco0","631916c5e920aea5076777b0","rlPractice","","","img/black_2bandit_b2.png","74","img/black_2bandit_b2.png","","prac","","","2","","","","","","","","","","","","","","","","",""
"null","117513","SARL_v6","SARL_v61mxyzco0","631916c5e920aea5076777b0","feedback","","","<div class=""veryhighPoints""> 30 </div>","null","","na","prac","","","3","30","2","30","","","","","","","","","","","","","",""
"null","117678","SARL_v6","SARL_v61mxyzco0","631916c5e920aea5076777b0","fixation","","","img/fixation.png","null","","","prac","","","","","","","","","","","","","","","","","","","",""
"299.6999999284744","117981","SARL_v6","SARL_v61mxyzco0","631916c5e920aea5076777b0","rlPractice","","","img/black_2bandit_b2.png","74","img/black_2bandit_b2.png","","prac","","","3","","","","","","","","","","","","","","","","",""
"null","118745","SARL_v6","SARL_v61mxyzco0","631916c5e920aea5076777b0","feedback","","","<div class=""verylowPoints""> -2 </div>","null","","na","prac","","","4","-2","20","-2","","","","","","","","","","","","","",""
"null","118913","SARL_v6","SARL_v61mxyzco0","631916c5e920aea5076777b0","fixation","","","img/fixation.png","null","","","prac","","","","","","","","","","","","","","","","","","","",""
"7504.5","126419","SARL_v6","SARL_v61mxyzco0","631916c5e920aea5076777b0","","","","","","","","prac","","","","","","","","","","","","","","","","","","","",""
"null","127227","SARL_v6","SARL_v61mxyzco0","631916c5e920aea5076777b0","mixAttFreqPrac","","","img/blue_2bandit_b2.png","null","img/blue_2bandit_b2.png","70","prac","","","1","","","","","","","","","","","","","","","","",""
"null","127393","SARL_v6","SARL_v61mxyzco0","631916c5e920aea5076777b0","fixation","","","img/fixation.png","null","","","prac","","","","","","","","","","","","","","","","","","","",""
"null","128209","SARL_v6","SARL_v61mxyzco0","631916c5e920aea5076777b0","mixAttInfreqPrac","","","img/orange_2bandit_b2.png","null","img/orange_2bandit_b2.png","68","prac","","","2","","","","","","","","","","","","","","","","",""
"null","128363","SARL_v6","SARL_v61mxyzco0","631916c5e920aea5076777b0","fixation","","","img/fixation.png","null","","","prac","","","","","","","","","","","","","","","","","","","",""
"472.8000000715256","128839","SARL_v6","SARL_v61mxyzco0","631916c5e920aea5076777b0","mixAttInfreqPrac","","","img/orange_2bandit_b2.png","68","img/orange_2bandit_b2.png","68","prac","","","3","","","","","","","","","","","","","","","","",""
"472.8000000715256","129170","SARL_v6","SARL_v61mxyzco0","631916c5e920aea5076777b0","infreqPrac_resp","","","img/orange_2bandit_b.png","68","img/blue_2bandit_b.png","68","prac","","","3","","","","","","","","","","","","","","","","",""
"null","129330","SARL_v6","SARL_v61mxyzco0","631916c5e920aea5076777b0","fixation","","","img/fixation.png","null","","","prac","","","","","","","","","","","","","","","","","","","",""
"null","130144","SARL_v6","SARL_v61mxyzco0","631916c5e920aea5076777b0","mixAttInfreqPrac","","","img/orange_2bandit_b2.png","null","img/orange_2bandit_b2.png","68","prac","","","4","","","","","","","","","","","","","","","","",""
"null","130311","SARL_v6","SARL_v61mxyzco0","631916c5e920aea5076777b0","fixation","","","img/fixation.png","null","","","prac","","","","","","","","","","","","","","","","","","","",""
"149.5","130463","SARL_v6","SARL_v61mxyzco0","631916c5e920aea5076777b0","mixAttFreqPrac","","","img/blue_2bandit_b2.png","68","img/blue_2bandit_b2.png","70","prac","","","5","","","","","","","","","","","","","","","","",""
"149.5","131123","SARL_v6","SARL_v61mxyzco0","631916c5e920aea5076777b0","freqPrac_resp","","","img/blue_2bandit_b.png","68","img/blue_2bandit_b.png","70","prac","","","5","","","","","","","","","","","","","","","","",""
"null","131279","SARL_v6","SARL_v61mxyzco0","631916c5e920aea5076777b0","fixation","","","img/fixation.png","null","","","prac","","","","","","","","","","","","","","","","","","","",""
"772","132054","SARL_v6","SARL_v61mxyzco0","631916c5e920aea5076777b0","mixRLPractice","","","img/black_2bandit_b2.png","75","img/black_2bandit_b2.png","","prac","","","5","","","","","","","","","","","","","","","","",""
"null","132812","SARL_v6","SARL_v61mxyzco0","631916c5e920aea5076777b0","feedback","","","<div class=""veryhighPoints_sq""> 10 </div>","null","","na","prac","","","6","-14","10","-14","","","","","","","","","","","","","",""
"null","132976","SARL_v6","SARL_v61mxyzco0","631916c5e920aea5076777b0","fixation","","","img/fixation.png","null","","","prac","","","","","","","","","","","","","","","","","","","",""
"null","133794","SARL_v6","SARL_v61mxyzco0","631916c5e920aea5076777b0","mixAttFreqPrac","","","img/blue_2bandit_b2.png","null","img/blue_2bandit_b2.png","70","prac","","","7","","","","","","","","","","","","","","","","",""
"16","133960","SARL_v6","SARL_v61mxyzco0","631916c5e920aea5076777b0","fixation","","","img/fixation.png","70","","","prac","","","","","","","","","","","","","","","","","","","",""
"431.60000002384186","134395","SARL_v6","SARL_v61mxyzco0","631916c5e920aea5076777b0","mixAttInfreqPrac","","","img/orange_2bandit_b2.png","68","img/orange_2bandit_b2.png","68","prac","","","8","","","","","","","","","","","","","","","","",""
"431.60000002384186","134767","SARL_v6","SARL_v61mxyzco0","631916c5e920aea5076777b0","infreqPrac_resp","","","img/orange_2bandit_b.png","68","img/blue_2bandit_b.png","68","prac","","","8","","","","","","","","","","","","","","","","",""
"null","134928","SARL_v6","SARL_v61mxyzco0","631916c5e920aea5076777b0","fixation","","","img/fixation.png","null","","","prac","","","","","","","","","","","","","","","","","","","",""
"432.7999999523163","135364","SARL_v6","SARL_v61mxyzco0","631916c5e920aea5076777b0","mixAttFreqPrac","","","img/blue_2bandit_b2.png","70","img/blue_2bandit_b2.png","70","prac","","","9","","","","","","","","","","","","","","","","",""
"432.7999999523163","135735","SARL_v6","SARL_v61mxyzco0","631916c5e920aea5076777b0","freqPrac_resp","","","img/blue_2bandit_b.png","70","img/blue_2bandit_b.png","70","prac","","","9","","","","","","","","","","","","","","","","",""
"null","135894","SARL_v6","SARL_v61mxyzco0","631916c5e920aea5076777b0","fixation","","","img/fixation.png","null","","","prac","","","","","","","","","","","","","","","","","","","",""
"341.8000000715256","136239","SARL_v6","SARL_v61mxyzco0","631916c5e920aea5076777b0","mixAttFreqPrac","","","img/blue_2bandit_b2.png","70","img/blue_2bandit_b2.png","70","prac","","","10","","","","","","","","","","","","","","","","",""
"341.8000000715256","136711","SARL_v6","SARL_v61mxyzco0","631916c5e920aea5076777b0","freqPrac_resp","","","img/blue_2bandit_b.png","70","img/blue_2bandit_b.png","70","prac","","","10","","","","","","","","","","","","","","","","",""
"null","136878","SARL_v6","SARL_v61mxyzco0","631916c5e920aea5076777b0","fixation","","","img/fixation.png","null","","","prac","","","","","","","","","","","","","","","","","","","",""
"491.1999999284744","137372","SARL_v6","SARL_v61mxyzco0","631916c5e920aea5076777b0","mixAttInfreqPrac","","","img/orange_2bandit_b2.png","70","img/orange_2bandit_b2.png","68","prac","","","11","","","","","","","","","","","","","","","","",""
"491.1999999284744","137696","SARL_v6","SARL_v61mxyzco0","631916c5e920aea5076777b0","infreqPrac_resp","","","img/orange_2bandit_b.png","70","img/blue_2bandit_b.png","68","prac","","","11","","","","","","","","","","","","","","","","",""
"null","137863","SARL_v6","SARL_v61mxyzco0","631916c5e920aea5076777b0","fixation","","","img/fixation.png","null","","","prac","","","","","","","","","","","","","","","","","","","",""
"558.7999999523163","138425","SARL_v6","SARL_v61mxyzco0","631916c5e920aea5076777b0","mixRLPractice","","","img/black_2bandit_b2.png","75","img/black_2bandit_b2.png","","prac","","","11","","","","","","","","","","","","","","","","",""
"null","139180","SARL_v6","SARL_v61mxyzco0","631916c5e920aea5076777b0","feedback","","","<div class=""verylowPoints_sq""> -5 </div>","null","","na","prac","","","12","5","-5","5","","","","","","","","","","","","","",""
"null","139345","SARL_v6","SARL_v61mxyzco0","631916c5e920aea5076777b0","fixation","","","img/fixation.png","null","","","prac","","","","","","","","","","","","","","","","","","","",""
"1732.7000000476837","141080","SARL_v6","SARL_v61mxyzco0","631916c5e920aea5076777b0","","","","","","","","prac","","","","","","","","","","","","","","","","","","","",""
"711.5","141794","SARL_v6","SARL_v61mxyzco0","631916c5e920aea5076777b0","freq","","","img/blue_2bandit_b2.png","70","","70","test","1","","1","","","","circle","square","1","1","1","1","","","","","","","",""
"null","141893","SARL_v6","SARL_v61mxyzco0","631916c5e920aea5076777b0","freq_resp","","","img/blue_2bandit_b.png","70","img/blue_2bandit_b.png","70","test","","","","","","","","","","","1","","","","","","","","",""
"null","142059","SARL_v6","SARL_v61mxyzco0","631916c5e920aea5076777b0","fixation","","","img/fixation.png","null","","","test","","","","","","","","","","","","","","","","","","","",""
"373.2999999523163","142436","SARL_v6","SARL_v61mxyzco0","631916c5e920aea5076777b0","freq","","","img/blue_2bandit_b2.png","70","","70","test","1","","2","","","","circle","square","2","2","1","1","","","","","","","",""
"null","142877","SARL_v6","SARL_v61mxyzco0","631916c5e920aea5076777b0","freq_resp","","","img/blue_2bandit_b.png","70","img/blue_2bandit_b.png","70","test","","","","","","","","","","","1","","","","","","","","",""
"null","143043","SARL_v6","SARL_v61mxyzco0","631916c5e920aea5076777b0","fixation","","","img/fixation.png","null","","","test","","","","","","","","","","","","","","","","","","","",""
"339.10000002384186","143384","SARL_v6","SARL_v61mxyzco0","631916c5e920aea5076777b0","freq","","","img/blue_2bandit_b2.png","70","","70","test","1","","3","","","","circle","square","3","3","1","1","","","","","","","",""
"null","143862","SARL_v6","SARL_v61mxyzco0","631916c5e920aea5076777b0","freq_resp","","","img/blue_2bandit_b.png","70","img/blue_2bandit_b.png","70","test","","","","","","","","","","","1","","","","","","","","",""
"null","144027","SARL_v6","SARL_v61mxyzco0","631916c5e920aea5076777b0","fixation","","","img/fixation.png","null","","","test","","","","","","","","","","","","","","","","","","","",""
"309.1999999284744","144339","SARL_v6","SARL_v61mxyzco0","631916c5e920aea5076777b0","freq","","","img/blue_2bandit_b2.png","70","","70","test","1","","4","","","","circle","square","4","4","1","1","","","","","","","",""
"null","144843","SARL_v6","SARL_v61mxyzco0","631916c5e920aea5076777b0","freq_resp","","","img/blue_2bandit_b.png","70","img/blue_2bandit_b.png","70","test","","","","","","","","","","","1","","","","","","","","",""
"null","145010","SARL_v6","SARL_v61mxyzco0","631916c5e920aea5076777b0","fixation","","","img/fixation.png","null","","","test","","","","","","","","","","","","","","","","","","","",""
"767","145781","SARL_v6","SARL_v61mxyzco0","631916c5e920aea5076777b0","freq","","","img/blue_2bandit_b2.png","70","","70","test","1","","5","","","","circle","square","5","5","1","1","","","","","","","",""
"null","145817","SARL_v6","SARL_v61mxyzco0","631916c5e920aea5076777b0","freq_resp","","","img/blue_2bandit_b.png","70","img/blue_2bandit_b.png","70","test","","","","","","","","","","","1","","","","","","","","",""
"null","145979","SARL_v6","SARL_v61mxyzco0","631916c5e920aea5076777b0","fixation","","","img/fixation.png","null","","","test","","","","","","","","","","","","","","","","","","","",""
"628.8999999761581","146611","SARL_v6","SARL_v61mxyzco0","631916c5e920aea5076777b0","freq","","","img/blue_2bandit_b2.png","70","","70","test","1","","6","","","","circle","square","6","6","1","1","","","","","","","",""
"null","146793","SARL_v6","SARL_v61mxyzco0","631916c5e920aea5076777b0","freq_resp","","","img/blue_2bandit_b.png","70","img/blue_2bandit_b.png","70","test","","","","","","","","","","","1","","","","","","","","",""
"null","146960","SARL_v6","SARL_v61mxyzco0","631916c5e920aea5076777b0","fixation","","","img/fixation.png","null","","","test","","","","","","","","","","","","","","","","","","","",""
"363.3000000715256","147327","SARL_v6","SARL_v61mxyzco0","631916c5e920aea5076777b0","freq","","","img/blue_2bandit_b2.png","70","","70","test","1","","7","","","","circle","square","7","7","1","1","","","","","","","",""
"null","147777","SARL_v6","SARL_v61mxyzco0","631916c5e920aea5076777b0","freq_resp","","","img/blue_2bandit_b.png","70","img/blue_2bandit_b.png","70","test","","","","","","","","","","","1","","","","","","","","",""
"null","147943","SARL_v6","SARL_v61mxyzco0","631916c5e920aea5076777b0","fixation","","","img/fixation.png","null","","","test","","","","","","","","","","","","","","","","","","","",""
"344.89999997615814","148291","SARL_v6","SARL_v61mxyzco0","631916c5e920aea5076777b0","freq","","","img/blue_2bandit_b2.png","70","","70","test","1","","8","","","","circle","square","8","8","1","1","","","","","","","",""
"null","148762","SARL_v6","SARL_v61mxyzco0","631916c5e920aea5076777b0","freq_resp","","","img/blue_2bandit_b.png","70","img/blue_2bandit_b.png","70","test","","","","","","","","","","","1","","","","","","","","",""
"null","148926","SARL_v6","SARL_v61mxyzco0","631916c5e920aea5076777b0","fixation","","","img/fixation.png","null","","","test","","","","","","","","","","","","","","","","","","","",""
"310.2999999523163","149240","SARL_v6","SARL_v61mxyzco0","631916c5e920aea5076777b0","freq","","","img/blue_2bandit_b2.png","70","","70","test","1","","9","","","","circle","square","9","9","1","1","","","","","","","",""
"null","149740","SARL_v6","SARL_v61mxyzco0","631916c5e920aea5076777b0","freq_resp","","","img/blue_2bandit_b.png","70","img/blue_2bandit_b.png","70","test","","","","","","","","","","","1","","","","","","","","",""
"null","149909","SARL_v6","SARL_v61mxyzco0","631916c5e920aea5076777b0","fixation","","","img/fixation.png","null","","","test","","","","","","","","","","","","","","","","","","","",""
"331.2999999523163","150244","SARL_v6","SARL_v61mxyzco0","631916c5e920aea5076777b0","freq","","","img/blue_2bandit_b2.png","70","","70","test","1","","10","","","","circle","square","10","10","1","1","","","","","","","",""
"null","150728","SARL_v6","SARL_v61mxyzco0","631916c5e920aea5076777b0","freq_resp","","","img/blue_2bandit_b.png","70","img/blue_2bandit_b.png","70","test","","","","","","","","","","","1","","","","","","","","",""
"null","150894","SARL_v6","SARL_v61mxyzco0","631916c5e920aea5076777b0","fixation","","","img/fixation.png","null","","","test","","","","","","","","","","","","","","","","","","","",""
"276.7000000476837","151174","SARL_v6","SARL_v61mxyzco0","631916c5e920aea5076777b0","freq","","","img/blue_2bandit_b2.png","70","","70","test","1","","11","","","","circle","square","11","11","1","1","","","","","","","",""
"null","151707","SARL_v6","SARL_v61mxyzco0","631916c5e920aea5076777b0","freq_resp","","","img/blue_2bandit_b.png","70","img/blue_2bandit_b.png","70","test","","","","","","","","","","","1","","","","","","","","",""
"null","151863","SARL_v6","SARL_v61mxyzco0","631916c5e920aea5076777b0","fixation","","","img/fixation.png","null","","","test","","","","","","","","","","","","","","","","","","","",""
"253.10000002384186","152120","SARL_v6","SARL_v61mxyzco0","631916c5e920aea5076777b0","freq","","","img/blue_2bandit_b2.png","70","","70","test","1","","12","","","","circle","square","12","12","1","1","","","","","","","",""
"null","152670","SARL_v6","SARL_v61mxyzco0","631916c5e920aea5076777b0","freq_resp","","","img/blue_2bandit_b.png","70","img/blue_2bandit_b.png","70","test","","","","","","","","","","","1","","","","","","","","",""
"null","152836","SARL_v6","SARL_v61mxyzco0","631916c5e920aea5076777b0","fixation","","","img/fixation.png","null","","","test","","","","","","","","","","","","","","","","","","","",""
"227.79999995231628","153067","SARL_v6","SARL_v61mxyzco0","631916c5e920aea5076777b0","freq","","","img/blue_2bandit_b2.png","70","","70","test","1","","13","","","","circle","square","13","13","1","1","","","","","","","",""
"null","153654","SARL_v6","SARL_v61mxyzco0","631916c5e920aea5076777b0","freq_resp","","","img/blue_2bandit_b.png","70","img/blue_2bandit_b.png","70","test","","","","","","","","","","","1","","","","","","","","",""
"null","153813","SARL_v6","SARL_v61mxyzco0","631916c5e920aea5076777b0","fixation","","","img/fixation.png","null","","","test","","","","","","","","","","","","","","","","","","","",""
"335.39999997615814","154151","SARL_v6","SARL_v61mxyzco0","631916c5e920aea5076777b0","freq","","","img/blue_2bandit_b2.png","70","","70","test","1","","14","","","","circle","square","14","14","1","1","","","","","","","",""
"null","154623","SARL_v6","SARL_v61mxyzco0","631916c5e920aea5076777b0","freq_resp","","","img/blue_2bandit_b.png","70","img/blue_2bandit_b.png","70","test","","","","","","","","","","","1","","","","","","","","",""
"null","154779","SARL_v6","SARL_v61mxyzco0","631916c5e920aea5076777b0","fixation","","","img/fixation.png","null","","","test","","","","","","","","","","","","","","","","","","","",""
"283.59999990463257","155066","SARL_v6","SARL_v61mxyzco0","631916c5e920aea5076777b0","freq","","","img/blue_2bandit_b2.png","70","","70","test","1","","15","","","","circle","square","15","15","1","1","","","","","","","",""
"null","155592","SARL_v6","SARL_v61mxyzco0","631916c5e920aea5076777b0","freq_resp","","","img/blue_2bandit_b.png","70","img/blue_2bandit_b.png","70","test","","","","","","","","","","","1","","","","","","","","",""
"null","155762","SARL_v6","SARL_v61mxyzco0","631916c5e920aea5076777b0","fixation","","","img/fixation.png","null","","","test","","","","","","","","","","","","","","","","","","","",""
"119.89999997615814","155884","SARL_v6","SARL_v61mxyzco0","631916c5e920aea5076777b0","freq","","","img/blue_2bandit_b2.png","70","","70","test","1","","16","","","","circle","square","16","16","1","1","","","","","","","",""
"null","156582","SARL_v6","SARL_v61mxyzco0","631916c5e920aea5076777b0","freq_resp","","","img/blue_2bandit_b.png","70","img/blue_2bandit_b.png","70","test","","","","","","","","","","","1","","","","","","","","",""
"null","156746","SARL_v6","SARL_v61mxyzco0","631916c5e920aea5076777b0","fixation","","","img/fixation.png","null","","","test","","","","","","","","","","","","","","","","","","","",""
"229.19999992847443","156978","SARL_v6","SARL_v61mxyzco0","631916c5e920aea5076777b0","infreq","","","img/orange_2bandit_b2.png","70","","68","test","0","","17","","","","circle","square","17","17","1","0.9411764705882353","","","","","","","",""
"null","157555","SARL_v6","SARL_v61mxyzco0","631916c5e920aea5076777b0","infreq_resp","","","img/orange_2bandit_b.png","70","img/orange_2bandit_b.png","68","test","","","","","","","","","","","1","","","","","","","","",""
"null","157711","SARL_v6","SARL_v61mxyzco0","631916c5e920aea5076777b0","fixation","","","img/fixation.png","null","","","test","","","","","","","","","","","","","","","","","","","",""
"321.7999999523163","158037","SARL_v6","SARL_v61mxyzco0","631916c5e920aea5076777b0","infreq","","","img/orange_2bandit_b2.png","68","","68","test","1","","18","","","","circle","square","18","18","1","0.9444444444444444","","","","","","","",""
"null","158529","SARL_v6","SARL_v61mxyzco0","631916c5e920aea5076777b0","infreq_resp","","","img/orange_2bandit_b.png","68","img/orange_2bandit_b.png","68","test","","","","","","","","","","","1","","","","","","","","",""
"null","158695","SARL_v6","SARL_v61mxyzco0","631916c5e920aea5076777b0","fixation","","","img/fixation.png","null","","","test","","","","","","","","","","","","","","","","","","","",""
"413.5","159112","SARL_v6","SARL_v61mxyzco0","631916c5e920aea5076777b0","freq","","","img/blue_2bandit_b2.png","70","","70","test","1","","19","","","","circle","square","19","19","1","0.9473684210526315","","","","","","","",""
"null","159516","SARL_v6","SARL_v61mxyzco0","631916c5e920aea5076777b0","freq_resp","","","img/blue_2bandit_b.png","70","img/blue_2bandit_b.png","70","test","","","","","","","","","","","1","","","","","","","","",""
"null","159680","SARL_v6","SARL_v61mxyzco0","631916c5e920aea5076777b0","fixation","","","img/fixation.png","null","","","test","","","","","","","","","","","","","","","","","","","",""
"754.4000000953674","160437","SARL_v6","SARL_v61mxyzco0","631916c5e920aea5076777b0","freq","","","img/blue_2bandit_b2.png","70","","70","test","1","","20","","","","circle","square","20","20","1","0.95","","","","","","","",""
"null","160500","SARL_v6","SARL_v61mxyzco0","631916c5e920aea5076777b0","freq_resp","","","img/blue_2bandit_b.png","70","img/blue_2bandit_b.png","70","test","","","","","","","","","","","1","","","","","","","","",""
"null","160662","SARL_v6","SARL_v61mxyzco0","631916c5e920aea5076777b0","fixation","","","img/fixation.png","null","","","test","","","","","","","","","","","","","","","","","","","",""
"380","161045","SARL_v6","SARL_v61mxyzco0","631916c5e920aea5076777b0","freq","","","img/blue_2bandit_b2.png","70","","70","test","1","","21","","","","circle","square","21","21","1","0.9523809523809523","","","","","","","",""
"null","161479","SARL_v6","SARL_v61mxyzco0","631916c5e920aea5076777b0","freq_resp","","","img/blue_2bandit_b.png","70","img/blue_2bandit_b.png","70","test","","","","","","","","","","","1","","","","","","","","",""
"null","161643","SARL_v6","SARL_v61mxyzco0","631916c5e920aea5076777b0","fixation","","","img/fixation.png","null","","","test","","","","","","","","","","","","","","","","","","","",""
"500.39999997615814","162146","SARL_v6","SARL_v61mxyzco0","631916c5e920aea5076777b0","rl","","","img/black_2bandit_b2.png","75","","0","test","","","22","","","-3","circle","square","","0","1","","75","-3","-3","-3","-3","square","1","0"
"null","162910","SARL_v6","SARL_v61mxyzco0","631916c5e920aea5076777b0","feedback","","","<div class=""verylowPoints_sq""> -3 </div>","null","","na","test","","","NaN","","","","","","","","1","","75","","","","","","1",""
"471.60000002384186","163385","SARL_v6","SARL_v61mxyzco0","631916c5e920aea5076777b0","freq","","","img/blue_2bandit_b2.png","70","","70","test","1","","23","","","","circle","square","22","1","2","0.9545454545454546","","","","","","","",""
"null","163719","SARL_v6","SARL_v61mxyzco0","631916c5e920aea5076777b0","freq_resp","","","img/blue_2bandit_b.png","70","img/blue_2bandit_b.png","70","test","","","","","","","","","","","2","","","","","","","","",""
"null","163875","SARL_v6","SARL_v61mxyzco0","631916c5e920aea5076777b0","fixation","","","img/fixation.png","null","","","test","","","","","","","","","","","","","","","","","","","",""
"401.39999997615814","164280","SARL_v6","SARL_v61mxyzco0","631916c5e920aea5076777b0","infreq","","","img/orange_2bandit_b2.png","68","","68","test","1","","24","","","","circle","square","23","2","2","0.9565217391304348","","","","","","","",""
"null","164683","SARL_v6","SARL_v61mxyzco0","631916c5e920aea5076777b0","infreq_resp","","","img/orange_2bandit_b.png","68","img/orange_2bandit_b.png","68","test","","","","","","","","","","","2","","","","","","","","",""
"null","164845","SARL_v6","SARL_v61mxyzco0","631916c5e920aea5076777b0","fixation","","","img/fixation.png","null","","","test","","","","","","","","","","","","","","","","","","","",""
"null","165660","SARL_v6","SARL_v61mxyzco0","631916c5e920aea5076777b0","freq","","","img/blue_2bandit_b2.png","null","","70","test","0","","25","","","","circle","square","24","3","2","0.9166666666666666","","","","","","","",""
"null","165827","SARL_v6","SARL_v61mxyzco0","631916c5e920aea5076777b0","fixation","","","img/fixation.png","null","","","test","","","","","","","","","","","","","","","","","","","",""
"24.100000023841858","165854","SARL_v6","SARL_v61mxyzco0","631916c5e920aea5076777b0","infreq","","","img/orange_2bandit_b2.png","70","","68","test","0","","26","","","","circle","square","25","4","2","0.88","","","","","","","",""
"null","166644","SARL_v6","SARL_v61mxyzco0","631916c5e920aea5076777b0","infreq_resp","","","img/orange_2bandit_b.png","70","img/orange_2bandit_b.png","68","test","","","","","","","","","","","2","","","","","","","","",""
"null","166810","SARL_v6","SARL_v61mxyzco0","631916c5e920aea5076777b0","fixation","","","img/fixation.png","null","","","test","","","","","","","","","","","","","","","","","","","",""
"393.8000000715256","167207","SARL_v6","SARL_v61mxyzco0","631916c5e920aea5076777b0","freq","","","img/blue_2bandit_b2.png","70","","70","test","1","","27","","","","circle","square","26","5","2","0.8846153846153846","","","","","","","",""
"null","167630","SARL_v6","SARL_v61mxyzco0","631916c5e920aea5076777b0","freq_resp","","","img/blue_2bandit_b.png","70","img/blue_2bandit_b.png","70","test","","","","","","","","","","","2","","","","","","","","",""
"null","167794","SARL_v6","SARL_v61mxyzco0","631916c5e920aea5076777b0","fixation","","","img/fixation.png","null","","","test","","","","","","","","","","","","","","","","","","","",""
"377.7000000476837","168175","SARL_v6","SARL_v61mxyzco0","631916c5e920aea5076777b0","freq","","","img/blue_2bandit_b2.png","70","","70","test","1","","28","","","","circle","square","27","6","2","0.8888888888888888","","","","","","","",""
"null","168612","SARL_v6","SARL_v61mxyzco0","631916c5e920aea5076777b0","freq_resp","","","img/blue_2bandit_b.png","70","img/blue_2bandit_b.png","70","test","","","","","","","","","","","2","","","","","","","","",""
"null","168778","SARL_v6","SARL_v61mxyzco0","631916c5e920aea5076777b0","fixation","","","img/fixation.png","null","","","test","","","","","","","","","","","","","","","","","","","",""
"368.7000000476837","169150","SARL_v6","SARL_v61mxyzco0","631916c5e920aea5076777b0","freq","","","img/blue_2bandit_b2.png","70","","70","test","1","","29","","","","circle","square","28","7","2","0.8928571428571429","","","","","","","",""
"null","169596","SARL_v6","SARL_v61mxyzco0","631916c5e920aea5076777b0","freq_resp","","","img/blue_2bandit_b.png","70","img/blue_2bandit_b.png","70","test","","","","","","","","","","","2","","","","","","","","",""
"null","169762","SARL_v6","SARL_v61mxyzco0","631916c5e920aea5076777b0","fixation","","","img/fixation.png","null","","","test","","","","","","","","","","","","","","","","","","","",""
"342.39999997615814","170109","SARL_v6","SARL_v61mxyzco0","631916c5e920aea5076777b0","freq","","","img/blue_2bandit_b2.png","70","","70","test","1","","30","","","","circle","square","29","8","2","0.896551724137931","","","","","","","",""
"null","170580","SARL_v6","SARL_v61mxyzco0","631916c5e920aea5076777b0","freq_resp","","","img/blue_2bandit_b.png","70","img/blue_2bandit_b.png","70","test","","","","","","","","","","","2","","","","","","","","",""
"null","170745","SARL_v6","SARL_v61mxyzco0","631916c5e920aea5076777b0","fixation","","","img/fixation.png","null","","","test","","","","","","","","","","","","","","","","","","","",""
"339.7000000476837","171089","SARL_v6","SARL_v61mxyzco0","631916c5e920aea5076777b0","freq","","","img/blue_2bandit_b2.png","70","","70","test","1","","31","","","","circle","square","30","9","2","0.9","","","","","","","",""
"null","171562","SARL_v6","SARL_v61mxyzco0","631916c5e920aea5076777b0","freq_resp","","","img/blue_2bandit_b.png","70","img/blue_2bandit_b.png","70","test","","","","","","","","","","","2","","","","","","","","",""
"null","171729","SARL_v6","SARL_v61mxyzco0","631916c5e920aea5076777b0","fixation","","","img/fixation.png","null","","","test","","","","","","","","","","","","","","","","","","","",""
"399.89999997615814","172133","SARL_v6","SARL_v61mxyzco0","631916c5e920aea5076777b0","freq","","","img/blue_2bandit_b2.png","70","","70","test","1","","32","","","","circle","square","31","10","2","0.9032258064516129","","","","","","","",""
"null","172548","SARL_v6","SARL_v61mxyzco0","631916c5e920aea5076777b0","freq_resp","","","img/blue_2bandit_b.png","70","img/blue_2bandit_b.png","70","test","","","","","","","","","","","2","","","","","","","","",""
"null","172712","SARL_v6","SARL_v61mxyzco0","631916c5e920aea5076777b0","fixation","","","img/fixation.png","null","","","test","","","","","","","","","","","","","","","","","","","",""
"450.5","173166","SARL_v6","SARL_v61mxyzco0","631916c5e920aea5076777b0","freq","","","img/blue_2bandit_b2.png","70","","70","test","1","","33","","","","circle","square","32","11","2","0.90625","","","","","","","",""
"null","173533","SARL_v6","SARL_v61mxyzco0","631916c5e920aea5076777b0","freq_resp","","","img/blue_2bandit_b.png","70","img/blue_2bandit_b.png","70","test","","","","","","","","","","","2","","","","","","","","",""
"null","173694","SARL_v6","SARL_v61mxyzco0","631916c5e920aea5076777b0","fixation","","","img/fixation.png","null","","","test","","","","","","","","","","","","","","","","","","","",""
"587.2000000476837","174285","SARL_v6","SARL_v61mxyzco0","631916c5e920aea5076777b0","freq","","","img/blue_2bandit_b2.png","70","","70","test","1","","34","","","","circle","square","33","12","2","0.9090909090909091","","","","","","","",""
"null","174508","SARL_v6","SARL_v61mxyzco0","631916c5e920aea5076777b0","freq_resp","","","img/blue_2bandit_b.png","70","img/blue_2bandit_b.png","70","test","","","","","","","","","","","2","","","","","","","","",""
"null","174677","SARL_v6","SARL_v61mxyzco0","631916c5e920aea5076777b0","fixation","","","img/fixation.png","null","","","test","","","","","","","","","","","","","","","","","","","",""
"306.2000000476837","174986","SARL_v6","SARL_v61mxyzco0","631916c5e920aea5076777b0","freq","","","img/blue_2bandit_b2.png","70","","70","test","1","","35","","","","circle","square","34","13","2","0.9117647058823529","","","","","","","",""
"null","175493","SARL_v6","SARL_v61mxyzco0","631916c5e920aea5076777b0","freq_resp","","","img/blue_2bandit_b.png","70","img/blue_2bandit_b.png","70","test","","","","","","","","","","","2","","","","","","","","",""
"null","175660","SARL_v6","SARL_v61mxyzco0","631916c5e920aea5076777b0","fixation","","","img/fixation.png","null","","","test","","","","","","","","","","","","","","","","","","","",""
"102","175766","SARL_v6","SARL_v61mxyzco0","631916c5e920aea5076777b0","freq","","","img/blue_2bandit_b2.png","70","","70","test","1","","36","","","","circle","square","35","14","2","0.9142857142857143","","","","","","","",""
"null","176481","SARL_v6","SARL_v61mxyzco0","631916c5e920aea5076777b0","freq_resp","","","img/blue_2bandit_b.png","70","img/blue_2bandit_b.png","70","test","","","","","","","","","","","2","","","","","","","","",""
"null","176644","SARL_v6","SARL_v61mxyzco0","631916c5e920aea5076777b0","fixation","","","img/fixation.png","null","","","test","","","","","","","","","","","","","","","","","","","",""
"112.20000004768372","176760","SARL_v6","SARL_v61mxyzco0","631916c5e920aea5076777b0","freq","","","img/blue_2bandit_b2.png","70","","70","test","1","","37","","","","circle","square","36","15","2","0.9166666666666666","","","","","","","",""
"null","177464","SARL_v6","SARL_v61mxyzco0","631916c5e920aea5076777b0","freq_resp","","","img/blue_2bandit_b.png","70","img/blue_2bandit_b.png","70","test","","","","","","","","","","","2","","","","","","","","",""
"null","177628","SARL_v6","SARL_v61mxyzco0","631916c5e920aea5076777b0","fixation","","","img/fixation.png","null","","","test","","","","","","","","","","","","","","","","","","","",""
"327.39999997615814","177958","SARL_v6","SARL_v61mxyzco0","631916c5e920aea5076777b0","freq","","","img/blue_2bandit_b2.png","70","","70","test","1","","38","","","","circle","square","37","16","2","0.918918918918919","","","","","","","",""
"null","178443","SARL_v6","SARL_v61mxyzco0","631916c5e920aea5076777b0","freq_resp","","","img/blue_2bandit_b.png","70","img/blue_2bandit_b.png","70","test","","","","","","","","","","","2","","","","","","","","",""
"null","178610","SARL_v6","SARL_v61mxyzco0","631916c5e920aea5076777b0","fixation","","","img/fixation.png","null","","","test","","","","","","","","","","","","","","","","","","","",""
"263.39999997615814","178877","SARL_v6","SARL_v61mxyzco0","631916c5e920aea5076777b0","freq","","","img/blue_2bandit_b2.png","70","","70","test","1","","39","","","","circle","square","38","17","2","0.9210526315789473","","","","","","","",""
"null","179424","SARL_v6","SARL_v61mxyzco0","631916c5e920aea5076777b0","freq_resp","","","img/blue_2bandit_b.png","70","img/blue_2bandit_b.png","70","test","","","","","","","","","","","2","","","","","","","","",""
"null","179579","SARL_v6","SARL_v61mxyzco0","631916c5e920aea5076777b0","fixation","","","img/fixation.png","null","","","test","","","","","","","","","","","","","","","","","","","",""
"333.5","179915","SARL_v6","SARL_v61mxyzco0","631916c5e920aea5076777b0","freq","","","img/blue_2bandit_b2.png","70","","70","test","1","","40","","","","circle","square","39","18","2","0.9230769230769231","","","","","","","",""
"null","180394","SARL_v6","SARL_v61mxyzco0","631916c5e920aea5076777b0","freq_resp","","","img/blue_2bandit_b.png","70","img/blue_2bandit_b.png","70","test","","","","","","","","","","","2","","","","","","","","",""
"null","180560","SARL_v6","SARL_v61mxyzco0","631916c5e920aea5076777b0","fixation","","","img/fixation.png","null","","","test","","","","","","","","","","","","","","","","","","","",""
"296.7000000476837","180860","SARL_v6","SARL_v61mxyzco0","631916c5e920aea5076777b0","freq","","","img/blue_2bandit_b2.png","70","","70","test","1","","41","","","","circle","square","40","19","2","0.925","","","","","","","",""
"null","181374","SARL_v6","SARL_v61mxyzco0","631916c5e920aea5076777b0","freq_resp","","","img/blue_2bandit_b.png","70","img/blue_2bandit_b.png","70","test","","","","","","","","","","","2","","","","","","","","",""
"null","181543","SARL_v6","SARL_v61mxyzco0","631916c5e920aea5076777b0","fixation","","","img/fixation.png","null","","","test","","","","","","","","","","","","","","","","","","","",""
"506.5","182053","SARL_v6","SARL_v61mxyzco0","631916c5e920aea5076777b0","rl","","","img/black_2bandit_b2.png","75","","0","test","","","42","","","-8","circle","square","","0","2","","75","-5","-8","-5","-8","square","2","0"
"null","182808","SARL_v6","SARL_v61mxyzco0","631916c5e920aea5076777b0","feedback","","","<div class=""verylowPoints_sq""> -8 </div>","null","","na","test","","","NaN","","","","","","","","2","","75","","","","","","2",""
"449.2999999523163","183261","SARL_v6","SARL_v61mxyzco0","631916c5e920aea5076777b0","freq","","","img/blue_2bandit_b2.png","70","","70","test","1","","43","","","","circle","square","41","1","3","0.926829268292683","","","","","","","",""
"null","183616","SARL_v6","SARL_v61mxyzco0","631916c5e920aea5076777b0","freq_resp","","","img/blue_2bandit_b.png","70","img/blue_2bandit_b.png","70","test","","","","","","","","","","","3","","","","","","","","",""
"null","183779","SARL_v6","SARL_v61mxyzco0","631916c5e920aea5076777b0","fixation","","","img/fixation.png","null","","","test","","","","","","","","","","","","","","","","","","","",""
"314","184095","SARL_v6","SARL_v61mxyzco0","631916c5e920aea5076777b0","freq","","","img/blue_2bandit_b2.png","70","","70","test","1","","44","","","","circle","square","42","2","3","0.9285714285714286","","","","","","","",""
"null","184586","SARL_v6","SARL_v61mxyzco0","631916c5e920aea5076777b0","freq_resp","","","img/blue_2bandit_b.png","70","img/blue_2bandit_b.png","70","test","","","","","","","","","","","3","","","","","","","","",""
"null","184746","SARL_v6","SARL_v61mxyzco0","631916c5e920aea5076777b0","fixation","","","img/fixation.png","null","","","test","","","","","","","","","","","","","","","","","","","",""
"390.3000000715256","185139","SARL_v6","SARL_v61mxyzco0","631916c5e920aea5076777b0","freq","","","img/blue_2bandit_b2.png","70","","70","test","1","","45","","","","circle","square","43","3","3","0.9302325581395349","","","","","","","",""
"null","185565","SARL_v6","SARL_v61mxyzco0","631916c5e920aea5076777b0","freq_resp","","","img/blue_2bandit_b.png","70","img/blue_2bandit_b.png","70","test","","","","","","","","","","","3","","","","","","","","",""
"null","185728","SARL_v6","SARL_v61mxyzco0","631916c5e920aea5076777b0","fixation","","","img/fixation.png","null","","","test","","","","","","","","","","","","","","","","","","","",""
"337.8000000715256","186069","SARL_v6","SARL_v61mxyzco0","631916c5e920aea5076777b0","freq","","","img/blue_2bandit_b2.png","70","","70","test","1","","46","","","","circle","square","44","4","3","0.9318181818181818","","","","","","","",""
"null","186543","SARL_v6","SARL_v61mxyzco0","631916c5e920aea5076777b0","freq_resp","","","img/blue_2bandit_b.png","70","img/blue_2bandit_b.png","70","test","","","","","","","","","","","3","","","","","","","","",""
"null","186708","SARL_v6","SARL_v61mxyzco0","631916c5e920aea5076777b0","fixation","","","img/fixation.png","null","","","test","","","","","","","","","","","","","","","","","","","",""
"281.8000000715256","186993","SARL_v6","SARL_v61mxyzco0","631916c5e920aea5076777b0","freq","","","img/blue_2bandit_b2.png","70","","70","test","1","","47","","","","circle","square","45","5","3","0.9333333333333333","","","","","","","",""
"null","187522","SARL_v6","SARL_v61mxyzco0","631916c5e920aea5076777b0","freq_resp","","","img/blue_2bandit_b.png","70","img/blue_2bandit_b.png","70","test","","","","","","","","","","","3","","","","","","","","",""
"null","187678","SARL_v6","SARL_v61mxyzco0","631916c5e920aea5076777b0","fixation","","","img/fixation.png","null","","","test","","","","","","","","","","","","","","","","","","","",""
"638.5","188320","SARL_v6","SARL_v61mxyzco0","631916c5e920aea5076777b0","freq","","","img/blue_2bandit_b2.png","70","","70","test","1","","48","","","","circle","square","46","6","3","0.9347826086956522","","","","","","","",""
"null","188494","SARL_v6","SARL_v61mxyzco0","631916c5e920aea5076777b0","freq_resp","","","img/blue_2bandit_b.png","70","img/blue_2bandit_b.png","70","test","","","","","","","","","","","3","","","","","","","","",""
"null","188660","SARL_v6","SARL_v61mxyzco0","631916c5e920aea5076777b0","fixation","","","img/fixation.png","null","","","test","","","","","","","","","","","","","","","","","","","",""
"487.3000000715256","189150","SARL_v6","SARL_v61mxyzco0","631916c5e920aea5076777b0","freq","","","img/blue_2bandit_b2.png","70","","70","test","1","","49","","","","circle","square","47","7","3","0.9361702127659575","","","","","","","",""
"null","189469","SARL_v6","SARL_v61mxyzco0","631916c5e920aea5076777b0","freq_resp","","","img/blue_2bandit_b.png","70","img/blue_2bandit_b.png","70","test","","","","","","","","","","","3","","","","","","","","",""
"null","189628","SARL_v6","SARL_v61mxyzco0","631916c5e920aea5076777b0","fixation","","","img/fixation.png","null","","","test","","","","","","","","","","","","","","","","","","","",""
"329.2000000476837","189960","SARL_v6","SARL_v61mxyzco0","631916c5e920aea5076777b0","freq","","","img/blue_2bandit_b2.png","70","","70","test","1","","50","","","","circle","square","48","8","3","0.9375","","","","","","","",""
"null","190442","SARL_v6","SARL_v61mxyzco0","631916c5e920aea5076777b0","freq_resp","","","img/blue_2bandit_b.png","70","img/blue_2bandit_b.png","70","test","","","","","","","","","","","3","","","","","","","","",""
"null","190608","SARL_v6","SARL_v61mxyzco0","631916c5e920aea5076777b0","fixation","","","img/fixation.png","null","","","test","","","","","","","","","","","","","","","","","","","",""
"303.7999999523163","190915","SARL_v6","SARL_v61mxyzco0","631916c5e920aea5076777b0","freq","","","img/blue_2bandit_b2.png","70","","70","test","1","","51","","","","circle","square","49","9","3","0.9387755102040817","","","","","","","",""
"null","191424","SARL_v6","SARL_v61mxyzco0","631916c5e920aea5076777b0","freq_resp","","","img/blue_2bandit_b.png","70","img/blue_2bandit_b.png","70","test","","","","","","","","","","","3","","","","","","","","",""
"null","191592","SARL_v6","SARL_v61mxyzco0","631916c5e920aea5076777b0","fixation","","","img/fixation.png","null","","","test","","","","","","","","","","","","","","","","","","","",""
"243.09999990463257","191838","SARL_v6","SARL_v61mxyzco0","631916c5e920aea5076777b0","freq","","","img/blue_2bandit_b2.png","70","","70","test","1","","52","","","","circle","square","50","10","3","0.94","","","","","","","",""
"null","192404","SARL_v6","SARL_v61mxyzco0","631916c5e920aea5076777b0","freq_resp","","","img/blue_2bandit_b.png","70","img/blue_2bandit_b.png","70","test","","","","","","","","","","","3","","","","","","","","",""
"null","192559","SARL_v6","SARL_v61mxyzco0","631916c5e920aea5076777b0","fixation","","","img/fixation.png","null","","","test","","","","","","","","","","","","","","","","","","","",""
"291.60000002384186","192853","SARL_v6","SARL_v61mxyzco0","631916c5e920aea5076777b0","freq","","","img/blue_2bandit_b2.png","70","","70","test","1","","53","","","","circle","square","51","11","3","0.9411764705882353","","","","","","","",""
"null","193374","SARL_v6","SARL_v61mxyzco0","631916c5e920aea5076777b0","freq_resp","","","img/blue_2bandit_b.png","70","img/blue_2bandit_b.png","70","test","","","","","","","","","","","3","","","","","","","","",""
"null","193543","SARL_v6","SARL_v61mxyzco0","631916c5e920aea5076777b0","fixation","","","img/fixation.png","null","","","test","","","","","","","","","","","","","","","","","","","",""
"371.1999999284744","193917","SARL_v6","SARL_v61mxyzco0","631916c5e920aea5076777b0","freq","","","img/blue_2bandit_b2.png","70","","70","test","1","","54","","","","circle","square","52","12","3","0.9423076923076923","","","","","","","",""
"null","194361","SARL_v6","SARL_v61mxyzco0","631916c5e920aea5076777b0","freq_resp","","","img/blue_2bandit_b.png","70","img/blue_2bandit_b.png","70","test","","","","","","","","","","","3","","","","","","","","",""
"null","194527","SARL_v6","SARL_v61mxyzco0","631916c5e920aea5076777b0","fixation","","","img/fixation.png","null","","","test","","","","","","","","","","","","","","","","","","","",""
"534.2999999523163","195064","SARL_v6","SARL_v61mxyzco0","631916c5e920aea5076777b0","freq","","","img/blue_2bandit_b2.png","70","","70","test","1","","55","","","","circle","square","53","13","3","0.9433962264150944","","","","","","","",""
"null","195339","SARL_v6","SARL_v61mxyzco0","631916c5e920aea5076777b0","freq_resp","","","img/blue_2bandit_b.png","70","img/blue_2bandit_b.png","70","test","","","","","","","","","","","3","","","","","","","","",""
"null","195494","SARL_v6","SARL_v61mxyzco0","631916c5e920aea5076777b0","fixation","","","img/fixation.png","null","","","test","","","","","","","","","","","","","","","","","","","",""
"691.1000000238419","196187","SARL_v6","SARL_v61mxyzco0","631916c5e920aea5076777b0","freq","","","img/blue_2bandit_b2.png","70","","70","test","1","","56","","","","circle","square","54","14","3","0.9444444444444444","","","","","","","",""
"null","196312","SARL_v6","SARL_v61mxyzco0","631916c5e920aea5076777b0","freq_resp","","","img/blue_2bandit_b.png","70","img/blue_2bandit_b.png","70","test","","","","","","","","","","","3","","","","","","","","",""
"null","196477","SARL_v6","SARL_v61mxyzco0","631916c5e920aea5076777b0","fixation","","","img/fixation.png","null","","","test","","","","","","","","","","","","","","","","","","","",""
"607","197088","SARL_v6","SARL_v61mxyzco0","631916c5e920aea5076777b0","freq","","","img/blue_2bandit_b2.png","70","","70","test","1","","57","","","","circle","square","55","15","3","0.9454545454545454","","","","","","","",""
"null","197292","SARL_v6","SARL_v61mxyzco0","631916c5e920aea5076777b0","freq_resp","","","img/blue_2bandit_b.png","70","img/blue_2bandit_b.png","70","test","","","","","","","","","","","3","","","","","","","","",""
"null","197459","SARL_v6","SARL_v61mxyzco0","631916c5e920aea5076777b0","fixation","","","img/fixation.png","null","","","test","","","","","","","","","","","","","","","","","","","",""
"559.8000000715256","198022","SARL_v6","SARL_v61mxyzco0","631916c5e920aea5076777b0","freq","","","img/blue_2bandit_b2.png","70","","70","test","1","","58","","","","circle","square","56","16","3","0.9464285714285714","","","","","","","",""
"null","198271","SARL_v6","SARL_v61mxyzco0","631916c5e920aea5076777b0","freq_resp","","","img/blue_2bandit_b.png","70","img/blue_2bandit_b.png","70","test","","","","","","","","","","","3","","","","","","","","",""
"null","198427","SARL_v6","SARL_v61mxyzco0","631916c5e920aea5076777b0","fixation","","","img/fixation.png","null","","","test","","","","","","","","","","","","","","","","","","","",""
"297.5","198728","SARL_v6","SARL_v61mxyzco0","631916c5e920aea5076777b0","freq","","","img/blue_2bandit_b2.png","70","","70","test","1","","59","","","","circle","square","57","17","3","0.9473684210526315","","","","","","","",""
"null","199242","SARL_v6","SARL_v61mxyzco0","631916c5e920aea5076777b0","freq_resp","","","img/blue_2bandit_b.png","70","img/blue_2bandit_b.png","70","test","","","","","","","","","","","3","","","","","","","","",""
"null","199409","SARL_v6","SARL_v61mxyzco0","631916c5e920aea5076777b0","fixation","","","img/fixation.png","null","","","test","","","","","","","","","","","","","","","","","","","",""
"116.10000002384186","199528","SARL_v6","SARL_v61mxyzco0","631916c5e920aea5076777b0","infreq","","","img/orange_2bandit_b2.png","70","","68","test","0","","60","","","","circle","square","58","18","3","0.9310344827586207","","","","","","","",""
"null","200214","SARL_v6","SARL_v61mxyzco0","631916c5e920aea5076777b0","infreq_resp","","","img/orange_2bandit_b.png","70","img/orange_2bandit_b.png","68","test","","","","","","","","","","","3","","","","","","","","",""
"null","200378","SARL_v6","SARL_v61mxyzco0","631916c5e920aea5076777b0","fixation","","","img/fixation.png","null","","","test","","","","","","","","","","","","","","","","","","","",""
"426","200807","SARL_v6","SARL_v61mxyzco0","631916c5e920aea5076777b0","freq","","","img/blue_2bandit_b2.png","70","","70","test","1","","61","","","","circle","square","59","19","3","0.9322033898305084","","","","","","","",""
"null","201197","SARL_v6","SARL_v61mxyzco0","631916c5e920aea5076777b0","freq_resp","","","img/blue_2bandit_b.png","70","img/blue_2bandit_b.png","70","test","","","","","","","","","","","3","","","","","","","","",""
"null","201361","SARL_v6","SARL_v61mxyzco0","631916c5e920aea5076777b0","fixation","","","img/fixation.png","null","","","test","","","","","","","","","","","","","","","","","","","",""
"365.6999999284744","201730","SARL_v6","SARL_v61mxyzco0","631916c5e920aea5076777b0","infreq","","","img/orange_2bandit_b2.png","68","","68","test","1","","62","","","","circle","square","60","20","3","0.9333333333333333","","","","","","","",""
"null","202178","SARL_v6","SARL_v61mxyzco0","631916c5e920aea5076777b0","infreq_resp","","","img/orange_2bandit_b.png","68","img/orange_2bandit_b.png","68","test","","","","","","","","","","","3","","","","","","","","",""
"null","202342","SARL_v6","SARL_v61mxyzco0","631916c5e920aea5076777b0","fixation","","","img/fixation.png","null","","","test","","","","","","","","","","","","","","","","","","","",""
"369.10000002384186","202714","SARL_v6","SARL_v61mxyzco0","631916c5e920aea5076777b0","freq","","","img/blue_2bandit_b2.png","70","","70","test","1","","63","","","","circle","square","61","21","3","0.9344262295081968","","","","","","","",""
"null","203160","SARL_v6","SARL_v61mxyzco0","631916c5e920aea5076777b0","freq_resp","","","img/blue_2bandit_b.png","70","img/blue_2bandit_b.png","70","test","","","","","","","","","","","3","","","","","","","","",""
"null","203326","SARL_v6","SARL_v61mxyzco0","631916c5e920aea5076777b0","fixation","","","img/fixation.png","null","","","test","","","","","","","","","","","","","","","","","","","",""
"388","203717","SARL_v6","SARL_v61mxyzco0","631916c5e920aea5076777b0","freq","","","img/blue_2bandit_b2.png","70","","70","test","1","","64","","","","circle","square","62","22","3","0.9354838709677419","","","","","","","",""
"null","204146","SARL_v6","SARL_v61mxyzco0","631916c5e920aea5076777b0","freq_resp","","","img/blue_2bandit_b.png","70","img/blue_2bandit_b.png","70","test","","","","","","","","","","","3","","","","","","","","",""
"null","204312","SARL_v6","SARL_v61mxyzco0","631916c5e920aea5076777b0","fixation","","","img/fixation.png","null","","","test","","","","","","","","","","","","","","","","","","","",""
"302.5","204617","SARL_v6","SARL_v61mxyzco0","631916c5e920aea5076777b0","freq","","","img/blue_2bandit_b2.png","70","","70","test","1","","65","","","","circle","square","63","23","3","0.9365079365079365","","","","","","","",""
"null","205125","SARL_v6","SARL_v61mxyzco0","631916c5e920aea5076777b0","freq_resp","","","img/blue_2bandit_b.png","70","img/blue_2bandit_b.png","70","test","","","","","","","","","","","3","","","","","","","","",""
"null","205293","SARL_v6","SARL_v61mxyzco0","631916c5e920aea5076777b0","fixation","","","img/fixation.png","null","","","test","","","","","","","","","","","","","","","","","","","",""
"325.2999999523163","205621","SARL_v6","SARL_v61mxyzco0","631916c5e920aea5076777b0","freq","","","img/blue_2bandit_b2.png","70","","70","test","1","","66","","","","circle","square","64","24","3","0.9375","","","","","","","",""
"null","206108","SARL_v6","SARL_v61mxyzco0","631916c5e920aea5076777b0","freq_resp","","","img/blue_2bandit_b.png","70","img/blue_2bandit_b.png","70","test","","","","","","","","","","","3","","","","","","","","",""
"null","206276","SARL_v6","SARL_v61mxyzco0","631916c5e920aea5076777b0","fixation","","","img/fixation.png","null","","","test","","","","","","","","","","","","","","","","","","","",""
"718.6000000238419","206998","SARL_v6","SARL_v61mxyzco0","631916c5e920aea5076777b0","rl","","","img/black_2bandit_b2.png","75","","0","test","","","67","","","-8","circle","square","","0","3","","75","-4","-8","-4","-8","square","3","0"
"null","207763","SARL_v6","SARL_v61mxyzco0","631916c5e920aea5076777b0","feedback","","","<div class=""verylowPoints_sq""> -8 </div>","null","","na","test","","","NaN","","","","","","","","3","","75","","","","","","3",""
"623.5999999046326","208390","SARL_v6","SARL_v61mxyzco0","631916c5e920aea5076777b0","freq","","","img/blue_2bandit_b2.png","70","","70","test","1","","68","","","","circle","square","65","1","4","0.9384615384615385","","","","","","","",""
"null","208575","SARL_v6","SARL_v61mxyzco0","631916c5e920aea5076777b0","freq_resp","","","img/blue_2bandit_b.png","70","img/blue_2bandit_b.png","70","test","","","","","","","","","","","4","","","","","","","","",""
"null","208744","SARL_v6","SARL_v61mxyzco0","631916c5e920aea5076777b0","fixation","","","img/fixation.png","null","","","test","","","","","","","","","","","","","","","","","","","",""
"791.1999999284744","209538","SARL_v6","SARL_v61mxyzco0","631916c5e920aea5076777b0","freq","","","img/blue_2bandit_b2.png","70","","70","test","1","","69","","","","circle","square","66","2","4","0.9393939393939394","","","","","","","",""
"null","209549","SARL_v6","SARL_v61mxyzco0","631916c5e920aea5076777b0","freq_resp","","","img/blue_2bandit_b.png","70","img/blue_2bandit_b.png","70","test","","","","","","","","","","","4","","","","","","","","",""
"null","209709","SARL_v6","SARL_v61mxyzco0","631916c5e920aea5076777b0","fixation","","","img/fixation.png","null","","","test","","","","","","","","","","","","","","","","","","","",""
"357.8000000715256","210070","SARL_v6","SARL_v61mxyzco0","631916c5e920aea5076777b0","freq","","","img/blue_2bandit_b2.png","70","","70","test","1","","70","","","","circle","square","67","3","4","0.9402985074626866","","","","","","","",""
"null","210526","SARL_v6","SARL_v61mxyzco0","631916c5e920aea5076777b0","freq_resp","","","img/blue_2bandit_b.png","70","img/blue_2bandit_b.png","70","test","","","","","","","","","","","4","","","","","","","","",""
"null","210692","SARL_v6","SARL_v61mxyzco0","631916c5e920aea5076777b0","fixation","","","img/fixation.png","null","","","test","","","","","","","","","","","","","","","","","","","",""
"299","210995","SARL_v6","SARL_v61mxyzco0","631916c5e920aea5076777b0","freq","","","img/blue_2bandit_b2.png","70","","70","test","1","","71","","","","circle","square","68","4","4","0.9411764705882353","","","","","","","",""
"null","211508","SARL_v6","SARL_v61mxyzco0","631916c5e920aea5076777b0","freq_resp","","","img/blue_2bandit_b.png","70","img/blue_2bandit_b.png","70","test","","","","","","","","","","","4","","","","","","","","",""
"null","211675","SARL_v6","SARL_v61mxyzco0","631916c5e920aea5076777b0","fixation","","","img/fixation.png","null","","","test","","","","","","","","","","","","","","","","","","","",""
"null","212490","SARL_v6","SARL_v61mxyzco0","631916c5e920aea5076777b0","freq","","","img/blue_2bandit_b2.png","null","","70","test","0","","72","","","","circle","square","69","5","4","0.927536231884058","","","","","","","",""
"null","212657","SARL_v6","SARL_v61mxyzco0","631916c5e920aea5076777b0","fixation","","","img/fixation.png","null","","","test","","","","","","","","","","","","","","","","","","","",""
"65.5","212726","SARL_v6","SARL_v61mxyzco0","631916c5e920aea5076777b0","freq","","","img/blue_2bandit_b2.png","70","","70","test","1","","73","","","","circle","square","70","6","4","0.9285714285714286","","","","","","","",""
"null","213475","SARL_v6","SARL_v61mxyzco0","631916c5e920aea5076777b0","freq_resp","","","img/blue_2bandit_b.png","70","img/blue_2bandit_b.png","70","test","","","","","","","","","","","4","","","","","","","","",""
"null","213629","SARL_v6","SARL_v61mxyzco0","631916c5e920aea5076777b0","fixation","","","img/fixation.png","null","","","test","","","","","","","","","","","","","","","","","","","",""
"448.39999997615814","214081","SARL_v6","SARL_v61mxyzco0","631916c5e920aea5076777b0","infreq","","","img/orange_2bandit_b2.png","68","","68","test","1","","74","","","","circle","square","71","7","4","0.9295774647887324","","","","","","","",""
"null","214450","SARL_v6","SARL_v61mxyzco0","631916c5e920aea5076777b0","infreq_resp","","","img/orange_2bandit_b.png","68","img/orange_2bandit_b.png","68","test","","","","","","","","","","","4","","","","","","","","",""
"null","214610","SARL_v6","SARL_v61mxyzco0","631916c5e920aea5076777b0","fixation","","","img/fixation.png","null","","","test","","","","","","","","","","","","","","","","","","","",""
"372.5","214985","SARL_v6","SARL_v61mxyzco0","631916c5e920aea5076777b0","freq","","","img/blue_2bandit_b2.png","70","","70","test","1","","75","","","","circle","square","72","8","4","0.9305555555555556","","","","","","","",""
"null","215427","SARL_v6","SARL_v61mxyzco0","631916c5e920aea5076777b0","freq_resp","","","img/blue_2bandit_b.png","70","img/blue_2bandit_b.png","70","test","","","","","","","","","","","4","","","","","","","","",""
"null","215594","SARL_v6","SARL_v61mxyzco0","631916c5e920aea5076777b0","fixation","","","img/fixation.png","null","","","test","","","","","","","","","","","","","","","","","","","",""
"327.3000000715256","215925","SARL_v6","SARL_v61mxyzco0","631916c5e920aea5076777b0","freq","","","img/blue_2bandit_b2.png","70","","70","test","1","","76","","","","circle","square","73","9","4","0.9315068493150684","","","","","","","",""
"null","216410","SARL_v6","SARL_v61mxyzco0","631916c5e920aea5076777b0","freq_resp","","","img/blue_2bandit_b.png","70","img/blue_2bandit_b.png","70","test","","","","","","","","","","","4","","","","","","","","",""
"null","216576","SARL_v6","SARL_v61mxyzco0","631916c5e920aea5076777b0","fixation","","","img/fixation.png","null","","","test","","","","","","","","","","","","","","","","","","","",""
"265.5","216844","SARL_v6","SARL_v61mxyzco0","631916c5e920aea5076777b0","freq","","","img/blue_2bandit_b2.png","70","","70","test","1","","77","","","","circle","square","74","10","4","0.9324324324324325","","","","","","","",""
"null","217389","SARL_v6","SARL_v61mxyzco0","631916c5e920aea5076777b0","freq_resp","","","img/blue_2bandit_b.png","70","img/blue_2bandit_b.png","70","test","","","","","","","","","","","4","","","","","","","","",""
"null","217543","SARL_v6","SARL_v61mxyzco0","631916c5e920aea5076777b0","fixation","","","img/fixation.png","null","","","test","","","","","","","","","","","","","","","","","","","",""
"291.89999997615814","217838","SARL_v6","SARL_v61mxyzco0","631916c5e920aea5076777b0","freq","","","img/blue_2bandit_b2.png","70","","70","test","1","","78","","","","circle","square","75","11","4","0.9333333333333333","","","","","","","",""
"null","218356","SARL_v6","SARL_v61mxyzco0","631916c5e920aea5076777b0","freq_resp","","","img/blue_2bandit_b.png","70","img/blue_2bandit_b.png","70","test","","","","","","","","","","","4","","","","","","","","",""
"null","218510","SARL_v6","SARL_v61mxyzco0","631916c5e920aea5076777b0","fixation","","","img/fixation.png","null","","","test","","","","","","","","","","","","","","","","","","","",""
"289","218802","SARL_v6","SARL_v61mxyzco0","631916c5e920aea5076777b0","freq","","","img/blue_2bandit_b2.png","70","","70","test","1","","79","","","","circle","square","76","12","4","0.9342105263157895","","","","","","","",""
"null","219327","SARL_v6","SARL_v61mxyzco0","631916c5e920aea5076777b0","freq_resp","","","img/blue_2bandit_b.png","70","img/blue_2bandit_b.png","70","test","","","","","","","","","","","4","","","","","","","","",""
"null","219493","SARL_v6","SARL_v61mxyzco0","631916c5e920aea5076777b0","fixation","","","img/fixation.png","null","","","test","","","","","","","","","","","","","","","","","","","",""
"340","219837","SARL_v6","SARL_v61mxyzco0","631916c5e920aea5076777b0","freq","","","img/blue_2bandit_b2.png","70","","70","test","1","","80","","","","circle","square","77","13","4","0.935064935064935","","","","","","","",""
"null","220310","SARL_v6","SARL_v61mxyzco0","631916c5e920aea5076777b0","freq_resp","","","img/blue_2bandit_b.png","70","img/blue_2bandit_b.png","70","test","","","","","","","","","","","4","","","","","","","","",""
"null","220477","SARL_v6","SARL_v61mxyzco0","631916c5e920aea5076777b0","fixation","","","img/fixation.png","null","","","test","","","","","","","","","","","","","","","","","","","",""
"281.59999990463257","220762","SARL_v6","SARL_v61mxyzco0","631916c5e920aea5076777b0","freq","","","img/blue_2bandit_b2.png","70","","70","test","1","","81","","","","circle","square","78","14","4","0.9358974358974359","","","","","","","",""
"null","221292","SARL_v6","SARL_v61mxyzco0","631916c5e920aea5076777b0","freq_resp","","","img/blue_2bandit_b.png","70","img/blue_2bandit_b.png","70","test","","","","","","","","","","","4","","","","","","","","",""
"null","221460","SARL_v6","SARL_v61mxyzco0","631916c5e920aea5076777b0","fixation","","","img/fixation.png","null","","","test","","","","","","","","","","","","","","","","","","","",""
"501.09999990463257","221964","SARL_v6","SARL_v61mxyzco0","631916c5e920aea5076777b0","freq","","","img/blue_2bandit_b2.png","70","","70","test","1","","82","","","","circle","square","79","15","4","0.9367088607594937","","","","","","","",""
"null","222270","SARL_v6","SARL_v61mxyzco0","631916c5e920aea5076777b0","freq_resp","","","img/blue_2bandit_b.png","70","img/blue_2bandit_b.png","70","test","","","","","","","","","","","4","","","","","","","","",""
"null","222427","SARL_v6","SARL_v61mxyzco0","631916c5e920aea5076777b0","fixation","","","img/fixation.png","null","","","test","","","","","","","","","","","","","","","","","","","",""
"403.59999990463257","222834","SARL_v6","SARL_v61mxyzco0","631916c5e920aea5076777b0","freq","","","img/blue_2bandit_b2.png","70","","70","test","1","","83","","","","circle","square","80","16","4","0.9375","","","","","","","",""
"null","223246","SARL_v6","SARL_v61mxyzco0","631916c5e920aea5076777b0","freq_resp","","","img/blue_2bandit_b.png","70","img/blue_2bandit_b.png","70","test","","","","","","","","","","","4","","","","","","","","",""
"null","223410","SARL_v6","SARL_v61mxyzco0","631916c5e920aea5076777b0","fixation","","","img/fixation.png","null","","","test","","","","","","","","","","","","","","","","","","","",""
"354.10000002384186","223767","SARL_v6","SARL_v61mxyzco0","631916c5e920aea5076777b0","freq","","","img/blue_2bandit_b2.png","70","","70","test","1","","84","","","","circle","square","81","17","4","0.9382716049382716","","","","","","","",""
"null","224230","SARL_v6","SARL_v61mxyzco0","631916c5e920aea5076777b0","freq_resp","","","img/blue_2bandit_b.png","70","img/blue_2bandit_b.png","70","test","","","","","","","","","","","4","","","","","","","","",""
"null","224393","SARL_v6","SARL_v61mxyzco0","631916c5e920aea5076777b0","fixation","","","img/fixation.png","null","","","test","","","","","","","","","","","","","","","","","","","",""
"380.39999997615814","224776","SARL_v6","SARL_v61mxyzco0","631916c5e920aea5076777b0","infreq","","","img/orange_2bandit_b2.png","68","","68","test","1","","85","","","","circle","square","82","18","4","0.9390243902439024","","","","","","","",""
"null","225211","SARL_v6","SARL_v61mxyzco0","631916c5e920aea5076777b0","infreq_resp","","","img/orange_2bandit_b.png","68","img/orange_2bandit_b.png","68","test","","","","","","","","","","","4","","","","","","","","",""
"null","225377","SARL_v6","SARL_v61mxyzco0","631916c5e920aea5076777b0","fixation","","","img/fixation.png","null","","","test","","","","","","","","","","","","","","","","","","","",""
"351.7000000476837","225731","SARL_v6","SARL_v61mxyzco0","631916c5e920aea5076777b0","freq","","","img/blue_2bandit_b2.png","70","","70","test","1","","86","","","","circle","square","83","19","4","0.9397590361445783","","","","","","","",""
"null","226195","SARL_v6","SARL_v61mxyzco0","631916c5e920aea5076777b0","freq_resp","","","img/blue_2bandit_b.png","70","img/blue_2bandit_b.png","70","test","","","","","","","","","","","4","","","","","","","","",""
"null","226360","SARL_v6","SARL_v61mxyzco0","631916c5e920aea5076777b0","fixation","","","img/fixation.png","null","","","test","","","","","","","","","","","","","","","","","","","",""
"491.3000000715256","226854","SARL_v6","SARL_v61mxyzco0","631916c5e920aea5076777b0","rl","","","img/black_2bandit_b2.png","75","","0","test","","","87","","","-12","circle","square","","0","4","","75","0","-12","0","-12","square","4","0"
"null","227609","SARL_v6","SARL_v61mxyzco0","631916c5e920aea5076777b0","feedback","","","<div class=""verylowPoints_sq""> -12 </div>","null","","na","test","","","NaN","","","","","","","","4","","75","","","","","","4",""
"344.5","227957","SARL_v6","SARL_v61mxyzco0","631916c5e920aea5076777b0","freq","","","img/blue_2bandit_b2.png","70","","70","test","1","","88","","","","circle","square","84","1","5","0.9404761904761905","","","","","","","",""
"null","228424","SARL_v6","SARL_v61mxyzco0","631916c5e920aea5076777b0","freq_resp","","","img/blue_2bandit_b.png","70","img/blue_2bandit_b.png","70","test","","","","","","","","","","","5","","","","","","","","",""
"null","228592","SARL_v6","SARL_v61mxyzco0","631916c5e920aea5076777b0","fixation","","","img/fixation.png","null","","","test","","","","","","","","","","","","","","","","","","","",""
"678.5","229274","SARL_v6","SARL_v61mxyzco0","631916c5e920aea5076777b0","freq","","","img/blue_2bandit_b2.png","70","","70","test","1","","89","","","","circle","square","85","2","5","0.9411764705882353","","","","","","","",""
"null","229400","SARL_v6","SARL_v61mxyzco0","631916c5e920aea5076777b0","freq_resp","","","img/blue_2bandit_b.png","70","img/blue_2bandit_b.png","70","test","","","","","","","","","","","5","","","","","","","","",""
"null","229559","SARL_v6","SARL_v61mxyzco0","631916c5e920aea5076777b0","fixation","","","img/fixation.png","null","","","test","","","","","","","","","","","","","","","","","","","",""
"586.5","230149","SARL_v6","SARL_v61mxyzco0","631916c5e920aea5076777b0","freq","","","img/blue_2bandit_b2.png","70","","70","test","1","","90","","","","circle","square","86","3","5","0.9418604651162791","","","","","","","",""
"null","230373","SARL_v6","SARL_v61mxyzco0","631916c5e920aea5076777b0","freq_resp","","","img/blue_2bandit_b.png","70","img/blue_2bandit_b.png","70","test","","","","","","","","","","","5","","","","","","","","",""
"null","230542","SARL_v6","SARL_v61mxyzco0","631916c5e920aea5076777b0","fixation","","","img/fixation.png","null","","","test","","","","","","","","","","","","","","","","","","","",""
"513.6000000238419","231058","SARL_v6","SARL_v61mxyzco0","631916c5e920aea5076777b0","infreq","","","img/orange_2bandit_b2.png","68","","68","test","1","","91","","","","circle","square","87","4","5","0.9425287356321839","","","","","","","",""
"null","231351","SARL_v6","SARL_v61mxyzco0","631916c5e920aea5076777b0","infreq_resp","","","img/orange_2bandit_b.png","68","img/orange_2bandit_b.png","68","test","","","","","","","","","","","5","","","","","","","","",""
"null","231509","SARL_v6","SARL_v61mxyzco0","631916c5e920aea5076777b0","fixation","","","img/fixation.png","null","","","test","","","","","","","","","","","","","","","","","","","",""
"351","231865","SARL_v6","SARL_v61mxyzco0","631916c5e920aea5076777b0","freq","","","img/blue_2bandit_b2.png","70","","70","test","1","","92","","","","circle","square","88","5","5","0.9431818181818182","","","","","","","",""
"null","232328","SARL_v6","SARL_v61mxyzco0","631916c5e920aea5076777b0","freq_resp","","","img/blue_2bandit_b.png","70","img/blue_2bandit_b.png","70","test","","","","","","","","","","","5","","","","","","","","",""
"null","232494","SARL_v6","SARL_v61mxyzco0","631916c5e920aea5076777b0","fixation","","","img/fixation.png","null","","","test","","","","","","","","","","","","","","","","","","","",""
"504.2999999523163","233002","SARL_v6","SARL_v61mxyzco0","631916c5e920aea5076777b0","infreq","","","img/orange_2bandit_b2.png","68","","68","test","1","","93","","","","circle","square","89","6","5","0.9438202247191011","","","","","","","",""
"null","233301","SARL_v6","SARL_v61mxyzco0","631916c5e920aea5076777b0","infreq_resp","","","img/orange_2bandit_b.png","68","img/orange_2bandit_b.png","68","test","","","","","","","","","","","5","","","","","","","","",""
"null","233460","SARL_v6","SARL_v61mxyzco0","631916c5e920aea5076777b0","fixation","","","img/fixation.png","null","","","test","","","","","","","","","","","","","","","","","","","",""
"null","234273","SARL_v6","SARL_v61mxyzco0","631916c5e920aea5076777b0","freq","","","img/blue_2bandit_b2.png","null","","70","test","0","","94","","","","circle","square","90","7","5","0.9333333333333333","","","","","","","",""
"null","234442","SARL_v6","SARL_v61mxyzco0","631916c5e920aea5076777b0","fixation","","","img/fixation.png","null","","","test","","","","","","","","","","","","","","","","","","","",""
"256.6999999284744","234701","SARL_v6","SARL_v61mxyzco0","631916c5e920aea5076777b0","freq","","","img/blue_2bandit_b2.png","70","","70","test","1","","95","","","","circle","square","91","8","5","0.9340659340659341","","","","","","","",""
"null","235256","SARL_v6","SARL_v61mxyzco0","631916c5e920aea5076777b0","freq_resp","","","img/blue_2bandit_b.png","70","img/blue_2bandit_b.png","70","test","","","","","","","","","","","5","","","","","","","","",""
"null","235425","SARL_v6","SARL_v61mxyzco0","631916c5e920aea5076777b0","fixation","","","img/fixation.png","null","","","test","","","","","","","","","","","","","","","","","","","",""
"361.39999997615814","235790","SARL_v6","SARL_v61mxyzco0","631916c5e920aea5076777b0","freq","","","img/blue_2bandit_b2.png","70","","70","test","1","","96","","","","circle","square","92","9","5","0.9347826086956522","","","","","","","",""
"null","236243","SARL_v6","SARL_v61mxyzco0","631916c5e920aea5076777b0","freq_resp","","","img/blue_2bandit_b.png","70","img/blue_2bandit_b.png","70","test","","","","","","","","","","","5","","","","","","","","",""
"null","236409","SARL_v6","SARL_v61mxyzco0","631916c5e920aea5076777b0","fixation","","","img/fixation.png","null","","","test","","","","","","","","","","","","","","","","","","","",""
"301.5","236714","SARL_v6","SARL_v61mxyzco0","631916c5e920aea5076777b0","freq","","","img/blue_2bandit_b2.png","70","","70","test","1","","97","","","","circle","square","93","10","5","0.9354838709677419","","","","","","","",""
"null","237225","SARL_v6","SARL_v61mxyzco0","631916c5e920aea5076777b0","freq_resp","","","img/blue_2bandit_b.png","70","img/blue_2bandit_b.png","70","test","","","","","","","","","","","5","","","","","","","","",""
"null","237392","SARL_v6","SARL_v61mxyzco0","631916c5e920aea5076777b0","fixation","","","img/fixation.png","null","","","test","","","","","","","","","","","","","","","","","","","",""
"328.10000002384186","237723","SARL_v6","SARL_v61mxyzco0","631916c5e920aea5076777b0","freq","","","img/blue_2bandit_b2.png","70","","70","test","1","","98","","","","circle","square","94","11","5","0.9361702127659575","","","","","","","",""
"null","238206","SARL_v6","SARL_v61mxyzco0","631916c5e920aea5076777b0","freq_resp","","","img/blue_2bandit_b.png","70","img/blue_2bandit_b.png","70","test","","","","","","","","","","","5","","","","","","","","",""
"null","238375","SARL_v6","SARL_v61mxyzco0","631916c5e920aea5076777b0","fixation","","","img/fixation.png","null","","","test","","","","","","","","","","","","","","","","","","","",""
"349.10000002384186","238727","SARL_v6","SARL_v61mxyzco0","631916c5e920aea5076777b0","freq","","","img/blue_2bandit_b2.png","70","","70","test","1","","99","","","","circle","square","95","12","5","0.9368421052631579","","","","","","","",""
"null","239186","SARL_v6","SARL_v61mxyzco0","631916c5e920aea5076777b0","freq_resp","","","img/blue_2bandit_b.png","70","img/blue_2bandit_b.png","70","test","","","","","","","","","","","5","","","","","","","","",""
"null","239342","SARL_v6","SARL_v61mxyzco0","631916c5e920aea5076777b0","fixation","","","img/fixation.png","null","","","test","","","","","","","","","","","","","","","","","","","",""
"336.59999990463257","239681","SARL_v6","SARL_v61mxyzco0","631916c5e920aea5076777b0","freq","","","img/blue_2bandit_b2.png","70","","70","test","1","","100","","","","circle","square","96","13","5","0.9375","","","","","","","",""
"null","240158","SARL_v6","SARL_v61mxyzco0","631916c5e920aea5076777b0","freq_resp","","","img/blue_2bandit_b.png","70","img/blue_2bandit_b.png","70","test","","","","","","","","","","","5","","","","","","","","",""
"null","240325","SARL_v6","SARL_v61mxyzco0","631916c5e920aea5076777b0","fixation","","","img/fixation.png","null","","","test","","","","","","","","","","","","","","","","","","","",""
"480.89999997615814","240809","SARL_v6","SARL_v61mxyzco0","631916c5e920aea5076777b0","freq","","","img/blue_2bandit_b2.png","70","","70","test","1","","101","","","","circle","square","97","14","5","0.9381443298969072","","","","","","","",""
"null","241139","SARL_v6","SARL_v61mxyzco0","631916c5e920aea5076777b0","freq_resp","","","img/blue_2bandit_b.png","70","img/blue_2bandit_b.png","70","test","","","","","","","","","","","5","","","","","","","","",""
"null","241308","SARL_v6","SARL_v61mxyzco0","631916c5e920aea5076777b0","fixation","","","img/fixation.png","null","","","test","","","","","","","","","","","","","","","","","","","",""
"443.10000002384186","241754","SARL_v6","SARL_v61mxyzco0","631916c5e920aea5076777b0","freq","","","img/blue_2bandit_b2.png","70","","70","test","1","","102","","","","circle","square","98","15","5","0.9387755102040817","","","","","","","",""
"null","242114","SARL_v6","SARL_v61mxyzco0","631916c5e920aea5076777b0","freq_resp","","","img/blue_2bandit_b.png","70","img/blue_2bandit_b.png","70","test","","","","","","","","","","","5","","","","","","","","",""
"null","242276","SARL_v6","SARL_v61mxyzco0","631916c5e920aea5076777b0","fixation","","","img/fixation.png","null","","","test","","","","","","","","","","","","","","","","","","","",""
"538.6000000238419","242818","SARL_v6","SARL_v61mxyzco0","631916c5e920aea5076777b0","infreq","","","img/orange_2bandit_b2.png","68","","68","test","1","","103","","","","circle","square","99","16","5","0.9393939393939394","","","","","","","",""
"null","243087","SARL_v6","SARL_v61mxyzco0","631916c5e920aea5076777b0","infreq_resp","","","img/orange_2bandit_b.png","68","img/orange_2bandit_b.png","68","test","","","","","","","","","","","5","","","","","","","","",""
"null","243242","SARL_v6","SARL_v61mxyzco0","631916c5e920aea5076777b0","fixation","","","img/fixation.png","null","","","test","","","","","","","","","","","","","","","","","","","",""
"516.5999999046326","243762","SARL_v6","SARL_v61mxyzco0","631916c5e920aea5076777b0","freq","","","img/blue_2bandit_b2.png","70","","70","test","1","","104","","","","circle","square","100","17","5","0.94","","","","","","","",""
"null","244053","SARL_v6","SARL_v61mxyzco0","631916c5e920aea5076777b0","freq_resp","","","img/blue_2bandit_b.png","70","img/blue_2bandit_b.png","70","test","","","","","","","","","","","5","","","","","","","","",""
"null","244210","SARL_v6","SARL_v61mxyzco0","631916c5e920aea5076777b0","fixation","","","img/fixation.png","null","","","test","","","","","","","","","","","","","","","","","","","",""
"364.8000000715256","244578","SARL_v6","SARL_v61mxyzco0","631916c5e920aea5076777b0","freq","","","img/blue_2bandit_b2.png","70","","70","test","1","","105","","","","circle","square","101","18","5","0.9405940594059405","","","","","","","",""
"null","245027","SARL_v6","SARL_v61mxyzco0","631916c5e920aea5076777b0","freq_resp","","","img/blue_2bandit_b.png","70","img/blue_2bandit_b.png","70","test","","","","","","","","","","","5","","","","","","","","",""
"null","245193","SARL_v6","SARL_v61mxyzco0","631916c5e920aea5076777b0","fixation","","","img/fixation.png","null","","","test","","","","","","","","","","","","","","","","","","","",""
"319.5","245516","SARL_v6","SARL_v61mxyzco0","631916c5e920aea5076777b0","freq","","","img/blue_2bandit_b2.png","70","","70","test","1","","106","","","","circle","square","102","19","5","0.9411764705882353","","","","","","","",""
"null","246008","SARL_v6","SARL_v61mxyzco0","631916c5e920aea5076777b0","freq_resp","","","img/blue_2bandit_b.png","70","img/blue_2bandit_b.png","70","test","","","","","","","","","","","5","","","","","","","","",""
"null","246174","SARL_v6","SARL_v61mxyzco0","631916c5e920aea5076777b0","fixation","","","img/fixation.png","null","","","test","","","","","","","","","","","","","","","","","","","",""
"392.8000000715256","246570","SARL_v6","SARL_v61mxyzco0","631916c5e920aea5076777b0","freq","","","img/blue_2bandit_b2.png","70","","70","test","1","","107","","","","circle","square","103","20","5","0.941747572815534","","","","","","","",""
"null","246993","SARL_v6","SARL_v61mxyzco0","631916c5e920aea5076777b0","freq_resp","","","img/blue_2bandit_b.png","70","img/blue_2bandit_b.png","70","test","","","","","","","","","","","5","","","","","","","","",""
"null","247161","SARL_v6","SARL_v61mxyzco0","631916c5e920aea5076777b0","fixation","","","img/fixation.png","null","","","test","","","","","","","","","","","","","","","","","","","",""
"323.89999997615814","247488","SARL_v6","SARL_v61mxyzco0","631916c5e920aea5076777b0","freq","","","img/blue_2bandit_b2.png","70","","70","test","1","","108","","","","circle","square","104","21","5","0.9423076923076923","","","","","","","",""
"null","247974","SARL_v6","SARL_v61mxyzco0","631916c5e920aea5076777b0","freq_resp","","","img/blue_2bandit_b.png","70","img/blue_2bandit_b.png","70","test","","","","","","","","","","","5","","","","","","","","",""
"null","248141","SARL_v6","SARL_v61mxyzco0","631916c5e920aea5076777b0","fixation","","","img/fixation.png","null","","","test","","","","","","","","","","","","","","","","","","","",""
"404","248548","SARL_v6","SARL_v61mxyzco0","631916c5e920aea5076777b0","freq","","","img/blue_2bandit_b2.png","70","","70","test","1","","109","","","","circle","square","105","22","5","0.9428571428571428","","","","","","","",""
"null","248960","SARL_v6","SARL_v61mxyzco0","631916c5e920aea5076777b0","freq_resp","","","img/blue_2bandit_b.png","70","img/blue_2bandit_b.png","70","test","","","","","","","","","","","5","","","","","","","","",""
"null","249126","SARL_v6","SARL_v61mxyzco0","631916c5e920aea5076777b0","fixation","","","img/fixation.png","null","","","test","","","","","","","","","","","","","","","","","","","",""
"296.7999999523163","249427","SARL_v6","SARL_v61mxyzco0","631916c5e920aea5076777b0","freq","","","img/blue_2bandit_b2.png","70","","70","test","1","","110","","","","circle","square","106","23","5","0.9433962264150944","","","","","","","",""
"null","249939","SARL_v6","SARL_v61mxyzco0","631916c5e920aea5076777b0","freq_resp","","","img/blue_2bandit_b.png","70","img/blue_2bandit_b.png","70","test","","","","","","","","","","","5","","","","","","","","",""
"null","250093","SARL_v6","SARL_v61mxyzco0","631916c5e920aea5076777b0","fixation","","","img/fixation.png","null","","","test","","","","","","","","","","","","","","","","","","","",""
"304.10000002384186","250400","SARL_v6","SARL_v61mxyzco0","631916c5e920aea5076777b0","freq","","","img/blue_2bandit_b2.png","70","","70","test","1","","111","","","","circle","square","107","24","5","0.9439252336448598","","","","","","","",""
"null","250907","SARL_v6","SARL_v61mxyzco0","631916c5e920aea5076777b0","freq_resp","","","img/blue_2bandit_b.png","70","img/blue_2bandit_b.png","70","test","","","","","","","","","","","5","","","","","","","","",""
"null","251076","SARL_v6","SARL_v61mxyzco0","631916c5e920aea5076777b0","fixation","","","img/fixation.png","null","","","test","","","","","","","","","","","","","","","","","","","",""
"295.3000000715256","251374","SARL_v6","SARL_v61mxyzco0","631916c5e920aea5076777b0","freq","","","img/blue_2bandit_b2.png","70","","70","test","1","","112","","","","circle","square","108","25","5","0.9444444444444444","","","","","","","",""
"null","251908","SARL_v6","SARL_v61mxyzco0","631916c5e920aea5076777b0","freq_resp","","","img/blue_2bandit_b.png","70","img/blue_2bandit_b.png","70","test","","","","","","","","","","","5","","","","","","","","",""
"null","252074","SARL_v6","SARL_v61mxyzco0","631916c5e920aea5076777b0","fixation","","","img/fixation.png","null","","","test","","","","","","","","","","","","","","","","","","","",""
"727.3999999761581","252806","SARL_v6","SARL_v61mxyzco0","631916c5e920aea5076777b0","rl","","","img/black_2bandit_b2.png","74","","0","test","","","113","","","4","circle","square","","0","5","","74","4","-7","4","-7","circle","5","0"
"null","253574","SARL_v6","SARL_v61mxyzco0","631916c5e920aea5076777b0","feedback","","","<div class=""veryhighPoints""> 4 </div>","null","","na","test","","","NaN","","","","","","","","5","","74","","","","","","5",""
"540.6000000238419","254118","SARL_v6","SARL_v61mxyzco0","631916c5e920aea5076777b0","freq","","","img/blue_2bandit_b2.png","70","","70","test","1","","114","","","","circle","square","109","1","6","0.944954128440367","","","","","","","",""
"null","254387","SARL_v6","SARL_v61mxyzco0","631916c5e920aea5076777b0","freq_resp","","","img/blue_2bandit_b.png","70","img/blue_2bandit_b.png","70","test","","","","","","","","","","","6","","","","","","","","",""
"null","254543","SARL_v6","SARL_v61mxyzco0","631916c5e920aea5076777b0","fixation","","","img/fixation.png","null","","","test","","","","","","","","","","","","","","","","","","","",""
"450.3000000715256","254997","SARL_v6","SARL_v61mxyzco0","631916c5e920aea5076777b0","infreq","","","img/orange_2bandit_b2.png","68","","68","test","1","","115","","","","circle","square","110","2","6","0.9454545454545454","","","","","","","",""
"null","255365","SARL_v6","SARL_v61mxyzco0","631916c5e920aea5076777b0","infreq_resp","","","img/orange_2bandit_b.png","68","img/orange_2bandit_b.png","68","test","","","","","","","","","","","6","","","","","","","","",""
"null","255526","SARL_v6","SARL_v61mxyzco0","631916c5e920aea5076777b0","fixation","","","img/fixation.png","null","","","test","","","","","","","","","","","","","","","","","","","",""
"386.2999999523163","255916","SARL_v6","SARL_v61mxyzco0","631916c5e920aea5076777b0","infreq","","","img/orange_2bandit_b2.png","68","","68","test","1","","116","","","","circle","square","111","3","6","0.9459459459459459","","","","","","","",""
"null","256344","SARL_v6","SARL_v61mxyzco0","631916c5e920aea5076777b0","infreq_resp","","","img/orange_2bandit_b.png","68","img/orange_2bandit_b.png","68","test","","","","","","","","","","","6","","","","","","","","",""
"null","256509","SARL_v6","SARL_v61mxyzco0","631916c5e920aea5076777b0","fixation","","","img/fixation.png","null","","","test","","","","","","","","","","","","","","","","","","","",""
"383.2999999523163","256895","SARL_v6","SARL_v61mxyzco0","631916c5e920aea5076777b0","freq","","","img/blue_2bandit_b2.png","70","","70","test","1","","117","","","","circle","square","112","4","6","0.9464285714285714","","","","","","","",""
"null","257327","SARL_v6","SARL_v61mxyzco0","631916c5e920aea5076777b0","freq_resp","","","img/blue_2bandit_b.png","70","img/blue_2bandit_b.png","70","test","","","","","","","","","","","6","","","","","","","","",""
"null","257492","SARL_v6","SARL_v61mxyzco0","631916c5e920aea5076777b0","fixation","","","img/fixation.png","null","","","test","","","","","","","","","","","","","","","","","","","",""
"323.60000002384186","257819","SARL_v6","SARL_v61mxyzco0","631916c5e920aea5076777b0","freq","","","img/blue_2bandit_b2.png","70","","70","test","1","","118","","","","circle","square","113","5","6","0.9469026548672567","","","","","","","",""
"null","258308","SARL_v6","SARL_v61mxyzco0","631916c5e920aea5076777b0","freq_resp","","","img/blue_2bandit_b.png","70","img/blue_2bandit_b.png","70","test","","","","","","","","","","","6","","","","","","","","",""
"null","258474","SARL_v6","SARL_v61mxyzco0","631916c5e920aea5076777b0","fixation","","","img/fixation.png","null","","","test","","","","","","","","","","","","","","","","","","","",""
"489.8000000715256","258967","SARL_v6","SARL_v61mxyzco0","631916c5e920aea5076777b0","freq","","","img/blue_2bandit_b2.png","70","","70","test","1","","119","","","","circle","square","114","6","6","0.9473684210526315","","","","","","","",""
"null","259283","SARL_v6","SARL_v61mxyzco0","631916c5e920aea5076777b0","freq_resp","","","img/blue_2bandit_b.png","70","img/blue_2bandit_b.png","70","test","","","","","","","","","","","6","","","","","","","","",""
"null","259442","SARL_v6","SARL_v61mxyzco0","631916c5e920aea5076777b0","fixation","","","img/fixation.png","null","","","test","","","","","","","","","","","","","","","","","","","",""
"416.39999997615814","259862","SARL_v6","SARL_v61mxyzco0","631916c5e920aea5076777b0","freq","","","img/blue_2bandit_b2.png","70","","70","test","1","","120","","","","circle","square","115","7","6","0.9478260869565217","","","","","","","",""
"null","260263","SARL_v6","SARL_v61mxyzco0","631916c5e920aea5076777b0","freq_resp","","","img/blue_2bandit_b.png","70","img/blue_2bandit_b.png","70","test","","","","","","","","","","","6","","","","","","","","",""
"null","260428","SARL_v6","SARL_v61mxyzco0","631916c5e920aea5076777b0","fixation","","","img/fixation.png","null","","","test","","","","","","","","","","","","","","","","","","","",""
"459.5","260890","SARL_v6","SARL_v61mxyzco0","631916c5e920aea5076777b0","freq","","","img/blue_2bandit_b2.png","70","","70","test","1","","121","","","","circle","square","116","8","6","0.9482758620689655","","","","","","","",""
"null","261248","SARL_v6","SARL_v61mxyzco0","631916c5e920aea5076777b0","freq_resp","","","img/blue_2bandit_b.png","70","img/blue_2bandit_b.png","70","test","","","","","","","","","","","6","","","","","","","","",""
"null","261410","SARL_v6","SARL_v61mxyzco0","631916c5e920aea5076777b0","fixation","","","img/fixation.png","null","","","test","","","","","","","","","","","","","","","","","","","",""
"317.89999997615814","261731","SARL_v6","SARL_v61mxyzco0","631916c5e920aea5076777b0","freq","","","img/blue_2bandit_b2.png","70","","70","test","1","","122","","","","circle","square","117","9","6","0.9487179487179487","","","","","","","",""
"null","262225","SARL_v6","SARL_v61mxyzco0","631916c5e920aea5076777b0","freq_resp","","","img/blue_2bandit_b.png","70","img/blue_2bandit_b.png","70","test","","","","","","","","","","","6","","","","","","","","",""
"null","262390","SARL_v6","SARL_v61mxyzco0","631916c5e920aea5076777b0","fixation","","","img/fixation.png","null","","","test","","","","","","","","","","","","","","","","","","","",""
"291.2000000476837","262684","SARL_v6","SARL_v61mxyzco0","631916c5e920aea5076777b0","freq","","","img/blue_2bandit_b2.png","70","","70","test","1","","123","","","","circle","square","118","10","6","0.9491525423728814","","","","","","","",""
"null","263204","SARL_v6","SARL_v61mxyzco0","631916c5e920aea5076777b0","freq_resp","","","img/blue_2bandit_b.png","70","img/blue_2bandit_b.png","70","test","","","","","","","","","","","6","","","","","","","","",""
"null","263374","SARL_v6","SARL_v61mxyzco0","631916c5e920aea5076777b0","fixation","","","img/fixation.png","null","","","test","","","","","","","","","","","","","","","","","","","",""
"275.7999999523163","263652","SARL_v6","SARL_v61mxyzco0","631916c5e920aea5076777b0","freq","","","img/blue_2bandit_b2.png","70","","70","test","1","","124","","","","circle","square","119","11","6","0.9495798319327731","","","","","","","",""
"null","264187","SARL_v6","SARL_v61mxyzco0","631916c5e920aea5076777b0","freq_resp","","","img/blue_2bandit_b.png","70","img/blue_2bandit_b.png","70","test","","","","","","","","","","","6","","","","","","","","",""
"null","264342","SARL_v6","SARL_v61mxyzco0","631916c5e920aea5076777b0","fixation","","","img/fixation.png","null","","","test","","","","","","","","","","","","","","","","","","","",""
"242.29999995231628","264587","SARL_v6","SARL_v61mxyzco0","631916c5e920aea5076777b0","freq","","","img/blue_2bandit_b2.png","70","","70","test","1","","125","","","","circle","square","120","12","6","0.95","","","","","","","",""
"null","265152","SARL_v6","SARL_v61mxyzco0","631916c5e920aea5076777b0","freq_resp","","","img/blue_2bandit_b.png","70","img/blue_2bandit_b.png","70","test","","","","","","","","","","","6","","","","","","","","",""
"null","265309","SARL_v6","SARL_v61mxyzco0","631916c5e920aea5076777b0","fixation","","","img/fixation.png","null","","","test","","","","","","","","","","","","","","","","","","","",""
"293.89999997615814","265607","SARL_v6","SARL_v61mxyzco0","631916c5e920aea5076777b0","freq","","","img/blue_2bandit_b2.png","70","","70","test","1","","126","","","","circle","square","121","13","6","0.9504132231404959","","","","","","","",""
"null","266122","SARL_v6","SARL_v61mxyzco0","631916c5e920aea5076777b0","freq_resp","","","img/blue_2bandit_b.png","70","img/blue_2bandit_b.png","70","test","","","","","","","","","","","6","","","","","","","","",""
"null","266275","SARL_v6","SARL_v61mxyzco0","631916c5e920aea5076777b0","fixation","","","img/fixation.png","null","","","test","","","","","","","","","","","","","","","","","","","",""
"332.7999999523163","266612","SARL_v6","SARL_v61mxyzco0","631916c5e920aea5076777b0","freq","","","img/blue_2bandit_b2.png","70","","70","test","1","","127","","","","circle","square","122","14","6","0.9508196721311475","","","","","","","",""
"null","267093","SARL_v6","SARL_v61mxyzco0","631916c5e920aea5076777b0","freq_resp","","","img/blue_2bandit_b.png","70","img/blue_2bandit_b.png","70","test","","","","","","","","","","","6","","","","","","","","",""
"null","267259","SARL_v6","SARL_v61mxyzco0","631916c5e920aea5076777b0","fixation","","","img/fixation.png","null","","","test","","","","","","","","","","","","","","","","","","","",""
"283.1999999284744","267546","SARL_v6","SARL_v61mxyzco0","631916c5e920aea5076777b0","freq","","","img/blue_2bandit_b2.png","70","","70","test","1","","128","","","","circle","square","123","15","6","0.9512195121951219","","","","","","","",""
"null","268073","SARL_v6","SARL_v61mxyzco0","631916c5e920aea5076777b0","freq_resp","","","img/blue_2bandit_b.png","70","img/blue_2bandit_b.png","70","test","","","","","","","","","","","6","","","","","","","","",""
"null","268240","SARL_v6","SARL_v61mxyzco0","631916c5e920aea5076777b0","fixation","","","img/fixation.png","null","","","test","","","","","","","","","","","","","","","","","","","",""
"315.8000000715256","268559","SARL_v6","SARL_v61mxyzco0","631916c5e920aea5076777b0","freq","","","img/blue_2bandit_b2.png","70","","70","test","1","","129","","","","circle","square","124","16","6","0.9516129032258065","","","","","","","",""
"null","269056","SARL_v6","SARL_v61mxyzco0","631916c5e920aea5076777b0","freq_resp","","","img/blue_2bandit_b.png","70","img/blue_2bandit_b.png","70","test","","","","","","","","","","","6","","","","","","","","",""
"null","269225","SARL_v6","SARL_v61mxyzco0","631916c5e920aea5076777b0","fixation","","","img/fixation.png","null","","","test","","","","","","","","","","","","","","","","","","","",""
"256.5","269485","SARL_v6","SARL_v61mxyzco0","631916c5e920aea5076777b0","freq","","","img/blue_2bandit_b2.png","70","","70","test","1","","130","","","","circle","square","125","17","6","0.952","","","","","","","",""
"null","270035","SARL_v6","SARL_v61mxyzco0","631916c5e920aea5076777b0","freq_resp","","","img/blue_2bandit_b.png","70","img/blue_2bandit_b.png","70","test","","","","","","","","","","","6","","","","","","","","",""
"null","270192","SARL_v6","SARL_v61mxyzco0","631916c5e920aea5076777b0","fixation","","","img/fixation.png","null","","","test","","","","","","","","","","","","","","","","","","","",""
"296.7999999523163","270493","SARL_v6","SARL_v61mxyzco0","631916c5e920aea5076777b0","freq","","","img/blue_2bandit_b2.png","70","","70","test","1","","131","","","","circle","square","126","18","6","0.9523809523809523","","","","","","","",""
"null","271006","SARL_v6","SARL_v61mxyzco0","631916c5e920aea5076777b0","freq_resp","","","img/blue_2bandit_b.png","70","img/blue_2bandit_b.png","70","test","","","","","","","","","","","6","","","","","","","","",""
"null","271174","SARL_v6","SARL_v61mxyzco0","631916c5e920aea5076777b0","fixation","","","img/fixation.png","null","","","test","","","","","","","","","","","","","","","","","","","",""
"289.60000002384186","271467","SARL_v6","SARL_v61mxyzco0","631916c5e920aea5076777b0","freq","","","img/blue_2bandit_b2.png","70","","70","test","1","","132","","","","circle","square","127","19","6","0.952755905511811","","","","","","","",""
"null","271988","SARL_v6","SARL_v61mxyzco0","631916c5e920aea5076777b0","freq_resp","","","img/blue_2bandit_b.png","70","img/blue_2bandit_b.png","70","test","","","","","","","","","","","6","","","","","","","","",""
