"rt","time_elapsed","expId","subject","prolificID","trialType","rlType","attType","stimulus","key_press","stim","corrresp","phase","corr","pracCounter","trialNum","rewardOne","rewardTwo","reward","bandOne","bandTwo","attentionNum","attentionRunNum","blockNum","performance","bandChosen","circleVal","squareVal","bandOneVal","bandTwoVal","shapeChosen","rlNum","badFlag"
"28178","28182","SARL_v6","SARL_v6vpm33z2u","5bbc18010cb04c00015025ce","","","","","","","","","","","","","","","","","","","","","","","","","","","",""
"","30525","SARL_v6","SARL_v6vpm33z2u","5bbc18010cb04c00015025ce","fullscreen","fullscreen","fullscreen","","","","","","","","","","","","","","","","","","","","","","","","",""
"89572.80000019073","120104","SARL_v6","SARL_v6vpm33z2u","5bbc18010cb04c00015025ce","","","","","","","","","","","","","","","","","","","","","","","","","","","",""
"null","120918","SARL_v6","SARL_v6vpm33z2u","5bbc18010cb04c00015025ce","freqPrac","","","img/orange_2bandit_b2.png","null","img/orange_2bandit_b2.png","70","prac","0","1","","","","","","","","","","","","","","","","","",""
"null","121935","SARL_v6","SARL_v6vpm33z2u","5bbc18010cb04c00015025ce","feedback","","","img/tooSlow.png","null","","na","prac","","","","","","","","","","","","","","","","","","","",""
"null","122107","SARL_v6","SARL_v6vpm33z2u","5bbc18010cb04c00015025ce","fixation","","","img/fixation.png","null","","","prac","","","","","","","","","","","","","","","","","","","",""
"578.2999997138977","122692","SARL_v6","SARL_v6vpm33z2u","5bbc18010cb04c00015025ce","infreqPrac","","","img/blue_2bandit_b2.png","68","img/blue_2bandit_b2.png","68","prac","1","1","","","","","","","","","","","","","","","","","",""
"578.2999997138977","122929","SARL_v6","SARL_v6vpm33z2u","5bbc18010cb04c00015025ce","infreqPrac_resp","","","img/blue_2bandit_b.png","68","img/blue_2bandit_b.png","68","prac","","","","","","","","","","","","","","","","","","","",""
"null","123098","SARL_v6","SARL_v6vpm33z2u","5bbc18010cb04c00015025ce","fixation","","","img/fixation.png","null","","","prac","","","","","","","","","","","","","","","","","","","",""
"722.6999998092651","123826","SARL_v6","SARL_v6vpm33z2u","5bbc18010cb04c00015025ce","freqPrac","","","img/orange_2bandit_b2.png","70","img/orange_2bandit_b2.png","70","prac","1","1","","","","","","","","","","","","","","","","","",""
"722.6999998092651","123918","SARL_v6","SARL_v6vpm33z2u","5bbc18010cb04c00015025ce","freqPrac_resp","","","img/orange_2bandit_b.png","70","img/orange_2bandit_b.png","70","prac","","","","","","","","","","","","","","","","","","","",""
"null","124085","SARL_v6","SARL_v6vpm33z2u","5bbc18010cb04c00015025ce","fixation","","","img/fixation.png","null","","","prac","","","","","","","","","","","","","","","","","","","",""
"459.7000002861023","124549","SARL_v6","SARL_v6vpm33z2u","5bbc18010cb04c00015025ce","infreqPrac","","","img/blue_2bandit_b2.png","68","img/blue_2bandit_b2.png","68","prac","1","1","","","","","","","","","","","","","","","","","",""
"459.7000002861023","124903","SARL_v6","SARL_v6vpm33z2u","5bbc18010cb04c00015025ce","infreqPrac_resp","","","img/blue_2bandit_b.png","68","img/blue_2bandit_b.png","68","prac","","","","","","","","","","","","","","","","","","","",""
"null","125064","SARL_v6","SARL_v6vpm33z2u","5bbc18010cb04c00015025ce","fixation","","","img/fixation.png","null","","","prac","","","","","","","","","","","","","","","","","","","",""
"505.90000009536743","125576","SARL_v6","SARL_v6vpm33z2u","5bbc18010cb04c00015025ce","infreqPrac","","","img/blue_2bandit_b2.png","68","img/blue_2bandit_b2.png","68","prac","1","1","","","","","","","","","","","","","","","","","",""
"505.90000009536743","125882","SARL_v6","SARL_v6vpm33z2u","5bbc18010cb04c00015025ce","infreqPrac_resp","","","img/blue_2bandit_b.png","68","img/blue_2bandit_b.png","68","prac","","","","","","","","","","","","","","","","","","","",""
"null","126048","SARL_v6","SARL_v6vpm33z2u","5bbc18010cb04c00015025ce","fixation","","","img/fixation.png","null","","","prac","","","","","","","","","","","","","","","","","","","",""
"385.90000009536743","126439","SARL_v6","SARL_v6vpm33z2u","5bbc18010cb04c00015025ce","infreqPrac","","","img/blue_2bandit_b2.png","68","img/blue_2bandit_b2.png","68","prac","1","1","","","","","","","","","","","","","","","","","",""
"385.90000009536743","126874","SARL_v6","SARL_v6vpm33z2u","5bbc18010cb04c00015025ce","infreqPrac_resp","","","img/blue_2bandit_b.png","68","img/blue_2bandit_b.png","68","prac","","","","","","","","","","","","","","","","","","","",""
"null","127041","SARL_v6","SARL_v6vpm33z2u","5bbc18010cb04c00015025ce","fixation","","","img/fixation.png","null","","","prac","","","","","","","","","","","","","","","","","","","",""
"450.59999990463257","127497","SARL_v6","SARL_v6vpm33z2u","5bbc18010cb04c00015025ce","freqPrac","","","img/orange_2bandit_b2.png","70","img/orange_2bandit_b2.png","70","prac","1","1","","","","","","","","","","","","","","","","","",""
"450.59999990463257","127862","SARL_v6","SARL_v6vpm33z2u","5bbc18010cb04c00015025ce","freqPrac_resp","","","img/orange_2bandit_b.png","70","img/orange_2bandit_b.png","70","prac","","","","","","","","","","","","","","","","","","","",""
"null","128027","SARL_v6","SARL_v6vpm33z2u","5bbc18010cb04c00015025ce","fixation","","","img/fixation.png","null","","","prac","","","","","","","","","","","","","","","","","","","",""
"478.09999990463257","128516","SARL_v6","SARL_v6vpm33z2u","5bbc18010cb04c00015025ce","infreqPrac","","","img/blue_2bandit_b2.png","68","img/blue_2bandit_b2.png","68","prac","1","1","","","","","","","","","","","","","","","","","",""
"478.09999990463257","128859","SARL_v6","SARL_v6vpm33z2u","5bbc18010cb04c00015025ce","infreqPrac_resp","","","img/blue_2bandit_b.png","68","img/blue_2bandit_b.png","68","prac","","","","","","","","","","","","","","","","","","","",""
"null","129019","SARL_v6","SARL_v6vpm33z2u","5bbc18010cb04c00015025ce","fixation","","","img/fixation.png","null","","","prac","","","","","","","","","","","","","","","","","","","",""
"544.0999999046326","129570","SARL_v6","SARL_v6vpm33z2u","5bbc18010cb04c00015025ce","freqPrac","","","img/orange_2bandit_b2.png","70","img/orange_2bandit_b2.png","70","prac","1","1","","","","","","","","","","","","","","","","","",""
"544.0999999046326","129839","SARL_v6","SARL_v6vpm33z2u","5bbc18010cb04c00015025ce","freqPrac_resp","","","img/orange_2bandit_b.png","70","img/orange_2bandit_b.png","70","prac","","","","","","","","","","","","","","","","","","","",""
"null","130006","SARL_v6","SARL_v6vpm33z2u","5bbc18010cb04c00015025ce","fixation","","","img/fixation.png","null","","","prac","","","","","","","","","","","","","","","","","","","",""
"569.9000000953674","130583","SARL_v6","SARL_v6vpm33z2u","5bbc18010cb04c00015025ce","freqPrac","","","img/orange_2bandit_b2.png","70","img/orange_2bandit_b2.png","70","prac","1","1","","","","","","","","","","","","","","","","","",""
"569.9000000953674","130835","SARL_v6","SARL_v6vpm33z2u","5bbc18010cb04c00015025ce","freqPrac_resp","","","img/orange_2bandit_b.png","70","img/orange_2bandit_b.png","70","prac","","","","","","","","","","","","","","","","","","","",""
"null","131002","SARL_v6","SARL_v6vpm33z2u","5bbc18010cb04c00015025ce","fixation","","","img/fixation.png","null","","","prac","","","","","","","","","","","","","","","","","","","",""
"43084.699999809265","174089","SARL_v6","SARL_v6vpm33z2u","5bbc18010cb04c00015025ce","","","","","","","","prac","","","","","","","","","","","","","","","","","","","",""
"406","174505","SARL_v6","SARL_v6vpm33z2u","5bbc18010cb04c00015025ce","rlPractice","","","img/black_2bandit_b2.png","74","img/black_2bandit_b2.png","","prac","","","0","","","","","","","","","","","","","","","","",""
"null","175268","SARL_v6","SARL_v6vpm33z2u","5bbc18010cb04c00015025ce","feedback","","","<div class=""veryhighPoints""> 10 </div>","null","","na","prac","","","1","10","-14","10","","","","","","","","","","","","","",""
"null","175432","SARL_v6","SARL_v6vpm33z2u","5bbc18010cb04c00015025ce","fixation","","","img/fixation.png","null","","","prac","","","","","","","","","","","","","","","","","","","",""
"459","175898","SARL_v6","SARL_v6vpm33z2u","5bbc18010cb04c00015025ce","rlPractice","","","img/black_2bandit_b2.png","74","img/black_2bandit_b2.png","","prac","","","1","","","","","","","","","","","","","","","","",""
"null","176665","SARL_v6","SARL_v6vpm33z2u","5bbc18010cb04c00015025ce","feedback","","","<div class=""veryhighPoints""> 5 </div>","null","","na","prac","","","2","5","-5","5","","","","","","","","","","","","","",""
"null","176829","SARL_v6","SARL_v6vpm33z2u","5bbc18010cb04c00015025ce","fixation","","","img/fixation.png","null","","","prac","","","","","","","","","","","","","","","","","","","",""
"298.09999990463257","177134","SARL_v6","SARL_v6vpm33z2u","5bbc18010cb04c00015025ce","rlPractice","","","img/black_2bandit_b2.png","75","img/black_2bandit_b2.png","","prac","","","2","","","","","","","","","","","","","","","","",""
"null","177901","SARL_v6","SARL_v6vpm33z2u","5bbc18010cb04c00015025ce","feedback","","","<div class=""veryhighPoints_sq""> 2 </div>","null","","na","prac","","","3","30","2","30","","","","","","","","","","","","","",""
"null","178063","SARL_v6","SARL_v6vpm33z2u","5bbc18010cb04c00015025ce","fixation","","","img/fixation.png","null","","","prac","","","","","","","","","","","","","","","","","","","",""
"276.40000009536743","178343","SARL_v6","SARL_v6vpm33z2u","5bbc18010cb04c00015025ce","rlPractice","","","img/black_2bandit_b2.png","74","img/black_2bandit_b2.png","","prac","","","3","","","","","","","","","","","","","","","","",""
"null","179105","SARL_v6","SARL_v6vpm33z2u","5bbc18010cb04c00015025ce","feedback","","","<div class=""verylowPoints""> -2 </div>","null","","na","prac","","","4","-2","20","-2","","","","","","","","","","","","","",""
"null","179269","SARL_v6","SARL_v6vpm33z2u","5bbc18010cb04c00015025ce","fixation","","","img/fixation.png","null","","","prac","","","","","","","","","","","","","","","","","","","",""
"25266.60000038147","204539","SARL_v6","SARL_v6vpm33z2u","5bbc18010cb04c00015025ce","","","","","","","","prac","","","","","","","","","","","","","","","","","","","",""
"null","205350","SARL_v6","SARL_v6vpm33z2u","5bbc18010cb04c00015025ce","mixAttFreqPrac","","","img/orange_2bandit_b2.png","null","img/orange_2bandit_b2.png","70","prac","","","1","","","","","","","","","","","","","","","","",""
"18.300000190734863","205513","SARL_v6","SARL_v6vpm33z2u","5bbc18010cb04c00015025ce","fixation","","","img/fixation.png","70","","","prac","","","","","","","","","","","","","","","","","","","",""
"596.6000003814697","206116","SARL_v6","SARL_v6vpm33z2u","5bbc18010cb04c00015025ce","mixAttInfreqPrac","","","img/blue_2bandit_b2.png","68","img/blue_2bandit_b2.png","68","prac","","","2","","","","","","","","","","","","","","","","",""
"596.6000003814697","206340","SARL_v6","SARL_v6vpm33z2u","5bbc18010cb04c00015025ce","infreqPrac_resp","","","img/blue_2bandit_b.png","68","img/orange_2bandit_b.png","68","prac","","","2","","","","","","","","","","","","","","","","",""
"null","206497","SARL_v6","SARL_v6vpm33z2u","5bbc18010cb04c00015025ce","fixation","","","img/fixation.png","null","","","prac","","","","","","","","","","","","","","","","","","","",""
"690.3000001907349","207194","SARL_v6","SARL_v6vpm33z2u","5bbc18010cb04c00015025ce","mixAttInfreqPrac","","","img/blue_2bandit_b2.png","68","img/blue_2bandit_b2.png","68","prac","","","3","","","","","","","","","","","","","","","","",""
"690.3000001907349","207316","SARL_v6","SARL_v6vpm33z2u","5bbc18010cb04c00015025ce","infreqPrac_resp","","","img/blue_2bandit_b.png","68","img/orange_2bandit_b.png","68","prac","","","3","","","","","","","","","","","","","","","","",""
"null","207483","SARL_v6","SARL_v6vpm33z2u","5bbc18010cb04c00015025ce","fixation","","","img/fixation.png","null","","","prac","","","","","","","","","","","","","","","","","","","",""
"428.40000009536743","207918","SARL_v6","SARL_v6vpm33z2u","5bbc18010cb04c00015025ce","mixAttInfreqPrac","","","img/blue_2bandit_b2.png","68","img/blue_2bandit_b2.png","68","prac","","","4","","","","","","","","","","","","","","","","",""
"428.40000009536743","208302","SARL_v6","SARL_v6vpm33z2u","5bbc18010cb04c00015025ce","infreqPrac_resp","","","img/blue_2bandit_b.png","68","img/orange_2bandit_b.png","68","prac","","","4","","","","","","","","","","","","","","","","",""
"null","208476","SARL_v6","SARL_v6vpm33z2u","5bbc18010cb04c00015025ce","fixation","","","img/fixation.png","null","","","prac","","","","","","","","","","","","","","","","","","","",""
"423.19999980926514","208906","SARL_v6","SARL_v6vpm33z2u","5bbc18010cb04c00015025ce","mixAttFreqPrac","","","img/orange_2bandit_b2.png","70","img/orange_2bandit_b2.png","70","prac","","","5","","","","","","","","","","","","","","","","",""
"423.19999980926514","209297","SARL_v6","SARL_v6vpm33z2u","5bbc18010cb04c00015025ce","freqPrac_resp","","","img/orange_2bandit_b.png","70","img/orange_2bandit_b.png","70","prac","","","5","","","","","","","","","","","","","","","","",""
"null","209466","SARL_v6","SARL_v6vpm33z2u","5bbc18010cb04c00015025ce","fixation","","","img/fixation.png","null","","","prac","","","","","","","","","","","","","","","","","","","",""
"545.4000000953674","210017","SARL_v6","SARL_v6vpm33z2u","5bbc18010cb04c00015025ce","mixRLPractice","","","img/black_2bandit_b2.png","75","img/black_2bandit_b2.png","","prac","","","5","","","","","","","","","","","","","","","","",""
"null","210784","SARL_v6","SARL_v6vpm33z2u","5bbc18010cb04c00015025ce","feedback","","","<div class=""veryhighPoints_sq""> 10 </div>","null","","na","prac","","","6","-14","10","-14","","","","","","","","","","","","","",""
"null","210954","SARL_v6","SARL_v6vpm33z2u","5bbc18010cb04c00015025ce","fixation","","","img/fixation.png","null","","","prac","","","","","","","","","","","","","","","","","","","",""
"null","211772","SARL_v6","SARL_v6vpm33z2u","5bbc18010cb04c00015025ce","mixAttFreqPrac","","","img/orange_2bandit_b2.png","null","img/orange_2bandit_b2.png","70","prac","","","7","","","","","","","","","","","","","","","","",""
"115.90000009536743","211937","SARL_v6","SARL_v6vpm33z2u","5bbc18010cb04c00015025ce","fixation","","","img/fixation.png","70","","","prac","","","","","","","","","","","","","","","","","","","",""
"627.5999999046326","212571","SARL_v6","SARL_v6vpm33z2u","5bbc18010cb04c00015025ce","mixAttInfreqPrac","","","img/blue_2bandit_b2.png","68","img/blue_2bandit_b2.png","68","prac","","","8","","","","","","","","","","","","","","","","",""
"627.5999999046326","212764","SARL_v6","SARL_v6vpm33z2u","5bbc18010cb04c00015025ce","infreqPrac_resp","","","img/blue_2bandit_b.png","68","img/orange_2bandit_b.png","68","prac","","","8","","","","","","","","","","","","","","","","",""
"null","212929","SARL_v6","SARL_v6vpm33z2u","5bbc18010cb04c00015025ce","fixation","","","img/fixation.png","null","","","prac","","","","","","","","","","","","","","","","","","","",""
"602.4000000953674","213537","SARL_v6","SARL_v6vpm33z2u","5bbc18010cb04c00015025ce","mixAttFreqPrac","","","img/orange_2bandit_b2.png","70","img/orange_2bandit_b2.png","70","prac","","","9","","","","","","","","","","","","","","","","",""
"602.4000000953674","213748","SARL_v6","SARL_v6vpm33z2u","5bbc18010cb04c00015025ce","freqPrac_resp","","","img/orange_2bandit_b.png","70","img/orange_2bandit_b.png","70","prac","","","9","","","","","","","","","","","","","","","","",""
"null","213913","SARL_v6","SARL_v6vpm33z2u","5bbc18010cb04c00015025ce","fixation","","","img/fixation.png","null","","","prac","","","","","","","","","","","","","","","","","","","",""
"612.0999999046326","214531","SARL_v6","SARL_v6vpm33z2u","5bbc18010cb04c00015025ce","mixAttFreqPrac","","","img/orange_2bandit_b2.png","70","img/orange_2bandit_b2.png","70","prac","","","10","","","","","","","","","","","","","","","","",""
"612.0999999046326","214740","SARL_v6","SARL_v6vpm33z2u","5bbc18010cb04c00015025ce","freqPrac_resp","","","img/orange_2bandit_b.png","70","img/orange_2bandit_b.png","70","prac","","","10","","","","","","","","","","","","","","","","",""
"null","214902","SARL_v6","SARL_v6vpm33z2u","5bbc18010cb04c00015025ce","fixation","","","img/fixation.png","null","","","prac","","","","","","","","","","","","","","","","","","","",""
"522.4000000953674","215434","SARL_v6","SARL_v6vpm33z2u","5bbc18010cb04c00015025ce","mixAttInfreqPrac","","","img/blue_2bandit_b2.png","68","img/blue_2bandit_b2.png","68","prac","","","11","","","","","","","","","","","","","","","","",""
"522.4000000953674","215732","SARL_v6","SARL_v6vpm33z2u","5bbc18010cb04c00015025ce","infreqPrac_resp","","","img/blue_2bandit_b.png","68","img/orange_2bandit_b.png","68","prac","","","11","","","","","","","","","","","","","","","","",""
"null","215895","SARL_v6","SARL_v6vpm33z2u","5bbc18010cb04c00015025ce","fixation","","","img/fixation.png","null","","","prac","","","","","","","","","","","","","","","","","","","",""
"586","216486","SARL_v6","SARL_v6vpm33z2u","5bbc18010cb04c00015025ce","mixRLPractice","","","img/black_2bandit_b2.png","75","img/black_2bandit_b2.png","","prac","","","11","","","","","","","","","","","","","","","","",""
"null","217249","SARL_v6","SARL_v6vpm33z2u","5bbc18010cb04c00015025ce","feedback","","","<div class=""verylowPoints_sq""> -5 </div>","null","","na","prac","","","12","5","-5","5","","","","","","","","","","","","","",""
"null","217416","SARL_v6","SARL_v6vpm33z2u","5bbc18010cb04c00015025ce","fixation","","","img/fixation.png","null","","","prac","","","","","","","","","","","","","","","","","","","",""
"46723.90000009537","264147","SARL_v6","SARL_v6vpm33z2u","5bbc18010cb04c00015025ce","","","","","","","","prac","","","","","","","","","","","","","","","","","","","",""
"527.5","264681","SARL_v6","SARL_v6vpm33z2u","5bbc18010cb04c00015025ce","freq","","","img/orange_2bandit_b2.png","70","","70","test","1","","1","","","","circle","square","1","1","1","1","","","","","","","",""
"null","264966","SARL_v6","SARL_v6vpm33z2u","5bbc18010cb04c00015025ce","freq_resp","","","img/orange_2bandit_b.png","70","img/orange_2bandit_b.png","70","test","","","","","","","","","","","1","","","","","","","","",""
"null","265122","SARL_v6","SARL_v6vpm33z2u","5bbc18010cb04c00015025ce","fixation","","","img/fixation.png","null","","","test","","","","","","","","","","","","","","","","","","","",""
"474.7000002861023","265601","SARL_v6","SARL_v6vpm33z2u","5bbc18010cb04c00015025ce","freq","","","img/orange_2bandit_b2.png","70","","70","test","1","","2","","","","circle","square","2","2","1","1","","","","","","","",""
"null","265943","SARL_v6","SARL_v6vpm33z2u","5bbc18010cb04c00015025ce","freq_resp","","","img/orange_2bandit_b.png","70","img/orange_2bandit_b.png","70","test","","","","","","","","","","","1","","","","","","","","",""
"null","266110","SARL_v6","SARL_v6vpm33z2u","5bbc18010cb04c00015025ce","fixation","","","img/fixation.png","null","","","test","","","","","","","","","","","","","","","","","","","",""
"457.2000002861023","266576","SARL_v6","SARL_v6vpm33z2u","5bbc18010cb04c00015025ce","freq","","","img/orange_2bandit_b2.png","70","","70","test","1","","3","","","","circle","square","3","3","1","1","","","","","","","",""
"null","266933","SARL_v6","SARL_v6vpm33z2u","5bbc18010cb04c00015025ce","freq_resp","","","img/orange_2bandit_b.png","70","img/orange_2bandit_b.png","70","test","","","","","","","","","","","1","","","","","","","","",""
"null","267096","SARL_v6","SARL_v6vpm33z2u","5bbc18010cb04c00015025ce","fixation","","","img/fixation.png","null","","","test","","","","","","","","","","","","","","","","","","","",""
"459.90000009536743","267567","SARL_v6","SARL_v6vpm33z2u","5bbc18010cb04c00015025ce","infreq","","","img/blue_2bandit_b2.png","68","","68","test","1","","4","","","","circle","square","4","4","1","1","","","","","","","",""
"null","267919","SARL_v6","SARL_v6vpm33z2u","5bbc18010cb04c00015025ce","infreq_resp","","","img/blue_2bandit_b.png","68","img/blue_2bandit_b.png","68","test","","","","","","","","","","","1","","","","","","","","",""
"null","268083","SARL_v6","SARL_v6vpm33z2u","5bbc18010cb04c00015025ce","fixation","","","img/fixation.png","null","","","test","","","","","","","","","","","","","","","","","","","",""
"578.7999997138977","268668","SARL_v6","SARL_v6vpm33z2u","5bbc18010cb04c00015025ce","freq","","","img/orange_2bandit_b2.png","70","","70","test","1","","5","","","","circle","square","5","5","1","1","","","","","","","",""
"null","268903","SARL_v6","SARL_v6vpm33z2u","5bbc18010cb04c00015025ce","freq_resp","","","img/orange_2bandit_b.png","70","img/orange_2bandit_b.png","70","test","","","","","","","","","","","1","","","","","","","","",""
"null","269064","SARL_v6","SARL_v6vpm33z2u","5bbc18010cb04c00015025ce","fixation","","","img/fixation.png","null","","","test","","","","","","","","","","","","","","","","","","","",""
"496.69999980926514","269567","SARL_v6","SARL_v6vpm33z2u","5bbc18010cb04c00015025ce","freq","","","img/orange_2bandit_b2.png","70","","70","test","1","","6","","","","circle","square","6","6","1","1","","","","","","","",""
"null","269883","SARL_v6","SARL_v6vpm33z2u","5bbc18010cb04c00015025ce","freq_resp","","","img/orange_2bandit_b.png","70","img/orange_2bandit_b.png","70","test","","","","","","","","","","","1","","","","","","","","",""
"null","270049","SARL_v6","SARL_v6vpm33z2u","5bbc18010cb04c00015025ce","fixation","","","img/fixation.png","null","","","test","","","","","","","","","","","","","","","","","","","",""
"590.0999999046326","270644","SARL_v6","SARL_v6vpm33z2u","5bbc18010cb04c00015025ce","infreq","","","img/blue_2bandit_b2.png","68","","68","test","1","","7","","","","circle","square","7","7","1","1","","","","","","","",""
"null","270869","SARL_v6","SARL_v6vpm33z2u","5bbc18010cb04c00015025ce","infreq_resp","","","img/blue_2bandit_b.png","68","img/blue_2bandit_b.png","68","test","","","","","","","","","","","1","","","","","","","","",""
"null","271035","SARL_v6","SARL_v6vpm33z2u","5bbc18010cb04c00015025ce","fixation","","","img/fixation.png","null","","","test","","","","","","","","","","","","","","","","","","","",""
"681.4000000953674","271719","SARL_v6","SARL_v6vpm33z2u","5bbc18010cb04c00015025ce","freq","","","img/orange_2bandit_b2.png","70","","70","test","1","","8","","","","circle","square","8","8","1","1","","","","","","","",""
"null","271854","SARL_v6","SARL_v6vpm33z2u","5bbc18010cb04c00015025ce","freq_resp","","","img/orange_2bandit_b.png","70","img/orange_2bandit_b.png","70","test","","","","","","","","","","","1","","","","","","","","",""
"null","272018","SARL_v6","SARL_v6vpm33z2u","5bbc18010cb04c00015025ce","fixation","","","img/fixation.png","null","","","test","","","","","","","","","","","","","","","","","","","",""
"486.2999997138977","272509","SARL_v6","SARL_v6vpm33z2u","5bbc18010cb04c00015025ce","freq","","","img/orange_2bandit_b2.png","70","","70","test","1","","9","","","","circle","square","9","9","1","1","","","","","","","",""
"null","272844","SARL_v6","SARL_v6vpm33z2u","5bbc18010cb04c00015025ce","freq_resp","","","img/orange_2bandit_b.png","70","img/orange_2bandit_b.png","70","test","","","","","","","","","","","1","","","","","","","","",""
"null","273009","SARL_v6","SARL_v6vpm33z2u","5bbc18010cb04c00015025ce","fixation","","","img/fixation.png","null","","","test","","","","","","","","","","","","","","","","","","","",""
"466.19999980926514","273481","SARL_v6","SARL_v6vpm33z2u","5bbc18010cb04c00015025ce","freq","","","img/orange_2bandit_b2.png","70","","70","test","1","","10","","","","circle","square","10","10","1","1","","","","","","","",""
"null","273829","SARL_v6","SARL_v6vpm33z2u","5bbc18010cb04c00015025ce","freq_resp","","","img/orange_2bandit_b.png","70","img/orange_2bandit_b.png","70","test","","","","","","","","","","","1","","","","","","","","",""
"null","273989","SARL_v6","SARL_v6vpm33z2u","5bbc18010cb04c00015025ce","fixation","","","img/fixation.png","null","","","test","","","","","","","","","","","","","","","","","","","",""
"494.69999980926514","274491","SARL_v6","SARL_v6vpm33z2u","5bbc18010cb04c00015025ce","freq","","","img/orange_2bandit_b2.png","70","","70","test","1","","11","","","","circle","square","11","11","1","1","","","","","","","",""
"null","274813","SARL_v6","SARL_v6vpm33z2u","5bbc18010cb04c00015025ce","freq_resp","","","img/orange_2bandit_b.png","70","img/orange_2bandit_b.png","70","test","","","","","","","","","","","1","","","","","","","","",""
"null","274974","SARL_v6","SARL_v6vpm33z2u","5bbc18010cb04c00015025ce","fixation","","","img/fixation.png","null","","","test","","","","","","","","","","","","","","","","","","","",""
"454.90000009536743","275434","SARL_v6","SARL_v6vpm33z2u","5bbc18010cb04c00015025ce","freq","","","img/orange_2bandit_b2.png","70","","70","test","1","","12","","","","circle","square","12","12","1","1","","","","","","","",""
"null","275788","SARL_v6","SARL_v6vpm33z2u","5bbc18010cb04c00015025ce","freq_resp","","","img/orange_2bandit_b.png","70","img/orange_2bandit_b.png","70","test","","","","","","","","","","","1","","","","","","","","",""
"null","275949","SARL_v6","SARL_v6vpm33z2u","5bbc18010cb04c00015025ce","fixation","","","img/fixation.png","null","","","test","","","","","","","","","","","","","","","","","","","",""
"426.80000019073486","276382","SARL_v6","SARL_v6vpm33z2u","5bbc18010cb04c00015025ce","freq","","","img/orange_2bandit_b2.png","70","","70","test","1","","13","","","","circle","square","13","13","1","1","","","","","","","",""
"null","276768","SARL_v6","SARL_v6vpm33z2u","5bbc18010cb04c00015025ce","freq_resp","","","img/orange_2bandit_b.png","70","img/orange_2bandit_b.png","70","test","","","","","","","","","","","1","","","","","","","","",""
"null","276937","SARL_v6","SARL_v6vpm33z2u","5bbc18010cb04c00015025ce","fixation","","","img/fixation.png","null","","","test","","","","","","","","","","","","","","","","","","","",""
"384.19999980926514","277327","SARL_v6","SARL_v6vpm33z2u","5bbc18010cb04c00015025ce","freq","","","img/orange_2bandit_b2.png","70","","70","test","1","","14","","","","circle","square","14","14","1","1","","","","","","","",""
"null","277763","SARL_v6","SARL_v6vpm33z2u","5bbc18010cb04c00015025ce","freq_resp","","","img/orange_2bandit_b.png","70","img/orange_2bandit_b.png","70","test","","","","","","","","","","","1","","","","","","","","",""
"null","277933","SARL_v6","SARL_v6vpm33z2u","5bbc18010cb04c00015025ce","fixation","","","img/fixation.png","null","","","test","","","","","","","","","","","","","","","","","","","",""
"380.09999990463257","278320","SARL_v6","SARL_v6vpm33z2u","5bbc18010cb04c00015025ce","freq","","","img/orange_2bandit_b2.png","70","","70","test","1","","15","","","","circle","square","15","15","1","1","","","","","","","",""
"null","278748","SARL_v6","SARL_v6vpm33z2u","5bbc18010cb04c00015025ce","freq_resp","","","img/orange_2bandit_b.png","70","img/orange_2bandit_b.png","70","test","","","","","","","","","","","1","","","","","","","","",""
"null","278914","SARL_v6","SARL_v6vpm33z2u","5bbc18010cb04c00015025ce","fixation","","","img/fixation.png","null","","","test","","","","","","","","","","","","","","","","","","","",""
"501.30000019073486","279420","SARL_v6","SARL_v6vpm33z2u","5bbc18010cb04c00015025ce","infreq","","","img/blue_2bandit_b2.png","68","","68","test","1","","16","","","","circle","square","16","16","1","1","","","","","","","",""
"null","279737","SARL_v6","SARL_v6vpm33z2u","5bbc18010cb04c00015025ce","infreq_resp","","","img/blue_2bandit_b.png","68","img/blue_2bandit_b.png","68","test","","","","","","","","","","","1","","","","","","","","",""
"null","279904","SARL_v6","SARL_v6vpm33z2u","5bbc18010cb04c00015025ce","fixation","","","img/fixation.png","null","","","test","","","","","","","","","","","","","","","","","","","",""
"609.9000000953674","280518","SARL_v6","SARL_v6vpm33z2u","5bbc18010cb04c00015025ce","freq","","","img/orange_2bandit_b2.png","70","","70","test","1","","17","","","","circle","square","17","17","1","1","","","","","","","",""
"null","280717","SARL_v6","SARL_v6vpm33z2u","5bbc18010cb04c00015025ce","freq_resp","","","img/orange_2bandit_b.png","70","img/orange_2bandit_b.png","70","test","","","","","","","","","","","1","","","","","","","","",""
"null","280882","SARL_v6","SARL_v6vpm33z2u","5bbc18010cb04c00015025ce","fixation","","","img/fixation.png","null","","","test","","","","","","","","","","","","","","","","","","","",""
"531.4000000953674","281417","SARL_v6","SARL_v6vpm33z2u","5bbc18010cb04c00015025ce","freq","","","img/orange_2bandit_b2.png","70","","70","test","1","","18","","","","circle","square","18","18","1","1","","","","","","","",""
"null","281696","SARL_v6","SARL_v6vpm33z2u","5bbc18010cb04c00015025ce","freq_resp","","","img/orange_2bandit_b.png","70","img/orange_2bandit_b.png","70","test","","","","","","","","","","","1","","","","","","","","",""
"null","281869","SARL_v6","SARL_v6vpm33z2u","5bbc18010cb04c00015025ce","fixation","","","img/fixation.png","null","","","test","","","","","","","","","","","","","","","","","","","",""
"535.2000002861023","282411","SARL_v6","SARL_v6vpm33z2u","5bbc18010cb04c00015025ce","freq","","","img/orange_2bandit_b2.png","70","","70","test","1","","19","","","","circle","square","19","19","1","1","","","","","","","",""
"null","282692","SARL_v6","SARL_v6vpm33z2u","5bbc18010cb04c00015025ce","freq_resp","","","img/orange_2bandit_b.png","70","img/orange_2bandit_b.png","70","test","","","","","","","","","","","1","","","","","","","","",""
"null","282855","SARL_v6","SARL_v6vpm33z2u","5bbc18010cb04c00015025ce","fixation","","","img/fixation.png","null","","","test","","","","","","","","","","","","","","","","","","","",""
"584.0999999046326","283445","SARL_v6","SARL_v6vpm33z2u","5bbc18010cb04c00015025ce","freq","","","img/orange_2bandit_b2.png","70","","70","test","1","","20","","","","circle","square","20","20","1","1","","","","","","","",""
"null","283669","SARL_v6","SARL_v6vpm33z2u","5bbc18010cb04c00015025ce","freq_resp","","","img/orange_2bandit_b.png","70","img/orange_2bandit_b.png","70","test","","","","","","","","","","","1","","","","","","","","",""
"null","283833","SARL_v6","SARL_v6vpm33z2u","5bbc18010cb04c00015025ce","fixation","","","img/fixation.png","null","","","test","","","","","","","","","","","","","","","","","","","",""
"644","284486","SARL_v6","SARL_v6vpm33z2u","5bbc18010cb04c00015025ce","rl","","","img/black_2bandit_b2.png","75","","0","test","","","21","","","-3","circle","square","","0","1","","75","-3","-3","-3","-3","square","1","0"
"null","285249","SARL_v6","SARL_v6vpm33z2u","5bbc18010cb04c00015025ce","feedback","","","<div class=""verylowPoints_sq""> -3 </div>","null","","na","test","","","NaN","","","","","","","","1","","75","","","","","","1",""
"null","286066","SARL_v6","SARL_v6vpm33z2u","5bbc18010cb04c00015025ce","freq","","","img/orange_2bandit_b2.png","null","","70","test","0","","22","","","","circle","square","21","1","2","0.9523809523809523","","","","","","","",""
"null","286234","SARL_v6","SARL_v6vpm33z2u","5bbc18010cb04c00015025ce","fixation","","","img/fixation.png","null","","","test","","","","","","","","","","","","","","","","","","","",""
"514","286754","SARL_v6","SARL_v6vpm33z2u","5bbc18010cb04c00015025ce","freq","","","img/orange_2bandit_b2.png","70","","70","test","1","","23","","","","circle","square","22","2","2","0.9545454545454546","","","","","","","",""
"null","287057","SARL_v6","SARL_v6vpm33z2u","5bbc18010cb04c00015025ce","freq_resp","","","img/orange_2bandit_b.png","70","img/orange_2bandit_b.png","70","test","","","","","","","","","","","2","","","","","","","","",""
"null","287219","SARL_v6","SARL_v6vpm33z2u","5bbc18010cb04c00015025ce","fixation","","","img/fixation.png","null","","","test","","","","","","","","","","","","","","","","","","","",""
"453.19999980926514","287682","SARL_v6","SARL_v6vpm33z2u","5bbc18010cb04c00015025ce","freq","","","img/orange_2bandit_b2.png","70","","70","test","1","","24","","","","circle","square","23","3","2","0.9565217391304348","","","","","","","",""
"null","288041","SARL_v6","SARL_v6vpm33z2u","5bbc18010cb04c00015025ce","freq_resp","","","img/orange_2bandit_b.png","70","img/orange_2bandit_b.png","70","test","","","","","","","","","","","2","","","","","","","","",""
"null","288209","SARL_v6","SARL_v6vpm33z2u","5bbc18010cb04c00015025ce","fixation","","","img/fixation.png","null","","","test","","","","","","","","","","","","","","","","","","","",""
"431.80000019073486","288651","SARL_v6","SARL_v6vpm33z2u","5bbc18010cb04c00015025ce","freq","","","img/orange_2bandit_b2.png","70","","70","test","1","","25","","","","circle","square","24","4","2","0.9583333333333334","","","","","","","",""
"null","289035","SARL_v6","SARL_v6vpm33z2u","5bbc18010cb04c00015025ce","freq_resp","","","img/orange_2bandit_b.png","70","img/orange_2bandit_b.png","70","test","","","","","","","","","","","2","","","","","","","","",""
"null","289200","SARL_v6","SARL_v6vpm33z2u","5bbc18010cb04c00015025ce","fixation","","","img/fixation.png","null","","","test","","","","","","","","","","","","","","","","","","","",""
"384.5","289591","SARL_v6","SARL_v6vpm33z2u","5bbc18010cb04c00015025ce","freq","","","img/orange_2bandit_b2.png","70","","70","test","1","","26","","","","circle","square","25","5","2","0.96","","","","","","","",""
"null","290025","SARL_v6","SARL_v6vpm33z2u","5bbc18010cb04c00015025ce","freq_resp","","","img/orange_2bandit_b.png","70","img/orange_2bandit_b.png","70","test","","","","","","","","","","","2","","","","","","","","",""
"null","290186","SARL_v6","SARL_v6vpm33z2u","5bbc18010cb04c00015025ce","fixation","","","img/fixation.png","null","","","test","","","","","","","","","","","","","","","","","","","",""
"429.5","290621","SARL_v6","SARL_v6vpm33z2u","5bbc18010cb04c00015025ce","freq","","","img/orange_2bandit_b2.png","70","","70","test","1","","27","","","","circle","square","26","6","2","0.9615384615384616","","","","","","","",""
"null","291007","SARL_v6","SARL_v6vpm33z2u","5bbc18010cb04c00015025ce","freq_resp","","","img/orange_2bandit_b.png","70","img/orange_2bandit_b.png","70","test","","","","","","","","","","","2","","","","","","","","",""
"null","291163","SARL_v6","SARL_v6vpm33z2u","5bbc18010cb04c00015025ce","fixation","","","img/fixation.png","null","","","test","","","","","","","","","","","","","","","","","","","",""
"398.3999996185303","291567","SARL_v6","SARL_v6vpm33z2u","5bbc18010cb04c00015025ce","freq","","","img/orange_2bandit_b2.png","70","","70","test","1","","28","","","","circle","square","27","7","2","0.9629629629629629","","","","","","","",""
"null","291984","SARL_v6","SARL_v6vpm33z2u","5bbc18010cb04c00015025ce","freq_resp","","","img/orange_2bandit_b.png","70","img/orange_2bandit_b.png","70","test","","","","","","","","","","","2","","","","","","","","",""
"null","292153","SARL_v6","SARL_v6vpm33z2u","5bbc18010cb04c00015025ce","fixation","","","img/fixation.png","null","","","test","","","","","","","","","","","","","","","","","","","",""
"422.09999990463257","292578","SARL_v6","SARL_v6vpm33z2u","5bbc18010cb04c00015025ce","freq","","","img/orange_2bandit_b2.png","70","","70","test","1","","29","","","","circle","square","28","8","2","0.9642857142857143","","","","","","","",""
"null","292969","SARL_v6","SARL_v6vpm33z2u","5bbc18010cb04c00015025ce","freq_resp","","","img/orange_2bandit_b.png","70","img/orange_2bandit_b.png","70","test","","","","","","","","","","","2","","","","","","","","",""
"null","293137","SARL_v6","SARL_v6vpm33z2u","5bbc18010cb04c00015025ce","fixation","","","img/fixation.png","null","","","test","","","","","","","","","","","","","","","","","","","",""
"408.19999980926514","293550","SARL_v6","SARL_v6vpm33z2u","5bbc18010cb04c00015025ce","freq","","","img/orange_2bandit_b2.png","70","","70","test","1","","30","","","","circle","square","29","9","2","0.9655172413793104","","","","","","","",""
"null","293958","SARL_v6","SARL_v6vpm33z2u","5bbc18010cb04c00015025ce","freq_resp","","","img/orange_2bandit_b.png","70","img/orange_2bandit_b.png","70","test","","","","","","","","","","","2","","","","","","","","",""
"null","294117","SARL_v6","SARL_v6vpm33z2u","5bbc18010cb04c00015025ce","fixation","","","img/fixation.png","null","","","test","","","","","","","","","","","","","","","","","","","",""
"484.3999996185303","294608","SARL_v6","SARL_v6vpm33z2u","5bbc18010cb04c00015025ce","freq","","","img/orange_2bandit_b2.png","70","","70","test","1","","31","","","","circle","square","30","10","2","0.9666666666666667","","","","","","","",""
"null","294938","SARL_v6","SARL_v6vpm33z2u","5bbc18010cb04c00015025ce","freq_resp","","","img/orange_2bandit_b.png","70","img/orange_2bandit_b.png","70","test","","","","","","","","","","","2","","","","","","","","",""
"null","295105","SARL_v6","SARL_v6vpm33z2u","5bbc18010cb04c00015025ce","fixation","","","img/fixation.png","null","","","test","","","","","","","","","","","","","","","","","","","",""
"483.59999990463257","295594","SARL_v6","SARL_v6vpm33z2u","5bbc18010cb04c00015025ce","freq","","","img/orange_2bandit_b2.png","70","","70","test","1","","32","","","","circle","square","31","11","2","0.967741935483871","","","","","","","",""
"null","295932","SARL_v6","SARL_v6vpm33z2u","5bbc18010cb04c00015025ce","freq_resp","","","img/orange_2bandit_b.png","70","img/orange_2bandit_b.png","70","test","","","","","","","","","","","2","","","","","","","","",""
"null","296098","SARL_v6","SARL_v6vpm33z2u","5bbc18010cb04c00015025ce","fixation","","","img/fixation.png","null","","","test","","","","","","","","","","","","","","","","","","","",""
"392.7000002861023","296496","SARL_v6","SARL_v6vpm33z2u","5bbc18010cb04c00015025ce","freq","","","img/orange_2bandit_b2.png","70","","70","test","1","","33","","","","circle","square","32","12","2","0.96875","","","","","","","",""
"null","296918","SARL_v6","SARL_v6vpm33z2u","5bbc18010cb04c00015025ce","freq_resp","","","img/orange_2bandit_b.png","70","img/orange_2bandit_b.png","70","test","","","","","","","","","","","2","","","","","","","","",""
"null","297082","SARL_v6","SARL_v6vpm33z2u","5bbc18010cb04c00015025ce","fixation","","","img/fixation.png","null","","","test","","","","","","","","","","","","","","","","","","","",""
"398.5","297484","SARL_v6","SARL_v6vpm33z2u","5bbc18010cb04c00015025ce","freq","","","img/orange_2bandit_b2.png","70","","70","test","1","","34","","","","circle","square","33","13","2","0.9696969696969697","","","","","","","",""
"null","297905","SARL_v6","SARL_v6vpm33z2u","5bbc18010cb04c00015025ce","freq_resp","","","img/orange_2bandit_b.png","70","img/orange_2bandit_b.png","70","test","","","","","","","","","","","2","","","","","","","","",""
"null","298069","SARL_v6","SARL_v6vpm33z2u","5bbc18010cb04c00015025ce","fixation","","","img/fixation.png","null","","","test","","","","","","","","","","","","","","","","","","","",""
"561.0999999046326","298640","SARL_v6","SARL_v6vpm33z2u","5bbc18010cb04c00015025ce","freq","","","img/orange_2bandit_b2.png","70","","70","test","1","","35","","","","circle","square","34","14","2","0.9705882352941176","","","","","","","",""
"null","298890","SARL_v6","SARL_v6vpm33z2u","5bbc18010cb04c00015025ce","freq_resp","","","img/orange_2bandit_b.png","70","img/orange_2bandit_b.png","70","test","","","","","","","","","","","2","","","","","","","","",""
"null","299056","SARL_v6","SARL_v6vpm33z2u","5bbc18010cb04c00015025ce","fixation","","","img/fixation.png","null","","","test","","","","","","","","","","","","","","","","","","","",""
"405.59999990463257","299468","SARL_v6","SARL_v6vpm33z2u","5bbc18010cb04c00015025ce","freq","","","img/orange_2bandit_b2.png","70","","70","test","1","","36","","","","circle","square","35","15","2","0.9714285714285714","","","","","","","",""
"null","299884","SARL_v6","SARL_v6vpm33z2u","5bbc18010cb04c00015025ce","freq_resp","","","img/orange_2bandit_b.png","70","img/orange_2bandit_b.png","70","test","","","","","","","","","","","2","","","","","","","","",""
"null","300046","SARL_v6","SARL_v6vpm33z2u","5bbc18010cb04c00015025ce","fixation","","","img/fixation.png","null","","","test","","","","","","","","","","","","","","","","","","","",""
"358.2000002861023","300408","SARL_v6","SARL_v6vpm33z2u","5bbc18010cb04c00015025ce","freq","","","img/orange_2bandit_b2.png","70","","70","test","1","","37","","","","circle","square","36","16","2","0.9722222222222222","","","","","","","",""
"null","300864","SARL_v6","SARL_v6vpm33z2u","5bbc18010cb04c00015025ce","freq_resp","","","img/orange_2bandit_b.png","70","img/orange_2bandit_b.png","70","test","","","","","","","","","","","2","","","","","","","","",""
"null","301031","SARL_v6","SARL_v6vpm33z2u","5bbc18010cb04c00015025ce","fixation","","","img/fixation.png","null","","","test","","","","","","","","","","","","","","","","","","","",""
"434.30000019073486","301472","SARL_v6","SARL_v6vpm33z2u","5bbc18010cb04c00015025ce","infreq","","","img/blue_2bandit_b2.png","68","","68","test","1","","38","","","","circle","square","37","17","2","0.972972972972973","","","","","","","",""
"null","301852","SARL_v6","SARL_v6vpm33z2u","5bbc18010cb04c00015025ce","infreq_resp","","","img/blue_2bandit_b.png","68","img/blue_2bandit_b.png","68","test","","","","","","","","","","","2","","","","","","","","",""
"null","302017","SARL_v6","SARL_v6vpm33z2u","5bbc18010cb04c00015025ce","fixation","","","img/fixation.png","null","","","test","","","","","","","","","","","","","","","","","","","",""
"661.5","302684","SARL_v6","SARL_v6vpm33z2u","5bbc18010cb04c00015025ce","freq","","","img/orange_2bandit_b2.png","70","","70","test","1","","39","","","","circle","square","38","18","2","0.9736842105263158","","","","","","","",""
"null","302841","SARL_v6","SARL_v6vpm33z2u","5bbc18010cb04c00015025ce","freq_resp","","","img/orange_2bandit_b.png","70","img/orange_2bandit_b.png","70","test","","","","","","","","","","","2","","","","","","","","",""
"null","303008","SARL_v6","SARL_v6vpm33z2u","5bbc18010cb04c00015025ce","fixation","","","img/fixation.png","null","","","test","","","","","","","","","","","","","","","","","","","",""
"571.5999999046326","303585","SARL_v6","SARL_v6vpm33z2u","5bbc18010cb04c00015025ce","freq","","","img/orange_2bandit_b2.png","70","","70","test","1","","40","","","","circle","square","39","19","2","0.9743589743589743","","","","","","","",""
"null","303825","SARL_v6","SARL_v6vpm33z2u","5bbc18010cb04c00015025ce","freq_resp","","","img/orange_2bandit_b.png","70","img/orange_2bandit_b.png","70","test","","","","","","","","","","","2","","","","","","","","",""
"null","303993","SARL_v6","SARL_v6vpm33z2u","5bbc18010cb04c00015025ce","fixation","","","img/fixation.png","null","","","test","","","","","","","","","","","","","","","","","","","",""
"690.5","304688","SARL_v6","SARL_v6vpm33z2u","5bbc18010cb04c00015025ce","freq","","","img/orange_2bandit_b2.png","70","","70","test","1","","41","","","","circle","square","40","20","2","0.975","","","","","","","",""
"null","304805","SARL_v6","SARL_v6vpm33z2u","5bbc18010cb04c00015025ce","freq_resp","","","img/orange_2bandit_b.png","70","img/orange_2bandit_b.png","70","test","","","","","","","","","","","2","","","","","","","","",""
"null","304967","SARL_v6","SARL_v6vpm33z2u","5bbc18010cb04c00015025ce","fixation","","","img/fixation.png","null","","","test","","","","","","","","","","","","","","","","","","","",""
"479.59999990463257","305451","SARL_v6","SARL_v6vpm33z2u","5bbc18010cb04c00015025ce","freq","","","img/orange_2bandit_b2.png","70","","70","test","1","","42","","","","circle","square","41","21","2","0.975609756097561","","","","","","","",""
"null","305782","SARL_v6","SARL_v6vpm33z2u","5bbc18010cb04c00015025ce","freq_resp","","","img/orange_2bandit_b.png","70","img/orange_2bandit_b.png","70","test","","","","","","","","","","","2","","","","","","","","",""
"null","305940","SARL_v6","SARL_v6vpm33z2u","5bbc18010cb04c00015025ce","fixation","","","img/fixation.png","null","","","test","","","","","","","","","","","","","","","","","","","",""
"589.0999999046326","306535","SARL_v6","SARL_v6vpm33z2u","5bbc18010cb04c00015025ce","freq","","","img/orange_2bandit_b2.png","70","","70","test","1","","43","","","","circle","square","42","22","2","0.9761904761904762","","","","","","","",""
"null","306762","SARL_v6","SARL_v6vpm33z2u","5bbc18010cb04c00015025ce","freq_resp","","","img/orange_2bandit_b.png","70","img/orange_2bandit_b.png","70","test","","","","","","","","","","","2","","","","","","","","",""
"null","306927","SARL_v6","SARL_v6vpm33z2u","5bbc18010cb04c00015025ce","fixation","","","img/fixation.png","null","","","test","","","","","","","","","","","","","","","","","","","",""
"518.0999999046326","307449","SARL_v6","SARL_v6vpm33z2u","5bbc18010cb04c00015025ce","freq","","","img/orange_2bandit_b2.png","70","","70","test","1","","44","","","","circle","square","43","23","2","0.9767441860465116","","","","","","","",""
"null","307746","SARL_v6","SARL_v6vpm33z2u","5bbc18010cb04c00015025ce","freq_resp","","","img/orange_2bandit_b.png","70","img/orange_2bandit_b.png","70","test","","","","","","","","","","","2","","","","","","","","",""
"null","307910","SARL_v6","SARL_v6vpm33z2u","5bbc18010cb04c00015025ce","fixation","","","img/fixation.png","null","","","test","","","","","","","","","","","","","","","","","","","",""
"617.5","308531","SARL_v6","SARL_v6vpm33z2u","5bbc18010cb04c00015025ce","freq","","","img/orange_2bandit_b2.png","70","","70","test","1","","45","","","","circle","square","44","24","2","0.9772727272727273","","","","","","","",""
"null","308730","SARL_v6","SARL_v6vpm33z2u","5bbc18010cb04c00015025ce","freq_resp","","","img/orange_2bandit_b.png","70","img/orange_2bandit_b.png","70","test","","","","","","","","","","","2","","","","","","","","",""
"null","308901","SARL_v6","SARL_v6vpm33z2u","5bbc18010cb04c00015025ce","fixation","","","img/fixation.png","null","","","test","","","","","","","","","","","","","","","","","","","",""
"575.9000000953674","309483","SARL_v6","SARL_v6vpm33z2u","5bbc18010cb04c00015025ce","infreq","","","img/blue_2bandit_b2.png","68","","68","test","1","","46","","","","circle","square","45","25","2","0.9777777777777777","","","","","","","",""
"null","309722","SARL_v6","SARL_v6vpm33z2u","5bbc18010cb04c00015025ce","infreq_resp","","","img/blue_2bandit_b.png","68","img/blue_2bandit_b.png","68","test","","","","","","","","","","","2","","","","","","","","",""
"null","309893","SARL_v6","SARL_v6vpm33z2u","5bbc18010cb04c00015025ce","fixation","","","img/fixation.png","null","","","test","","","","","","","","","","","","","","","","","","","",""
"570.1999998092651","310468","SARL_v6","SARL_v6vpm33z2u","5bbc18010cb04c00015025ce","freq","","","img/orange_2bandit_b2.png","70","","70","test","1","","47","","","","circle","square","46","26","2","0.9782608695652174","","","","","","","",""
"null","310707","SARL_v6","SARL_v6vpm33z2u","5bbc18010cb04c00015025ce","freq_resp","","","img/orange_2bandit_b.png","70","img/orange_2bandit_b.png","70","test","","","","","","","","","","","2","","","","","","","","",""
"null","310874","SARL_v6","SARL_v6vpm33z2u","5bbc18010cb04c00015025ce","fixation","","","img/fixation.png","null","","","test","","","","","","","","","","","","","","","","","","","",""
"603.1999998092651","311483","SARL_v6","SARL_v6vpm33z2u","5bbc18010cb04c00015025ce","rl","","","img/black_2bandit_b2.png","75","","0","test","","","48","","","-8","circle","square","","0","2","","75","-5","-8","-5","-8","square","2","0"
"null","312250","SARL_v6","SARL_v6vpm33z2u","5bbc18010cb04c00015025ce","feedback","","","<div class=""verylowPoints_sq""> -8 </div>","null","","na","test","","","NaN","","","","","","","","2","","75","","","","","","2",""
"null","313066","SARL_v6","SARL_v6vpm33z2u","5bbc18010cb04c00015025ce","freq","","","img/orange_2bandit_b2.png","null","","70","test","0","","49","","","","circle","square","47","1","3","0.9574468085106383","","","","","","","",""
"null","313229","SARL_v6","SARL_v6vpm33z2u","5bbc18010cb04c00015025ce","fixation","","","img/fixation.png","null","","","test","","","","","","","","","","","","","","","","","","","",""
"456.3999996185303","313691","SARL_v6","SARL_v6vpm33z2u","5bbc18010cb04c00015025ce","freq","","","img/orange_2bandit_b2.png","70","","70","test","1","","50","","","","circle","square","48","2","3","0.9583333333333334","","","","","","","",""
"null","314045","SARL_v6","SARL_v6vpm33z2u","5bbc18010cb04c00015025ce","freq_resp","","","img/orange_2bandit_b.png","70","img/orange_2bandit_b.png","70","test","","","","","","","","","","","3","","","","","","","","",""
"null","314206","SARL_v6","SARL_v6vpm33z2u","5bbc18010cb04c00015025ce","fixation","","","img/fixation.png","null","","","test","","","","","","","","","","","","","","","","","","","",""
"376.5","314589","SARL_v6","SARL_v6vpm33z2u","5bbc18010cb04c00015025ce","freq","","","img/orange_2bandit_b2.png","70","","70","test","1","","51","","","","circle","square","49","3","3","0.9591836734693877","","","","","","","",""
"null","315027","SARL_v6","SARL_v6vpm33z2u","5bbc18010cb04c00015025ce","freq_resp","","","img/orange_2bandit_b.png","70","img/orange_2bandit_b.png","70","test","","","","","","","","","","","3","","","","","","","","",""
"null","315192","SARL_v6","SARL_v6vpm33z2u","5bbc18010cb04c00015025ce","fixation","","","img/fixation.png","null","","","test","","","","","","","","","","","","","","","","","","","",""
"403.2999997138977","315601","SARL_v6","SARL_v6vpm33z2u","5bbc18010cb04c00015025ce","freq","","","img/orange_2bandit_b2.png","70","","70","test","1","","52","","","","circle","square","50","4","3","0.96","","","","","","","",""
"null","316014","SARL_v6","SARL_v6vpm33z2u","5bbc18010cb04c00015025ce","freq_resp","","","img/orange_2bandit_b.png","70","img/orange_2bandit_b.png","70","test","","","","","","","","","","","3","","","","","","","","",""
"null","316168","SARL_v6","SARL_v6vpm33z2u","5bbc18010cb04c00015025ce","fixation","","","img/fixation.png","null","","","test","","","","","","","","","","","","","","","","","","","",""
"418.69999980926514","316592","SARL_v6","SARL_v6vpm33z2u","5bbc18010cb04c00015025ce","freq","","","img/orange_2bandit_b2.png","70","","70","test","1","","53","","","","circle","square","51","5","3","0.9607843137254902","","","","","","","",""
"null","316995","SARL_v6","SARL_v6vpm33z2u","5bbc18010cb04c00015025ce","freq_resp","","","img/orange_2bandit_b.png","70","img/orange_2bandit_b.png","70","test","","","","","","","","","","","3","","","","","","","","",""
"null","317161","SARL_v6","SARL_v6vpm33z2u","5bbc18010cb04c00015025ce","fixation","","","img/fixation.png","null","","","test","","","","","","","","","","","","","","","","","","","",""
"390.59999990463257","317556","SARL_v6","SARL_v6vpm33z2u","5bbc18010cb04c00015025ce","freq","","","img/orange_2bandit_b2.png","70","","70","test","1","","54","","","","circle","square","52","6","3","0.9615384615384616","","","","","","","",""
"null","317978","SARL_v6","SARL_v6vpm33z2u","5bbc18010cb04c00015025ce","freq_resp","","","img/orange_2bandit_b.png","70","img/orange_2bandit_b.png","70","test","","","","","","","","","","","3","","","","","","","","",""
"null","318138","SARL_v6","SARL_v6vpm33z2u","5bbc18010cb04c00015025ce","fixation","","","img/fixation.png","null","","","test","","","","","","","","","","","","","","","","","","","",""
"360.1000003814697","318503","SARL_v6","SARL_v6vpm33z2u","5bbc18010cb04c00015025ce","freq","","","img/orange_2bandit_b2.png","70","","70","test","1","","55","","","","circle","square","53","7","3","0.9622641509433962","","","","","","","",""
"null","318963","SARL_v6","SARL_v6vpm33z2u","5bbc18010cb04c00015025ce","freq_resp","","","img/orange_2bandit_b.png","70","img/orange_2bandit_b.png","70","test","","","","","","","","","","","3","","","","","","","","",""
"null","319127","SARL_v6","SARL_v6vpm33z2u","5bbc18010cb04c00015025ce","fixation","","","img/fixation.png","null","","","test","","","","","","","","","","","","","","","","","","","",""
"538","319674","SARL_v6","SARL_v6vpm33z2u","5bbc18010cb04c00015025ce","infreq","","","img/blue_2bandit_b2.png","68","","68","test","1","","56","","","","circle","square","54","8","3","0.9629629629629629","","","","","","","",""
"null","319957","SARL_v6","SARL_v6vpm33z2u","5bbc18010cb04c00015025ce","infreq_resp","","","img/blue_2bandit_b.png","68","img/blue_2bandit_b.png","68","test","","","","","","","","","","","3","","","","","","","","",""
"null","320122","SARL_v6","SARL_v6vpm33z2u","5bbc18010cb04c00015025ce","fixation","","","img/fixation.png","null","","","test","","","","","","","","","","","","","","","","","","","",""
"714.0999999046326","320842","SARL_v6","SARL_v6vpm33z2u","5bbc18010cb04c00015025ce","freq","","","img/orange_2bandit_b2.png","70","","70","test","1","","57","","","","circle","square","55","9","3","0.9636363636363636","","","","","","","",""
"null","320947","SARL_v6","SARL_v6vpm33z2u","5bbc18010cb04c00015025ce","freq_resp","","","img/orange_2bandit_b.png","70","img/orange_2bandit_b.png","70","test","","","","","","","","","","","3","","","","","","","","",""
"null","321108","SARL_v6","SARL_v6vpm33z2u","5bbc18010cb04c00015025ce","fixation","","","img/fixation.png","null","","","test","","","","","","","","","","","","","","","","","","","",""
"585.3999996185303","321700","SARL_v6","SARL_v6vpm33z2u","5bbc18010cb04c00015025ce","freq","","","img/orange_2bandit_b2.png","70","","70","test","1","","58","","","","circle","square","56","10","3","0.9642857142857143","","","","","","","",""
"null","321933","SARL_v6","SARL_v6vpm33z2u","5bbc18010cb04c00015025ce","freq_resp","","","img/orange_2bandit_b.png","70","img/orange_2bandit_b.png","70","test","","","","","","","","","","","3","","","","","","","","",""
"null","322095","SARL_v6","SARL_v6vpm33z2u","5bbc18010cb04c00015025ce","fixation","","","img/fixation.png","null","","","test","","","","","","","","","","","","","","","","","","","",""
"406.2000002861023","322505","SARL_v6","SARL_v6vpm33z2u","5bbc18010cb04c00015025ce","freq","","","img/orange_2bandit_b2.png","70","","70","test","1","","59","","","","circle","square","57","11","3","0.9649122807017544","","","","","","","",""
"null","322917","SARL_v6","SARL_v6vpm33z2u","5bbc18010cb04c00015025ce","freq_resp","","","img/orange_2bandit_b.png","70","img/orange_2bandit_b.png","70","test","","","","","","","","","","","3","","","","","","","","",""
"null","323085","SARL_v6","SARL_v6vpm33z2u","5bbc18010cb04c00015025ce","fixation","","","img/fixation.png","null","","","test","","","","","","","","","","","","","","","","","","","",""
"360.19999980926514","323450","SARL_v6","SARL_v6vpm33z2u","5bbc18010cb04c00015025ce","freq","","","img/orange_2bandit_b2.png","70","","70","test","1","","60","","","","circle","square","58","12","3","0.9655172413793104","","","","","","","",""
"null","323909","SARL_v6","SARL_v6vpm33z2u","5bbc18010cb04c00015025ce","freq_resp","","","img/orange_2bandit_b.png","70","img/orange_2bandit_b.png","70","test","","","","","","","","","","","3","","","","","","","","",""
"null","324068","SARL_v6","SARL_v6vpm33z2u","5bbc18010cb04c00015025ce","fixation","","","img/fixation.png","null","","","test","","","","","","","","","","","","","","","","","","","",""
"431.09999990463257","324504","SARL_v6","SARL_v6vpm33z2u","5bbc18010cb04c00015025ce","freq","","","img/orange_2bandit_b2.png","70","","70","test","1","","61","","","","circle","square","59","13","3","0.9661016949152542","","","","","","","",""
"null","324892","SARL_v6","SARL_v6vpm33z2u","5bbc18010cb04c00015025ce","freq_resp","","","img/orange_2bandit_b.png","70","img/orange_2bandit_b.png","70","test","","","","","","","","","","","3","","","","","","","","",""
"null","325059","SARL_v6","SARL_v6vpm33z2u","5bbc18010cb04c00015025ce","fixation","","","img/fixation.png","null","","","test","","","","","","","","","","","","","","","","","","","",""
"499.40000009536743","325565","SARL_v6","SARL_v6vpm33z2u","5bbc18010cb04c00015025ce","freq","","","img/orange_2bandit_b2.png","70","","70","test","1","","62","","","","circle","square","60","14","3","0.9666666666666667","","","","","","","",""
"null","325877","SARL_v6","SARL_v6vpm33z2u","5bbc18010cb04c00015025ce","freq_resp","","","img/orange_2bandit_b.png","70","img/orange_2bandit_b.png","70","test","","","","","","","","","","","3","","","","","","","","",""
"null","326060","SARL_v6","SARL_v6vpm33z2u","5bbc18010cb04c00015025ce","fixation","","","img/fixation.png","null","","","test","","","","","","","","","","","","","","","","","","","",""
"470.5","326536","SARL_v6","SARL_v6vpm33z2u","5bbc18010cb04c00015025ce","freq","","","img/orange_2bandit_b2.png","70","","70","test","1","","63","","","","circle","square","61","15","3","0.9672131147540983","","","","","","","",""
"null","326881","SARL_v6","SARL_v6vpm33z2u","5bbc18010cb04c00015025ce","freq_resp","","","img/orange_2bandit_b.png","70","img/orange_2bandit_b.png","70","test","","","","","","","","","","","3","","","","","","","","",""
"null","327046","SARL_v6","SARL_v6vpm33z2u","5bbc18010cb04c00015025ce","fixation","","","img/fixation.png","null","","","test","","","","","","","","","","","","","","","","","","","",""
"562.0999999046326","327612","SARL_v6","SARL_v6vpm33z2u","5bbc18010cb04c00015025ce","freq","","","img/orange_2bandit_b2.png","70","","70","test","1","","64","","","","circle","square","62","16","3","0.967741935483871","","","","","","","",""
"null","327860","SARL_v6","SARL_v6vpm33z2u","5bbc18010cb04c00015025ce","freq_resp","","","img/orange_2bandit_b.png","70","img/orange_2bandit_b.png","70","test","","","","","","","","","","","3","","","","","","","","",""
"null","328026","SARL_v6","SARL_v6vpm33z2u","5bbc18010cb04c00015025ce","fixation","","","img/fixation.png","null","","","test","","","","","","","","","","","","","","","","","","","",""
"480.1000003814697","328512","SARL_v6","SARL_v6vpm33z2u","5bbc18010cb04c00015025ce","freq","","","img/orange_2bandit_b2.png","70","","70","test","1","","65","","","","circle","square","63","17","3","0.9682539682539683","","","","","","","",""
"null","328846","SARL_v6","SARL_v6vpm33z2u","5bbc18010cb04c00015025ce","freq_resp","","","img/orange_2bandit_b.png","70","img/orange_2bandit_b.png","70","test","","","","","","","","","","","3","","","","","","","","",""
"null","329003","SARL_v6","SARL_v6vpm33z2u","5bbc18010cb04c00015025ce","fixation","","","img/fixation.png","null","","","test","","","","","","","","","","","","","","","","","","","",""
"476.69999980926514","329484","SARL_v6","SARL_v6vpm33z2u","5bbc18010cb04c00015025ce","freq","","","img/orange_2bandit_b2.png","70","","70","test","1","","66","","","","circle","square","64","18","3","0.96875","","","","","","","",""
"null","329825","SARL_v6","SARL_v6vpm33z2u","5bbc18010cb04c00015025ce","freq_resp","","","img/orange_2bandit_b.png","70","img/orange_2bandit_b.png","70","test","","","","","","","","","","","3","","","","","","","","",""
"null","329993","SARL_v6","SARL_v6vpm33z2u","5bbc18010cb04c00015025ce","fixation","","","img/fixation.png","null","","","test","","","","","","","","","","","","","","","","","","","",""
"406.7000002861023","330404","SARL_v6","SARL_v6vpm33z2u","5bbc18010cb04c00015025ce","freq","","","img/orange_2bandit_b2.png","70","","70","test","1","","67","","","","circle","square","65","19","3","0.9692307692307692","","","","","","","",""
"null","330816","SARL_v6","SARL_v6vpm33z2u","5bbc18010cb04c00015025ce","freq_resp","","","img/orange_2bandit_b.png","70","img/orange_2bandit_b.png","70","test","","","","","","","","","","","3","","","","","","","","",""
"null","330987","SARL_v6","SARL_v6vpm33z2u","5bbc18010cb04c00015025ce","fixation","","","img/fixation.png","null","","","test","","","","","","","","","","","","","","","","","","","",""
"400.30000019073486","331390","SARL_v6","SARL_v6vpm33z2u","5bbc18010cb04c00015025ce","freq","","","img/orange_2bandit_b2.png","70","","70","test","1","","68","","","","circle","square","66","20","3","0.9696969696969697","","","","","","","",""
"null","331804","SARL_v6","SARL_v6vpm33z2u","5bbc18010cb04c00015025ce","freq_resp","","","img/orange_2bandit_b.png","70","img/orange_2bandit_b.png","70","test","","","","","","","","","","","3","","","","","","","","",""
"null","331972","SARL_v6","SARL_v6vpm33z2u","5bbc18010cb04c00015025ce","fixation","","","img/fixation.png","null","","","test","","","","","","","","","","","","","","","","","","","",""
"null","332785","SARL_v6","SARL_v6vpm33z2u","5bbc18010cb04c00015025ce","infreq","","","img/blue_2bandit_b2.png","null","","68","test","0","","69","","","","circle","square","67","21","3","0.9552238805970149","","","","","","","",""
"null","332949","SARL_v6","SARL_v6vpm33z2u","5bbc18010cb04c00015025ce","fixation","","","img/fixation.png","null","","","test","","","","","","","","","","","","","","","","","","","",""
"30.5","332982","SARL_v6","SARL_v6vpm33z2u","5bbc18010cb04c00015025ce","freq","","","img/orange_2bandit_b2.png","68","","70","test","0","","70","","","","circle","square","68","22","3","0.9411764705882353","","","","","","","",""
"null","333773","SARL_v6","SARL_v6vpm33z2u","5bbc18010cb04c00015025ce","freq_resp","","","img/orange_2bandit_b.png","68","img/orange_2bandit_b.png","70","test","","","","","","","","","","","3","","","","","","","","",""
"null","333934","SARL_v6","SARL_v6vpm33z2u","5bbc18010cb04c00015025ce","fixation","","","img/fixation.png","null","","","test","","","","","","","","","","","","","","","","","","","",""
"741.5","334683","SARL_v6","SARL_v6vpm33z2u","5bbc18010cb04c00015025ce","freq","","","img/orange_2bandit_b2.png","70","","70","test","1","","71","","","","circle","square","69","23","3","0.9420289855072463","","","","","","","",""
"null","334751","SARL_v6","SARL_v6vpm33z2u","5bbc18010cb04c00015025ce","freq_resp","","","img/orange_2bandit_b.png","70","img/orange_2bandit_b.png","70","test","","","","","","","","","","","3","","","","","","","","",""
"null","334908","SARL_v6","SARL_v6vpm33z2u","5bbc18010cb04c00015025ce","fixation","","","img/fixation.png","null","","","test","","","","","","","","","","","","","","","","","","","",""
"665.4000000953674","335580","SARL_v6","SARL_v6vpm33z2u","5bbc18010cb04c00015025ce","rl","","","img/black_2bandit_b2.png","74","","0","test","","","72","","","-4","circle","square","","0","3","","74","-4","-8","-4","-8","circle","3","0"
"null","336346","SARL_v6","SARL_v6vpm33z2u","5bbc18010cb04c00015025ce","feedback","","","<div class=""verylowPoints""> -4 </div>","null","","na","test","","","NaN","","","","","","","","3","","74","","","","","","3",""
"691.8999996185303","337048","SARL_v6","SARL_v6vpm33z2u","5bbc18010cb04c00015025ce","freq","","","img/orange_2bandit_b2.png","70","","70","test","1","","73","","","","circle","square","70","1","4","0.9428571428571428","","","","","","","",""
"null","337170","SARL_v6","SARL_v6vpm33z2u","5bbc18010cb04c00015025ce","freq_resp","","","img/orange_2bandit_b.png","70","img/orange_2bandit_b.png","70","test","","","","","","","","","","","4","","","","","","","","",""
"null","337329","SARL_v6","SARL_v6vpm33z2u","5bbc18010cb04c00015025ce","fixation","","","img/fixation.png","null","","","test","","","","","","","","","","","","","","","","","","","",""
"473.59999990463257","337808","SARL_v6","SARL_v6vpm33z2u","5bbc18010cb04c00015025ce","freq","","","img/orange_2bandit_b2.png","70","","70","test","1","","74","","","","circle","square","71","2","4","0.9436619718309859","","","","","","","",""
"null","338151","SARL_v6","SARL_v6vpm33z2u","5bbc18010cb04c00015025ce","freq_resp","","","img/orange_2bandit_b.png","70","img/orange_2bandit_b.png","70","test","","","","","","","","","","","4","","","","","","","","",""
"null","338317","SARL_v6","SARL_v6vpm33z2u","5bbc18010cb04c00015025ce","fixation","","","img/fixation.png","null","","","test","","","","","","","","","","","","","","","","","","","",""
"384.7999997138977","338709","SARL_v6","SARL_v6vpm33z2u","5bbc18010cb04c00015025ce","freq","","","img/orange_2bandit_b2.png","70","","70","test","1","","75","","","","circle","square","72","3","4","0.9444444444444444","","","","","","","",""
"null","339134","SARL_v6","SARL_v6vpm33z2u","5bbc18010cb04c00015025ce","freq_resp","","","img/orange_2bandit_b.png","70","img/orange_2bandit_b.png","70","test","","","","","","","","","","","4","","","","","","","","",""
"null","339300","SARL_v6","SARL_v6vpm33z2u","5bbc18010cb04c00015025ce","fixation","","","img/fixation.png","null","","","test","","","","","","","","","","","","","","","","","","","",""
"504.59999990463257","339810","SARL_v6","SARL_v6vpm33z2u","5bbc18010cb04c00015025ce","freq","","","img/orange_2bandit_b2.png","70","","70","test","1","","76","","","","circle","square","73","4","4","0.9452054794520548","","","","","","","",""
"null","340115","SARL_v6","SARL_v6vpm33z2u","5bbc18010cb04c00015025ce","freq_resp","","","img/orange_2bandit_b.png","70","img/orange_2bandit_b.png","70","test","","","","","","","","","","","4","","","","","","","","",""
"null","340280","SARL_v6","SARL_v6vpm33z2u","5bbc18010cb04c00015025ce","fixation","","","img/fixation.png","null","","","test","","","","","","","","","","","","","","","","","","","",""
"516.8000001907349","340806","SARL_v6","SARL_v6vpm33z2u","5bbc18010cb04c00015025ce","freq","","","img/orange_2bandit_b2.png","70","","70","test","1","","77","","","","circle","square","74","5","4","0.9459459459459459","","","","","","","",""
"null","341106","SARL_v6","SARL_v6vpm33z2u","5bbc18010cb04c00015025ce","freq_resp","","","img/orange_2bandit_b.png","70","img/orange_2bandit_b.png","70","test","","","","","","","","","","","4","","","","","","","","",""
"null","341272","SARL_v6","SARL_v6vpm33z2u","5bbc18010cb04c00015025ce","fixation","","","img/fixation.png","null","","","test","","","","","","","","","","","","","","","","","","","",""
"403.3999996185303","341682","SARL_v6","SARL_v6vpm33z2u","5bbc18010cb04c00015025ce","freq","","","img/orange_2bandit_b2.png","70","","70","test","1","","78","","","","circle","square","75","6","4","0.9466666666666667","","","","","","","",""
"null","342100","SARL_v6","SARL_v6vpm33z2u","5bbc18010cb04c00015025ce","freq_resp","","","img/orange_2bandit_b.png","70","img/orange_2bandit_b.png","70","test","","","","","","","","","","","4","","","","","","","","",""
"null","342262","SARL_v6","SARL_v6vpm33z2u","5bbc18010cb04c00015025ce","fixation","","","img/fixation.png","null","","","test","","","","","","","","","","","","","","","","","","","",""
"333.59999990463257","342601","SARL_v6","SARL_v6vpm33z2u","5bbc18010cb04c00015025ce","freq","","","img/orange_2bandit_b2.png","70","","70","test","1","","79","","","","circle","square","76","7","4","0.9473684210526315","","","","","","","",""
"null","343080","SARL_v6","SARL_v6vpm33z2u","5bbc18010cb04c00015025ce","freq_resp","","","img/orange_2bandit_b.png","70","img/orange_2bandit_b.png","70","test","","","","","","","","","","","4","","","","","","","","",""
"null","343251","SARL_v6","SARL_v6vpm33z2u","5bbc18010cb04c00015025ce","fixation","","","img/fixation.png","null","","","test","","","","","","","","","","","","","","","","","","","",""
"640.2000002861023","343897","SARL_v6","SARL_v6vpm33z2u","5bbc18010cb04c00015025ce","infreq","","","img/blue_2bandit_b2.png","68","","68","test","1","","80","","","","circle","square","77","8","4","0.948051948051948","","","","","","","",""
"null","344072","SARL_v6","SARL_v6vpm33z2u","5bbc18010cb04c00015025ce","infreq_resp","","","img/blue_2bandit_b.png","68","img/blue_2bandit_b.png","68","test","","","","","","","","","","","4","","","","","","","","",""
"null","344246","SARL_v6","SARL_v6vpm33z2u","5bbc18010cb04c00015025ce","fixation","","","img/fixation.png","null","","","test","","","","","","","","","","","","","","","","","","","",""
"575.9000000953674","344828","SARL_v6","SARL_v6vpm33z2u","5bbc18010cb04c00015025ce","freq","","","img/orange_2bandit_b2.png","70","","70","test","1","","81","","","","circle","square","78","9","4","0.9487179487179487","","","","","","","",""
"null","345066","SARL_v6","SARL_v6vpm33z2u","5bbc18010cb04c00015025ce","freq_resp","","","img/orange_2bandit_b.png","70","img/orange_2bandit_b.png","70","test","","","","","","","","","","","4","","","","","","","","",""
"null","345235","SARL_v6","SARL_v6vpm33z2u","5bbc18010cb04c00015025ce","fixation","","","img/fixation.png","null","","","test","","","","","","","","","","","","","","","","","","","",""
"428","345668","SARL_v6","SARL_v6vpm33z2u","5bbc18010cb04c00015025ce","freq","","","img/orange_2bandit_b2.png","70","","70","test","1","","82","","","","circle","square","79","10","4","0.9493670886075949","","","","","","","",""
"null","346055","SARL_v6","SARL_v6vpm33z2u","5bbc18010cb04c00015025ce","freq_resp","","","img/orange_2bandit_b.png","70","img/orange_2bandit_b.png","70","test","","","","","","","","","","","4","","","","","","","","",""
"null","346221","SARL_v6","SARL_v6vpm33z2u","5bbc18010cb04c00015025ce","fixation","","","img/fixation.png","null","","","test","","","","","","","","","","","","","","","","","","","",""
"356.90000009536743","346584","SARL_v6","SARL_v6vpm33z2u","5bbc18010cb04c00015025ce","freq","","","img/orange_2bandit_b2.png","70","","70","test","1","","83","","","","circle","square","80","11","4","0.95","","","","","","","",""
"null","347041","SARL_v6","SARL_v6vpm33z2u","5bbc18010cb04c00015025ce","freq_resp","","","img/orange_2bandit_b.png","70","img/orange_2bandit_b.png","70","test","","","","","","","","","","","4","","","","","","","","",""
"null","347219","SARL_v6","SARL_v6vpm33z2u","5bbc18010cb04c00015025ce","fixation","","","img/fixation.png","null","","","test","","","","","","","","","","","","","","","","","","","",""
"346.69999980926514","347570","SARL_v6","SARL_v6vpm33z2u","5bbc18010cb04c00015025ce","freq","","","img/orange_2bandit_b2.png","70","","70","test","1","","84","","","","circle","square","81","12","4","0.9506172839506173","","","","","","","",""
"null","348043","SARL_v6","SARL_v6vpm33z2u","5bbc18010cb04c00015025ce","freq_resp","","","img/orange_2bandit_b.png","70","img/orange_2bandit_b.png","70","test","","","","","","","","","","","4","","","","","","","","",""
"null","348208","SARL_v6","SARL_v6vpm33z2u","5bbc18010cb04c00015025ce","fixation","","","img/fixation.png","null","","","test","","","","","","","","","","","","","","","","","","","",""
"372","348585","SARL_v6","SARL_v6vpm33z2u","5bbc18010cb04c00015025ce","freq","","","img/orange_2bandit_b2.png","70","","70","test","1","","85","","","","circle","square","82","13","4","0.9512195121951219","","","","","","","",""
"null","349023","SARL_v6","SARL_v6vpm33z2u","5bbc18010cb04c00015025ce","freq_resp","","","img/orange_2bandit_b.png","70","img/orange_2bandit_b.png","70","test","","","","","","","","","","","4","","","","","","","","",""
"null","349189","SARL_v6","SARL_v6vpm33z2u","5bbc18010cb04c00015025ce","fixation","","","img/fixation.png","null","","","test","","","","","","","","","","","","","","","","","","","",""
"376.2999997138977","349571","SARL_v6","SARL_v6vpm33z2u","5bbc18010cb04c00015025ce","freq","","","img/orange_2bandit_b2.png","70","","70","test","1","","86","","","","circle","square","83","14","4","0.9518072289156626","","","","","","","",""
"null","350007","SARL_v6","SARL_v6vpm33z2u","5bbc18010cb04c00015025ce","freq_resp","","","img/orange_2bandit_b.png","70","img/orange_2bandit_b.png","70","test","","","","","","","","","","","4","","","","","","","","",""
"null","350167","SARL_v6","SARL_v6vpm33z2u","5bbc18010cb04c00015025ce","fixation","","","img/fixation.png","null","","","test","","","","","","","","","","","","","","","","","","","",""
"574.8000001907349","350746","SARL_v6","SARL_v6vpm33z2u","5bbc18010cb04c00015025ce","freq","","","img/orange_2bandit_b2.png","70","","70","test","1","","87","","","","circle","square","84","15","4","0.9523809523809523","","","","","","","",""
"null","350987","SARL_v6","SARL_v6vpm33z2u","5bbc18010cb04c00015025ce","freq_resp","","","img/orange_2bandit_b.png","70","img/orange_2bandit_b.png","70","test","","","","","","","","","","","4","","","","","","","","",""
"null","351153","SARL_v6","SARL_v6vpm33z2u","5bbc18010cb04c00015025ce","fixation","","","img/fixation.png","null","","","test","","","","","","","","","","","","","","","","","","","",""
"null","351969","SARL_v6","SARL_v6vpm33z2u","5bbc18010cb04c00015025ce","infreq","","","img/blue_2bandit_b2.png","null","","68","test","0","","88","","","","circle","square","85","16","4","0.9411764705882353","","","","","","","",""
"null","352137","SARL_v6","SARL_v6vpm33z2u","5bbc18010cb04c00015025ce","fixation","","","img/fixation.png","null","","","test","","","","","","","","","","","","","","","","","","","",""
"null","352954","SARL_v6","SARL_v6vpm33z2u","5bbc18010cb04c00015025ce","freq","","","img/orange_2bandit_b2.png","null","","70","test","0","","89","","","","circle","square","86","17","4","0.9302325581395349","","","","","","","",""
"null","353122","SARL_v6","SARL_v6vpm33z2u","5bbc18010cb04c00015025ce","fixation","","","img/fixation.png","null","","","test","","","","","","","","","","","","","","","","","","","",""
"161.09999990463257","353293","SARL_v6","SARL_v6vpm33z2u","5bbc18010cb04c00015025ce","freq","","","img/orange_2bandit_b2.png","70","","70","test","1","","90","","","","circle","square","87","18","4","0.9310344827586207","","","","","","","",""
"null","353948","SARL_v6","SARL_v6vpm33z2u","5bbc18010cb04c00015025ce","freq_resp","","","img/orange_2bandit_b.png","70","img/orange_2bandit_b.png","70","test","","","","","","","","","","","4","","","","","","","","",""
"null","354110","SARL_v6","SARL_v6vpm33z2u","5bbc18010cb04c00015025ce","fixation","","","img/fixation.png","null","","","test","","","","","","","","","","","","","","","","","","","",""
"91.90000009536743","354206","SARL_v6","SARL_v6vpm33z2u","5bbc18010cb04c00015025ce","freq","","","img/orange_2bandit_b2.png","70","","70","test","1","","91","","","","circle","square","88","19","4","0.9318181818181818","","","","","","","",""
"null","354920","SARL_v6","SARL_v6vpm33z2u","5bbc18010cb04c00015025ce","freq_resp","","","img/orange_2bandit_b.png","70","img/orange_2bandit_b.png","70","test","","","","","","","","","","","4","","","","","","","","",""
"null","355092","SARL_v6","SARL_v6vpm33z2u","5bbc18010cb04c00015025ce","fixation","","","img/fixation.png","null","","","test","","","","","","","","","","","","","","","","","","","",""
"305.5","355406","SARL_v6","SARL_v6vpm33z2u","5bbc18010cb04c00015025ce","freq","","","img/orange_2bandit_b2.png","70","","70","test","1","","92","","","","circle","square","89","20","4","0.9325842696629213","","","","","","","",""
"null","355914","SARL_v6","SARL_v6vpm33z2u","5bbc18010cb04c00015025ce","freq_resp","","","img/orange_2bandit_b.png","70","img/orange_2bandit_b.png","70","test","","","","","","","","","","","4","","","","","","","","",""
"null","356075","SARL_v6","SARL_v6vpm33z2u","5bbc18010cb04c00015025ce","fixation","","","img/fixation.png","null","","","test","","","","","","","","","","","","","","","","","","","",""
"582.6000003814697","356663","SARL_v6","SARL_v6vpm33z2u","5bbc18010cb04c00015025ce","rl","","","img/black_2bandit_b2.png","74","","0","test","","","93","","","0","circle","square","","0","4","","74","0","-12","0","-12","circle","4","0"
"null","357427","SARL_v6","SARL_v6vpm33z2u","5bbc18010cb04c00015025ce","feedback","","","<div class=""verylowPoints""> 0 </div>","null","","na","test","","","NaN","","","","","","","","4","","74","","","","","","4",""
"667","358102","SARL_v6","SARL_v6vpm33z2u","5bbc18010cb04c00015025ce","freq","","","img/orange_2bandit_b2.png","70","","70","test","1","","94","","","","circle","square","90","1","5","0.9333333333333333","","","","","","","",""
"null","358249","SARL_v6","SARL_v6vpm33z2u","5bbc18010cb04c00015025ce","freq_resp","","","img/orange_2bandit_b.png","70","img/orange_2bandit_b.png","70","test","","","","","","","","","","","5","","","","","","","","",""
"null","358415","SARL_v6","SARL_v6vpm33z2u","5bbc18010cb04c00015025ce","fixation","","","img/fixation.png","null","","","test","","","","","","","","","","","","","","","","","","","",""
"470.80000019073486","358888","SARL_v6","SARL_v6vpm33z2u","5bbc18010cb04c00015025ce","freq","","","img/orange_2bandit_b2.png","70","","70","test","1","","95","","","","circle","square","91","2","5","0.9340659340659341","","","","","","","",""
"null","359231","SARL_v6","SARL_v6vpm33z2u","5bbc18010cb04c00015025ce","freq_resp","","","img/orange_2bandit_b.png","70","img/orange_2bandit_b.png","70","test","","","","","","","","","","","5","","","","","","","","",""
"null","359397","SARL_v6","SARL_v6vpm33z2u","5bbc18010cb04c00015025ce","fixation","","","img/fixation.png","null","","","test","","","","","","","","","","","","","","","","","","","",""
"322.30000019073486","359725","SARL_v6","SARL_v6vpm33z2u","5bbc18010cb04c00015025ce","freq","","","img/orange_2bandit_b2.png","70","","70","test","1","","96","","","","circle","square","92","3","5","0.9347826086956522","","","","","","","",""
"null","360219","SARL_v6","SARL_v6vpm33z2u","5bbc18010cb04c00015025ce","freq_resp","","","img/orange_2bandit_b.png","70","img/orange_2bandit_b.png","70","test","","","","","","","","","","","5","","","","","","","","",""
"null","360379","SARL_v6","SARL_v6vpm33z2u","5bbc18010cb04c00015025ce","fixation","","","img/fixation.png","null","","","test","","","","","","","","","","","","","","","","","","","",""
"305.5","360689","SARL_v6","SARL_v6vpm33z2u","5bbc18010cb04c00015025ce","freq","","","img/orange_2bandit_b2.png","70","","70","test","1","","97","","","","circle","square","93","4","5","0.9354838709677419","","","","","","","",""
"null","361203","SARL_v6","SARL_v6vpm33z2u","5bbc18010cb04c00015025ce","freq_resp","","","img/orange_2bandit_b.png","70","img/orange_2bandit_b.png","70","test","","","","","","","","","","","5","","","","","","","","",""
"null","361371","SARL_v6","SARL_v6vpm33z2u","5bbc18010cb04c00015025ce","fixation","","","img/fixation.png","null","","","test","","","","","","","","","","","","","","","","","","","",""
"326.19999980926514","361706","SARL_v6","SARL_v6vpm33z2u","5bbc18010cb04c00015025ce","freq","","","img/orange_2bandit_b2.png","70","","70","test","1","","98","","","","circle","square","94","5","5","0.9361702127659575","","","","","","","",""
"null","362198","SARL_v6","SARL_v6vpm33z2u","5bbc18010cb04c00015025ce","freq_resp","","","img/orange_2bandit_b.png","70","img/orange_2bandit_b.png","70","test","","","","","","","","","","","5","","","","","","","","",""
"null","362363","SARL_v6","SARL_v6vpm33z2u","5bbc18010cb04c00015025ce","fixation","","","img/fixation.png","null","","","test","","","","","","","","","","","","","","","","","","","",""
"346.59999990463257","362717","SARL_v6","SARL_v6vpm33z2u","5bbc18010cb04c00015025ce","freq","","","img/orange_2bandit_b2.png","70","","70","test","1","","99","","","","circle","square","95","6","5","0.9368421052631579","","","","","","","",""
"null","363181","SARL_v6","SARL_v6vpm33z2u","5bbc18010cb04c00015025ce","freq_resp","","","img/orange_2bandit_b.png","70","img/orange_2bandit_b.png","70","test","","","","","","","","","","","5","","","","","","","","",""
"null","363346","SARL_v6","SARL_v6vpm33z2u","5bbc18010cb04c00015025ce","fixation","","","img/fixation.png","null","","","test","","","","","","","","","","","","","","","","","","","",""
"379.5","363732","SARL_v6","SARL_v6vpm33z2u","5bbc18010cb04c00015025ce","freq","","","img/orange_2bandit_b2.png","70","","70","test","1","","100","","","","circle","square","96","7","5","0.9375","","","","","","","",""
"null","364171","SARL_v6","SARL_v6vpm33z2u","5bbc18010cb04c00015025ce","freq_resp","","","img/orange_2bandit_b.png","70","img/orange_2bandit_b.png","70","test","","","","","","","","","","","5","","","","","","","","",""
"null","364338","SARL_v6","SARL_v6vpm33z2u","5bbc18010cb04c00015025ce","fixation","","","img/fixation.png","null","","","test","","","","","","","","","","","","","","","","","","","",""
"443.7000002861023","364789","SARL_v6","SARL_v6vpm33z2u","5bbc18010cb04c00015025ce","freq","","","img/orange_2bandit_b2.png","70","","70","test","1","","101","","","","circle","square","97","8","5","0.9381443298969072","","","","","","","",""
"null","365166","SARL_v6","SARL_v6vpm33z2u","5bbc18010cb04c00015025ce","freq_resp","","","img/orange_2bandit_b.png","70","img/orange_2bandit_b.png","70","test","","","","","","","","","","","5","","","","","","","","",""
"null","365331","SARL_v6","SARL_v6vpm33z2u","5bbc18010cb04c00015025ce","fixation","","","img/fixation.png","null","","","test","","","","","","","","","","","","","","","","","","","",""
"418.5","365756","SARL_v6","SARL_v6vpm33z2u","5bbc18010cb04c00015025ce","freq","","","img/orange_2bandit_b2.png","70","","70","test","1","","102","","","","circle","square","98","9","5","0.9387755102040817","","","","","","","",""
"null","366154","SARL_v6","SARL_v6vpm33z2u","5bbc18010cb04c00015025ce","freq_resp","","","img/orange_2bandit_b.png","70","img/orange_2bandit_b.png","70","test","","","","","","","","","","","5","","","","","","","","",""
"null","366322","SARL_v6","SARL_v6vpm33z2u","5bbc18010cb04c00015025ce","fixation","","","img/fixation.png","null","","","test","","","","","","","","","","","","","","","","","","","",""
"347.69999980926514","366675","SARL_v6","SARL_v6vpm33z2u","5bbc18010cb04c00015025ce","freq","","","img/orange_2bandit_b2.png","70","","70","test","1","","103","","","","circle","square","99","10","5","0.9393939393939394","","","","","","","",""
"null","367137","SARL_v6","SARL_v6vpm33z2u","5bbc18010cb04c00015025ce","freq_resp","","","img/orange_2bandit_b.png","70","img/orange_2bandit_b.png","70","test","","","","","","","","","","","5","","","","","","","","",""
"null","367305","SARL_v6","SARL_v6vpm33z2u","5bbc18010cb04c00015025ce","fixation","","","img/fixation.png","null","","","test","","","","","","","","","","","","","","","","","","","",""
"332.69999980926514","367645","SARL_v6","SARL_v6vpm33z2u","5bbc18010cb04c00015025ce","freq","","","img/orange_2bandit_b2.png","70","","70","test","1","","104","","","","circle","square","100","11","5","0.94","","","","","","","",""
"null","368129","SARL_v6","SARL_v6vpm33z2u","5bbc18010cb04c00015025ce","freq_resp","","","img/orange_2bandit_b.png","70","img/orange_2bandit_b.png","70","test","","","","","","","","","","","5","","","","","","","","",""
"null","368295","SARL_v6","SARL_v6vpm33z2u","5bbc18010cb04c00015025ce","fixation","","","img/fixation.png","null","","","test","","","","","","","","","","","","","","","","","","","",""
"333","368632","SARL_v6","SARL_v6vpm33z2u","5bbc18010cb04c00015025ce","freq","","","img/orange_2bandit_b2.png","70","","70","test","1","","105","","","","circle","square","101","12","5","0.9405940594059405","","","","","","","",""
"null","369113","SARL_v6","SARL_v6vpm33z2u","5bbc18010cb04c00015025ce","freq_resp","","","img/orange_2bandit_b.png","70","img/orange_2bandit_b.png","70","test","","","","","","","","","","","5","","","","","","","","",""
"null","369280","SARL_v6","SARL_v6vpm33z2u","5bbc18010cb04c00015025ce","fixation","","","img/fixation.png","null","","","test","","","","","","","","","","","","","","","","","","","",""
"334.2000002861023","369617","SARL_v6","SARL_v6vpm33z2u","5bbc18010cb04c00015025ce","freq","","","img/orange_2bandit_b2.png","70","","70","test","1","","106","","","","circle","square","102","13","5","0.9411764705882353","","","","","","","",""
"null","370092","SARL_v6","SARL_v6vpm33z2u","5bbc18010cb04c00015025ce","freq_resp","","","img/orange_2bandit_b.png","70","img/orange_2bandit_b.png","70","test","","","","","","","","","","","5","","","","","","","","",""
"null","370252","SARL_v6","SARL_v6vpm33z2u","5bbc18010cb04c00015025ce","fixation","","","img/fixation.png","null","","","test","","","","","","","","","","","","","","","","","","","",""
"352.5","370609","SARL_v6","SARL_v6vpm33z2u","5bbc18010cb04c00015025ce","freq","","","img/orange_2bandit_b2.png","70","","70","test","1","","107","","","","circle","square","103","14","5","0.941747572815534","","","","","","","",""
"null","371075","SARL_v6","SARL_v6vpm33z2u","5bbc18010cb04c00015025ce","freq_resp","","","img/orange_2bandit_b.png","70","img/orange_2bandit_b.png","70","test","","","","","","","","","","","5","","","","","","","","",""
"null","371239","SARL_v6","SARL_v6vpm33z2u","5bbc18010cb04c00015025ce","fixation","","","img/fixation.png","null","","","test","","","","","","","","","","","","","","","","","","","",""
"336.09999990463257","371581","SARL_v6","SARL_v6vpm33z2u","5bbc18010cb04c00015025ce","freq","","","img/orange_2bandit_b2.png","70","","70","test","1","","108","","","","circle","square","104","15","5","0.9423076923076923","","","","","","","",""
"null","372059","SARL_v6","SARL_v6vpm33z2u","5bbc18010cb04c00015025ce","freq_resp","","","img/orange_2bandit_b.png","70","img/orange_2bandit_b.png","70","test","","","","","","","","","","","5","","","","","","","","",""
"null","372218","SARL_v6","SARL_v6vpm33z2u","5bbc18010cb04c00015025ce","fixation","","","img/fixation.png","null","","","test","","","","","","","","","","","","","","","","","","","",""
"347.69999980926514","372571","SARL_v6","SARL_v6vpm33z2u","5bbc18010cb04c00015025ce","freq","","","img/orange_2bandit_b2.png","70","","70","test","1","","109","","","","circle","square","105","16","5","0.9428571428571428","","","","","","","",""
"null","373039","SARL_v6","SARL_v6vpm33z2u","5bbc18010cb04c00015025ce","freq_resp","","","img/orange_2bandit_b.png","70","img/orange_2bandit_b.png","70","test","","","","","","","","","","","5","","","","","","","","",""
"null","373199","SARL_v6","SARL_v6vpm33z2u","5bbc18010cb04c00015025ce","fixation","","","img/fixation.png","null","","","test","","","","","","","","","","","","","","","","","","","",""
"402.69999980926514","373608","SARL_v6","SARL_v6vpm33z2u","5bbc18010cb04c00015025ce","freq","","","img/orange_2bandit_b2.png","70","","70","test","1","","110","","","","circle","square","106","17","5","0.9433962264150944","","","","","","","",""
"null","374018","SARL_v6","SARL_v6vpm33z2u","5bbc18010cb04c00015025ce","freq_resp","","","img/orange_2bandit_b.png","70","img/orange_2bandit_b.png","70","test","","","","","","","","","","","5","","","","","","","","",""
"null","374190","SARL_v6","SARL_v6vpm33z2u","5bbc18010cb04c00015025ce","fixation","","","img/fixation.png","null","","","test","","","","","","","","","","","","","","","","","","","",""
"424.09999990463257","374621","SARL_v6","SARL_v6vpm33z2u","5bbc18010cb04c00015025ce","freq","","","img/orange_2bandit_b2.png","70","","70","test","1","","111","","","","circle","square","107","18","5","0.9439252336448598","","","","","","","",""
"null","375010","SARL_v6","SARL_v6vpm33z2u","5bbc18010cb04c00015025ce","freq_resp","","","img/orange_2bandit_b.png","70","img/orange_2bandit_b.png","70","test","","","","","","","","","","","5","","","","","","","","",""
"null","375179","SARL_v6","SARL_v6vpm33z2u","5bbc18010cb04c00015025ce","fixation","","","img/fixation.png","null","","","test","","","","","","","","","","","","","","","","","","","",""
"515.5999999046326","375700","SARL_v6","SARL_v6vpm33z2u","5bbc18010cb04c00015025ce","infreq","","","img/blue_2bandit_b2.png","68","","68","test","1","","112","","","","circle","square","108","19","5","0.9444444444444444","","","","","","","",""
"null","375994","SARL_v6","SARL_v6vpm33z2u","5bbc18010cb04c00015025ce","infreq_resp","","","img/blue_2bandit_b.png","68","img/blue_2bandit_b.png","68","test","","","","","","","","","","","5","","","","","","","","",""
"null","376158","SARL_v6","SARL_v6vpm33z2u","5bbc18010cb04c00015025ce","fixation","","","img/fixation.png","null","","","test","","","","","","","","","","","","","","","","","","","",""
"567.1999998092651","376729","SARL_v6","SARL_v6vpm33z2u","5bbc18010cb04c00015025ce","infreq","","","img/blue_2bandit_b2.png","68","","68","test","1","","113","","","","circle","square","109","20","5","0.944954128440367","","","","","","","",""
"null","376982","SARL_v6","SARL_v6vpm33z2u","5bbc18010cb04c00015025ce","infreq_resp","","","img/blue_2bandit_b.png","68","img/blue_2bandit_b.png","68","test","","","","","","","","","","","5","","","","","","","","",""
"null","377145","SARL_v6","SARL_v6vpm33z2u","5bbc18010cb04c00015025ce","fixation","","","img/fixation.png","null","","","test","","","","","","","","","","","","","","","","","","","",""
"593.5999999046326","377744","SARL_v6","SARL_v6vpm33z2u","5bbc18010cb04c00015025ce","freq","","","img/orange_2bandit_b2.png","70","","70","test","1","","114","","","","circle","square","110","21","5","0.9454545454545454","","","","","","","",""
"null","377961","SARL_v6","SARL_v6vpm33z2u","5bbc18010cb04c00015025ce","freq_resp","","","img/orange_2bandit_b.png","70","img/orange_2bandit_b.png","70","test","","","","","","","","","","","5","","","","","","","","",""
"null","378127","SARL_v6","SARL_v6vpm33z2u","5bbc18010cb04c00015025ce","fixation","","","img/fixation.png","null","","","test","","","","","","","","","","","","","","","","","","","",""
"441.80000019073486","378574","SARL_v6","SARL_v6vpm33z2u","5bbc18010cb04c00015025ce","freq","","","img/orange_2bandit_b2.png","70","","70","test","1","","115","","","","circle","square","111","22","5","0.9459459459459459","","","","","","","",""
"null","378941","SARL_v6","SARL_v6vpm33z2u","5bbc18010cb04c00015025ce","freq_resp","","","img/orange_2bandit_b.png","70","img/orange_2bandit_b.png","70","test","","","","","","","","","","","5","","","","","","","","",""
"null","379108","SARL_v6","SARL_v6vpm33z2u","5bbc18010cb04c00015025ce","fixation","","","img/fixation.png","null","","","test","","","","","","","","","","","","","","","","","","","",""
"502.40000009536743","379618","SARL_v6","SARL_v6vpm33z2u","5bbc18010cb04c00015025ce","freq","","","img/orange_2bandit_b2.png","70","","70","test","1","","116","","","","circle","square","112","23","5","0.9464285714285714","","","","","","","",""
"null","379934","SARL_v6","SARL_v6vpm33z2u","5bbc18010cb04c00015025ce","freq_resp","","","img/orange_2bandit_b.png","70","img/orange_2bandit_b.png","70","test","","","","","","","","","","","5","","","","","","","","",""
"null","380091","SARL_v6","SARL_v6vpm33z2u","5bbc18010cb04c00015025ce","fixation","","","img/fixation.png","null","","","test","","","","","","","","","","","","","","","","","","","",""
"550.7000002861023","380646","SARL_v6","SARL_v6vpm33z2u","5bbc18010cb04c00015025ce","freq","","","img/orange_2bandit_b2.png","70","","70","test","1","","117","","","","circle","square","113","24","5","0.9469026548672567","","","","","","","",""
"null","380911","SARL_v6","SARL_v6vpm33z2u","5bbc18010cb04c00015025ce","freq_resp","","","img/orange_2bandit_b.png","70","img/orange_2bandit_b.png","70","test","","","","","","","","","","","5","","","","","","","","",""
"null","381074","SARL_v6","SARL_v6vpm33z2u","5bbc18010cb04c00015025ce","fixation","","","img/fixation.png","null","","","test","","","","","","","","","","","","","","","","","","","",""
"963.6999998092651","382042","SARL_v6","SARL_v6vpm33z2u","5bbc18010cb04c00015025ce","rl","","","img/black_2bandit_b2.png","74","","0","test","","","118","","","4","circle","square","","0","5","","74","4","-7","4","-7","circle","5","0"
"null","382808","SARL_v6","SARL_v6vpm33z2u","5bbc18010cb04c00015025ce","feedback","","","<div class=""veryhighPoints""> 4 </div>","null","","na","test","","","NaN","","","","","","","","5","","74","","","","","","5",""
"738.1999998092651","383556","SARL_v6","SARL_v6vpm33z2u","5bbc18010cb04c00015025ce","freq","","","img/orange_2bandit_b2.png","70","","70","test","1","","119","","","","circle","square","114","1","6","0.9473684210526315","","","","","","","",""
"null","383631","SARL_v6","SARL_v6vpm33z2u","5bbc18010cb04c00015025ce","freq_resp","","","img/orange_2bandit_b.png","70","img/orange_2bandit_b.png","70","test","","","","","","","","","","","6","","","","","","","","",""
"null","383792","SARL_v6","SARL_v6vpm33z2u","5bbc18010cb04c00015025ce","fixation","","","img/fixation.png","null","","","test","","","","","","","","","","","","","","","","","","","",""
"698.0999999046326","384497","SARL_v6","SARL_v6vpm33z2u","5bbc18010cb04c00015025ce","infreq","","","img/blue_2bandit_b2.png","68","","68","test","1","","120","","","","circle","square","115","2","6","0.9478260869565217","","","","","","","",""
"null","384607","SARL_v6","SARL_v6vpm33z2u","5bbc18010cb04c00015025ce","infreq_resp","","","img/blue_2bandit_b.png","68","img/blue_2bandit_b.png","68","test","","","","","","","","","","","6","","","","","","","","",""
"null","384772","SARL_v6","SARL_v6vpm33z2u","5bbc18010cb04c00015025ce","fixation","","","img/fixation.png","null","","","test","","","","","","","","","","","","","","","","","","","",""
"523.7999997138977","385301","SARL_v6","SARL_v6vpm33z2u","5bbc18010cb04c00015025ce","infreq","","","img/blue_2bandit_b2.png","68","","68","test","1","","121","","","","circle","square","116","3","6","0.9482758620689655","","","","","","","",""
"null","385596","SARL_v6","SARL_v6vpm33z2u","5bbc18010cb04c00015025ce","infreq_resp","","","img/blue_2bandit_b.png","68","img/blue_2bandit_b.png","68","test","","","","","","","","","","","6","","","","","","","","",""
"null","385762","SARL_v6","SARL_v6vpm33z2u","5bbc18010cb04c00015025ce","fixation","","","img/fixation.png","null","","","test","","","","","","","","","","","","","","","","","","","",""
"528.2999997138977","386295","SARL_v6","SARL_v6vpm33z2u","5bbc18010cb04c00015025ce","freq","","","img/orange_2bandit_b2.png","70","","70","test","1","","122","","","","circle","square","117","4","6","0.9487179487179487","","","","","","","",""
"null","386577","SARL_v6","SARL_v6vpm33z2u","5bbc18010cb04c00015025ce","freq_resp","","","img/orange_2bandit_b.png","70","img/orange_2bandit_b.png","70","test","","","","","","","","","","","6","","","","","","","","",""
"null","386747","SARL_v6","SARL_v6vpm33z2u","5bbc18010cb04c00015025ce","fixation","","","img/fixation.png","null","","","test","","","","","","","","","","","","","","","","","","","",""
"668.5","387423","SARL_v6","SARL_v6vpm33z2u","5bbc18010cb04c00015025ce","freq","","","img/orange_2bandit_b2.png","70","","70","test","1","","123","","","","circle","square","118","5","6","0.9491525423728814","","","","","","","",""
"null","387570","SARL_v6","SARL_v6vpm33z2u","5bbc18010cb04c00015025ce","freq_resp","","","img/orange_2bandit_b.png","70","img/orange_2bandit_b.png","70","test","","","","","","","","","","","6","","","","","","","","",""
"null","387735","SARL_v6","SARL_v6vpm33z2u","5bbc18010cb04c00015025ce","fixation","","","img/fixation.png","null","","","test","","","","","","","","","","","","","","","","","","","",""
"463.5","388202","SARL_v6","SARL_v6vpm33z2u","5bbc18010cb04c00015025ce","freq","","","img/orange_2bandit_b2.png","70","","70","test","1","","124","","","","circle","square","119","6","6","0.9495798319327731","","","","","","","",""
"null","388553","SARL_v6","SARL_v6vpm33z2u","5bbc18010cb04c00015025ce","freq_resp","","","img/orange_2bandit_b.png","70","img/orange_2bandit_b.png","70","test","","","","","","","","","","","6","","","","","","","","",""
"null","388718","SARL_v6","SARL_v6vpm33z2u","5bbc18010cb04c00015025ce","fixation","","","img/fixation.png","null","","","test","","","","","","","","","","","","","","","","","","","",""
"429.30000019073486","389151","SARL_v6","SARL_v6vpm33z2u","5bbc18010cb04c00015025ce","freq","","","img/orange_2bandit_b2.png","70","","70","test","1","","125","","","","circle","square","120","7","6","0.95","","","","","","","",""
"null","389541","SARL_v6","SARL_v6vpm33z2u","5bbc18010cb04c00015025ce","freq_resp","","","img/orange_2bandit_b.png","70","img/orange_2bandit_b.png","70","test","","","","","","","","","","","6","","","","","","","","",""
"null","389706","SARL_v6","SARL_v6vpm33z2u","5bbc18010cb04c00015025ce","fixation","","","img/fixation.png","null","","","test","","","","","","","","","","","","","","","","","","","",""
"407.3999996185303","390118","SARL_v6","SARL_v6vpm33z2u","5bbc18010cb04c00015025ce","freq","","","img/orange_2bandit_b2.png","70","","70","test","1","","126","","","","circle","square","121","8","6","0.9504132231404959","","","","","","","",""
"null","390531","SARL_v6","SARL_v6vpm33z2u","5bbc18010cb04c00015025ce","freq_resp","","","img/orange_2bandit_b.png","70","img/orange_2bandit_b.png","70","test","","","","","","","","","","","6","","","","","","","","",""
"null","390701","SARL_v6","SARL_v6vpm33z2u","5bbc18010cb04c00015025ce","fixation","","","img/fixation.png","null","","","test","","","","","","","","","","","","","","","","","","","",""
"450.69999980926514","391157","SARL_v6","SARL_v6vpm33z2u","5bbc18010cb04c00015025ce","freq","","","img/orange_2bandit_b2.png","70","","70","test","1","","127","","","","circle","square","122","9","6","0.9508196721311475","","","","","","","",""
"null","391521","SARL_v6","SARL_v6vpm33z2u","5bbc18010cb04c00015025ce","freq_resp","","","img/orange_2bandit_b.png","70","img/orange_2bandit_b.png","70","test","","","","","","","","","","","6","","","","","","","","",""
"null","391690","SARL_v6","SARL_v6vpm33z2u","5bbc18010cb04c00015025ce","fixation","","","img/fixation.png","null","","","test","","","","","","","","","","","","","","","","","","","",""
"449.59999990463257","392144","SARL_v6","SARL_v6vpm33z2u","5bbc18010cb04c00015025ce","freq","","","img/orange_2bandit_b2.png","70","","70","test","1","","128","","","","circle","square","123","10","6","0.9512195121951219","","","","","","","",""
"null","392501","SARL_v6","SARL_v6vpm33z2u","5bbc18010cb04c00015025ce","freq_resp","","","img/orange_2bandit_b.png","70","img/orange_2bandit_b.png","70","test","","","","","","","","","","","6","","","","","","","","",""
"null","392660","SARL_v6","SARL_v6vpm33z2u","5bbc18010cb04c00015025ce","fixation","","","img/fixation.png","null","","","test","","","","","","","","","","","","","","","","","","","",""
"399.80000019073486","393065","SARL_v6","SARL_v6vpm33z2u","5bbc18010cb04c00015025ce","freq","","","img/orange_2bandit_b2.png","70","","70","test","1","","129","","","","circle","square","124","11","6","0.9516129032258065","","","","","","","",""
"null","393486","SARL_v6","SARL_v6vpm33z2u","5bbc18010cb04c00015025ce","freq_resp","","","img/orange_2bandit_b.png","70","img/orange_2bandit_b.png","70","test","","","","","","","","","","","6","","","","","","","","",""
"null","393651","SARL_v6","SARL_v6vpm33z2u","5bbc18010cb04c00015025ce","fixation","","","img/fixation.png","null","","","test","","","","","","","","","","","","","","","","","","","",""
"356","394012","SARL_v6","SARL_v6vpm33z2u","5bbc18010cb04c00015025ce","freq","","","img/orange_2bandit_b2.png","70","","70","test","1","","130","","","","circle","square","125","12","6","0.952","","","","","","","",""
"null","394475","SARL_v6","SARL_v6vpm33z2u","5bbc18010cb04c00015025ce","freq_resp","","","img/orange_2bandit_b.png","70","img/orange_2bandit_b.png","70","test","","","","","","","","","","","6","","","","","","","","",""
"null","394643","SARL_v6","SARL_v6vpm33z2u","5bbc18010cb04c00015025ce","fixation","","","img/fixation.png","null","","","test","","","","","","","","","","","","","","","","","","","",""
"398.1000003814697","395049","SARL_v6","SARL_v6vpm33z2u","5bbc18010cb04c00015025ce","freq","","","img/orange_2bandit_b2.png","70","","70","test","1","","131","","","","circle","square","126","13","6","0.9523809523809523","","","","","","","",""
