"rt","time_elapsed","expId","subject","prolificID","trialType","rlType","attType","stimulus","key_press","stim","corrresp","phase","corr","pracCounter","trialNum","rewardOne","rewardTwo","reward","bandOne","bandTwo","attentionNum","attentionRunNum","blockNum","performance","bandChosen","circleVal","squareVal","bandOneVal","bandTwoVal","shapeChosen","rlNum","badFlag"
"40240.59999999404","40242","SARL_v6","SARL_v6hrtuarft","5658000ca9872d0011e1ba26","","","","","","","","","","","","","","","","","","","","","","","","","","","",""
"","42648","SARL_v6","SARL_v6hrtuarft","5658000ca9872d0011e1ba26","fullscreen","fullscreen","fullscreen","","","","","","","","","","","","","","","","","","","","","","","","",""
"58160.69999998808","100810","SARL_v6","SARL_v6hrtuarft","5658000ca9872d0011e1ba26","","","","","","","","","","","","","","","","","","","","","","","","","","","",""
"null","101617","SARL_v6","SARL_v6hrtuarft","5658000ca9872d0011e1ba26","freqPrac","","","img/blue_2bandit_b2.png","null","img/blue_2bandit_b2.png","70","prac","0","1","","","","","","","","","","","","","","","","","",""
"null","102619","SARL_v6","SARL_v6hrtuarft","5658000ca9872d0011e1ba26","feedback","","","img/tooSlow.png","null","","na","prac","","","","","","","","","","","","","","","","","","","",""
"null","102773","SARL_v6","SARL_v6hrtuarft","5658000ca9872d0011e1ba26","fixation","","","img/fixation.png","null","","","prac","","","","","","","","","","","","","","","","","","","",""
"null","103574","SARL_v6","SARL_v6hrtuarft","5658000ca9872d0011e1ba26","infreqPrac","","","img/orange_2bandit_b2.png","null","img/orange_2bandit_b2.png","68","prac","0","2","","","","","","","","","","","","","","","","","",""
"null","104586","SARL_v6","SARL_v6hrtuarft","5658000ca9872d0011e1ba26","feedback","","","img/tooSlow.png","null","","na","prac","","","","","","","","","","","","","","","","","","","",""
"null","104738","SARL_v6","SARL_v6hrtuarft","5658000ca9872d0011e1ba26","fixation","","","img/fixation.png","null","","","prac","","","","","","","","","","","","","","","","","","","",""
"551.3000000119209","105290","SARL_v6","SARL_v6hrtuarft","5658000ca9872d0011e1ba26","freqPrac","","","img/blue_2bandit_b2.png","70","img/blue_2bandit_b2.png","70","prac","1","2","","","","","","","","","","","","","","","","","",""
"551.3000000119209","105550","SARL_v6","SARL_v6hrtuarft","5658000ca9872d0011e1ba26","freqPrac_resp","","","img/blue_2bandit_b.png","70","img/blue_2bandit_b.png","70","prac","","","","","","","","","","","","","","","","","","","",""
"null","105706","SARL_v6","SARL_v6hrtuarft","5658000ca9872d0011e1ba26","fixation","","","img/fixation.png","null","","","prac","","","","","","","","","","","","","","","","","","","",""
"551.6999999880791","106258","SARL_v6","SARL_v6hrtuarft","5658000ca9872d0011e1ba26","infreqPrac","","","img/orange_2bandit_b2.png","68","img/orange_2bandit_b2.png","68","prac","1","2","","","","","","","","","","","","","","","","","",""
"551.6999999880791","106508","SARL_v6","SARL_v6hrtuarft","5658000ca9872d0011e1ba26","infreqPrac_resp","","","img/orange_2bandit_b.png","68","img/orange_2bandit_b.png","68","prac","","","","","","","","","","","","","","","","","","","",""
"null","106663","SARL_v6","SARL_v6hrtuarft","5658000ca9872d0011e1ba26","fixation","","","img/fixation.png","null","","","prac","","","","","","","","","","","","","","","","","","","",""
"459","107122","SARL_v6","SARL_v6hrtuarft","5658000ca9872d0011e1ba26","infreqPrac","","","img/orange_2bandit_b2.png","68","img/orange_2bandit_b2.png","68","prac","1","2","","","","","","","","","","","","","","","","","",""
"459","107480","SARL_v6","SARL_v6hrtuarft","5658000ca9872d0011e1ba26","infreqPrac_resp","","","img/orange_2bandit_b.png","68","img/orange_2bandit_b.png","68","prac","","","","","","","","","","","","","","","","","","","",""
"null","107634","SARL_v6","SARL_v6hrtuarft","5658000ca9872d0011e1ba26","fixation","","","img/fixation.png","null","","","prac","","","","","","","","","","","","","","","","","","","",""
"385.5","108020","SARL_v6","SARL_v6hrtuarft","5658000ca9872d0011e1ba26","infreqPrac","","","img/orange_2bandit_b2.png","68","img/orange_2bandit_b2.png","68","prac","1","2","","","","","","","","","","","","","","","","","",""
"385.5","108451","SARL_v6","SARL_v6hrtuarft","5658000ca9872d0011e1ba26","infreqPrac_resp","","","img/orange_2bandit_b.png","68","img/orange_2bandit_b.png","68","prac","","","","","","","","","","","","","","","","","","","",""
"null","108604","SARL_v6","SARL_v6hrtuarft","5658000ca9872d0011e1ba26","fixation","","","img/fixation.png","null","","","prac","","","","","","","","","","","","","","","","","","","",""
"408.80000001192093","109014","SARL_v6","SARL_v6hrtuarft","5658000ca9872d0011e1ba26","freqPrac","","","img/blue_2bandit_b2.png","70","img/blue_2bandit_b2.png","70","prac","1","2","","","","","","","","","","","","","","","","","",""
"408.80000001192093","109419","SARL_v6","SARL_v6hrtuarft","5658000ca9872d0011e1ba26","freqPrac_resp","","","img/blue_2bandit_b.png","70","img/blue_2bandit_b.png","70","prac","","","","","","","","","","","","","","","","","","","",""
"null","109573","SARL_v6","SARL_v6hrtuarft","5658000ca9872d0011e1ba26","fixation","","","img/fixation.png","null","","","prac","","","","","","","","","","","","","","","","","","","",""
"448.7000000178814","110022","SARL_v6","SARL_v6hrtuarft","5658000ca9872d0011e1ba26","infreqPrac","","","img/orange_2bandit_b2.png","68","img/orange_2bandit_b2.png","68","prac","1","2","","","","","","","","","","","","","","","","","",""
"448.7000000178814","110389","SARL_v6","SARL_v6hrtuarft","5658000ca9872d0011e1ba26","infreqPrac_resp","","","img/orange_2bandit_b.png","68","img/orange_2bandit_b.png","68","prac","","","","","","","","","","","","","","","","","","","",""
"null","110542","SARL_v6","SARL_v6hrtuarft","5658000ca9872d0011e1ba26","fixation","","","img/fixation.png","null","","","prac","","","","","","","","","","","","","","","","","","","",""
"464.59999999403954","111008","SARL_v6","SARL_v6hrtuarft","5658000ca9872d0011e1ba26","freqPrac","","","img/blue_2bandit_b2.png","70","img/blue_2bandit_b2.png","70","prac","1","2","","","","","","","","","","","","","","","","","",""
"464.59999999403954","111346","SARL_v6","SARL_v6hrtuarft","5658000ca9872d0011e1ba26","freqPrac_resp","","","img/blue_2bandit_b.png","70","img/blue_2bandit_b.png","70","prac","","","","","","","","","","","","","","","","","","","",""
"null","111497","SARL_v6","SARL_v6hrtuarft","5658000ca9872d0011e1ba26","fixation","","","img/fixation.png","null","","","prac","","","","","","","","","","","","","","","","","","","",""
"440.40000000596046","111937","SARL_v6","SARL_v6hrtuarft","5658000ca9872d0011e1ba26","freqPrac","","","img/blue_2bandit_b2.png","70","img/blue_2bandit_b2.png","70","prac","1","2","","","","","","","","","","","","","","","","","",""
"440.40000000596046","112301","SARL_v6","SARL_v6hrtuarft","5658000ca9872d0011e1ba26","freqPrac_resp","","","img/blue_2bandit_b.png","70","img/blue_2bandit_b.png","70","prac","","","","","","","","","","","","","","","","","","","",""
"null","112457","SARL_v6","SARL_v6hrtuarft","5658000ca9872d0011e1ba26","fixation","","","img/fixation.png","null","","","prac","","","","","","","","","","","","","","","","","","","",""
"30608.09999999404","143066","SARL_v6","SARL_v6hrtuarft","5658000ca9872d0011e1ba26","","","","","","","","prac","","","","","","","","","","","","","","","","","","","",""
"740.5","143807","SARL_v6","SARL_v6hrtuarft","5658000ca9872d0011e1ba26","rlPractice","","","img/black_2bandit_b2.png","74","img/black_2bandit_b2.png","","prac","","","0","","","","","","","","","","","","","","","","",""
"null","144559","SARL_v6","SARL_v6hrtuarft","5658000ca9872d0011e1ba26","feedback","","","<div class=""veryhighPoints""> 10 </div>","null","","na","prac","","","1","10","-14","10","","","","","","","","","","","","","",""
"null","144715","SARL_v6","SARL_v6hrtuarft","5658000ca9872d0011e1ba26","fixation","","","img/fixation.png","null","","","prac","","","","","","","","","","","","","","","","","","","",""
"530.6999999880791","145246","SARL_v6","SARL_v6hrtuarft","5658000ca9872d0011e1ba26","rlPractice","","","img/black_2bandit_b2.png","74","img/black_2bandit_b2.png","","prac","","","1","","","","","","","","","","","","","","","","",""
"null","145998","SARL_v6","SARL_v6hrtuarft","5658000ca9872d0011e1ba26","feedback","","","<div class=""veryhighPoints""> 5 </div>","null","","na","prac","","","2","5","-5","5","","","","","","","","","","","","","",""
"null","146151","SARL_v6","SARL_v6hrtuarft","5658000ca9872d0011e1ba26","fixation","","","img/fixation.png","null","","","prac","","","","","","","","","","","","","","","","","","","",""
"586.8999999761581","146739","SARL_v6","SARL_v6hrtuarft","5658000ca9872d0011e1ba26","rlPractice","","","img/black_2bandit_b2.png","75","img/black_2bandit_b2.png","","prac","","","2","","","","","","","","","","","","","","","","",""
"null","147493","SARL_v6","SARL_v6hrtuarft","5658000ca9872d0011e1ba26","feedback","","","<div class=""veryhighPoints_sq""> 2 </div>","null","","na","prac","","","3","30","2","30","","","","","","","","","","","","","",""
"null","147646","SARL_v6","SARL_v6hrtuarft","5658000ca9872d0011e1ba26","fixation","","","img/fixation.png","null","","","prac","","","","","","","","","","","","","","","","","","","",""
"453.09999999403954","148100","SARL_v6","SARL_v6hrtuarft","5658000ca9872d0011e1ba26","rlPractice","","","img/black_2bandit_b2.png","74","img/black_2bandit_b2.png","","prac","","","3","","","","","","","","","","","","","","","","",""
"null","148863","SARL_v6","SARL_v6hrtuarft","5658000ca9872d0011e1ba26","feedback","","","<div class=""verylowPoints""> -2 </div>","null","","na","prac","","","4","-2","20","-2","","","","","","","","","","","","","",""
"null","149017","SARL_v6","SARL_v6hrtuarft","5658000ca9872d0011e1ba26","fixation","","","img/fixation.png","null","","","prac","","","","","","","","","","","","","","","","","","","",""
"15678","164696","SARL_v6","SARL_v6hrtuarft","5658000ca9872d0011e1ba26","","","","","","","","prac","","","","","","","","","","","","","","","","","","","",""
"742.8000000119209","165440","SARL_v6","SARL_v6hrtuarft","5658000ca9872d0011e1ba26","mixAttFreqPrac","","","img/blue_2bandit_b2.png","70","img/blue_2bandit_b2.png","70","prac","","","1","","","","","","","","","","","","","","","","",""
"742.8000000119209","165503","SARL_v6","SARL_v6hrtuarft","5658000ca9872d0011e1ba26","freqPrac_resp","","","img/blue_2bandit_b.png","70","img/blue_2bandit_b.png","70","prac","","","1","","","","","","","","","","","","","","","","",""
"null","165667","SARL_v6","SARL_v6hrtuarft","5658000ca9872d0011e1ba26","fixation","","","img/fixation.png","null","","","prac","","","","","","","","","","","","","","","","","","","",""
"525.3000000119209","166193","SARL_v6","SARL_v6hrtuarft","5658000ca9872d0011e1ba26","mixAttInfreqPrac","","","img/orange_2bandit_b2.png","68","img/orange_2bandit_b2.png","68","prac","","","2","","","","","","","","","","","","","","","","",""
"525.3000000119209","166469","SARL_v6","SARL_v6hrtuarft","5658000ca9872d0011e1ba26","infreqPrac_resp","","","img/orange_2bandit_b.png","68","img/blue_2bandit_b.png","68","prac","","","2","","","","","","","","","","","","","","","","",""
"null","166619","SARL_v6","SARL_v6hrtuarft","5658000ca9872d0011e1ba26","fixation","","","img/fixation.png","null","","","prac","","","","","","","","","","","","","","","","","","","",""
"589.3999999761581","167209","SARL_v6","SARL_v6hrtuarft","5658000ca9872d0011e1ba26","mixAttInfreqPrac","","","img/orange_2bandit_b2.png","68","img/orange_2bandit_b2.png","68","prac","","","3","","","","","","","","","","","","","","","","",""
"589.3999999761581","167424","SARL_v6","SARL_v6hrtuarft","5658000ca9872d0011e1ba26","infreqPrac_resp","","","img/orange_2bandit_b.png","68","img/blue_2bandit_b.png","68","prac","","","3","","","","","","","","","","","","","","","","",""
"null","167580","SARL_v6","SARL_v6hrtuarft","5658000ca9872d0011e1ba26","fixation","","","img/fixation.png","null","","","prac","","","","","","","","","","","","","","","","","","","",""
"550.3000000119209","168130","SARL_v6","SARL_v6hrtuarft","5658000ca9872d0011e1ba26","mixAttInfreqPrac","","","img/orange_2bandit_b2.png","68","img/orange_2bandit_b2.png","68","prac","","","4","","","","","","","","","","","","","","","","",""
"550.3000000119209","168382","SARL_v6","SARL_v6hrtuarft","5658000ca9872d0011e1ba26","infreqPrac_resp","","","img/orange_2bandit_b.png","68","img/blue_2bandit_b.png","68","prac","","","4","","","","","","","","","","","","","","","","",""
"null","168538","SARL_v6","SARL_v6hrtuarft","5658000ca9872d0011e1ba26","fixation","","","img/fixation.png","null","","","prac","","","","","","","","","","","","","","","","","","","",""
"559.4000000059605","169097","SARL_v6","SARL_v6hrtuarft","5658000ca9872d0011e1ba26","mixAttFreqPrac","","","img/blue_2bandit_b2.png","70","img/blue_2bandit_b2.png","70","prac","","","5","","","","","","","","","","","","","","","","",""
"559.4000000059605","169341","SARL_v6","SARL_v6hrtuarft","5658000ca9872d0011e1ba26","freqPrac_resp","","","img/blue_2bandit_b.png","70","img/blue_2bandit_b.png","70","prac","","","5","","","","","","","","","","","","","","","","",""
"null","169495","SARL_v6","SARL_v6hrtuarft","5658000ca9872d0011e1ba26","fixation","","","img/fixation.png","null","","","prac","","","","","","","","","","","","","","","","","","","",""
"941.3000000119209","170437","SARL_v6","SARL_v6hrtuarft","5658000ca9872d0011e1ba26","mixRLPractice","","","img/black_2bandit_b2.png","74","img/black_2bandit_b2.png","","prac","","","5","","","","","","","","","","","","","","","","",""
"null","171192","SARL_v6","SARL_v6hrtuarft","5658000ca9872d0011e1ba26","feedback","","","<div class=""verylowPoints""> -14 </div>","null","","na","prac","","","6","-14","10","-14","","","","","","","","","","","","","",""
"null","171347","SARL_v6","SARL_v6hrtuarft","5658000ca9872d0011e1ba26","fixation","","","img/fixation.png","null","","","prac","","","","","","","","","","","","","","","","","","","",""
"731.3000000119209","172079","SARL_v6","SARL_v6hrtuarft","5658000ca9872d0011e1ba26","mixAttFreqPrac","","","img/blue_2bandit_b2.png","70","img/blue_2bandit_b2.png","70","prac","","","7","","","","","","","","","","","","","","","","",""
"731.3000000119209","172148","SARL_v6","SARL_v6hrtuarft","5658000ca9872d0011e1ba26","freqPrac_resp","","","img/blue_2bandit_b.png","70","img/blue_2bandit_b.png","70","prac","","","7","","","","","","","","","","","","","","","","",""
"null","172299","SARL_v6","SARL_v6hrtuarft","5658000ca9872d0011e1ba26","fixation","","","img/fixation.png","null","","","prac","","","","","","","","","","","","","","","","","","","",""
"692.4000000059605","172992","SARL_v6","SARL_v6hrtuarft","5658000ca9872d0011e1ba26","mixAttInfreqPrac","","","img/orange_2bandit_b2.png","68","img/orange_2bandit_b2.png","68","prac","","","8","","","","","","","","","","","","","","","","",""
"692.4000000059605","173105","SARL_v6","SARL_v6hrtuarft","5658000ca9872d0011e1ba26","infreqPrac_resp","","","img/orange_2bandit_b.png","68","img/blue_2bandit_b.png","68","prac","","","8","","","","","","","","","","","","","","","","",""
"null","173260","SARL_v6","SARL_v6hrtuarft","5658000ca9872d0011e1ba26","fixation","","","img/fixation.png","null","","","prac","","","","","","","","","","","","","","","","","","","",""
"544.9000000059605","173806","SARL_v6","SARL_v6hrtuarft","5658000ca9872d0011e1ba26","mixAttFreqPrac","","","img/blue_2bandit_b2.png","70","img/blue_2bandit_b2.png","70","prac","","","9","","","","","","","","","","","","","","","","",""
"544.9000000059605","174065","SARL_v6","SARL_v6hrtuarft","5658000ca9872d0011e1ba26","freqPrac_resp","","","img/blue_2bandit_b.png","70","img/blue_2bandit_b.png","70","prac","","","9","","","","","","","","","","","","","","","","",""
"null","174219","SARL_v6","SARL_v6hrtuarft","5658000ca9872d0011e1ba26","fixation","","","img/fixation.png","null","","","prac","","","","","","","","","","","","","","","","","","","",""
"480.5","174700","SARL_v6","SARL_v6hrtuarft","5658000ca9872d0011e1ba26","mixAttFreqPrac","","","img/blue_2bandit_b2.png","70","img/blue_2bandit_b2.png","70","prac","","","10","","","","","","","","","","","","","","","","",""
"480.5","175021","SARL_v6","SARL_v6hrtuarft","5658000ca9872d0011e1ba26","freqPrac_resp","","","img/blue_2bandit_b.png","70","img/blue_2bandit_b.png","70","prac","","","10","","","","","","","","","","","","","","","","",""
"null","175171","SARL_v6","SARL_v6hrtuarft","5658000ca9872d0011e1ba26","fixation","","","img/fixation.png","null","","","prac","","","","","","","","","","","","","","","","","","","",""
"687.9000000059605","175860","SARL_v6","SARL_v6hrtuarft","5658000ca9872d0011e1ba26","mixAttInfreqPrac","","","img/orange_2bandit_b2.png","68","img/orange_2bandit_b2.png","68","prac","","","11","","","","","","","","","","","","","","","","",""
"687.9000000059605","175974","SARL_v6","SARL_v6hrtuarft","5658000ca9872d0011e1ba26","infreqPrac_resp","","","img/orange_2bandit_b.png","68","img/blue_2bandit_b.png","68","prac","","","11","","","","","","","","","","","","","","","","",""
"null","176128","SARL_v6","SARL_v6hrtuarft","5658000ca9872d0011e1ba26","fixation","","","img/fixation.png","null","","","prac","","","","","","","","","","","","","","","","","","","",""
"792.9000000059605","176922","SARL_v6","SARL_v6hrtuarft","5658000ca9872d0011e1ba26","mixRLPractice","","","img/black_2bandit_b2.png","75","img/black_2bandit_b2.png","","prac","","","11","","","","","","","","","","","","","","","","",""
"null","177683","SARL_v6","SARL_v6hrtuarft","5658000ca9872d0011e1ba26","feedback","","","<div class=""verylowPoints_sq""> -5 </div>","null","","na","prac","","","12","5","-5","5","","","","","","","","","","","","","",""
"null","177837","SARL_v6","SARL_v6hrtuarft","5658000ca9872d0011e1ba26","fixation","","","img/fixation.png","null","","","prac","","","","","","","","","","","","","","","","","","","",""
"13007.100000023842","190845","SARL_v6","SARL_v6hrtuarft","5658000ca9872d0011e1ba26","","","","","","","","prac","","","","","","","","","","","","","","","","","","","",""
"570.7999999821186","191417","SARL_v6","SARL_v6hrtuarft","5658000ca9872d0011e1ba26","freq","","","img/blue_2bandit_b2.png","70","","70","test","1","","1","","","","circle","square","1","1","1","1","","","","","","","",""
"null","191653","SARL_v6","SARL_v6hrtuarft","5658000ca9872d0011e1ba26","freq_resp","","","img/blue_2bandit_b.png","70","img/blue_2bandit_b.png","70","test","","","","","","","","","","","1","","","","","","","","",""
"null","191803","SARL_v6","SARL_v6hrtuarft","5658000ca9872d0011e1ba26","fixation","","","img/fixation.png","null","","","test","","","","","","","","","","","","","","","","","","","",""
"382","192186","SARL_v6","SARL_v6hrtuarft","5658000ca9872d0011e1ba26","freq","","","img/blue_2bandit_b2.png","70","","70","test","1","","2","","","","circle","square","2","2","1","1","","","","","","","",""
"null","192606","SARL_v6","SARL_v6hrtuarft","5658000ca9872d0011e1ba26","freq_resp","","","img/blue_2bandit_b.png","70","img/blue_2bandit_b.png","70","test","","","","","","","","","","","1","","","","","","","","",""
"null","192760","SARL_v6","SARL_v6hrtuarft","5658000ca9872d0011e1ba26","fixation","","","img/fixation.png","null","","","test","","","","","","","","","","","","","","","","","","","",""
"458.30000001192093","193219","SARL_v6","SARL_v6hrtuarft","5658000ca9872d0011e1ba26","infreq","","","img/orange_2bandit_b2.png","68","","68","test","1","","3","","","","circle","square","3","3","1","1","","","","","","","",""
"null","193573","SARL_v6","SARL_v6hrtuarft","5658000ca9872d0011e1ba26","infreq_resp","","","img/orange_2bandit_b.png","68","img/orange_2bandit_b.png","68","test","","","","","","","","","","","1","","","","","","","","",""
"null","193727","SARL_v6","SARL_v6hrtuarft","5658000ca9872d0011e1ba26","fixation","","","img/fixation.png","null","","","test","","","","","","","","","","","","","","","","","","","",""
"611.4000000059605","194339","SARL_v6","SARL_v6hrtuarft","5658000ca9872d0011e1ba26","freq","","","img/blue_2bandit_b2.png","70","","70","test","1","","4","","","","circle","square","4","4","1","1","","","","","","","",""
"null","194541","SARL_v6","SARL_v6hrtuarft","5658000ca9872d0011e1ba26","freq_resp","","","img/blue_2bandit_b.png","70","img/blue_2bandit_b.png","70","test","","","","","","","","","","","1","","","","","","","","",""
"null","194692","SARL_v6","SARL_v6hrtuarft","5658000ca9872d0011e1ba26","fixation","","","img/fixation.png","null","","","test","","","","","","","","","","","","","","","","","","","",""
"471.40000000596046","195164","SARL_v6","SARL_v6hrtuarft","5658000ca9872d0011e1ba26","freq","","","img/blue_2bandit_b2.png","70","","70","test","1","","5","","","","circle","square","5","5","1","1","","","","","","","",""
"null","195495","SARL_v6","SARL_v6hrtuarft","5658000ca9872d0011e1ba26","freq_resp","","","img/blue_2bandit_b.png","70","img/blue_2bandit_b.png","70","test","","","","","","","","","","","1","","","","","","","","",""
"null","195646","SARL_v6","SARL_v6hrtuarft","5658000ca9872d0011e1ba26","fixation","","","img/fixation.png","null","","","test","","","","","","","","","","","","","","","","","","","",""
"379.69999998807907","196027","SARL_v6","SARL_v6hrtuarft","5658000ca9872d0011e1ba26","freq","","","img/blue_2bandit_b2.png","70","","70","test","1","","6","","","","circle","square","6","6","1","1","","","","","","","",""
"null","196454","SARL_v6","SARL_v6hrtuarft","5658000ca9872d0011e1ba26","freq_resp","","","img/blue_2bandit_b.png","70","img/blue_2bandit_b.png","70","test","","","","","","","","","","","1","","","","","","","","",""
"null","196606","SARL_v6","SARL_v6hrtuarft","5658000ca9872d0011e1ba26","fixation","","","img/fixation.png","null","","","test","","","","","","","","","","","","","","","","","","","",""
"379.2999999821186","196986","SARL_v6","SARL_v6hrtuarft","5658000ca9872d0011e1ba26","freq","","","img/blue_2bandit_b2.png","70","","70","test","1","","7","","","","circle","square","7","7","1","1","","","","","","","",""
"null","197422","SARL_v6","SARL_v6hrtuarft","5658000ca9872d0011e1ba26","freq_resp","","","img/blue_2bandit_b.png","70","img/blue_2bandit_b.png","70","test","","","","","","","","","","","1","","","","","","","","",""
"null","197576","SARL_v6","SARL_v6hrtuarft","5658000ca9872d0011e1ba26","fixation","","","img/fixation.png","null","","","test","","","","","","","","","","","","","","","","","","","",""
"370.59999999403954","197947","SARL_v6","SARL_v6hrtuarft","5658000ca9872d0011e1ba26","freq","","","img/blue_2bandit_b2.png","70","","70","test","1","","8","","","","circle","square","8","8","1","1","","","","","","","",""
"null","198390","SARL_v6","SARL_v6hrtuarft","5658000ca9872d0011e1ba26","freq_resp","","","img/blue_2bandit_b.png","70","img/blue_2bandit_b.png","70","test","","","","","","","","","","","1","","","","","","","","",""
"null","198543","SARL_v6","SARL_v6hrtuarft","5658000ca9872d0011e1ba26","fixation","","","img/fixation.png","null","","","test","","","","","","","","","","","","","","","","","","","",""
"348.5","198892","SARL_v6","SARL_v6hrtuarft","5658000ca9872d0011e1ba26","freq","","","img/blue_2bandit_b2.png","70","","70","test","1","","9","","","","circle","square","9","9","1","1","","","","","","","",""
"null","199358","SARL_v6","SARL_v6hrtuarft","5658000ca9872d0011e1ba26","freq_resp","","","img/blue_2bandit_b.png","70","img/blue_2bandit_b.png","70","test","","","","","","","","","","","1","","","","","","","","",""
"null","199512","SARL_v6","SARL_v6hrtuarft","5658000ca9872d0011e1ba26","fixation","","","img/fixation.png","null","","","test","","","","","","","","","","","","","","","","","","","",""
"310.19999998807907","199823","SARL_v6","SARL_v6hrtuarft","5658000ca9872d0011e1ba26","freq","","","img/blue_2bandit_b2.png","70","","70","test","1","","10","","","","circle","square","10","10","1","1","","","","","","","",""
"null","200327","SARL_v6","SARL_v6hrtuarft","5658000ca9872d0011e1ba26","freq_resp","","","img/blue_2bandit_b.png","70","img/blue_2bandit_b.png","70","test","","","","","","","","","","","1","","","","","","","","",""
"null","200481","SARL_v6","SARL_v6hrtuarft","5658000ca9872d0011e1ba26","fixation","","","img/fixation.png","null","","","test","","","","","","","","","","","","","","","","","","","",""
"284.80000001192093","200766","SARL_v6","SARL_v6hrtuarft","5658000ca9872d0011e1ba26","freq","","","img/blue_2bandit_b2.png","70","","70","test","1","","11","","","","circle","square","11","11","1","1","","","","","","","",""
"null","201283","SARL_v6","SARL_v6hrtuarft","5658000ca9872d0011e1ba26","freq_resp","","","img/blue_2bandit_b.png","70","img/blue_2bandit_b.png","70","test","","","","","","","","","","","1","","","","","","","","",""
"null","201438","SARL_v6","SARL_v6hrtuarft","5658000ca9872d0011e1ba26","fixation","","","img/fixation.png","null","","","test","","","","","","","","","","","","","","","","","","","",""
"342.90000000596046","201781","SARL_v6","SARL_v6hrtuarft","5658000ca9872d0011e1ba26","freq","","","img/blue_2bandit_b2.png","70","","70","test","1","","12","","","","circle","square","12","12","1","1","","","","","","","",""
"null","202252","SARL_v6","SARL_v6hrtuarft","5658000ca9872d0011e1ba26","freq_resp","","","img/blue_2bandit_b.png","70","img/blue_2bandit_b.png","70","test","","","","","","","","","","","1","","","","","","","","",""
"null","202407","SARL_v6","SARL_v6hrtuarft","5658000ca9872d0011e1ba26","fixation","","","img/fixation.png","null","","","test","","","","","","","","","","","","","","","","","","","",""
"329.7000000178814","202737","SARL_v6","SARL_v6hrtuarft","5658000ca9872d0011e1ba26","freq","","","img/blue_2bandit_b2.png","70","","70","test","1","","13","","","","circle","square","13","13","1","1","","","","","","","",""
"null","203210","SARL_v6","SARL_v6hrtuarft","5658000ca9872d0011e1ba26","freq_resp","","","img/blue_2bandit_b.png","70","img/blue_2bandit_b.png","70","test","","","","","","","","","","","1","","","","","","","","",""
"null","203363","SARL_v6","SARL_v6hrtuarft","5658000ca9872d0011e1ba26","fixation","","","img/fixation.png","null","","","test","","","","","","","","","","","","","","","","","","","",""
"321.59999999403954","203685","SARL_v6","SARL_v6hrtuarft","5658000ca9872d0011e1ba26","freq","","","img/blue_2bandit_b2.png","70","","70","test","1","","14","","","","circle","square","14","14","1","1","","","","","","","",""
"null","204177","SARL_v6","SARL_v6hrtuarft","5658000ca9872d0011e1ba26","freq_resp","","","img/blue_2bandit_b.png","70","img/blue_2bandit_b.png","70","test","","","","","","","","","","","1","","","","","","","","",""
"null","204328","SARL_v6","SARL_v6hrtuarft","5658000ca9872d0011e1ba26","fixation","","","img/fixation.png","null","","","test","","","","","","","","","","","","","","","","","","","",""
"301.2999999821186","204630","SARL_v6","SARL_v6hrtuarft","5658000ca9872d0011e1ba26","freq","","","img/blue_2bandit_b2.png","70","","70","test","1","","15","","","","circle","square","15","15","1","1","","","","","","","",""
"null","205131","SARL_v6","SARL_v6hrtuarft","5658000ca9872d0011e1ba26","freq_resp","","","img/blue_2bandit_b.png","70","img/blue_2bandit_b.png","70","test","","","","","","","","","","","1","","","","","","","","",""
"null","205282","SARL_v6","SARL_v6hrtuarft","5658000ca9872d0011e1ba26","fixation","","","img/fixation.png","null","","","test","","","","","","","","","","","","","","","","","","","",""
"301.5","205584","SARL_v6","SARL_v6hrtuarft","5658000ca9872d0011e1ba26","freq","","","img/blue_2bandit_b2.png","70","","70","test","1","","16","","","","circle","square","16","16","1","1","","","","","","","",""
"null","206089","SARL_v6","SARL_v6hrtuarft","5658000ca9872d0011e1ba26","freq_resp","","","img/blue_2bandit_b.png","70","img/blue_2bandit_b.png","70","test","","","","","","","","","","","1","","","","","","","","",""
"null","206243","SARL_v6","SARL_v6hrtuarft","5658000ca9872d0011e1ba26","fixation","","","img/fixation.png","null","","","test","","","","","","","","","","","","","","","","","","","",""
"356.19999998807907","206600","SARL_v6","SARL_v6hrtuarft","5658000ca9872d0011e1ba26","freq","","","img/blue_2bandit_b2.png","70","","70","test","1","","17","","","","circle","square","17","17","1","1","","","","","","","",""
"null","207046","SARL_v6","SARL_v6hrtuarft","5658000ca9872d0011e1ba26","freq_resp","","","img/blue_2bandit_b.png","70","img/blue_2bandit_b.png","70","test","","","","","","","","","","","1","","","","","","","","",""
"null","207199","SARL_v6","SARL_v6hrtuarft","5658000ca9872d0011e1ba26","fixation","","","img/fixation.png","null","","","test","","","","","","","","","","","","","","","","","","","",""
"457.80000001192093","207657","SARL_v6","SARL_v6hrtuarft","5658000ca9872d0011e1ba26","infreq","","","img/orange_2bandit_b2.png","68","","68","test","1","","18","","","","circle","square","18","18","1","1","","","","","","","",""
"null","208001","SARL_v6","SARL_v6hrtuarft","5658000ca9872d0011e1ba26","infreq_resp","","","img/orange_2bandit_b.png","68","img/orange_2bandit_b.png","68","test","","","","","","","","","","","1","","","","","","","","",""
"null","208152","SARL_v6","SARL_v6hrtuarft","5658000ca9872d0011e1ba26","fixation","","","img/fixation.png","null","","","test","","","","","","","","","","","","","","","","","","","",""
"405.5","208558","SARL_v6","SARL_v6hrtuarft","5658000ca9872d0011e1ba26","freq","","","img/blue_2bandit_b2.png","70","","70","test","1","","19","","","","circle","square","19","19","1","1","","","","","","","",""
"null","208959","SARL_v6","SARL_v6hrtuarft","5658000ca9872d0011e1ba26","freq_resp","","","img/blue_2bandit_b.png","70","img/blue_2bandit_b.png","70","test","","","","","","","","","","","1","","","","","","","","",""
"null","209112","SARL_v6","SARL_v6hrtuarft","5658000ca9872d0011e1ba26","fixation","","","img/fixation.png","null","","","test","","","","","","","","","","","","","","","","","","","",""
"351.60000002384186","209464","SARL_v6","SARL_v6hrtuarft","5658000ca9872d0011e1ba26","freq","","","img/blue_2bandit_b2.png","70","","70","test","1","","20","","","","circle","square","20","20","1","1","","","","","","","",""
"null","209913","SARL_v6","SARL_v6hrtuarft","5658000ca9872d0011e1ba26","freq_resp","","","img/blue_2bandit_b.png","70","img/blue_2bandit_b.png","70","test","","","","","","","","","","","1","","","","","","","","",""
"null","210067","SARL_v6","SARL_v6hrtuarft","5658000ca9872d0011e1ba26","fixation","","","img/fixation.png","null","","","test","","","","","","","","","","","","","","","","","","","",""
"304.80000001192093","210372","SARL_v6","SARL_v6hrtuarft","5658000ca9872d0011e1ba26","freq","","","img/blue_2bandit_b2.png","70","","70","test","1","","21","","","","circle","square","21","21","1","1","","","","","","","",""
"null","210882","SARL_v6","SARL_v6hrtuarft","5658000ca9872d0011e1ba26","freq_resp","","","img/blue_2bandit_b.png","70","img/blue_2bandit_b.png","70","test","","","","","","","","","","","1","","","","","","","","",""
"null","211036","SARL_v6","SARL_v6hrtuarft","5658000ca9872d0011e1ba26","fixation","","","img/fixation.png","null","","","test","","","","","","","","","","","","","","","","","","","",""
"277.59999999403954","211314","SARL_v6","SARL_v6hrtuarft","5658000ca9872d0011e1ba26","freq","","","img/blue_2bandit_b2.png","70","","70","test","1","","22","","","","circle","square","22","22","1","1","","","","","","","",""
"null","211851","SARL_v6","SARL_v6hrtuarft","5658000ca9872d0011e1ba26","freq_resp","","","img/blue_2bandit_b.png","70","img/blue_2bandit_b.png","70","test","","","","","","","","","","","1","","","","","","","","",""
"null","212004","SARL_v6","SARL_v6hrtuarft","5658000ca9872d0011e1ba26","fixation","","","img/fixation.png","null","","","test","","","","","","","","","","","","","","","","","","","",""
"270.59999999403954","212275","SARL_v6","SARL_v6hrtuarft","5658000ca9872d0011e1ba26","freq","","","img/blue_2bandit_b2.png","70","","70","test","1","","23","","","","circle","square","23","23","1","1","","","","","","","",""
"null","212806","SARL_v6","SARL_v6hrtuarft","5658000ca9872d0011e1ba26","freq_resp","","","img/blue_2bandit_b.png","70","img/blue_2bandit_b.png","70","test","","","","","","","","","","","1","","","","","","","","",""
"null","212960","SARL_v6","SARL_v6hrtuarft","5658000ca9872d0011e1ba26","fixation","","","img/fixation.png","null","","","test","","","","","","","","","","","","","","","","","","","",""
"775.7000000178814","213736","SARL_v6","SARL_v6hrtuarft","5658000ca9872d0011e1ba26","rl","","","img/black_2bandit_b2.png","75","","0","test","","","24","","","-3","circle","square","","0","1","","75","-3","-3","-3","-3","square","1","0"
"null","214488","SARL_v6","SARL_v6hrtuarft","5658000ca9872d0011e1ba26","feedback","","","<div class=""verylowPoints_sq""> -3 </div>","null","","na","test","","","NaN","","","","","","","","1","","75","","","","","","1",""
"649.5","215138","SARL_v6","SARL_v6hrtuarft","5658000ca9872d0011e1ba26","freq","","","img/blue_2bandit_b2.png","70","","70","test","1","","25","","","","circle","square","24","1","2","1","","","","","","","",""
"null","215290","SARL_v6","SARL_v6hrtuarft","5658000ca9872d0011e1ba26","freq_resp","","","img/blue_2bandit_b.png","70","img/blue_2bandit_b.png","70","test","","","","","","","","","","","2","","","","","","","","",""
"null","215442","SARL_v6","SARL_v6hrtuarft","5658000ca9872d0011e1ba26","fixation","","","img/fixation.png","null","","","test","","","","","","","","","","","","","","","","","","","",""
"476.2000000178814","215919","SARL_v6","SARL_v6hrtuarft","5658000ca9872d0011e1ba26","freq","","","img/blue_2bandit_b2.png","70","","70","test","1","","26","","","","circle","square","25","2","2","1","","","","","","","",""
"null","216246","SARL_v6","SARL_v6hrtuarft","5658000ca9872d0011e1ba26","freq_resp","","","img/blue_2bandit_b.png","70","img/blue_2bandit_b.png","70","test","","","","","","","","","","","2","","","","","","","","",""
"null","216397","SARL_v6","SARL_v6hrtuarft","5658000ca9872d0011e1ba26","fixation","","","img/fixation.png","null","","","test","","","","","","","","","","","","","","","","","","","",""
"336","216733","SARL_v6","SARL_v6hrtuarft","5658000ca9872d0011e1ba26","freq","","","img/blue_2bandit_b2.png","70","","70","test","1","","27","","","","circle","square","26","3","2","1","","","","","","","",""
"null","217203","SARL_v6","SARL_v6hrtuarft","5658000ca9872d0011e1ba26","freq_resp","","","img/blue_2bandit_b.png","70","img/blue_2bandit_b.png","70","test","","","","","","","","","","","2","","","","","","","","",""
"null","217358","SARL_v6","SARL_v6hrtuarft","5658000ca9872d0011e1ba26","fixation","","","img/fixation.png","null","","","test","","","","","","","","","","","","","","","","","","","",""
"380.7000000178814","217739","SARL_v6","SARL_v6hrtuarft","5658000ca9872d0011e1ba26","freq","","","img/blue_2bandit_b2.png","70","","70","test","1","","28","","","","circle","square","27","4","2","1","","","","","","","",""
"null","218159","SARL_v6","SARL_v6hrtuarft","5658000ca9872d0011e1ba26","freq_resp","","","img/blue_2bandit_b.png","70","img/blue_2bandit_b.png","70","test","","","","","","","","","","","2","","","","","","","","",""
"null","218311","SARL_v6","SARL_v6hrtuarft","5658000ca9872d0011e1ba26","fixation","","","img/fixation.png","null","","","test","","","","","","","","","","","","","","","","","","","",""
"550.6000000238419","218862","SARL_v6","SARL_v6hrtuarft","5658000ca9872d0011e1ba26","infreq","","","img/orange_2bandit_b2.png","68","","68","test","1","","29","","","","circle","square","28","5","2","1","","","","","","","",""
"null","219116","SARL_v6","SARL_v6hrtuarft","5658000ca9872d0011e1ba26","infreq_resp","","","img/orange_2bandit_b.png","68","img/orange_2bandit_b.png","68","test","","","","","","","","","","","2","","","","","","","","",""
"null","219267","SARL_v6","SARL_v6hrtuarft","5658000ca9872d0011e1ba26","fixation","","","img/fixation.png","null","","","test","","","","","","","","","","","","","","","","","","","",""
"412","219679","SARL_v6","SARL_v6hrtuarft","5658000ca9872d0011e1ba26","freq","","","img/blue_2bandit_b2.png","70","","70","test","1","","30","","","","circle","square","29","6","2","1","","","","","","","",""
"null","220075","SARL_v6","SARL_v6hrtuarft","5658000ca9872d0011e1ba26","freq_resp","","","img/blue_2bandit_b.png","70","img/blue_2bandit_b.png","70","test","","","","","","","","","","","2","","","","","","","","",""
"null","220229","SARL_v6","SARL_v6hrtuarft","5658000ca9872d0011e1ba26","fixation","","","img/fixation.png","null","","","test","","","","","","","","","","","","","","","","","","","",""
"371.80000001192093","220601","SARL_v6","SARL_v6hrtuarft","5658000ca9872d0011e1ba26","freq","","","img/blue_2bandit_b2.png","70","","70","test","1","","31","","","","circle","square","30","7","2","1","","","","","","","",""
"null","221032","SARL_v6","SARL_v6hrtuarft","5658000ca9872d0011e1ba26","freq_resp","","","img/blue_2bandit_b.png","70","img/blue_2bandit_b.png","70","test","","","","","","","","","","","2","","","","","","","","",""
"null","221186","SARL_v6","SARL_v6hrtuarft","5658000ca9872d0011e1ba26","fixation","","","img/fixation.png","null","","","test","","","","","","","","","","","","","","","","","","","",""
"315.5","221502","SARL_v6","SARL_v6hrtuarft","5658000ca9872d0011e1ba26","freq","","","img/blue_2bandit_b2.png","70","","70","test","1","","32","","","","circle","square","31","8","2","1","","","","","","","",""
"null","221988","SARL_v6","SARL_v6hrtuarft","5658000ca9872d0011e1ba26","freq_resp","","","img/blue_2bandit_b.png","70","img/blue_2bandit_b.png","70","test","","","","","","","","","","","2","","","","","","","","",""
"null","222138","SARL_v6","SARL_v6hrtuarft","5658000ca9872d0011e1ba26","fixation","","","img/fixation.png","null","","","test","","","","","","","","","","","","","","","","","","","",""
"285.5","222424","SARL_v6","SARL_v6hrtuarft","5658000ca9872d0011e1ba26","freq","","","img/blue_2bandit_b2.png","70","","70","test","1","","33","","","","circle","square","32","9","2","1","","","","","","","",""
"null","222946","SARL_v6","SARL_v6hrtuarft","5658000ca9872d0011e1ba26","freq_resp","","","img/blue_2bandit_b.png","70","img/blue_2bandit_b.png","70","test","","","","","","","","","","","2","","","","","","","","",""
"null","223101","SARL_v6","SARL_v6hrtuarft","5658000ca9872d0011e1ba26","fixation","","","img/fixation.png","null","","","test","","","","","","","","","","","","","","","","","","","",""
"291","223392","SARL_v6","SARL_v6hrtuarft","5658000ca9872d0011e1ba26","freq","","","img/blue_2bandit_b2.png","70","","70","test","1","","34","","","","circle","square","33","10","2","1","","","","","","","",""
"null","223903","SARL_v6","SARL_v6hrtuarft","5658000ca9872d0011e1ba26","freq_resp","","","img/blue_2bandit_b.png","70","img/blue_2bandit_b.png","70","test","","","","","","","","","","","2","","","","","","","","",""
"null","224059","SARL_v6","SARL_v6hrtuarft","5658000ca9872d0011e1ba26","fixation","","","img/fixation.png","null","","","test","","","","","","","","","","","","","","","","","","","",""
"301.80000001192093","224361","SARL_v6","SARL_v6hrtuarft","5658000ca9872d0011e1ba26","freq","","","img/blue_2bandit_b2.png","70","","70","test","1","","35","","","","circle","square","34","11","2","1","","","","","","","",""
"null","224863","SARL_v6","SARL_v6hrtuarft","5658000ca9872d0011e1ba26","freq_resp","","","img/blue_2bandit_b.png","70","img/blue_2bandit_b.png","70","test","","","","","","","","","","","2","","","","","","","","",""
"null","225017","SARL_v6","SARL_v6hrtuarft","5658000ca9872d0011e1ba26","fixation","","","img/fixation.png","null","","","test","","","","","","","","","","","","","","","","","","","",""
"292.7000000178814","225310","SARL_v6","SARL_v6hrtuarft","5658000ca9872d0011e1ba26","freq","","","img/blue_2bandit_b2.png","70","","70","test","1","","36","","","","circle","square","35","12","2","1","","","","","","","",""
"null","225818","SARL_v6","SARL_v6hrtuarft","5658000ca9872d0011e1ba26","freq_resp","","","img/blue_2bandit_b.png","70","img/blue_2bandit_b.png","70","test","","","","","","","","","","","2","","","","","","","","",""
"null","225972","SARL_v6","SARL_v6hrtuarft","5658000ca9872d0011e1ba26","fixation","","","img/fixation.png","null","","","test","","","","","","","","","","","","","","","","","","","",""
"323.7000000178814","226296","SARL_v6","SARL_v6hrtuarft","5658000ca9872d0011e1ba26","freq","","","img/blue_2bandit_b2.png","70","","70","test","1","","37","","","","circle","square","36","13","2","1","","","","","","","",""
"null","226788","SARL_v6","SARL_v6hrtuarft","5658000ca9872d0011e1ba26","freq_resp","","","img/blue_2bandit_b.png","70","img/blue_2bandit_b.png","70","test","","","","","","","","","","","2","","","","","","","","",""
"null","226942","SARL_v6","SARL_v6hrtuarft","5658000ca9872d0011e1ba26","fixation","","","img/fixation.png","null","","","test","","","","","","","","","","","","","","","","","","","",""
"283.80000001192093","227226","SARL_v6","SARL_v6hrtuarft","5658000ca9872d0011e1ba26","freq","","","img/blue_2bandit_b2.png","70","","70","test","1","","38","","","","circle","square","37","14","2","1","","","","","","","",""
"null","227757","SARL_v6","SARL_v6hrtuarft","5658000ca9872d0011e1ba26","freq_resp","","","img/blue_2bandit_b.png","70","img/blue_2bandit_b.png","70","test","","","","","","","","","","","2","","","","","","","","",""
"null","227908","SARL_v6","SARL_v6hrtuarft","5658000ca9872d0011e1ba26","fixation","","","img/fixation.png","null","","","test","","","","","","","","","","","","","","","","","","","",""
"429.69999998807907","228338","SARL_v6","SARL_v6hrtuarft","5658000ca9872d0011e1ba26","infreq","","","img/orange_2bandit_b2.png","68","","68","test","1","","39","","","","circle","square","38","15","2","1","","","","","","","",""
"null","228712","SARL_v6","SARL_v6hrtuarft","5658000ca9872d0011e1ba26","infreq_resp","","","img/orange_2bandit_b.png","68","img/orange_2bandit_b.png","68","test","","","","","","","","","","","2","","","","","","","","",""
"null","228865","SARL_v6","SARL_v6hrtuarft","5658000ca9872d0011e1ba26","fixation","","","img/fixation.png","null","","","test","","","","","","","","","","","","","","","","","","","",""
"508.10000002384186","229373","SARL_v6","SARL_v6hrtuarft","5658000ca9872d0011e1ba26","freq","","","img/blue_2bandit_b2.png","70","","70","test","1","","40","","","","circle","square","39","16","2","1","","","","","","","",""
"null","229680","SARL_v6","SARL_v6hrtuarft","5658000ca9872d0011e1ba26","freq_resp","","","img/blue_2bandit_b.png","70","img/blue_2bandit_b.png","70","test","","","","","","","","","","","2","","","","","","","","",""
"null","229830","SARL_v6","SARL_v6hrtuarft","5658000ca9872d0011e1ba26","fixation","","","img/fixation.png","null","","","test","","","","","","","","","","","","","","","","","","","",""
"364.19999998807907","230195","SARL_v6","SARL_v6hrtuarft","5658000ca9872d0011e1ba26","freq","","","img/blue_2bandit_b2.png","70","","70","test","1","","41","","","","circle","square","40","17","2","1","","","","","","","",""
"null","230634","SARL_v6","SARL_v6hrtuarft","5658000ca9872d0011e1ba26","freq_resp","","","img/blue_2bandit_b.png","70","img/blue_2bandit_b.png","70","test","","","","","","","","","","","2","","","","","","","","",""
"null","230787","SARL_v6","SARL_v6hrtuarft","5658000ca9872d0011e1ba26","fixation","","","img/fixation.png","null","","","test","","","","","","","","","","","","","","","","","","","",""
"328.69999998807907","231116","SARL_v6","SARL_v6hrtuarft","5658000ca9872d0011e1ba26","freq","","","img/blue_2bandit_b2.png","70","","70","test","1","","42","","","","circle","square","41","18","2","1","","","","","","","",""
"null","231591","SARL_v6","SARL_v6hrtuarft","5658000ca9872d0011e1ba26","freq_resp","","","img/blue_2bandit_b.png","70","img/blue_2bandit_b.png","70","test","","","","","","","","","","","2","","","","","","","","",""
"null","231742","SARL_v6","SARL_v6hrtuarft","5658000ca9872d0011e1ba26","fixation","","","img/fixation.png","null","","","test","","","","","","","","","","","","","","","","","","","",""
"298.5","232041","SARL_v6","SARL_v6hrtuarft","5658000ca9872d0011e1ba26","freq","","","img/blue_2bandit_b2.png","70","","70","test","1","","43","","","","circle","square","42","19","2","1","","","","","","","",""
"null","232555","SARL_v6","SARL_v6hrtuarft","5658000ca9872d0011e1ba26","freq_resp","","","img/blue_2bandit_b.png","70","img/blue_2bandit_b.png","70","test","","","","","","","","","","","2","","","","","","","","",""
"null","232705","SARL_v6","SARL_v6hrtuarft","5658000ca9872d0011e1ba26","fixation","","","img/fixation.png","null","","","test","","","","","","","","","","","","","","","","","","","",""
"304.09999999403954","233010","SARL_v6","SARL_v6hrtuarft","5658000ca9872d0011e1ba26","freq","","","img/blue_2bandit_b2.png","70","","70","test","1","","44","","","","circle","square","43","20","2","1","","","","","","","",""
"null","233509","SARL_v6","SARL_v6hrtuarft","5658000ca9872d0011e1ba26","freq_resp","","","img/blue_2bandit_b.png","70","img/blue_2bandit_b.png","70","test","","","","","","","","","","","2","","","","","","","","",""
"null","233664","SARL_v6","SARL_v6hrtuarft","5658000ca9872d0011e1ba26","fixation","","","img/fixation.png","null","","","test","","","","","","","","","","","","","","","","","","","",""
"271.7999999821186","233936","SARL_v6","SARL_v6hrtuarft","5658000ca9872d0011e1ba26","freq","","","img/blue_2bandit_b2.png","70","","70","test","1","","45","","","","circle","square","44","21","2","1","","","","","","","",""
"null","234478","SARL_v6","SARL_v6hrtuarft","5658000ca9872d0011e1ba26","freq_resp","","","img/blue_2bandit_b.png","70","img/blue_2bandit_b.png","70","test","","","","","","","","","","","2","","","","","","","","",""
"null","234630","SARL_v6","SARL_v6hrtuarft","5658000ca9872d0011e1ba26","fixation","","","img/fixation.png","null","","","test","","","","","","","","","","","","","","","","","","","",""
"275","234905","SARL_v6","SARL_v6hrtuarft","5658000ca9872d0011e1ba26","freq","","","img/blue_2bandit_b2.png","70","","70","test","1","","46","","","","circle","square","45","22","2","1","","","","","","","",""
"null","235435","SARL_v6","SARL_v6hrtuarft","5658000ca9872d0011e1ba26","freq_resp","","","img/blue_2bandit_b.png","70","img/blue_2bandit_b.png","70","test","","","","","","","","","","","2","","","","","","","","",""
"null","235588","SARL_v6","SARL_v6hrtuarft","5658000ca9872d0011e1ba26","fixation","","","img/fixation.png","null","","","test","","","","","","","","","","","","","","","","","","","",""
"274","235862","SARL_v6","SARL_v6hrtuarft","5658000ca9872d0011e1ba26","freq","","","img/blue_2bandit_b2.png","70","","70","test","1","","47","","","","circle","square","46","23","2","1","","","","","","","",""
"null","236393","SARL_v6","SARL_v6hrtuarft","5658000ca9872d0011e1ba26","freq_resp","","","img/blue_2bandit_b.png","70","img/blue_2bandit_b.png","70","test","","","","","","","","","","","2","","","","","","","","",""
"null","236543","SARL_v6","SARL_v6hrtuarft","5658000ca9872d0011e1ba26","fixation","","","img/fixation.png","null","","","test","","","","","","","","","","","","","","","","","","","",""
"236.19999998807907","236780","SARL_v6","SARL_v6hrtuarft","5658000ca9872d0011e1ba26","freq","","","img/blue_2bandit_b2.png","70","","70","test","1","","48","","","","circle","square","47","24","2","1","","","","","","","",""
"null","237347","SARL_v6","SARL_v6hrtuarft","5658000ca9872d0011e1ba26","freq_resp","","","img/blue_2bandit_b.png","70","img/blue_2bandit_b.png","70","test","","","","","","","","","","","2","","","","","","","","",""
"null","237501","SARL_v6","SARL_v6hrtuarft","5658000ca9872d0011e1ba26","fixation","","","img/fixation.png","null","","","test","","","","","","","","","","","","","","","","","","","",""
"749.7999999821186","238251","SARL_v6","SARL_v6hrtuarft","5658000ca9872d0011e1ba26","rl","","","img/black_2bandit_b2.png","74","","0","test","","","49","","","-5","circle","square","","0","2","","74","-5","-8","-5","-8","circle","2","0"
"null","239011","SARL_v6","SARL_v6hrtuarft","5658000ca9872d0011e1ba26","feedback","","","<div class=""verylowPoints""> -5 </div>","null","","na","test","","","NaN","","","","","","","","2","","74","","","","","","2",""
"646.8000000119209","239658","SARL_v6","SARL_v6hrtuarft","5658000ca9872d0011e1ba26","freq","","","img/blue_2bandit_b2.png","70","","70","test","1","","50","","","","circle","square","48","1","3","1","","","","","","","",""
"null","239813","SARL_v6","SARL_v6hrtuarft","5658000ca9872d0011e1ba26","freq_resp","","","img/blue_2bandit_b.png","70","img/blue_2bandit_b.png","70","test","","","","","","","","","","","3","","","","","","","","",""
"null","239964","SARL_v6","SARL_v6hrtuarft","5658000ca9872d0011e1ba26","fixation","","","img/fixation.png","null","","","test","","","","","","","","","","","","","","","","","","","",""
"455.09999999403954","240420","SARL_v6","SARL_v6hrtuarft","5658000ca9872d0011e1ba26","freq","","","img/blue_2bandit_b2.png","70","","70","test","1","","51","","","","circle","square","49","2","3","1","","","","","","","",""
"null","240771","SARL_v6","SARL_v6hrtuarft","5658000ca9872d0011e1ba26","freq_resp","","","img/blue_2bandit_b.png","70","img/blue_2bandit_b.png","70","test","","","","","","","","","","","3","","","","","","","","",""
"null","240923","SARL_v6","SARL_v6hrtuarft","5658000ca9872d0011e1ba26","fixation","","","img/fixation.png","null","","","test","","","","","","","","","","","","","","","","","","","",""
"298.19999998807907","241222","SARL_v6","SARL_v6hrtuarft","5658000ca9872d0011e1ba26","freq","","","img/blue_2bandit_b2.png","70","","70","test","1","","52","","","","circle","square","50","3","3","1","","","","","","","",""
"null","241725","SARL_v6","SARL_v6hrtuarft","5658000ca9872d0011e1ba26","freq_resp","","","img/blue_2bandit_b.png","70","img/blue_2bandit_b.png","70","test","","","","","","","","","","","3","","","","","","","","",""
"null","241876","SARL_v6","SARL_v6hrtuarft","5658000ca9872d0011e1ba26","fixation","","","img/fixation.png","null","","","test","","","","","","","","","","","","","","","","","","","",""
"299.59999999403954","242176","SARL_v6","SARL_v6hrtuarft","5658000ca9872d0011e1ba26","freq","","","img/blue_2bandit_b2.png","70","","70","test","1","","53","","","","circle","square","51","4","3","1","","","","","","","",""
"null","242692","SARL_v6","SARL_v6hrtuarft","5658000ca9872d0011e1ba26","freq_resp","","","img/blue_2bandit_b.png","70","img/blue_2bandit_b.png","70","test","","","","","","","","","","","3","","","","","","","","",""
"null","242847","SARL_v6","SARL_v6hrtuarft","5658000ca9872d0011e1ba26","fixation","","","img/fixation.png","null","","","test","","","","","","","","","","","","","","","","","","","",""
"292.90000000596046","243140","SARL_v6","SARL_v6hrtuarft","5658000ca9872d0011e1ba26","freq","","","img/blue_2bandit_b2.png","70","","70","test","1","","54","","","","circle","square","52","5","3","1","","","","","","","",""
"null","243661","SARL_v6","SARL_v6hrtuarft","5658000ca9872d0011e1ba26","freq_resp","","","img/blue_2bandit_b.png","70","img/blue_2bandit_b.png","70","test","","","","","","","","","","","3","","","","","","","","",""
"null","243812","SARL_v6","SARL_v6hrtuarft","5658000ca9872d0011e1ba26","fixation","","","img/fixation.png","null","","","test","","","","","","","","","","","","","","","","","","","",""
"285.59999999403954","244098","SARL_v6","SARL_v6hrtuarft","5658000ca9872d0011e1ba26","freq","","","img/blue_2bandit_b2.png","70","","70","test","1","","55","","","","circle","square","53","6","3","1","","","","","","","",""
"null","244616","SARL_v6","SARL_v6hrtuarft","5658000ca9872d0011e1ba26","freq_resp","","","img/blue_2bandit_b.png","70","img/blue_2bandit_b.png","70","test","","","","","","","","","","","3","","","","","","","","",""
"null","244767","SARL_v6","SARL_v6hrtuarft","5658000ca9872d0011e1ba26","fixation","","","img/fixation.png","null","","","test","","","","","","","","","","","","","","","","","","","",""
"392.7000000178814","245160","SARL_v6","SARL_v6hrtuarft","5658000ca9872d0011e1ba26","freq","","","img/blue_2bandit_b2.png","70","","70","test","1","","56","","","","circle","square","54","7","3","1","","","","","","","",""
"null","245575","SARL_v6","SARL_v6hrtuarft","5658000ca9872d0011e1ba26","freq_resp","","","img/blue_2bandit_b.png","70","img/blue_2bandit_b.png","70","test","","","","","","","","","","","3","","","","","","","","",""
"null","245729","SARL_v6","SARL_v6hrtuarft","5658000ca9872d0011e1ba26","fixation","","","img/fixation.png","null","","","test","","","","","","","","","","","","","","","","","","","",""
"325.09999999403954","246055","SARL_v6","SARL_v6hrtuarft","5658000ca9872d0011e1ba26","freq","","","img/blue_2bandit_b2.png","70","","70","test","1","","57","","","","circle","square","55","8","3","1","","","","","","","",""
"null","246532","SARL_v6","SARL_v6hrtuarft","5658000ca9872d0011e1ba26","freq_resp","","","img/blue_2bandit_b.png","70","img/blue_2bandit_b.png","70","test","","","","","","","","","","","3","","","","","","","","",""
"null","246688","SARL_v6","SARL_v6hrtuarft","5658000ca9872d0011e1ba26","fixation","","","img/fixation.png","null","","","test","","","","","","","","","","","","","","","","","","","",""
"426.2999999821186","247115","SARL_v6","SARL_v6hrtuarft","5658000ca9872d0011e1ba26","freq","","","img/blue_2bandit_b2.png","70","","70","test","1","","58","","","","circle","square","56","9","3","1","","","","","","","",""
"null","247493","SARL_v6","SARL_v6hrtuarft","5658000ca9872d0011e1ba26","freq_resp","","","img/blue_2bandit_b.png","70","img/blue_2bandit_b.png","70","test","","","","","","","","","","","3","","","","","","","","",""
"null","247646","SARL_v6","SARL_v6hrtuarft","5658000ca9872d0011e1ba26","fixation","","","img/fixation.png","null","","","test","","","","","","","","","","","","","","","","","","","",""
"338.09999999403954","247985","SARL_v6","SARL_v6hrtuarft","5658000ca9872d0011e1ba26","freq","","","img/blue_2bandit_b2.png","70","","70","test","1","","59","","","","circle","square","57","10","3","1","","","","","","","",""
"null","248450","SARL_v6","SARL_v6hrtuarft","5658000ca9872d0011e1ba26","freq_resp","","","img/blue_2bandit_b.png","70","img/blue_2bandit_b.png","70","test","","","","","","","","","","","3","","","","","","","","",""
"null","248603","SARL_v6","SARL_v6hrtuarft","5658000ca9872d0011e1ba26","fixation","","","img/fixation.png","null","","","test","","","","","","","","","","","","","","","","","","","",""
"321.30000001192093","248925","SARL_v6","SARL_v6hrtuarft","5658000ca9872d0011e1ba26","freq","","","img/blue_2bandit_b2.png","70","","70","test","1","","60","","","","circle","square","58","11","3","1","","","","","","","",""
"null","249419","SARL_v6","SARL_v6hrtuarft","5658000ca9872d0011e1ba26","freq_resp","","","img/blue_2bandit_b.png","70","img/blue_2bandit_b.png","70","test","","","","","","","","","","","3","","","","","","","","",""
"null","249572","SARL_v6","SARL_v6hrtuarft","5658000ca9872d0011e1ba26","fixation","","","img/fixation.png","null","","","test","","","","","","","","","","","","","","","","","","","",""
"330.7999999821186","249903","SARL_v6","SARL_v6hrtuarft","5658000ca9872d0011e1ba26","freq","","","img/blue_2bandit_b2.png","70","","70","test","1","","61","","","","circle","square","59","12","3","1","","","","","","","",""
"null","250387","SARL_v6","SARL_v6hrtuarft","5658000ca9872d0011e1ba26","freq_resp","","","img/blue_2bandit_b.png","70","img/blue_2bandit_b.png","70","test","","","","","","","","","","","3","","","","","","","","",""
"null","250539","SARL_v6","SARL_v6hrtuarft","5658000ca9872d0011e1ba26","fixation","","","img/fixation.png","null","","","test","","","","","","","","","","","","","","","","","","","",""
"291.7999999821186","250831","SARL_v6","SARL_v6hrtuarft","5658000ca9872d0011e1ba26","freq","","","img/blue_2bandit_b2.png","70","","70","test","1","","62","","","","circle","square","60","13","3","1","","","","","","","",""
"null","251354","SARL_v6","SARL_v6hrtuarft","5658000ca9872d0011e1ba26","freq_resp","","","img/blue_2bandit_b.png","70","img/blue_2bandit_b.png","70","test","","","","","","","","","","","3","","","","","","","","",""
"null","251505","SARL_v6","SARL_v6hrtuarft","5658000ca9872d0011e1ba26","fixation","","","img/fixation.png","null","","","test","","","","","","","","","","","","","","","","","","","",""
"210.90000000596046","251716","SARL_v6","SARL_v6hrtuarft","5658000ca9872d0011e1ba26","freq","","","img/blue_2bandit_b2.png","70","","70","test","1","","63","","","","circle","square","61","14","3","1","","","","","","","",""
"null","252322","SARL_v6","SARL_v6hrtuarft","5658000ca9872d0011e1ba26","freq_resp","","","img/blue_2bandit_b.png","70","img/blue_2bandit_b.png","70","test","","","","","","","","","","","3","","","","","","","","",""
"null","252473","SARL_v6","SARL_v6hrtuarft","5658000ca9872d0011e1ba26","fixation","","","img/fixation.png","null","","","test","","","","","","","","","","","","","","","","","","","",""
"267.7999999821186","252741","SARL_v6","SARL_v6hrtuarft","5658000ca9872d0011e1ba26","freq","","","img/blue_2bandit_b2.png","70","","70","test","1","","64","","","","circle","square","62","15","3","1","","","","","","","",""
"null","253277","SARL_v6","SARL_v6hrtuarft","5658000ca9872d0011e1ba26","freq_resp","","","img/blue_2bandit_b.png","70","img/blue_2bandit_b.png","70","test","","","","","","","","","","","3","","","","","","","","",""
"null","253432","SARL_v6","SARL_v6hrtuarft","5658000ca9872d0011e1ba26","fixation","","","img/fixation.png","null","","","test","","","","","","","","","","","","","","","","","","","",""
"416.7999999821186","253849","SARL_v6","SARL_v6hrtuarft","5658000ca9872d0011e1ba26","infreq","","","img/orange_2bandit_b2.png","68","","68","test","1","","65","","","","circle","square","63","16","3","1","","","","","","","",""
"null","254234","SARL_v6","SARL_v6hrtuarft","5658000ca9872d0011e1ba26","infreq_resp","","","img/orange_2bandit_b.png","68","img/orange_2bandit_b.png","68","test","","","","","","","","","","","3","","","","","","","","",""
"null","254388","SARL_v6","SARL_v6hrtuarft","5658000ca9872d0011e1ba26","fixation","","","img/fixation.png","null","","","test","","","","","","","","","","","","","","","","","","","",""
"387.10000002384186","254775","SARL_v6","SARL_v6hrtuarft","5658000ca9872d0011e1ba26","freq","","","img/blue_2bandit_b2.png","70","","70","test","1","","66","","","","circle","square","64","17","3","1","","","","","","","",""
"null","255200","SARL_v6","SARL_v6hrtuarft","5658000ca9872d0011e1ba26","freq_resp","","","img/blue_2bandit_b.png","70","img/blue_2bandit_b.png","70","test","","","","","","","","","","","3","","","","","","","","",""
"null","255354","SARL_v6","SARL_v6hrtuarft","5658000ca9872d0011e1ba26","fixation","","","img/fixation.png","null","","","test","","","","","","","","","","","","","","","","","","","",""
"484.60000002384186","255839","SARL_v6","SARL_v6hrtuarft","5658000ca9872d0011e1ba26","infreq","","","img/orange_2bandit_b2.png","68","","68","test","1","","67","","","","circle","square","65","18","3","1","","","","","","","",""
"null","256171","SARL_v6","SARL_v6hrtuarft","5658000ca9872d0011e1ba26","infreq_resp","","","img/orange_2bandit_b.png","68","img/orange_2bandit_b.png","68","test","","","","","","","","","","","3","","","","","","","","",""
"null","256325","SARL_v6","SARL_v6hrtuarft","5658000ca9872d0011e1ba26","fixation","","","img/fixation.png","null","","","test","","","","","","","","","","","","","","","","","","","",""
"406.7000000178814","256732","SARL_v6","SARL_v6hrtuarft","5658000ca9872d0011e1ba26","freq","","","img/blue_2bandit_b2.png","70","","70","test","1","","68","","","","circle","square","66","19","3","1","","","","","","","",""
"null","257131","SARL_v6","SARL_v6hrtuarft","5658000ca9872d0011e1ba26","freq_resp","","","img/blue_2bandit_b.png","70","img/blue_2bandit_b.png","70","test","","","","","","","","","","","3","","","","","","","","",""
"null","257284","SARL_v6","SARL_v6hrtuarft","5658000ca9872d0011e1ba26","fixation","","","img/fixation.png","null","","","test","","","","","","","","","","","","","","","","","","","",""
"349.5","257634","SARL_v6","SARL_v6hrtuarft","5658000ca9872d0011e1ba26","freq","","","img/blue_2bandit_b2.png","70","","70","test","1","","69","","","","circle","square","67","20","3","1","","","","","","","",""
"null","258100","SARL_v6","SARL_v6hrtuarft","5658000ca9872d0011e1ba26","freq_resp","","","img/blue_2bandit_b.png","70","img/blue_2bandit_b.png","70","test","","","","","","","","","","","3","","","","","","","","",""
"null","258255","SARL_v6","SARL_v6hrtuarft","5658000ca9872d0011e1ba26","fixation","","","img/fixation.png","null","","","test","","","","","","","","","","","","","","","","","","","",""
"255.60000002384186","258511","SARL_v6","SARL_v6hrtuarft","5658000ca9872d0011e1ba26","freq","","","img/blue_2bandit_b2.png","70","","70","test","1","","70","","","","circle","square","68","21","3","1","","","","","","","",""
"null","259059","SARL_v6","SARL_v6hrtuarft","5658000ca9872d0011e1ba26","freq_resp","","","img/blue_2bandit_b.png","70","img/blue_2bandit_b.png","70","test","","","","","","","","","","","3","","","","","","","","",""
"null","259209","SARL_v6","SARL_v6hrtuarft","5658000ca9872d0011e1ba26","fixation","","","img/fixation.png","null","","","test","","","","","","","","","","","","","","","","","","","",""
"607.5","259817","SARL_v6","SARL_v6hrtuarft","5658000ca9872d0011e1ba26","rl","","","img/black_2bandit_b2.png","74","","0","test","","","71","","","-4","circle","square","","0","3","","74","-4","-8","-4","-8","circle","3","0"
"null","260574","SARL_v6","SARL_v6hrtuarft","5658000ca9872d0011e1ba26","feedback","","","<div class=""verylowPoints""> -4 </div>","null","","na","test","","","NaN","","","","","","","","3","","74","","","","","","3",""
"571.9000000059605","261147","SARL_v6","SARL_v6hrtuarft","5658000ca9872d0011e1ba26","freq","","","img/blue_2bandit_b2.png","70","","70","test","1","","72","","","","circle","square","69","1","4","1","","","","","","","",""
"null","261378","SARL_v6","SARL_v6hrtuarft","5658000ca9872d0011e1ba26","freq_resp","","","img/blue_2bandit_b.png","70","img/blue_2bandit_b.png","70","test","","","","","","","","","","","4","","","","","","","","",""
"null","261529","SARL_v6","SARL_v6hrtuarft","5658000ca9872d0011e1ba26","fixation","","","img/fixation.png","null","","","test","","","","","","","","","","","","","","","","","","","",""
"474.7000000178814","262004","SARL_v6","SARL_v6hrtuarft","5658000ca9872d0011e1ba26","freq","","","img/blue_2bandit_b2.png","70","","70","test","1","","73","","","","circle","square","70","2","4","1","","","","","","","",""
"null","262341","SARL_v6","SARL_v6hrtuarft","5658000ca9872d0011e1ba26","freq_resp","","","img/blue_2bandit_b.png","70","img/blue_2bandit_b.png","70","test","","","","","","","","","","","4","","","","","","","","",""
"null","262495","SARL_v6","SARL_v6hrtuarft","5658000ca9872d0011e1ba26","fixation","","","img/fixation.png","null","","","test","","","","","","","","","","","","","","","","","","","",""
"374.69999998807907","262870","SARL_v6","SARL_v6hrtuarft","5658000ca9872d0011e1ba26","freq","","","img/blue_2bandit_b2.png","70","","70","test","1","","74","","","","circle","square","71","3","4","1","","","","","","","",""
"null","263299","SARL_v6","SARL_v6hrtuarft","5658000ca9872d0011e1ba26","freq_resp","","","img/blue_2bandit_b.png","70","img/blue_2bandit_b.png","70","test","","","","","","","","","","","4","","","","","","","","",""
"null","263454","SARL_v6","SARL_v6hrtuarft","5658000ca9872d0011e1ba26","fixation","","","img/fixation.png","null","","","test","","","","","","","","","","","","","","","","","","","",""
"495.80000001192093","263950","SARL_v6","SARL_v6hrtuarft","5658000ca9872d0011e1ba26","infreq","","","img/orange_2bandit_b2.png","68","","68","test","1","","75","","","","circle","square","72","4","4","1","","","","","","","",""
"null","264258","SARL_v6","SARL_v6hrtuarft","5658000ca9872d0011e1ba26","infreq_resp","","","img/orange_2bandit_b.png","68","img/orange_2bandit_b.png","68","test","","","","","","","","","","","4","","","","","","","","",""
"null","264410","SARL_v6","SARL_v6hrtuarft","5658000ca9872d0011e1ba26","fixation","","","img/fixation.png","null","","","test","","","","","","","","","","","","","","","","","","","",""
"331.09999999403954","264741","SARL_v6","SARL_v6hrtuarft","5658000ca9872d0011e1ba26","freq","","","img/blue_2bandit_b2.png","70","","70","test","1","","76","","","","circle","square","73","5","4","1","","","","","","","",""
"null","265215","SARL_v6","SARL_v6hrtuarft","5658000ca9872d0011e1ba26","freq_resp","","","img/blue_2bandit_b.png","70","img/blue_2bandit_b.png","70","test","","","","","","","","","","","4","","","","","","","","",""
"null","265368","SARL_v6","SARL_v6hrtuarft","5658000ca9872d0011e1ba26","fixation","","","img/fixation.png","null","","","test","","","","","","","","","","","","","","","","","","","",""
"287.2000000178814","265655","SARL_v6","SARL_v6hrtuarft","5658000ca9872d0011e1ba26","freq","","","img/blue_2bandit_b2.png","70","","70","test","1","","77","","","","circle","square","74","6","4","1","","","","","","","",""
"null","266171","SARL_v6","SARL_v6hrtuarft","5658000ca9872d0011e1ba26","freq_resp","","","img/blue_2bandit_b.png","70","img/blue_2bandit_b.png","70","test","","","","","","","","","","","4","","","","","","","","",""
"null","266325","SARL_v6","SARL_v6hrtuarft","5658000ca9872d0011e1ba26","fixation","","","img/fixation.png","null","","","test","","","","","","","","","","","","","","","","","","","",""
"404.40000000596046","266730","SARL_v6","SARL_v6hrtuarft","5658000ca9872d0011e1ba26","freq","","","img/blue_2bandit_b2.png","70","","70","test","1","","78","","","","circle","square","75","7","4","1","","","","","","","",""
"null","267127","SARL_v6","SARL_v6hrtuarft","5658000ca9872d0011e1ba26","freq_resp","","","img/blue_2bandit_b.png","70","img/blue_2bandit_b.png","70","test","","","","","","","","","","","4","","","","","","","","",""
"null","267282","SARL_v6","SARL_v6hrtuarft","5658000ca9872d0011e1ba26","fixation","","","img/fixation.png","null","","","test","","","","","","","","","","","","","","","","","","","",""
"337.10000002384186","267619","SARL_v6","SARL_v6hrtuarft","5658000ca9872d0011e1ba26","freq","","","img/blue_2bandit_b2.png","70","","70","test","1","","79","","","","circle","square","76","8","4","1","","","","","","","",""
"null","268084","SARL_v6","SARL_v6hrtuarft","5658000ca9872d0011e1ba26","freq_resp","","","img/blue_2bandit_b.png","70","img/blue_2bandit_b.png","70","test","","","","","","","","","","","4","","","","","","","","",""
"null","268240","SARL_v6","SARL_v6hrtuarft","5658000ca9872d0011e1ba26","fixation","","","img/fixation.png","null","","","test","","","","","","","","","","","","","","","","","","","",""
"261.2000000178814","268501","SARL_v6","SARL_v6hrtuarft","5658000ca9872d0011e1ba26","freq","","","img/blue_2bandit_b2.png","70","","70","test","1","","80","","","","circle","square","77","9","4","1","","","","","","","",""
"null","269044","SARL_v6","SARL_v6hrtuarft","5658000ca9872d0011e1ba26","freq_resp","","","img/blue_2bandit_b.png","70","img/blue_2bandit_b.png","70","test","","","","","","","","","","","4","","","","","","","","",""
"null","269195","SARL_v6","SARL_v6hrtuarft","5658000ca9872d0011e1ba26","fixation","","","img/fixation.png","null","","","test","","","","","","","","","","","","","","","","","","","",""
"281.5","269477","SARL_v6","SARL_v6hrtuarft","5658000ca9872d0011e1ba26","freq","","","img/blue_2bandit_b2.png","70","","70","test","1","","81","","","","circle","square","78","10","4","1","","","","","","","",""
"null","270000","SARL_v6","SARL_v6hrtuarft","5658000ca9872d0011e1ba26","freq_resp","","","img/blue_2bandit_b.png","70","img/blue_2bandit_b.png","70","test","","","","","","","","","","","4","","","","","","","","",""
"null","270151","SARL_v6","SARL_v6hrtuarft","5658000ca9872d0011e1ba26","fixation","","","img/fixation.png","null","","","test","","","","","","","","","","","","","","","","","","","",""
"270.69999998807907","270422","SARL_v6","SARL_v6hrtuarft","5658000ca9872d0011e1ba26","freq","","","img/blue_2bandit_b2.png","70","","70","test","1","","82","","","","circle","square","79","11","4","1","","","","","","","",""
"null","270957","SARL_v6","SARL_v6hrtuarft","5658000ca9872d0011e1ba26","freq_resp","","","img/blue_2bandit_b.png","70","img/blue_2bandit_b.png","70","test","","","","","","","","","","","4","","","","","","","","",""
"null","271111","SARL_v6","SARL_v6hrtuarft","5658000ca9872d0011e1ba26","fixation","","","img/fixation.png","null","","","test","","","","","","","","","","","","","","","","","","","",""
"455.10000002384186","271566","SARL_v6","SARL_v6hrtuarft","5658000ca9872d0011e1ba26","infreq","","","img/orange_2bandit_b2.png","68","","68","test","1","","83","","","","circle","square","80","12","4","1","","","","","","","",""
"null","271913","SARL_v6","SARL_v6hrtuarft","5658000ca9872d0011e1ba26","infreq_resp","","","img/orange_2bandit_b.png","68","img/orange_2bandit_b.png","68","test","","","","","","","","","","","4","","","","","","","","",""
"null","272068","SARL_v6","SARL_v6hrtuarft","5658000ca9872d0011e1ba26","fixation","","","img/fixation.png","null","","","test","","","","","","","","","","","","","","","","","","","",""
"389.10000002384186","272457","SARL_v6","SARL_v6hrtuarft","5658000ca9872d0011e1ba26","freq","","","img/blue_2bandit_b2.png","70","","70","test","1","","84","","","","circle","square","81","13","4","1","","","","","","","",""
"null","272872","SARL_v6","SARL_v6hrtuarft","5658000ca9872d0011e1ba26","freq_resp","","","img/blue_2bandit_b.png","70","img/blue_2bandit_b.png","70","test","","","","","","","","","","","4","","","","","","","","",""
"null","273026","SARL_v6","SARL_v6hrtuarft","5658000ca9872d0011e1ba26","fixation","","","img/fixation.png","null","","","test","","","","","","","","","","","","","","","","","","","",""
"379.10000002384186","273405","SARL_v6","SARL_v6hrtuarft","5658000ca9872d0011e1ba26","freq","","","img/blue_2bandit_b2.png","70","","70","test","1","","85","","","","circle","square","82","14","4","1","","","","","","","",""
"null","273831","SARL_v6","SARL_v6hrtuarft","5658000ca9872d0011e1ba26","freq_resp","","","img/blue_2bandit_b.png","70","img/blue_2bandit_b.png","70","test","","","","","","","","","","","4","","","","","","","","",""
"null","273985","SARL_v6","SARL_v6hrtuarft","5658000ca9872d0011e1ba26","fixation","","","img/fixation.png","null","","","test","","","","","","","","","","","","","","","","","","","",""
"300.40000000596046","274286","SARL_v6","SARL_v6hrtuarft","5658000ca9872d0011e1ba26","freq","","","img/blue_2bandit_b2.png","70","","70","test","1","","86","","","","circle","square","83","15","4","1","","","","","","","",""
"null","274787","SARL_v6","SARL_v6hrtuarft","5658000ca9872d0011e1ba26","freq_resp","","","img/blue_2bandit_b.png","70","img/blue_2bandit_b.png","70","test","","","","","","","","","","","4","","","","","","","","",""
"null","274940","SARL_v6","SARL_v6hrtuarft","5658000ca9872d0011e1ba26","fixation","","","img/fixation.png","null","","","test","","","","","","","","","","","","","","","","","","","",""
"317.30000001192093","275257","SARL_v6","SARL_v6hrtuarft","5658000ca9872d0011e1ba26","freq","","","img/blue_2bandit_b2.png","70","","70","test","1","","87","","","","circle","square","84","16","4","1","","","","","","","",""
"null","275742","SARL_v6","SARL_v6hrtuarft","5658000ca9872d0011e1ba26","freq_resp","","","img/blue_2bandit_b.png","70","img/blue_2bandit_b.png","70","test","","","","","","","","","","","4","","","","","","","","",""
"null","275893","SARL_v6","SARL_v6hrtuarft","5658000ca9872d0011e1ba26","fixation","","","img/fixation.png","null","","","test","","","","","","","","","","","","","","","","","","","",""
"247.59999999403954","276141","SARL_v6","SARL_v6hrtuarft","5658000ca9872d0011e1ba26","freq","","","img/blue_2bandit_b2.png","70","","70","test","1","","88","","","","circle","square","85","17","4","1","","","","","","","",""
"null","276695","SARL_v6","SARL_v6hrtuarft","5658000ca9872d0011e1ba26","freq_resp","","","img/blue_2bandit_b.png","70","img/blue_2bandit_b.png","70","test","","","","","","","","","","","4","","","","","","","","",""
"null","276849","SARL_v6","SARL_v6hrtuarft","5658000ca9872d0011e1ba26","fixation","","","img/fixation.png","null","","","test","","","","","","","","","","","","","","","","","","","",""
"284.30000001192093","277134","SARL_v6","SARL_v6hrtuarft","5658000ca9872d0011e1ba26","freq","","","img/blue_2bandit_b2.png","70","","70","test","1","","89","","","","circle","square","86","18","4","1","","","","","","","",""
"null","277654","SARL_v6","SARL_v6hrtuarft","5658000ca9872d0011e1ba26","freq_resp","","","img/blue_2bandit_b.png","70","img/blue_2bandit_b.png","70","test","","","","","","","","","","","4","","","","","","","","",""
"null","277809","SARL_v6","SARL_v6hrtuarft","5658000ca9872d0011e1ba26","fixation","","","img/fixation.png","null","","","test","","","","","","","","","","","","","","","","","","","",""
"288.30000001192093","278098","SARL_v6","SARL_v6hrtuarft","5658000ca9872d0011e1ba26","freq","","","img/blue_2bandit_b2.png","70","","70","test","1","","90","","","","circle","square","87","19","4","1","","","","","","","",""
"null","278623","SARL_v6","SARL_v6hrtuarft","5658000ca9872d0011e1ba26","freq_resp","","","img/blue_2bandit_b.png","70","img/blue_2bandit_b.png","70","test","","","","","","","","","","","4","","","","","","","","",""
"null","278777","SARL_v6","SARL_v6hrtuarft","5658000ca9872d0011e1ba26","fixation","","","img/fixation.png","null","","","test","","","","","","","","","","","","","","","","","","","",""
"189.40000000596046","278967","SARL_v6","SARL_v6hrtuarft","5658000ca9872d0011e1ba26","freq","","","img/blue_2bandit_b2.png","70","","70","test","1","","91","","","","circle","square","88","20","4","1","","","","","","","",""
"null","279582","SARL_v6","SARL_v6hrtuarft","5658000ca9872d0011e1ba26","freq_resp","","","img/blue_2bandit_b.png","70","img/blue_2bandit_b.png","70","test","","","","","","","","","","","4","","","","","","","","",""
"null","279733","SARL_v6","SARL_v6hrtuarft","5658000ca9872d0011e1ba26","fixation","","","img/fixation.png","null","","","test","","","","","","","","","","","","","","","","","","","",""
"230.40000000596046","279964","SARL_v6","SARL_v6hrtuarft","5658000ca9872d0011e1ba26","freq","","","img/blue_2bandit_b2.png","70","","70","test","1","","92","","","","circle","square","89","21","4","1","","","","","","","",""
"null","280541","SARL_v6","SARL_v6hrtuarft","5658000ca9872d0011e1ba26","freq_resp","","","img/blue_2bandit_b.png","70","img/blue_2bandit_b.png","70","test","","","","","","","","","","","4","","","","","","","","",""
"null","280693","SARL_v6","SARL_v6hrtuarft","5658000ca9872d0011e1ba26","fixation","","","img/fixation.png","null","","","test","","","","","","","","","","","","","","","","","","","",""
"209","280902","SARL_v6","SARL_v6hrtuarft","5658000ca9872d0011e1ba26","freq","","","img/blue_2bandit_b2.png","70","","70","test","1","","93","","","","circle","square","90","22","4","1","","","","","","","",""
"null","281498","SARL_v6","SARL_v6hrtuarft","5658000ca9872d0011e1ba26","freq_resp","","","img/blue_2bandit_b.png","70","img/blue_2bandit_b.png","70","test","","","","","","","","","","","4","","","","","","","","",""
"null","281653","SARL_v6","SARL_v6hrtuarft","5658000ca9872d0011e1ba26","fixation","","","img/fixation.png","null","","","test","","","","","","","","","","","","","","","","","","","",""
"158.09999999403954","281811","SARL_v6","SARL_v6hrtuarft","5658000ca9872d0011e1ba26","freq","","","img/blue_2bandit_b2.png","70","","70","test","1","","94","","","","circle","square","91","23","4","1","","","","","","","",""
"null","282458","SARL_v6","SARL_v6hrtuarft","5658000ca9872d0011e1ba26","freq_resp","","","img/blue_2bandit_b.png","70","img/blue_2bandit_b.png","70","test","","","","","","","","","","","4","","","","","","","","",""
"null","282609","SARL_v6","SARL_v6hrtuarft","5658000ca9872d0011e1ba26","fixation","","","img/fixation.png","null","","","test","","","","","","","","","","","","","","","","","","","",""
"222.19999998807907","282831","SARL_v6","SARL_v6hrtuarft","5658000ca9872d0011e1ba26","freq","","","img/blue_2bandit_b2.png","70","","70","test","1","","95","","","","circle","square","92","24","4","1","","","","","","","",""
"null","283417","SARL_v6","SARL_v6hrtuarft","5658000ca9872d0011e1ba26","freq_resp","","","img/blue_2bandit_b.png","70","img/blue_2bandit_b.png","70","test","","","","","","","","","","","4","","","","","","","","",""
"null","283572","SARL_v6","SARL_v6hrtuarft","5658000ca9872d0011e1ba26","fixation","","","img/fixation.png","null","","","test","","","","","","","","","","","","","","","","","","","",""
"299.59999999403954","283873","SARL_v6","SARL_v6hrtuarft","5658000ca9872d0011e1ba26","freq","","","img/blue_2bandit_b2.png","70","","70","test","1","","96","","","","circle","square","93","25","4","1","","","","","","","",""
"null","284378","SARL_v6","SARL_v6hrtuarft","5658000ca9872d0011e1ba26","freq_resp","","","img/blue_2bandit_b.png","70","img/blue_2bandit_b.png","70","test","","","","","","","","","","","4","","","","","","","","",""
"null","284533","SARL_v6","SARL_v6hrtuarft","5658000ca9872d0011e1ba26","fixation","","","img/fixation.png","null","","","test","","","","","","","","","","","","","","","","","","","",""
"881.3000000119209","285415","SARL_v6","SARL_v6hrtuarft","5658000ca9872d0011e1ba26","rl","","","img/black_2bandit_b2.png","75","","0","test","","","97","","","-12","circle","square","","0","4","","75","0","-12","0","-12","square","4","0"
"null","286167","SARL_v6","SARL_v6hrtuarft","5658000ca9872d0011e1ba26","feedback","","","<div class=""verylowPoints_sq""> -12 </div>","null","","na","test","","","NaN","","","","","","","","4","","75","","","","","","4",""
"649.1999999880791","286817","SARL_v6","SARL_v6hrtuarft","5658000ca9872d0011e1ba26","freq","","","img/blue_2bandit_b2.png","70","","70","test","1","","98","","","","circle","square","94","1","5","1","","","","","","","",""
"null","286969","SARL_v6","SARL_v6hrtuarft","5658000ca9872d0011e1ba26","freq_resp","","","img/blue_2bandit_b.png","70","img/blue_2bandit_b.png","70","test","","","","","","","","","","","5","","","","","","","","",""
"null","287124","SARL_v6","SARL_v6hrtuarft","5658000ca9872d0011e1ba26","fixation","","","img/fixation.png","null","","","test","","","","","","","","","","","","","","","","","","","",""
"445.19999998807907","287569","SARL_v6","SARL_v6hrtuarft","5658000ca9872d0011e1ba26","infreq","","","img/orange_2bandit_b2.png","68","","68","test","1","","99","","","","circle","square","95","2","5","1","","","","","","","",""
"null","287925","SARL_v6","SARL_v6hrtuarft","5658000ca9872d0011e1ba26","infreq_resp","","","img/orange_2bandit_b.png","68","img/orange_2bandit_b.png","68","test","","","","","","","","","","","5","","","","","","","","",""
"null","288080","SARL_v6","SARL_v6hrtuarft","5658000ca9872d0011e1ba26","fixation","","","img/fixation.png","null","","","test","","","","","","","","","","","","","","","","","","","",""
"470.5","288550","SARL_v6","SARL_v6hrtuarft","5658000ca9872d0011e1ba26","freq","","","img/blue_2bandit_b2.png","70","","70","test","1","","100","","","","circle","square","96","3","5","1","","","","","","","",""
"null","288881","SARL_v6","SARL_v6hrtuarft","5658000ca9872d0011e1ba26","freq_resp","","","img/blue_2bandit_b.png","70","img/blue_2bandit_b.png","70","test","","","","","","","","","","","5","","","","","","","","",""
"null","289033","SARL_v6","SARL_v6hrtuarft","5658000ca9872d0011e1ba26","fixation","","","img/fixation.png","null","","","test","","","","","","","","","","","","","","","","","","","",""
"347.19999998807907","289380","SARL_v6","SARL_v6hrtuarft","5658000ca9872d0011e1ba26","freq","","","img/blue_2bandit_b2.png","70","","70","test","1","","101","","","","circle","square","97","4","5","1","","","","","","","",""
"null","289836","SARL_v6","SARL_v6hrtuarft","5658000ca9872d0011e1ba26","freq_resp","","","img/blue_2bandit_b.png","70","img/blue_2bandit_b.png","70","test","","","","","","","","","","","5","","","","","","","","",""
"null","289991","SARL_v6","SARL_v6hrtuarft","5658000ca9872d0011e1ba26","fixation","","","img/fixation.png","null","","","test","","","","","","","","","","","","","","","","","","","",""
"293.5","290284","SARL_v6","SARL_v6hrtuarft","5658000ca9872d0011e1ba26","freq","","","img/blue_2bandit_b2.png","70","","70","test","1","","102","","","","circle","square","98","5","5","1","","","","","","","",""
"null","290806","SARL_v6","SARL_v6hrtuarft","5658000ca9872d0011e1ba26","freq_resp","","","img/blue_2bandit_b.png","70","img/blue_2bandit_b.png","70","test","","","","","","","","","","","5","","","","","","","","",""
"null","290957","SARL_v6","SARL_v6hrtuarft","5658000ca9872d0011e1ba26","fixation","","","img/fixation.png","null","","","test","","","","","","","","","","","","","","","","","","","",""
"297.40000000596046","291255","SARL_v6","SARL_v6hrtuarft","5658000ca9872d0011e1ba26","freq","","","img/blue_2bandit_b2.png","70","","70","test","1","","103","","","","circle","square","99","6","5","1","","","","","","","",""
"null","291763","SARL_v6","SARL_v6hrtuarft","5658000ca9872d0011e1ba26","freq_resp","","","img/blue_2bandit_b.png","70","img/blue_2bandit_b.png","70","test","","","","","","","","","","","5","","","","","","","","",""
"null","291920","SARL_v6","SARL_v6hrtuarft","5658000ca9872d0011e1ba26","fixation","","","img/fixation.png","null","","","test","","","","","","","","","","","","","","","","","","","",""
"270.40000000596046","292190","SARL_v6","SARL_v6hrtuarft","5658000ca9872d0011e1ba26","freq","","","img/blue_2bandit_b2.png","70","","70","test","1","","104","","","","circle","square","100","7","5","1","","","","","","","",""
"null","292725","SARL_v6","SARL_v6hrtuarft","5658000ca9872d0011e1ba26","freq_resp","","","img/blue_2bandit_b.png","70","img/blue_2bandit_b.png","70","test","","","","","","","","","","","5","","","","","","","","",""
"null","292880","SARL_v6","SARL_v6hrtuarft","5658000ca9872d0011e1ba26","fixation","","","img/fixation.png","null","","","test","","","","","","","","","","","","","","","","","","","",""
"284.5","293165","SARL_v6","SARL_v6hrtuarft","5658000ca9872d0011e1ba26","freq","","","img/blue_2bandit_b2.png","70","","70","test","1","","105","","","","circle","square","101","8","5","1","","","","","","","",""
"null","293684","SARL_v6","SARL_v6hrtuarft","5658000ca9872d0011e1ba26","freq_resp","","","img/blue_2bandit_b.png","70","img/blue_2bandit_b.png","70","test","","","","","","","","","","","5","","","","","","","","",""
"null","293840","SARL_v6","SARL_v6hrtuarft","5658000ca9872d0011e1ba26","fixation","","","img/fixation.png","null","","","test","","","","","","","","","","","","","","","","","","","",""
"258.40000000596046","294098","SARL_v6","SARL_v6hrtuarft","5658000ca9872d0011e1ba26","freq","","","img/blue_2bandit_b2.png","70","","70","test","1","","106","","","","circle","square","102","9","5","1","","","","","","","",""
"null","294654","SARL_v6","SARL_v6hrtuarft","5658000ca9872d0011e1ba26","freq_resp","","","img/blue_2bandit_b.png","70","img/blue_2bandit_b.png","70","test","","","","","","","","","","","5","","","","","","","","",""
"null","294807","SARL_v6","SARL_v6hrtuarft","5658000ca9872d0011e1ba26","fixation","","","img/fixation.png","null","","","test","","","","","","","","","","","","","","","","","","","",""
"298.2999999821186","295106","SARL_v6","SARL_v6hrtuarft","5658000ca9872d0011e1ba26","freq","","","img/blue_2bandit_b2.png","70","","70","test","1","","107","","","","circle","square","103","10","5","1","","","","","","","",""
"null","295608","SARL_v6","SARL_v6hrtuarft","5658000ca9872d0011e1ba26","freq_resp","","","img/blue_2bandit_b.png","70","img/blue_2bandit_b.png","70","test","","","","","","","","","","","5","","","","","","","","",""
"null","295759","SARL_v6","SARL_v6hrtuarft","5658000ca9872d0011e1ba26","fixation","","","img/fixation.png","null","","","test","","","","","","","","","","","","","","","","","","","",""
"279.40000000596046","296039","SARL_v6","SARL_v6hrtuarft","5658000ca9872d0011e1ba26","freq","","","img/blue_2bandit_b2.png","70","","70","test","1","","108","","","","circle","square","104","11","5","1","","","","","","","",""
"null","296564","SARL_v6","SARL_v6hrtuarft","5658000ca9872d0011e1ba26","freq_resp","","","img/blue_2bandit_b.png","70","img/blue_2bandit_b.png","70","test","","","","","","","","","","","5","","","","","","","","",""
"null","296716","SARL_v6","SARL_v6hrtuarft","5658000ca9872d0011e1ba26","fixation","","","img/fixation.png","null","","","test","","","","","","","","","","","","","","","","","","","",""
"424.5","297141","SARL_v6","SARL_v6hrtuarft","5658000ca9872d0011e1ba26","infreq","","","img/orange_2bandit_b2.png","68","","68","test","1","","109","","","","circle","square","105","12","5","1","","","","","","","",""
"null","297531","SARL_v6","SARL_v6hrtuarft","5658000ca9872d0011e1ba26","infreq_resp","","","img/orange_2bandit_b.png","68","img/orange_2bandit_b.png","68","test","","","","","","","","","","","5","","","","","","","","",""
"null","297686","SARL_v6","SARL_v6hrtuarft","5658000ca9872d0011e1ba26","fixation","","","img/fixation.png","null","","","test","","","","","","","","","","","","","","","","","","","",""
"376.40000000596046","298062","SARL_v6","SARL_v6hrtuarft","5658000ca9872d0011e1ba26","freq","","","img/blue_2bandit_b2.png","70","","70","test","1","","110","","","","circle","square","106","13","5","1","","","","","","","",""
"null","298489","SARL_v6","SARL_v6hrtuarft","5658000ca9872d0011e1ba26","freq_resp","","","img/blue_2bandit_b.png","70","img/blue_2bandit_b.png","70","test","","","","","","","","","","","5","","","","","","","","",""
"null","298643","SARL_v6","SARL_v6hrtuarft","5658000ca9872d0011e1ba26","fixation","","","img/fixation.png","null","","","test","","","","","","","","","","","","","","","","","","","",""
"323.2999999821186","298966","SARL_v6","SARL_v6hrtuarft","5658000ca9872d0011e1ba26","freq","","","img/blue_2bandit_b2.png","70","","70","test","1","","111","","","","circle","square","107","14","5","1","","","","","","","",""
"null","299459","SARL_v6","SARL_v6hrtuarft","5658000ca9872d0011e1ba26","freq_resp","","","img/blue_2bandit_b.png","70","img/blue_2bandit_b.png","70","test","","","","","","","","","","","5","","","","","","","","",""
"null","299611","SARL_v6","SARL_v6hrtuarft","5658000ca9872d0011e1ba26","fixation","","","img/fixation.png","null","","","test","","","","","","","","","","","","","","","","","","","",""
"289.2999999821186","299901","SARL_v6","SARL_v6hrtuarft","5658000ca9872d0011e1ba26","freq","","","img/blue_2bandit_b2.png","70","","70","test","1","","112","","","","circle","square","108","15","5","1","","","","","","","",""
"null","300413","SARL_v6","SARL_v6hrtuarft","5658000ca9872d0011e1ba26","freq_resp","","","img/blue_2bandit_b.png","70","img/blue_2bandit_b.png","70","test","","","","","","","","","","","5","","","","","","","","",""
"null","300563","SARL_v6","SARL_v6hrtuarft","5658000ca9872d0011e1ba26","fixation","","","img/fixation.png","null","","","test","","","","","","","","","","","","","","","","","","","",""
"296.7999999821186","300861","SARL_v6","SARL_v6hrtuarft","5658000ca9872d0011e1ba26","freq","","","img/blue_2bandit_b2.png","70","","70","test","1","","113","","","","circle","square","109","16","5","1","","","","","","","",""
"null","301373","SARL_v6","SARL_v6hrtuarft","5658000ca9872d0011e1ba26","freq_resp","","","img/blue_2bandit_b.png","70","img/blue_2bandit_b.png","70","test","","","","","","","","","","","5","","","","","","","","",""
"null","301529","SARL_v6","SARL_v6hrtuarft","5658000ca9872d0011e1ba26","fixation","","","img/fixation.png","null","","","test","","","","","","","","","","","","","","","","","","","",""
"285.39999997615814","301815","SARL_v6","SARL_v6hrtuarft","5658000ca9872d0011e1ba26","freq","","","img/blue_2bandit_b2.png","70","","70","test","1","","114","","","","circle","square","110","17","5","1","","","","","","","",""
"null","302342","SARL_v6","SARL_v6hrtuarft","5658000ca9872d0011e1ba26","freq_resp","","","img/blue_2bandit_b.png","70","img/blue_2bandit_b.png","70","test","","","","","","","","","","","5","","","","","","","","",""
"null","302495","SARL_v6","SARL_v6hrtuarft","5658000ca9872d0011e1ba26","fixation","","","img/fixation.png","null","","","test","","","","","","","","","","","","","","","","","","","",""
"283.5","302779","SARL_v6","SARL_v6hrtuarft","5658000ca9872d0011e1ba26","freq","","","img/blue_2bandit_b2.png","70","","70","test","1","","115","","","","circle","square","111","18","5","1","","","","","","","",""
"null","303297","SARL_v6","SARL_v6hrtuarft","5658000ca9872d0011e1ba26","freq_resp","","","img/blue_2bandit_b.png","70","img/blue_2bandit_b.png","70","test","","","","","","","","","","","5","","","","","","","","",""
"null","303451","SARL_v6","SARL_v6hrtuarft","5658000ca9872d0011e1ba26","fixation","","","img/fixation.png","null","","","test","","","","","","","","","","","","","","","","","","","",""
"308.10000002384186","303760","SARL_v6","SARL_v6hrtuarft","5658000ca9872d0011e1ba26","freq","","","img/blue_2bandit_b2.png","70","","70","test","1","","116","","","","circle","square","112","19","5","1","","","","","","","",""
"null","304256","SARL_v6","SARL_v6hrtuarft","5658000ca9872d0011e1ba26","freq_resp","","","img/blue_2bandit_b.png","70","img/blue_2bandit_b.png","70","test","","","","","","","","","","","5","","","","","","","","",""
"null","304407","SARL_v6","SARL_v6hrtuarft","5658000ca9872d0011e1ba26","fixation","","","img/fixation.png","null","","","test","","","","","","","","","","","","","","","","","","","",""
"317.40000000596046","304725","SARL_v6","SARL_v6hrtuarft","5658000ca9872d0011e1ba26","freq","","","img/blue_2bandit_b2.png","70","","70","test","1","","117","","","","circle","square","113","20","5","1","","","","","","","",""
"null","305216","SARL_v6","SARL_v6hrtuarft","5658000ca9872d0011e1ba26","freq_resp","","","img/blue_2bandit_b.png","70","img/blue_2bandit_b.png","70","test","","","","","","","","","","","5","","","","","","","","",""
"null","305369","SARL_v6","SARL_v6hrtuarft","5658000ca9872d0011e1ba26","fixation","","","img/fixation.png","null","","","test","","","","","","","","","","","","","","","","","","","",""
"343","305713","SARL_v6","SARL_v6hrtuarft","5658000ca9872d0011e1ba26","freq","","","img/blue_2bandit_b2.png","70","","70","test","1","","118","","","","circle","square","114","21","5","1","","","","","","","",""
"null","306174","SARL_v6","SARL_v6hrtuarft","5658000ca9872d0011e1ba26","freq_resp","","","img/blue_2bandit_b.png","70","img/blue_2bandit_b.png","70","test","","","","","","","","","","","5","","","","","","","","",""
"null","306328","SARL_v6","SARL_v6hrtuarft","5658000ca9872d0011e1ba26","fixation","","","img/fixation.png","null","","","test","","","","","","","","","","","","","","","","","","","",""
"821.7000000178814","307150","SARL_v6","SARL_v6hrtuarft","5658000ca9872d0011e1ba26","rl","","","img/black_2bandit_b2.png","74","","0","test","","","119","","","4","circle","square","","0","5","","74","4","-7","4","-7","circle","5","0"
"null","307916","SARL_v6","SARL_v6hrtuarft","5658000ca9872d0011e1ba26","feedback","","","<div class=""veryhighPoints""> 4 </div>","null","","na","test","","","NaN","","","","","","","","5","","74","","","","","","5",""
"516.5","308433","SARL_v6","SARL_v6hrtuarft","5658000ca9872d0011e1ba26","freq","","","img/blue_2bandit_b2.png","70","","70","test","1","","120","","","","circle","square","115","1","6","1","","","","","","","",""
"null","308719","SARL_v6","SARL_v6hrtuarft","5658000ca9872d0011e1ba26","freq_resp","","","img/blue_2bandit_b.png","70","img/blue_2bandit_b.png","70","test","","","","","","","","","","","6","","","","","","","","",""
"null","308873","SARL_v6","SARL_v6hrtuarft","5658000ca9872d0011e1ba26","fixation","","","img/fixation.png","null","","","test","","","","","","","","","","","","","","","","","","","",""
"356.7000000178814","309231","SARL_v6","SARL_v6hrtuarft","5658000ca9872d0011e1ba26","freq","","","img/blue_2bandit_b2.png","70","","70","test","1","","121","","","","circle","square","116","2","6","1","","","","","","","",""
"null","309679","SARL_v6","SARL_v6hrtuarft","5658000ca9872d0011e1ba26","freq_resp","","","img/blue_2bandit_b.png","70","img/blue_2bandit_b.png","70","test","","","","","","","","","","","6","","","","","","","","",""
"null","309833","SARL_v6","SARL_v6hrtuarft","5658000ca9872d0011e1ba26","fixation","","","img/fixation.png","null","","","test","","","","","","","","","","","","","","","","","","","",""
"263","310097","SARL_v6","SARL_v6hrtuarft","5658000ca9872d0011e1ba26","freq","","","img/blue_2bandit_b2.png","70","","70","test","1","","122","","","","circle","square","117","3","6","1","","","","","","","",""
"null","310636","SARL_v6","SARL_v6hrtuarft","5658000ca9872d0011e1ba26","freq_resp","","","img/blue_2bandit_b.png","70","img/blue_2bandit_b.png","70","test","","","","","","","","","","","6","","","","","","","","",""
"null","310787","SARL_v6","SARL_v6hrtuarft","5658000ca9872d0011e1ba26","fixation","","","img/fixation.png","null","","","test","","","","","","","","","","","","","","","","","","","",""
"306.2999999821186","311094","SARL_v6","SARL_v6hrtuarft","5658000ca9872d0011e1ba26","freq","","","img/blue_2bandit_b2.png","70","","70","test","1","","123","","","","circle","square","118","4","6","1","","","","","","","",""
"null","311595","SARL_v6","SARL_v6hrtuarft","5658000ca9872d0011e1ba26","freq_resp","","","img/blue_2bandit_b.png","70","img/blue_2bandit_b.png","70","test","","","","","","","","","","","6","","","","","","","","",""
"null","311749","SARL_v6","SARL_v6hrtuarft","5658000ca9872d0011e1ba26","fixation","","","img/fixation.png","null","","","test","","","","","","","","","","","","","","","","","","","",""
"280.5","312030","SARL_v6","SARL_v6hrtuarft","5658000ca9872d0011e1ba26","freq","","","img/blue_2bandit_b2.png","70","","70","test","1","","124","","","","circle","square","119","5","6","1","","","","","","","",""
"null","312552","SARL_v6","SARL_v6hrtuarft","5658000ca9872d0011e1ba26","freq_resp","","","img/blue_2bandit_b.png","70","img/blue_2bandit_b.png","70","test","","","","","","","","","","","6","","","","","","","","",""
"null","312703","SARL_v6","SARL_v6hrtuarft","5658000ca9872d0011e1ba26","fixation","","","img/fixation.png","null","","","test","","","","","","","","","","","","","","","","","","","",""
"276.80000001192093","312980","SARL_v6","SARL_v6hrtuarft","5658000ca9872d0011e1ba26","freq","","","img/blue_2bandit_b2.png","70","","70","test","1","","125","","","","circle","square","120","6","6","1","","","","","","","",""
"null","313512","SARL_v6","SARL_v6hrtuarft","5658000ca9872d0011e1ba26","freq_resp","","","img/blue_2bandit_b.png","70","img/blue_2bandit_b.png","70","test","","","","","","","","","","","6","","","","","","","","",""
"null","313665","SARL_v6","SARL_v6hrtuarft","5658000ca9872d0011e1ba26","fixation","","","img/fixation.png","null","","","test","","","","","","","","","","","","","","","","","","","",""
"254.09999999403954","313920","SARL_v6","SARL_v6hrtuarft","5658000ca9872d0011e1ba26","freq","","","img/blue_2bandit_b2.png","70","","70","test","1","","126","","","","circle","square","121","7","6","1","","","","","","","",""
"null","314470","SARL_v6","SARL_v6hrtuarft","5658000ca9872d0011e1ba26","freq_resp","","","img/blue_2bandit_b.png","70","img/blue_2bandit_b.png","70","test","","","","","","","","","","","6","","","","","","","","",""
"null","314623","SARL_v6","SARL_v6hrtuarft","5658000ca9872d0011e1ba26","fixation","","","img/fixation.png","null","","","test","","","","","","","","","","","","","","","","","","","",""
"285.40000000596046","314909","SARL_v6","SARL_v6hrtuarft","5658000ca9872d0011e1ba26","freq","","","img/blue_2bandit_b2.png","70","","70","test","1","","127","","","","circle","square","122","8","6","1","","","","","","","",""
"null","315439","SARL_v6","SARL_v6hrtuarft","5658000ca9872d0011e1ba26","freq_resp","","","img/blue_2bandit_b.png","70","img/blue_2bandit_b.png","70","test","","","","","","","","","","","6","","","","","","","","",""
"null","315592","SARL_v6","SARL_v6hrtuarft","5658000ca9872d0011e1ba26","fixation","","","img/fixation.png","null","","","test","","","","","","","","","","","","","","","","","","","",""
"317.40000000596046","315910","SARL_v6","SARL_v6hrtuarft","5658000ca9872d0011e1ba26","freq","","","img/blue_2bandit_b2.png","70","","70","test","1","","128","","","","circle","square","123","9","6","1","","","","","","","",""
"null","316394","SARL_v6","SARL_v6hrtuarft","5658000ca9872d0011e1ba26","freq_resp","","","img/blue_2bandit_b.png","70","img/blue_2bandit_b.png","70","test","","","","","","","","","","","6","","","","","","","","",""
"null","316547","SARL_v6","SARL_v6hrtuarft","5658000ca9872d0011e1ba26","fixation","","","img/fixation.png","null","","","test","","","","","","","","","","","","","","","","","","","",""
"272.40000000596046","316820","SARL_v6","SARL_v6hrtuarft","5658000ca9872d0011e1ba26","freq","","","img/blue_2bandit_b2.png","70","","70","test","1","","129","","","","circle","square","124","10","6","1","","","","","","","",""
"null","317348","SARL_v6","SARL_v6hrtuarft","5658000ca9872d0011e1ba26","freq_resp","","","img/blue_2bandit_b.png","70","img/blue_2bandit_b.png","70","test","","","","","","","","","","","6","","","","","","","","",""
"null","317503","SARL_v6","SARL_v6hrtuarft","5658000ca9872d0011e1ba26","fixation","","","img/fixation.png","null","","","test","","","","","","","","","","","","","","","","","","","",""
"288.5","317792","SARL_v6","SARL_v6hrtuarft","5658000ca9872d0011e1ba26","freq","","","img/blue_2bandit_b2.png","70","","70","test","1","","130","","","","circle","square","125","11","6","1","","","","","","","",""
"null","318307","SARL_v6","SARL_v6hrtuarft","5658000ca9872d0011e1ba26","freq_resp","","","img/blue_2bandit_b.png","70","img/blue_2bandit_b.png","70","test","","","","","","","","","","","6","","","","","","","","",""
"null","318473","SARL_v6","SARL_v6hrtuarft","5658000ca9872d0011e1ba26","fixation","","","img/fixation.png","null","","","test","","","","","","","","","","","","","","","","","","","",""
"291","318765","SARL_v6","SARL_v6hrtuarft","5658000ca9872d0011e1ba26","freq","","","img/blue_2bandit_b2.png","70","","70","test","1","","131","","","","circle","square","126","12","6","1","","","","","","","",""
"null","319281","SARL_v6","SARL_v6hrtuarft","5658000ca9872d0011e1ba26","freq_resp","","","img/blue_2bandit_b.png","70","img/blue_2bandit_b.png","70","test","","","","","","","","","","","6","","","","","","","","",""
"null","319436","SARL_v6","SARL_v6hrtuarft","5658000ca9872d0011e1ba26","fixation","","","img/fixation.png","null","","","test","","","","","","","","","","","","","","","","","","","",""
"421.5","319858","SARL_v6","SARL_v6hrtuarft","5658000ca9872d0011e1ba26","infreq","","","img/orange_2bandit_b2.png","68","","68","test","1","","132","","","","circle","square","127","13","6","1","","","","","","","",""
"null","320242","SARL_v6","SARL_v6hrtuarft","5658000ca9872d0011e1ba26","infreq_resp","","","img/orange_2bandit_b.png","68","img/orange_2bandit_b.png","68","test","","","","","","","","","","","6","","","","","","","","",""
