"rt","time_elapsed","expId","subject","prolificID","trialType","rlType","attType","stimulus","key_press","stim","corrresp","phase","corr","pracCounter","trialNum","rewardOne","rewardTwo","reward","bandOne","bandTwo","attentionNum","attentionRunNum","blockNum","performance","bandChosen","circleVal","squareVal","bandOneVal","bandTwoVal","shapeChosen","rlNum","badFlag"
"8515.394999994896","8542","SARL_v6","SARL_v6yccuhk42","5b134a12bd9c31000156d4e2","","","","","","","","","","","","","","","","","","","","","","","","","","","",""
"","11574","SARL_v6","SARL_v6yccuhk42","5b134a12bd9c31000156d4e2","fullscreen","fullscreen","fullscreen","","","","","","","","","","","","","","","","","","","","","","","","",""
"45472.569999998086","57066","SARL_v6","SARL_v6yccuhk42","5b134a12bd9c31000156d4e2","","","","","","","","","","","","","","","","","","","","","","","","","","","",""
"null","57915","SARL_v6","SARL_v6yccuhk42","5b134a12bd9c31000156d4e2","freqPrac","","","img/orange_2bandit_b2.png","null","img/orange_2bandit_b2.png","70","prac","0","1","","","","","","","","","","","","","","","","","",""
"null","58966","SARL_v6","SARL_v6yccuhk42","5b134a12bd9c31000156d4e2","feedback","","","img/tooSlow.png","null","","na","prac","","","","","","","","","","","","","","","","","","","",""
"null","59127","SARL_v6","SARL_v6yccuhk42","5b134a12bd9c31000156d4e2","fixation","","","img/fixation.png","null","","","prac","","","","","","","","","","","","","","","","","","","",""
"765.239999993355","59913","SARL_v6","SARL_v6yccuhk42","5b134a12bd9c31000156d4e2","infreqPrac","","","img/blue_2bandit_b2.png","68","img/blue_2bandit_b2.png","68","prac","1","1","","","","","","","","","","","","","","","","","",""
"765.239999993355","59959","SARL_v6","SARL_v6yccuhk42","5b134a12bd9c31000156d4e2","infreqPrac_resp","","","img/blue_2bandit_b.png","68","img/blue_2bandit_b.png","68","prac","","","","","","","","","","","","","","","","","","","",""
"null","60119","SARL_v6","SARL_v6yccuhk42","5b134a12bd9c31000156d4e2","fixation","","","img/fixation.png","null","","","prac","","","","","","","","","","","","","","","","","","","",""
"616.9850000005681","60758","SARL_v6","SARL_v6yccuhk42","5b134a12bd9c31000156d4e2","freqPrac","","","img/orange_2bandit_b2.png","70","img/orange_2bandit_b2.png","70","prac","1","1","","","","","","","","","","","","","","","","","",""
"616.9850000005681","60957","SARL_v6","SARL_v6yccuhk42","5b134a12bd9c31000156d4e2","freqPrac_resp","","","img/orange_2bandit_b.png","70","img/orange_2bandit_b.png","70","prac","","","","","","","","","","","","","","","","","","","",""
"null","61122","SARL_v6","SARL_v6yccuhk42","5b134a12bd9c31000156d4e2","fixation","","","img/fixation.png","null","","","prac","","","","","","","","","","","","","","","","","","","",""
"499.41499999840744","61644","SARL_v6","SARL_v6yccuhk42","5b134a12bd9c31000156d4e2","infreqPrac","","","img/blue_2bandit_b2.png","68","img/blue_2bandit_b2.png","68","prac","1","1","","","","","","","","","","","","","","","","","",""
"499.41499999840744","61964","SARL_v6","SARL_v6yccuhk42","5b134a12bd9c31000156d4e2","infreqPrac_resp","","","img/blue_2bandit_b.png","68","img/blue_2bandit_b.png","68","prac","","","","","","","","","","","","","","","","","","","",""
"null","62131","SARL_v6","SARL_v6yccuhk42","5b134a12bd9c31000156d4e2","fixation","","","img/fixation.png","null","","","prac","","","","","","","","","","","","","","","","","","","",""
"513.1550000078278","62666","SARL_v6","SARL_v6yccuhk42","5b134a12bd9c31000156d4e2","infreqPrac","","","img/blue_2bandit_b2.png","68","img/blue_2bandit_b2.png","68","prac","1","1","","","","","","","","","","","","","","","","","",""
"513.1550000078278","62970","SARL_v6","SARL_v6yccuhk42","5b134a12bd9c31000156d4e2","infreqPrac_resp","","","img/blue_2bandit_b.png","68","img/blue_2bandit_b.png","68","prac","","","","","","","","","","","","","","","","","","","",""
"null","63139","SARL_v6","SARL_v6yccuhk42","5b134a12bd9c31000156d4e2","fixation","","","img/fixation.png","null","","","prac","","","","","","","","","","","","","","","","","","","",""
"622.0099999918602","63800","SARL_v6","SARL_v6yccuhk42","5b134a12bd9c31000156d4e2","infreqPrac","","","img/blue_2bandit_b2.png","68","img/blue_2bandit_b2.png","68","prac","1","1","","","","","","","","","","","","","","","","","",""
"622.0099999918602","63990","SARL_v6","SARL_v6yccuhk42","5b134a12bd9c31000156d4e2","infreqPrac_resp","","","img/blue_2bandit_b.png","68","img/blue_2bandit_b.png","68","prac","","","","","","","","","","","","","","","","","","","",""
"null","64155","SARL_v6","SARL_v6yccuhk42","5b134a12bd9c31000156d4e2","fixation","","","img/fixation.png","null","","","prac","","","","","","","","","","","","","","","","","","","",""
"428.77499999303836","64599","SARL_v6","SARL_v6yccuhk42","5b134a12bd9c31000156d4e2","freqPrac","","","img/orange_2bandit_b2.png","68","img/orange_2bandit_b2.png","70","prac","0","2","","","","","","","","","","","","","","","","","",""
"428.77499999303836","64993","SARL_v6","SARL_v6yccuhk42","5b134a12bd9c31000156d4e2","freqPrac_resp","","","img/orange_2bandit_b.png","68","img/orange_2bandit_b.png","70","prac","","","","","","","","","","","","","","","","","","","",""
"null","66018","SARL_v6","SARL_v6yccuhk42","5b134a12bd9c31000156d4e2","feedback","","","img/wrongKey.png","null","","na","prac","","","","","","","","","","","","","","","","","","","",""
"null","66188","SARL_v6","SARL_v6yccuhk42","5b134a12bd9c31000156d4e2","fixation","","","img/fixation.png","null","","","prac","","","","","","","","","","","","","","","","","","","",""
"null","67002","SARL_v6","SARL_v6yccuhk42","5b134a12bd9c31000156d4e2","infreqPrac","","","img/blue_2bandit_b2.png","null","img/blue_2bandit_b2.png","68","prac","0","3","","","","","","","","","","","","","","","","","",""
"null","68019","SARL_v6","SARL_v6yccuhk42","5b134a12bd9c31000156d4e2","feedback","","","img/tooSlow.png","null","","na","prac","","","","","","","","","","","","","","","","","","","",""
"null","68179","SARL_v6","SARL_v6yccuhk42","5b134a12bd9c31000156d4e2","fixation","","","img/fixation.png","null","","","prac","","","","","","","","","","","","","","","","","","","",""
"444.629999998142","68644","SARL_v6","SARL_v6yccuhk42","5b134a12bd9c31000156d4e2","freqPrac","","","img/orange_2bandit_b2.png","70","img/orange_2bandit_b2.png","70","prac","1","3","","","","","","","","","","","","","","","","","",""
"444.629999998142","69022","SARL_v6","SARL_v6yccuhk42","5b134a12bd9c31000156d4e2","freqPrac_resp","","","img/orange_2bandit_b.png","70","img/orange_2bandit_b.png","70","prac","","","","","","","","","","","","","","","","","","","",""
"null","69195","SARL_v6","SARL_v6yccuhk42","5b134a12bd9c31000156d4e2","fixation","","","img/fixation.png","null","","","prac","","","","","","","","","","","","","","","","","","","",""
"344.8999999964144","69550","SARL_v6","SARL_v6yccuhk42","5b134a12bd9c31000156d4e2","freqPrac","","","img/orange_2bandit_b2.png","70","img/orange_2bandit_b2.png","70","prac","1","3","","","","","","","","","","","","","","","","","",""
"344.8999999964144","70026","SARL_v6","SARL_v6yccuhk42","5b134a12bd9c31000156d4e2","freqPrac_resp","","","img/orange_2bandit_b.png","70","img/orange_2bandit_b.png","70","prac","","","","","","","","","","","","","","","","","","","",""
"null","70190","SARL_v6","SARL_v6yccuhk42","5b134a12bd9c31000156d4e2","fixation","","","img/fixation.png","null","","","prac","","","","","","","","","","","","","","","","","","","",""
"13290.999999997439","83501","SARL_v6","SARL_v6yccuhk42","5b134a12bd9c31000156d4e2","","","","","","","","prac","","","","","","","","","","","","","","","","","","","",""
"882.2350000118604","84414","SARL_v6","SARL_v6yccuhk42","5b134a12bd9c31000156d4e2","rlPractice","","","img/black_2bandit_b2.png","74","img/black_2bandit_b2.png","","prac","","","0","","","","","","","","","","","","","","","","",""
"null","85189","SARL_v6","SARL_v6yccuhk42","5b134a12bd9c31000156d4e2","feedback","","","<div class=""veryhighPoints""> 10 </div>","null","","na","prac","","","1","10","-14","10","","","","","","","","","","","","","",""
"null","85361","SARL_v6","SARL_v6yccuhk42","5b134a12bd9c31000156d4e2","fixation","","","img/fixation.png","null","","","prac","","","","","","","","","","","","","","","","","","","",""
"431.76999999559484","85810","SARL_v6","SARL_v6yccuhk42","5b134a12bd9c31000156d4e2","rlPractice","","","img/black_2bandit_b2.png","75","img/black_2bandit_b2.png","","prac","","","1","","","","","","","","","","","","","","","","",""
"null","86584","SARL_v6","SARL_v6yccuhk42","5b134a12bd9c31000156d4e2","feedback","","","<div class=""verylowPoints_sq""> -5 </div>","null","","na","prac","","","2","5","-5","5","","","","","","","","","","","","","",""
"null","86748","SARL_v6","SARL_v6yccuhk42","5b134a12bd9c31000156d4e2","fixation","","","img/fixation.png","null","","","prac","","","","","","","","","","","","","","","","","","","",""
"480.66000000108033","87251","SARL_v6","SARL_v6yccuhk42","5b134a12bd9c31000156d4e2","rlPractice","","","img/black_2bandit_b2.png","74","img/black_2bandit_b2.png","","prac","","","2","","","","","","","","","","","","","","","","",""
"null","88027","SARL_v6","SARL_v6yccuhk42","5b134a12bd9c31000156d4e2","feedback","","","<div class=""veryhighPoints""> 30 </div>","null","","na","prac","","","3","30","2","30","","","","","","","","","","","","","",""
"null","88190","SARL_v6","SARL_v6yccuhk42","5b134a12bd9c31000156d4e2","fixation","","","img/fixation.png","null","","","prac","","","","","","","","","","","","","","","","","","","",""
"452.82000000588596","88667","SARL_v6","SARL_v6yccuhk42","5b134a12bd9c31000156d4e2","rlPractice","","","img/black_2bandit_b2.png","74","img/black_2bandit_b2.png","","prac","","","3","","","","","","","","","","","","","","","","",""
"null","89442","SARL_v6","SARL_v6yccuhk42","5b134a12bd9c31000156d4e2","feedback","","","<div class=""verylowPoints""> -2 </div>","null","","na","prac","","","4","-2","20","-2","","","","","","","","","","","","","",""
"null","89606","SARL_v6","SARL_v6yccuhk42","5b134a12bd9c31000156d4e2","fixation","","","img/fixation.png","null","","","prac","","","","","","","","","","","","","","","","","","","",""
"35635.1250000007","125258","SARL_v6","SARL_v6yccuhk42","5b134a12bd9c31000156d4e2","","","","","","","","prac","","","","","","","","","","","","","","","","","","","",""
"769.8400000081165","126050","SARL_v6","SARL_v6yccuhk42","5b134a12bd9c31000156d4e2","mixAttFreqPrac","","","img/orange_2bandit_b2.png","68","img/orange_2bandit_b2.png","70","prac","","","1","","","","","","","","","","","","","","","","",""
"769.8400000081165","126107","SARL_v6","SARL_v6yccuhk42","5b134a12bd9c31000156d4e2","freqPrac_resp","","","img/orange_2bandit_b.png","68","img/orange_2bandit_b.png","70","prac","","","1","","","","","","","","","","","","","","","","",""
"null","126271","SARL_v6","SARL_v6yccuhk42","5b134a12bd9c31000156d4e2","fixation","","","img/fixation.png","null","","","prac","","","","","","","","","","","","","","","","","","","",""
"677.4700000096345","126971","SARL_v6","SARL_v6yccuhk42","5b134a12bd9c31000156d4e2","mixAttInfreqPrac","","","img/blue_2bandit_b2.png","68","img/blue_2bandit_b2.png","68","prac","","","2","","","","","","","","","","","","","","","","",""
"677.4700000096345","127116","SARL_v6","SARL_v6yccuhk42","5b134a12bd9c31000156d4e2","infreqPrac_resp","","","img/blue_2bandit_b.png","68","img/orange_2bandit_b.png","68","prac","","","2","","","","","","","","","","","","","","","","",""
"null","127279","SARL_v6","SARL_v6yccuhk42","5b134a12bd9c31000156d4e2","fixation","","","img/fixation.png","null","","","prac","","","","","","","","","","","","","","","","","","","",""
"510.13500000408385","127811","SARL_v6","SARL_v6yccuhk42","5b134a12bd9c31000156d4e2","mixAttInfreqPrac","","","img/blue_2bandit_b2.png","68","img/blue_2bandit_b2.png","68","prac","","","3","","","","","","","","","","","","","","","","",""
"510.13500000408385","128125","SARL_v6","SARL_v6yccuhk42","5b134a12bd9c31000156d4e2","infreqPrac_resp","","","img/blue_2bandit_b.png","68","img/orange_2bandit_b.png","68","prac","","","3","","","","","","","","","","","","","","","","",""
"null","128299","SARL_v6","SARL_v6yccuhk42","5b134a12bd9c31000156d4e2","fixation","","","img/fixation.png","null","","","prac","","","","","","","","","","","","","","","","","","","",""
"481.4150000020163","128804","SARL_v6","SARL_v6yccuhk42","5b134a12bd9c31000156d4e2","mixAttInfreqPrac","","","img/blue_2bandit_b2.png","68","img/blue_2bandit_b2.png","68","prac","","","4","","","","","","","","","","","","","","","","",""
"481.4150000020163","129136","SARL_v6","SARL_v6yccuhk42","5b134a12bd9c31000156d4e2","infreqPrac_resp","","","img/blue_2bandit_b.png","68","img/orange_2bandit_b.png","68","prac","","","4","","","","","","","","","","","","","","","","",""
"null","129303","SARL_v6","SARL_v6yccuhk42","5b134a12bd9c31000156d4e2","fixation","","","img/fixation.png","null","","","prac","","","","","","","","","","","","","","","","","","","",""
"573.5049999930197","129895","SARL_v6","SARL_v6yccuhk42","5b134a12bd9c31000156d4e2","mixAttFreqPrac","","","img/orange_2bandit_b2.png","70","img/orange_2bandit_b2.png","70","prac","","","5","","","","","","","","","","","","","","","","",""
"573.5049999930197","130139","SARL_v6","SARL_v6yccuhk42","5b134a12bd9c31000156d4e2","freqPrac_resp","","","img/orange_2bandit_b.png","70","img/orange_2bandit_b.png","70","prac","","","5","","","","","","","","","","","","","","","","",""
"null","130307","SARL_v6","SARL_v6yccuhk42","5b134a12bd9c31000156d4e2","fixation","","","img/fixation.png","null","","","prac","","","","","","","","","","","","","","","","","","","",""
"709.2300000076648","131037","SARL_v6","SARL_v6yccuhk42","5b134a12bd9c31000156d4e2","mixRLPractice","","","img/black_2bandit_b2.png","75","img/black_2bandit_b2.png","","prac","","","5","","","","","","","","","","","","","","","","",""
"null","131814","SARL_v6","SARL_v6yccuhk42","5b134a12bd9c31000156d4e2","feedback","","","<div class=""veryhighPoints_sq""> 10 </div>","null","","na","prac","","","6","-14","10","-14","","","","","","","","","","","","","",""
"null","131979","SARL_v6","SARL_v6yccuhk42","5b134a12bd9c31000156d4e2","fixation","","","img/fixation.png","null","","","prac","","","","","","","","","","","","","","","","","","","",""
"675.4199999995762","132676","SARL_v6","SARL_v6yccuhk42","5b134a12bd9c31000156d4e2","mixAttFreqPrac","","","img/orange_2bandit_b2.png","68","img/orange_2bandit_b2.png","70","prac","","","7","","","","","","","","","","","","","","","","",""
"675.4199999995762","132813","SARL_v6","SARL_v6yccuhk42","5b134a12bd9c31000156d4e2","freqPrac_resp","","","img/orange_2bandit_b.png","68","img/orange_2bandit_b.png","70","prac","","","7","","","","","","","","","","","","","","","","",""
"null","132976","SARL_v6","SARL_v6yccuhk42","5b134a12bd9c31000156d4e2","fixation","","","img/fixation.png","null","","","prac","","","","","","","","","","","","","","","","","","","",""
"532.7949999918928","133530","SARL_v6","SARL_v6yccuhk42","5b134a12bd9c31000156d4e2","mixAttInfreqPrac","","","img/blue_2bandit_b2.png","68","img/blue_2bandit_b2.png","68","prac","","","8","","","","","","","","","","","","","","","","",""
"532.7949999918928","133820","SARL_v6","SARL_v6yccuhk42","5b134a12bd9c31000156d4e2","infreqPrac_resp","","","img/blue_2bandit_b.png","68","img/orange_2bandit_b.png","68","prac","","","8","","","","","","","","","","","","","","","","",""
"null","133994","SARL_v6","SARL_v6yccuhk42","5b134a12bd9c31000156d4e2","fixation","","","img/fixation.png","null","","","prac","","","","","","","","","","","","","","","","","","","",""
"493.2100000005448","134513","SARL_v6","SARL_v6yccuhk42","5b134a12bd9c31000156d4e2","mixAttFreqPrac","","","img/orange_2bandit_b2.png","70","img/orange_2bandit_b2.png","70","prac","","","9","","","","","","","","","","","","","","","","",""
"493.2100000005448","134839","SARL_v6","SARL_v6yccuhk42","5b134a12bd9c31000156d4e2","freqPrac_resp","","","img/orange_2bandit_b.png","70","img/orange_2bandit_b.png","70","prac","","","9","","","","","","","","","","","","","","","","",""
"null","135014","SARL_v6","SARL_v6yccuhk42","5b134a12bd9c31000156d4e2","fixation","","","img/fixation.png","null","","","prac","","","","","","","","","","","","","","","","","","","",""
"544.4399999978486","135581","SARL_v6","SARL_v6yccuhk42","5b134a12bd9c31000156d4e2","mixAttFreqPrac","","","img/orange_2bandit_b2.png","70","img/orange_2bandit_b2.png","70","prac","","","10","","","","","","","","","","","","","","","","",""
"544.4399999978486","135859","SARL_v6","SARL_v6yccuhk42","5b134a12bd9c31000156d4e2","freqPrac_resp","","","img/orange_2bandit_b.png","70","img/orange_2bandit_b.png","70","prac","","","10","","","","","","","","","","","","","","","","",""
"null","136035","SARL_v6","SARL_v6yccuhk42","5b134a12bd9c31000156d4e2","fixation","","","img/fixation.png","null","","","prac","","","","","","","","","","","","","","","","","","","",""
"511.54500000120606","136559","SARL_v6","SARL_v6yccuhk42","5b134a12bd9c31000156d4e2","mixAttInfreqPrac","","","img/blue_2bandit_b2.png","68","img/blue_2bandit_b2.png","68","prac","","","11","","","","","","","","","","","","","","","","",""
"511.54500000120606","136857","SARL_v6","SARL_v6yccuhk42","5b134a12bd9c31000156d4e2","infreqPrac_resp","","","img/blue_2bandit_b.png","68","img/orange_2bandit_b.png","68","prac","","","11","","","","","","","","","","","","","","","","",""
"null","137027","SARL_v6","SARL_v6yccuhk42","5b134a12bd9c31000156d4e2","fixation","","","img/fixation.png","null","","","prac","","","","","","","","","","","","","","","","","","","",""
"465.64999999827705","137513","SARL_v6","SARL_v6yccuhk42","5b134a12bd9c31000156d4e2","mixRLPractice","","","img/black_2bandit_b2.png","75","img/black_2bandit_b2.png","","prac","","","11","","","","","","","","","","","","","","","","",""
"null","138289","SARL_v6","SARL_v6yccuhk42","5b134a12bd9c31000156d4e2","feedback","","","<div class=""verylowPoints_sq""> -5 </div>","null","","na","prac","","","12","5","-5","5","","","","","","","","","","","","","",""
"null","138460","SARL_v6","SARL_v6yccuhk42","5b134a12bd9c31000156d4e2","fixation","","","img/fixation.png","null","","","prac","","","","","","","","","","","","","","","","","","","",""
"22338.724999994156","160819","SARL_v6","SARL_v6yccuhk42","5b134a12bd9c31000156d4e2","","","","","","","","prac","","","","","","","","","","","","","","","","","","","",""
"null","161644","SARL_v6","SARL_v6yccuhk42","5b134a12bd9c31000156d4e2","freq","","","img/orange_2bandit_b2.png","null","","70","test","0","","1","","","","circle","square","1","1","1","0","","","","","","","",""
"null","161815","SARL_v6","SARL_v6yccuhk42","5b134a12bd9c31000156d4e2","fixation","","","img/fixation.png","null","","","test","","","","","","","","","","","","","","","","","","","",""
"452.8300000092713","162283","SARL_v6","SARL_v6yccuhk42","5b134a12bd9c31000156d4e2","freq","","","img/orange_2bandit_b2.png","70","","70","test","1","","2","","","","circle","square","2","2","1","0.5","","","","","","","",""
"null","162649","SARL_v6","SARL_v6yccuhk42","5b134a12bd9c31000156d4e2","freq_resp","","","img/orange_2bandit_b.png","70","img/orange_2bandit_b.png","70","test","","","","","","","","","","","1","","","","","","","","",""
"null","162816","SARL_v6","SARL_v6yccuhk42","5b134a12bd9c31000156d4e2","fixation","","","img/fixation.png","null","","","test","","","","","","","","","","","","","","","","","","","",""
"419.69999999855645","163253","SARL_v6","SARL_v6yccuhk42","5b134a12bd9c31000156d4e2","freq","","","img/orange_2bandit_b2.png","70","","70","test","1","","3","","","","circle","square","3","3","1","0.6666666666666666","","","","","","","",""
"null","163651","SARL_v6","SARL_v6yccuhk42","5b134a12bd9c31000156d4e2","freq_resp","","","img/orange_2bandit_b.png","70","img/orange_2bandit_b.png","70","test","","","","","","","","","","","1","","","","","","","","",""
"null","163818","SARL_v6","SARL_v6yccuhk42","5b134a12bd9c31000156d4e2","fixation","","","img/fixation.png","null","","","test","","","","","","","","","","","","","","","","","","","",""
"377.84000000101514","164215","SARL_v6","SARL_v6yccuhk42","5b134a12bd9c31000156d4e2","freq","","","img/orange_2bandit_b2.png","70","","70","test","1","","4","","","","circle","square","4","4","1","0.75","","","","","","","",""
"null","164660","SARL_v6","SARL_v6yccuhk42","5b134a12bd9c31000156d4e2","freq_resp","","","img/orange_2bandit_b.png","70","img/orange_2bandit_b.png","70","test","","","","","","","","","","","1","","","","","","","","",""
"null","164822","SARL_v6","SARL_v6yccuhk42","5b134a12bd9c31000156d4e2","fixation","","","img/fixation.png","null","","","test","","","","","","","","","","","","","","","","","","","",""
"632.1150000003399","165476","SARL_v6","SARL_v6yccuhk42","5b134a12bd9c31000156d4e2","infreq","","","img/blue_2bandit_b2.png","68","","68","test","1","","5","","","","circle","square","5","5","1","0.8","","","","","","","",""
"null","165654","SARL_v6","SARL_v6yccuhk42","5b134a12bd9c31000156d4e2","infreq_resp","","","img/blue_2bandit_b.png","68","img/blue_2bandit_b.png","68","test","","","","","","","","","","","1","","","","","","","","",""
"null","165814","SARL_v6","SARL_v6yccuhk42","5b134a12bd9c31000156d4e2","fixation","","","img/fixation.png","null","","","test","","","","","","","","","","","","","","","","","","","",""
"589.6000000066124","166426","SARL_v6","SARL_v6yccuhk42","5b134a12bd9c31000156d4e2","freq","","","img/orange_2bandit_b2.png","70","","70","test","1","","6","","","","circle","square","6","6","1","0.8333333333333334","","","","","","","",""
"null","166651","SARL_v6","SARL_v6yccuhk42","5b134a12bd9c31000156d4e2","freq_resp","","","img/orange_2bandit_b.png","70","img/orange_2bandit_b.png","70","test","","","","","","","","","","","1","","","","","","","","",""
"null","166818","SARL_v6","SARL_v6yccuhk42","5b134a12bd9c31000156d4e2","fixation","","","img/fixation.png","null","","","test","","","","","","","","","","","","","","","","","","","",""
"411.73999999591615","167247","SARL_v6","SARL_v6yccuhk42","5b134a12bd9c31000156d4e2","freq","","","img/orange_2bandit_b2.png","70","","70","test","1","","7","","","","circle","square","7","7","1","0.8571428571428571","","","","","","","",""
"null","167658","SARL_v6","SARL_v6yccuhk42","5b134a12bd9c31000156d4e2","freq_resp","","","img/orange_2bandit_b.png","70","img/orange_2bandit_b.png","70","test","","","","","","","","","","","1","","","","","","","","",""
"null","167822","SARL_v6","SARL_v6yccuhk42","5b134a12bd9c31000156d4e2","fixation","","","img/fixation.png","null","","","test","","","","","","","","","","","","","","","","","","","",""
"377.7799999952549","168208","SARL_v6","SARL_v6yccuhk42","5b134a12bd9c31000156d4e2","freq","","","img/orange_2bandit_b2.png","70","","70","test","1","","8","","","","circle","square","8","8","1","0.875","","","","","","","",""
"null","168651","SARL_v6","SARL_v6yccuhk42","5b134a12bd9c31000156d4e2","freq_resp","","","img/orange_2bandit_b.png","70","img/orange_2bandit_b.png","70","test","","","","","","","","","","","1","","","","","","","","",""
"null","168813","SARL_v6","SARL_v6yccuhk42","5b134a12bd9c31000156d4e2","fixation","","","img/fixation.png","null","","","test","","","","","","","","","","","","","","","","","","","",""
"347.57499999250285","169173","SARL_v6","SARL_v6yccuhk42","5b134a12bd9c31000156d4e2","freq","","","img/orange_2bandit_b2.png","70","","70","test","1","","9","","","","circle","square","9","9","1","0.8888888888888888","","","","","","","",""
"null","169638","SARL_v6","SARL_v6yccuhk42","5b134a12bd9c31000156d4e2","freq_resp","","","img/orange_2bandit_b.png","70","img/orange_2bandit_b.png","70","test","","","","","","","","","","","1","","","","","","","","",""
"null","169809","SARL_v6","SARL_v6yccuhk42","5b134a12bd9c31000156d4e2","fixation","","","img/fixation.png","null","","","test","","","","","","","","","","","","","","","","","","","",""
"375.0750000035623","170206","SARL_v6","SARL_v6yccuhk42","5b134a12bd9c31000156d4e2","freq","","","img/orange_2bandit_b2.png","70","","70","test","1","","10","","","","circle","square","10","10","1","0.9","","","","","","","",""
"null","170652","SARL_v6","SARL_v6yccuhk42","5b134a12bd9c31000156d4e2","freq_resp","","","img/orange_2bandit_b.png","70","img/orange_2bandit_b.png","70","test","","","","","","","","","","","1","","","","","","","","",""
"null","170814","SARL_v6","SARL_v6yccuhk42","5b134a12bd9c31000156d4e2","fixation","","","img/fixation.png","null","","","test","","","","","","","","","","","","","","","","","","","",""
"399.53500000410713","171234","SARL_v6","SARL_v6yccuhk42","5b134a12bd9c31000156d4e2","freq","","","img/orange_2bandit_b2.png","70","","70","test","1","","11","","","","circle","square","11","11","1","0.9090909090909091","","","","","","","",""
"null","171659","SARL_v6","SARL_v6yccuhk42","5b134a12bd9c31000156d4e2","freq_resp","","","img/orange_2bandit_b.png","70","img/orange_2bandit_b.png","70","test","","","","","","","","","","","1","","","","","","","","",""
"null","171822","SARL_v6","SARL_v6yccuhk42","5b134a12bd9c31000156d4e2","fixation","","","img/fixation.png","null","","","test","","","","","","","","","","","","","","","","","","","",""
"353.1350000121165","172195","SARL_v6","SARL_v6yccuhk42","5b134a12bd9c31000156d4e2","freq","","","img/orange_2bandit_b2.png","70","","70","test","1","","12","","","","circle","square","12","12","1","0.9166666666666666","","","","","","","",""
"null","172666","SARL_v6","SARL_v6yccuhk42","5b134a12bd9c31000156d4e2","freq_resp","","","img/orange_2bandit_b.png","70","img/orange_2bandit_b.png","70","test","","","","","","","","","","","1","","","","","","","","",""
"null","172827","SARL_v6","SARL_v6yccuhk42","5b134a12bd9c31000156d4e2","fixation","","","img/fixation.png","null","","","test","","","","","","","","","","","","","","","","","","","",""
"332.65000001119915","173174","SARL_v6","SARL_v6yccuhk42","5b134a12bd9c31000156d4e2","freq","","","img/orange_2bandit_b2.png","70","","70","test","1","","13","","","","circle","square","13","13","1","0.9230769230769231","","","","","","","",""
"null","173666","SARL_v6","SARL_v6yccuhk42","5b134a12bd9c31000156d4e2","freq_resp","","","img/orange_2bandit_b.png","70","img/orange_2bandit_b.png","70","test","","","","","","","","","","","1","","","","","","","","",""
"null","173829","SARL_v6","SARL_v6yccuhk42","5b134a12bd9c31000156d4e2","fixation","","","img/fixation.png","null","","","test","","","","","","","","","","","","","","","","","","","",""
"324.1649999981746","174175","SARL_v6","SARL_v6yccuhk42","5b134a12bd9c31000156d4e2","freq","","","img/orange_2bandit_b2.png","70","","70","test","1","","14","","","","circle","square","14","14","1","0.9285714285714286","","","","","","","",""
"null","174674","SARL_v6","SARL_v6yccuhk42","5b134a12bd9c31000156d4e2","freq_resp","","","img/orange_2bandit_b.png","70","img/orange_2bandit_b.png","70","test","","","","","","","","","","","1","","","","","","","","",""
"null","174838","SARL_v6","SARL_v6yccuhk42","5b134a12bd9c31000156d4e2","fixation","","","img/fixation.png","null","","","test","","","","","","","","","","","","","","","","","","","",""
"301.9649999914691","175162","SARL_v6","SARL_v6yccuhk42","5b134a12bd9c31000156d4e2","freq","","","img/orange_2bandit_b2.png","70","","70","test","1","","15","","","","circle","square","15","15","1","0.9333333333333333","","","","","","","",""
"null","175685","SARL_v6","SARL_v6yccuhk42","5b134a12bd9c31000156d4e2","freq_resp","","","img/orange_2bandit_b.png","70","img/orange_2bandit_b.png","70","test","","","","","","","","","","","1","","","","","","","","",""
"null","175848","SARL_v6","SARL_v6yccuhk42","5b134a12bd9c31000156d4e2","fixation","","","img/fixation.png","null","","","test","","","","","","","","","","","","","","","","","","","",""
"324.11999999021646","176189","SARL_v6","SARL_v6yccuhk42","5b134a12bd9c31000156d4e2","freq","","","img/orange_2bandit_b2.png","70","","70","test","1","","16","","","","circle","square","16","16","1","0.9375","","","","","","","",""
"null","176688","SARL_v6","SARL_v6yccuhk42","5b134a12bd9c31000156d4e2","freq_resp","","","img/orange_2bandit_b.png","70","img/orange_2bandit_b.png","70","test","","","","","","","","","","","1","","","","","","","","",""
"null","176852","SARL_v6","SARL_v6yccuhk42","5b134a12bd9c31000156d4e2","fixation","","","img/fixation.png","null","","","test","","","","","","","","","","","","","","","","","","","",""
"551.0950000025332","177421","SARL_v6","SARL_v6yccuhk42","5b134a12bd9c31000156d4e2","infreq","","","img/blue_2bandit_b2.png","68","","68","test","1","","17","","","","circle","square","17","17","1","0.9411764705882353","","","","","","","",""
"null","177691","SARL_v6","SARL_v6yccuhk42","5b134a12bd9c31000156d4e2","infreq_resp","","","img/blue_2bandit_b.png","68","img/blue_2bandit_b.png","68","test","","","","","","","","","","","1","","","","","","","","",""
"null","177854","SARL_v6","SARL_v6yccuhk42","5b134a12bd9c31000156d4e2","fixation","","","img/fixation.png","null","","","test","","","","","","","","","","","","","","","","","","","",""
"539.1049999889219","178405","SARL_v6","SARL_v6yccuhk42","5b134a12bd9c31000156d4e2","freq","","","img/orange_2bandit_b2.png","68","","70","test","0","","18","","","","circle","square","18","18","1","0.8888888888888888","","","","","","","",""
"null","178683","SARL_v6","SARL_v6yccuhk42","5b134a12bd9c31000156d4e2","freq_resp","","","img/orange_2bandit_b.png","68","img/orange_2bandit_b.png","70","test","","","","","","","","","","","1","","","","","","","","",""
"null","178850","SARL_v6","SARL_v6yccuhk42","5b134a12bd9c31000156d4e2","fixation","","","img/fixation.png","null","","","test","","","","","","","","","","","","","","","","","","","",""
"669.2249999905471","179537","SARL_v6","SARL_v6yccuhk42","5b134a12bd9c31000156d4e2","freq","","","img/orange_2bandit_b2.png","70","","70","test","1","","19","","","","circle","square","19","19","1","0.8947368421052632","","","","","","","",""
"null","179685","SARL_v6","SARL_v6yccuhk42","5b134a12bd9c31000156d4e2","freq_resp","","","img/orange_2bandit_b.png","70","img/orange_2bandit_b.png","70","test","","","","","","","","","","","1","","","","","","","","",""
"null","179852","SARL_v6","SARL_v6yccuhk42","5b134a12bd9c31000156d4e2","fixation","","","img/fixation.png","null","","","test","","","","","","","","","","","","","","","","","","","",""
"755.2750000031665","180632","SARL_v6","SARL_v6yccuhk42","5b134a12bd9c31000156d4e2","rl","","","img/black_2bandit_b2.png","75","","0","test","","","20","","","-3","circle","square","","0","1","","75","-3","-3","-3","-3","square","1","0"
"null","181409","SARL_v6","SARL_v6yccuhk42","5b134a12bd9c31000156d4e2","feedback","","","<div class=""verylowPoints_sq""> -3 </div>","null","","na","test","","","NaN","","","","","","","","1","","75","","","","","","1",""
"null","182234","SARL_v6","SARL_v6yccuhk42","5b134a12bd9c31000156d4e2","freq","","","img/orange_2bandit_b2.png","null","","70","test","0","","21","","","","circle","square","20","1","2","0.85","","","","","","","",""
"null","182402","SARL_v6","SARL_v6yccuhk42","5b134a12bd9c31000156d4e2","fixation","","","img/fixation.png","null","","","test","","","","","","","","","","","","","","","","","","","",""
"144.96000000508502","182557","SARL_v6","SARL_v6yccuhk42","5b134a12bd9c31000156d4e2","freq","","","img/orange_2bandit_b2.png","70","","70","test","1","","22","","","","circle","square","21","2","2","0.8571428571428571","","","","","","","",""
"null","183230","SARL_v6","SARL_v6yccuhk42","5b134a12bd9c31000156d4e2","freq_resp","","","img/orange_2bandit_b.png","70","img/orange_2bandit_b.png","70","test","","","","","","","","","","","2","","","","","","","","",""
"null","183398","SARL_v6","SARL_v6yccuhk42","5b134a12bd9c31000156d4e2","fixation","","","img/fixation.png","null","","","test","","","","","","","","","","","","","","","","","","","",""
"434.60999999661","183849","SARL_v6","SARL_v6yccuhk42","5b134a12bd9c31000156d4e2","freq","","","img/orange_2bandit_b2.png","70","","70","test","1","","23","","","","circle","square","22","3","2","0.8636363636363636","","","","","","","",""
"null","184232","SARL_v6","SARL_v6yccuhk42","5b134a12bd9c31000156d4e2","freq_resp","","","img/orange_2bandit_b.png","70","img/orange_2bandit_b.png","70","test","","","","","","","","","","","2","","","","","","","","",""
"null","184405","SARL_v6","SARL_v6yccuhk42","5b134a12bd9c31000156d4e2","fixation","","","img/fixation.png","null","","","test","","","","","","","","","","","","","","","","","","","",""
"464.365000007092","184889","SARL_v6","SARL_v6yccuhk42","5b134a12bd9c31000156d4e2","freq","","","img/orange_2bandit_b2.png","70","","70","test","1","","24","","","","circle","square","23","4","2","0.8695652173913043","","","","","","","",""
"null","185243","SARL_v6","SARL_v6yccuhk42","5b134a12bd9c31000156d4e2","freq_resp","","","img/orange_2bandit_b.png","70","img/orange_2bandit_b.png","70","test","","","","","","","","","","","2","","","","","","","","",""
"null","185407","SARL_v6","SARL_v6yccuhk42","5b134a12bd9c31000156d4e2","fixation","","","img/fixation.png","null","","","test","","","","","","","","","","","","","","","","","","","",""
"399.7899999958463","185823","SARL_v6","SARL_v6yccuhk42","5b134a12bd9c31000156d4e2","freq","","","img/orange_2bandit_b2.png","70","","70","test","1","","25","","","","circle","square","24","5","2","0.875","","","","","","","",""
"null","186238","SARL_v6","SARL_v6yccuhk42","5b134a12bd9c31000156d4e2","freq_resp","","","img/orange_2bandit_b.png","70","img/orange_2bandit_b.png","70","test","","","","","","","","","","","2","","","","","","","","",""
"null","186408","SARL_v6","SARL_v6yccuhk42","5b134a12bd9c31000156d4e2","fixation","","","img/fixation.png","null","","","test","","","","","","","","","","","","","","","","","","","",""
"368.2050000061281","186797","SARL_v6","SARL_v6yccuhk42","5b134a12bd9c31000156d4e2","freq","","","img/orange_2bandit_b2.png","70","","70","test","1","","26","","","","circle","square","25","6","2","0.88","","","","","","","",""
"null","187247","SARL_v6","SARL_v6yccuhk42","5b134a12bd9c31000156d4e2","freq_resp","","","img/orange_2bandit_b.png","70","img/orange_2bandit_b.png","70","test","","","","","","","","","","","2","","","","","","","","",""
"null","187414","SARL_v6","SARL_v6yccuhk42","5b134a12bd9c31000156d4e2","fixation","","","img/fixation.png","null","","","test","","","","","","","","","","","","","","","","","","","",""
"388.8149999984307","187821","SARL_v6","SARL_v6yccuhk42","5b134a12bd9c31000156d4e2","freq","","","img/orange_2bandit_b2.png","70","","70","test","1","","27","","","","circle","square","26","7","2","0.8846153846153846","","","","","","","",""
"null","188246","SARL_v6","SARL_v6yccuhk42","5b134a12bd9c31000156d4e2","freq_resp","","","img/orange_2bandit_b.png","70","img/orange_2bandit_b.png","70","test","","","","","","","","","","","2","","","","","","","","",""
"null","188416","SARL_v6","SARL_v6yccuhk42","5b134a12bd9c31000156d4e2","fixation","","","img/fixation.png","null","","","test","","","","","","","","","","","","","","","","","","","",""
"350.98000000289176","188793","SARL_v6","SARL_v6yccuhk42","5b134a12bd9c31000156d4e2","freq","","","img/orange_2bandit_b2.png","70","","70","test","1","","28","","","","circle","square","27","8","2","0.8888888888888888","","","","","","","",""
"null","189267","SARL_v6","SARL_v6yccuhk42","5b134a12bd9c31000156d4e2","freq_resp","","","img/orange_2bandit_b.png","70","img/orange_2bandit_b.png","70","test","","","","","","","","","","","2","","","","","","","","",""
"null","189439","SARL_v6","SARL_v6yccuhk42","5b134a12bd9c31000156d4e2","fixation","","","img/fixation.png","null","","","test","","","","","","","","","","","","","","","","","","","",""
"346.70000000915024","189809","SARL_v6","SARL_v6yccuhk42","5b134a12bd9c31000156d4e2","freq","","","img/orange_2bandit_b2.png","70","","70","test","1","","29","","","","circle","square","28","9","2","0.8928571428571429","","","","","","","",""
"null","190285","SARL_v6","SARL_v6yccuhk42","5b134a12bd9c31000156d4e2","freq_resp","","","img/orange_2bandit_b.png","70","img/orange_2bandit_b.png","70","test","","","","","","","","","","","2","","","","","","","","",""
"null","190451","SARL_v6","SARL_v6yccuhk42","5b134a12bd9c31000156d4e2","fixation","","","img/fixation.png","null","","","test","","","","","","","","","","","","","","","","","","","",""
"363.1100000056904","190832","SARL_v6","SARL_v6yccuhk42","5b134a12bd9c31000156d4e2","freq","","","img/orange_2bandit_b2.png","70","","70","test","1","","30","","","","circle","square","29","10","2","0.896551724137931","","","","","","","",""
"null","191291","SARL_v6","SARL_v6yccuhk42","5b134a12bd9c31000156d4e2","freq_resp","","","img/orange_2bandit_b.png","70","img/orange_2bandit_b.png","70","test","","","","","","","","","","","2","","","","","","","","",""
"null","191465","SARL_v6","SARL_v6yccuhk42","5b134a12bd9c31000156d4e2","fixation","","","img/fixation.png","null","","","test","","","","","","","","","","","","","","","","","","","",""
"352.18499999609776","191840","SARL_v6","SARL_v6yccuhk42","5b134a12bd9c31000156d4e2","freq","","","img/orange_2bandit_b2.png","70","","70","test","1","","31","","","","circle","square","30","11","2","0.9","","","","","","","",""
"null","192310","SARL_v6","SARL_v6yccuhk42","5b134a12bd9c31000156d4e2","freq_resp","","","img/orange_2bandit_b.png","70","img/orange_2bandit_b.png","70","test","","","","","","","","","","","2","","","","","","","","",""
"null","192483","SARL_v6","SARL_v6yccuhk42","5b134a12bd9c31000156d4e2","fixation","","","img/fixation.png","null","","","test","","","","","","","","","","","","","","","","","","","",""
"329.74999998987187","192833","SARL_v6","SARL_v6yccuhk42","5b134a12bd9c31000156d4e2","freq","","","img/orange_2bandit_b2.png","70","","70","test","1","","32","","","","circle","square","31","12","2","0.9032258064516129","","","","","","","",""
"null","193326","SARL_v6","SARL_v6yccuhk42","5b134a12bd9c31000156d4e2","freq_resp","","","img/orange_2bandit_b.png","70","img/orange_2bandit_b.png","70","test","","","","","","","","","","","2","","","","","","","","",""
"null","193487","SARL_v6","SARL_v6yccuhk42","5b134a12bd9c31000156d4e2","fixation","","","img/fixation.png","null","","","test","","","","","","","","","","","","","","","","","","","",""
"353.3250000036787","193861","SARL_v6","SARL_v6yccuhk42","5b134a12bd9c31000156d4e2","freq","","","img/orange_2bandit_b2.png","70","","70","test","1","","33","","","","circle","square","32","13","2","0.90625","","","","","","","",""
"null","194331","SARL_v6","SARL_v6yccuhk42","5b134a12bd9c31000156d4e2","freq_resp","","","img/orange_2bandit_b.png","70","img/orange_2bandit_b.png","70","test","","","","","","","","","","","2","","","","","","","","",""
"null","194503","SARL_v6","SARL_v6yccuhk42","5b134a12bd9c31000156d4e2","fixation","","","img/fixation.png","null","","","test","","","","","","","","","","","","","","","","","","","",""
"348.21999999985565","194869","SARL_v6","SARL_v6yccuhk42","5b134a12bd9c31000156d4e2","freq","","","img/orange_2bandit_b2.png","70","","70","test","1","","34","","","","circle","square","33","14","2","0.9090909090909091","","","","","","","",""
"null","195341","SARL_v6","SARL_v6yccuhk42","5b134a12bd9c31000156d4e2","freq_resp","","","img/orange_2bandit_b.png","70","img/orange_2bandit_b.png","70","test","","","","","","","","","","","2","","","","","","","","",""
"null","195504","SARL_v6","SARL_v6yccuhk42","5b134a12bd9c31000156d4e2","fixation","","","img/fixation.png","null","","","test","","","","","","","","","","","","","","","","","","","",""
"541.720000008354","196069","SARL_v6","SARL_v6yccuhk42","5b134a12bd9c31000156d4e2","infreq","","","img/blue_2bandit_b2.png","68","","68","test","1","","35","","","","circle","square","34","15","2","0.9117647058823529","","","","","","","",""
"null","196353","SARL_v6","SARL_v6yccuhk42","5b134a12bd9c31000156d4e2","infreq_resp","","","img/blue_2bandit_b.png","68","img/blue_2bandit_b.png","68","test","","","","","","","","","","","2","","","","","","","","",""
"null","196529","SARL_v6","SARL_v6yccuhk42","5b134a12bd9c31000156d4e2","fixation","","","img/fixation.png","null","","","test","","","","","","","","","","","","","","","","","","","",""
"537.3099999997066","197090","SARL_v6","SARL_v6yccuhk42","5b134a12bd9c31000156d4e2","freq","","","img/orange_2bandit_b2.png","70","","70","test","1","","36","","","","circle","square","35","16","2","0.9142857142857143","","","","","","","",""
"null","197376","SARL_v6","SARL_v6yccuhk42","5b134a12bd9c31000156d4e2","freq_resp","","","img/orange_2bandit_b.png","70","img/orange_2bandit_b.png","70","test","","","","","","","","","","","2","","","","","","","","",""
"null","197548","SARL_v6","SARL_v6yccuhk42","5b134a12bd9c31000156d4e2","fixation","","","img/fixation.png","null","","","test","","","","","","","","","","","","","","","","","","","",""
"430.62499999359716","198002","SARL_v6","SARL_v6yccuhk42","5b134a12bd9c31000156d4e2","freq","","","img/orange_2bandit_b2.png","70","","70","test","1","","37","","","","circle","square","36","17","2","0.9166666666666666","","","","","","","",""
"null","198395","SARL_v6","SARL_v6yccuhk42","5b134a12bd9c31000156d4e2","freq_resp","","","img/orange_2bandit_b.png","70","img/orange_2bandit_b.png","70","test","","","","","","","","","","","2","","","","","","","","",""
"null","198558","SARL_v6","SARL_v6yccuhk42","5b134a12bd9c31000156d4e2","fixation","","","img/fixation.png","null","","","test","","","","","","","","","","","","","","","","","","","",""
"395.6250000046566","198964","SARL_v6","SARL_v6yccuhk42","5b134a12bd9c31000156d4e2","freq","","","img/orange_2bandit_b2.png","70","","70","test","1","","38","","","","circle","square","37","18","2","0.918918918918919","","","","","","","",""
"null","199391","SARL_v6","SARL_v6yccuhk42","5b134a12bd9c31000156d4e2","freq_resp","","","img/orange_2bandit_b.png","70","img/orange_2bandit_b.png","70","test","","","","","","","","","","","2","","","","","","","","",""
"null","199564","SARL_v6","SARL_v6yccuhk42","5b134a12bd9c31000156d4e2","fixation","","","img/fixation.png","null","","","test","","","","","","","","","","","","","","","","","","","",""
"593.525000003865","200173","SARL_v6","SARL_v6yccuhk42","5b134a12bd9c31000156d4e2","infreq","","","img/blue_2bandit_b2.png","68","","68","test","1","","39","","","","circle","square","38","19","2","0.9210526315789473","","","","","","","",""
"null","200396","SARL_v6","SARL_v6yccuhk42","5b134a12bd9c31000156d4e2","infreq_resp","","","img/blue_2bandit_b.png","68","img/blue_2bandit_b.png","68","test","","","","","","","","","","","2","","","","","","","","",""
"null","200563","SARL_v6","SARL_v6yccuhk42","5b134a12bd9c31000156d4e2","fixation","","","img/fixation.png","null","","","test","","","","","","","","","","","","","","","","","","","",""
"644.8200000013458","201231","SARL_v6","SARL_v6yccuhk42","5b134a12bd9c31000156d4e2","freq","","","img/orange_2bandit_b2.png","70","","70","test","1","","40","","","","circle","square","39","20","2","0.9230769230769231","","","","","","","",""
"null","201400","SARL_v6","SARL_v6yccuhk42","5b134a12bd9c31000156d4e2","freq_resp","","","img/orange_2bandit_b.png","70","img/orange_2bandit_b.png","70","test","","","","","","","","","","","2","","","","","","","","",""
"null","201563","SARL_v6","SARL_v6yccuhk42","5b134a12bd9c31000156d4e2","fixation","","","img/fixation.png","null","","","test","","","","","","","","","","","","","","","","","","","",""
"457.00500000384636","202037","SARL_v6","SARL_v6yccuhk42","5b134a12bd9c31000156d4e2","freq","","","img/orange_2bandit_b2.png","70","","70","test","1","","41","","","","circle","square","40","21","2","0.925","","","","","","","",""
"null","202397","SARL_v6","SARL_v6yccuhk42","5b134a12bd9c31000156d4e2","freq_resp","","","img/orange_2bandit_b.png","70","img/orange_2bandit_b.png","70","test","","","","","","","","","","","2","","","","","","","","",""
"null","202564","SARL_v6","SARL_v6yccuhk42","5b134a12bd9c31000156d4e2","fixation","","","img/fixation.png","null","","","test","","","","","","","","","","","","","","","","","","","",""
"385.7900000002701","202968","SARL_v6","SARL_v6yccuhk42","5b134a12bd9c31000156d4e2","freq","","","img/orange_2bandit_b2.png","70","","70","test","1","","42","","","","circle","square","41","22","2","0.926829268292683","","","","","","","",""
"null","203405","SARL_v6","SARL_v6yccuhk42","5b134a12bd9c31000156d4e2","freq_resp","","","img/orange_2bandit_b.png","70","img/orange_2bandit_b.png","70","test","","","","","","","","","","","2","","","","","","","","",""
"null","203579","SARL_v6","SARL_v6yccuhk42","5b134a12bd9c31000156d4e2","fixation","","","img/fixation.png","null","","","test","","","","","","","","","","","","","","","","","","","",""
"618.560000002617","204224","SARL_v6","SARL_v6yccuhk42","5b134a12bd9c31000156d4e2","rl","","","img/black_2bandit_b2.png","75","","0","test","","","43","","","-5","circle","square","","0","2","","75","-8","-5","-8","-5","square","2","0"
"null","205001","SARL_v6","SARL_v6yccuhk42","5b134a12bd9c31000156d4e2","feedback","","","<div class=""verylowPoints_sq""> -5 </div>","null","","na","test","","","NaN","","","","","","","","2","","75","","","","","","2",""
"765.4299999994691","205794","SARL_v6","SARL_v6yccuhk42","5b134a12bd9c31000156d4e2","freq","","","img/orange_2bandit_b2.png","70","","70","test","1","","44","","","","circle","square","42","1","3","0.9285714285714286","","","","","","","",""
"null","205853","SARL_v6","SARL_v6yccuhk42","5b134a12bd9c31000156d4e2","freq_resp","","","img/orange_2bandit_b.png","70","img/orange_2bandit_b.png","70","test","","","","","","","","","","","3","","","","","","","","",""
"null","206016","SARL_v6","SARL_v6yccuhk42","5b134a12bd9c31000156d4e2","fixation","","","img/fixation.png","null","","","test","","","","","","","","","","","","","","","","","","","",""
"492.3750000016298","206529","SARL_v6","SARL_v6yccuhk42","5b134a12bd9c31000156d4e2","freq","","","img/orange_2bandit_b2.png","70","","70","test","1","","45","","","","circle","square","43","2","3","0.9302325581395349","","","","","","","",""
"null","206859","SARL_v6","SARL_v6yccuhk42","5b134a12bd9c31000156d4e2","freq_resp","","","img/orange_2bandit_b.png","70","img/orange_2bandit_b.png","70","test","","","","","","","","","","","3","","","","","","","","",""
"null","207020","SARL_v6","SARL_v6yccuhk42","5b134a12bd9c31000156d4e2","fixation","","","img/fixation.png","null","","","test","","","","","","","","","","","","","","","","","","","",""
"null","207835","SARL_v6","SARL_v6yccuhk42","5b134a12bd9c31000156d4e2","freq","","","img/orange_2bandit_b2.png","null","","70","test","0","","46","","","","circle","square","44","3","3","0.9090909090909091","","","","","","","",""
"null","208002","SARL_v6","SARL_v6yccuhk42","5b134a12bd9c31000156d4e2","fixation","","","img/fixation.png","null","","","test","","","","","","","","","","","","","","","","","","","",""
"null","208824","SARL_v6","SARL_v6yccuhk42","5b134a12bd9c31000156d4e2","freq","","","img/orange_2bandit_b2.png","null","","70","test","0","","47","","","","circle","square","45","4","3","0.8888888888888888","","","","","","","",""
"null","208990","SARL_v6","SARL_v6yccuhk42","5b134a12bd9c31000156d4e2","fixation","","","img/fixation.png","null","","","test","","","","","","","","","","","","","","","","","","","",""
"508.1599999975879","209520","SARL_v6","SARL_v6yccuhk42","5b134a12bd9c31000156d4e2","freq","","","img/orange_2bandit_b2.png","70","","70","test","1","","48","","","","circle","square","46","5","3","0.8913043478260869","","","","","","","",""
"null","209835","SARL_v6","SARL_v6yccuhk42","5b134a12bd9c31000156d4e2","freq_resp","","","img/orange_2bandit_b.png","70","img/orange_2bandit_b.png","70","test","","","","","","","","","","","3","","","","","","","","",""
"null","209995","SARL_v6","SARL_v6yccuhk42","5b134a12bd9c31000156d4e2","fixation","","","img/fixation.png","null","","","test","","","","","","","","","","","","","","","","","","","",""
"372.65499999921303","210381","SARL_v6","SARL_v6yccuhk42","5b134a12bd9c31000156d4e2","infreq","","","img/blue_2bandit_b2.png","68","","68","test","1","","49","","","","circle","square","47","6","3","0.8936170212765957","","","","","","","",""
"null","210832","SARL_v6","SARL_v6yccuhk42","5b134a12bd9c31000156d4e2","infreq_resp","","","img/blue_2bandit_b.png","68","img/blue_2bandit_b.png","68","test","","","","","","","","","","","3","","","","","","","","",""
"null","210996","SARL_v6","SARL_v6yccuhk42","5b134a12bd9c31000156d4e2","fixation","","","img/fixation.png","null","","","test","","","","","","","","","","","","","","","","","","","",""
"424.12500000500586","211438","SARL_v6","SARL_v6yccuhk42","5b134a12bd9c31000156d4e2","freq","","","img/orange_2bandit_b2.png","70","","70","test","1","","50","","","","circle","square","48","7","3","0.8958333333333334","","","","","","","",""
"null","211838","SARL_v6","SARL_v6yccuhk42","5b134a12bd9c31000156d4e2","freq_resp","","","img/orange_2bandit_b.png","70","img/orange_2bandit_b.png","70","test","","","","","","","","","","","3","","","","","","","","",""
"null","212001","SARL_v6","SARL_v6yccuhk42","5b134a12bd9c31000156d4e2","fixation","","","img/fixation.png","null","","","test","","","","","","","","","","","","","","","","","","","",""
"396.71000000089407","212416","SARL_v6","SARL_v6yccuhk42","5b134a12bd9c31000156d4e2","freq","","","img/orange_2bandit_b2.png","70","","70","test","1","","51","","","","circle","square","49","8","3","0.8979591836734694","","","","","","","",""
"null","212843","SARL_v6","SARL_v6yccuhk42","5b134a12bd9c31000156d4e2","freq_resp","","","img/orange_2bandit_b.png","70","img/orange_2bandit_b.png","70","test","","","","","","","","","","","3","","","","","","","","",""
"null","213007","SARL_v6","SARL_v6yccuhk42","5b134a12bd9c31000156d4e2","fixation","","","img/fixation.png","null","","","test","","","","","","","","","","","","","","","","","","","",""
"422.55499999737367","213452","SARL_v6","SARL_v6yccuhk42","5b134a12bd9c31000156d4e2","freq","","","img/orange_2bandit_b2.png","70","","70","test","1","","52","","","","circle","square","50","9","3","0.9","","","","","","","",""
"null","213860","SARL_v6","SARL_v6yccuhk42","5b134a12bd9c31000156d4e2","freq_resp","","","img/orange_2bandit_b.png","70","img/orange_2bandit_b.png","70","test","","","","","","","","","","","3","","","","","","","","",""
"null","214024","SARL_v6","SARL_v6yccuhk42","5b134a12bd9c31000156d4e2","fixation","","","img/fixation.png","null","","","test","","","","","","","","","","","","","","","","","","","",""
"409.8000000085449","214451","SARL_v6","SARL_v6yccuhk42","5b134a12bd9c31000156d4e2","freq","","","img/orange_2bandit_b2.png","70","","70","test","1","","53","","","","circle","square","51","10","3","0.9019607843137255","","","","","","","",""
"null","214862","SARL_v6","SARL_v6yccuhk42","5b134a12bd9c31000156d4e2","freq_resp","","","img/orange_2bandit_b.png","70","img/orange_2bandit_b.png","70","test","","","","","","","","","","","3","","","","","","","","",""
"null","215027","SARL_v6","SARL_v6yccuhk42","5b134a12bd9c31000156d4e2","fixation","","","img/fixation.png","null","","","test","","","","","","","","","","","","","","","","","","","",""
"387.2149999951944","215428","SARL_v6","SARL_v6yccuhk42","5b134a12bd9c31000156d4e2","freq","","","img/orange_2bandit_b2.png","70","","70","test","1","","54","","","","circle","square","52","11","3","0.9038461538461539","","","","","","","",""
"null","215849","SARL_v6","SARL_v6yccuhk42","5b134a12bd9c31000156d4e2","freq_resp","","","img/orange_2bandit_b.png","70","img/orange_2bandit_b.png","70","test","","","","","","","","","","","3","","","","","","","","",""
"null","216007","SARL_v6","SARL_v6yccuhk42","5b134a12bd9c31000156d4e2","fixation","","","img/fixation.png","null","","","test","","","","","","","","","","","","","","","","","","","",""
"378.130000011879","216393","SARL_v6","SARL_v6yccuhk42","5b134a12bd9c31000156d4e2","freq","","","img/orange_2bandit_b2.png","70","","70","test","1","","55","","","","circle","square","53","12","3","0.9056603773584906","","","","","","","",""
"null","217045","SARL_v6","SARL_v6yccuhk42","5b134a12bd9c31000156d4e2","freq_resp","","","img/orange_2bandit_b.png","70","img/orange_2bandit_b.png","70","test","","","","","","","","","","","3","","","","","","","","",""
"null","217205","SARL_v6","SARL_v6yccuhk42","5b134a12bd9c31000156d4e2","fixation","","","img/fixation.png","null","","","test","","","","","","","","","","","","","","","","","","","",""
"619.3050000001676","217841","SARL_v6","SARL_v6yccuhk42","5b134a12bd9c31000156d4e2","freq","","","img/orange_2bandit_b2.png","70","","70","test","1","","56","","","","circle","square","54","13","3","0.9074074074074074","","","","","","","",""
"null","218039","SARL_v6","SARL_v6yccuhk42","5b134a12bd9c31000156d4e2","freq_resp","","","img/orange_2bandit_b.png","70","img/orange_2bandit_b.png","70","test","","","","","","","","","","","3","","","","","","","","",""
"null","218207","SARL_v6","SARL_v6yccuhk42","5b134a12bd9c31000156d4e2","fixation","","","img/fixation.png","null","","","test","","","","","","","","","","","","","","","","","","","",""
"438.3949999901233","218670","SARL_v6","SARL_v6yccuhk42","5b134a12bd9c31000156d4e2","freq","","","img/orange_2bandit_b2.png","70","","70","test","1","","57","","","","circle","square","55","14","3","0.9090909090909091","","","","","","","",""
"null","219050","SARL_v6","SARL_v6yccuhk42","5b134a12bd9c31000156d4e2","freq_resp","","","img/orange_2bandit_b.png","70","img/orange_2bandit_b.png","70","test","","","","","","","","","","","3","","","","","","","","",""
"null","219218","SARL_v6","SARL_v6yccuhk42","5b134a12bd9c31000156d4e2","fixation","","","img/fixation.png","null","","","test","","","","","","","","","","","","","","","","","","","",""
"386.8499999953201","219623","SARL_v6","SARL_v6yccuhk42","5b134a12bd9c31000156d4e2","freq","","","img/orange_2bandit_b2.png","70","","70","test","1","","58","","","","circle","square","56","15","3","0.9107142857142857","","","","","","","",""
"null","220054","SARL_v6","SARL_v6yccuhk42","5b134a12bd9c31000156d4e2","freq_resp","","","img/orange_2bandit_b.png","70","img/orange_2bandit_b.png","70","test","","","","","","","","","","","3","","","","","","","","",""
"null","220221","SARL_v6","SARL_v6yccuhk42","5b134a12bd9c31000156d4e2","fixation","","","img/fixation.png","null","","","test","","","","","","","","","","","","","","","","","","","",""
"370.6999999994878","220610","SARL_v6","SARL_v6yccuhk42","5b134a12bd9c31000156d4e2","freq","","","img/orange_2bandit_b2.png","70","","70","test","1","","59","","","","circle","square","57","16","3","0.9122807017543859","","","","","","","",""
"null","221058","SARL_v6","SARL_v6yccuhk42","5b134a12bd9c31000156d4e2","freq_resp","","","img/orange_2bandit_b.png","70","img/orange_2bandit_b.png","70","test","","","","","","","","","","","3","","","","","","","","",""
"null","221228","SARL_v6","SARL_v6yccuhk42","5b134a12bd9c31000156d4e2","fixation","","","img/fixation.png","null","","","test","","","","","","","","","","","","","","","","","","","",""
"325.85500000277534","221572","SARL_v6","SARL_v6yccuhk42","5b134a12bd9c31000156d4e2","freq","","","img/orange_2bandit_b2.png","70","","70","test","1","","60","","","","circle","square","58","17","3","0.9137931034482759","","","","","","","",""
"null","222064","SARL_v6","SARL_v6yccuhk42","5b134a12bd9c31000156d4e2","freq_resp","","","img/orange_2bandit_b.png","70","img/orange_2bandit_b.png","70","test","","","","","","","","","","","3","","","","","","","","",""
"null","222231","SARL_v6","SARL_v6yccuhk42","5b134a12bd9c31000156d4e2","fixation","","","img/fixation.png","null","","","test","","","","","","","","","","","","","","","","","","","",""
"333.4749999921769","222583","SARL_v6","SARL_v6yccuhk42","5b134a12bd9c31000156d4e2","freq","","","img/orange_2bandit_b2.png","70","","70","test","1","","61","","","","circle","square","59","18","3","0.9152542372881356","","","","","","","",""
"null","223068","SARL_v6","SARL_v6yccuhk42","5b134a12bd9c31000156d4e2","freq_resp","","","img/orange_2bandit_b.png","70","img/orange_2bandit_b.png","70","test","","","","","","","","","","","3","","","","","","","","",""
"null","223235","SARL_v6","SARL_v6yccuhk42","5b134a12bd9c31000156d4e2","fixation","","","img/fixation.png","null","","","test","","","","","","","","","","","","","","","","","","","",""
"355.3949999914039","223614","SARL_v6","SARL_v6yccuhk42","5b134a12bd9c31000156d4e2","freq","","","img/orange_2bandit_b2.png","70","","70","test","1","","62","","","","circle","square","60","19","3","0.9166666666666666","","","","","","","",""
"null","224082","SARL_v6","SARL_v6yccuhk42","5b134a12bd9c31000156d4e2","freq_resp","","","img/orange_2bandit_b.png","70","img/orange_2bandit_b.png","70","test","","","","","","","","","","","3","","","","","","","","",""
"null","224255","SARL_v6","SARL_v6yccuhk42","5b134a12bd9c31000156d4e2","fixation","","","img/fixation.png","null","","","test","","","","","","","","","","","","","","","","","","","",""
"537.5400000048103","224814","SARL_v6","SARL_v6yccuhk42","5b134a12bd9c31000156d4e2","infreq","","","img/blue_2bandit_b2.png","68","","68","test","1","","63","","","","circle","square","61","20","3","0.9180327868852459","","","","","","","",""
"null","225088","SARL_v6","SARL_v6yccuhk42","5b134a12bd9c31000156d4e2","infreq_resp","","","img/blue_2bandit_b.png","68","img/blue_2bandit_b.png","68","test","","","","","","","","","","","3","","","","","","","","",""
"null","225258","SARL_v6","SARL_v6yccuhk42","5b134a12bd9c31000156d4e2","fixation","","","img/fixation.png","null","","","test","","","","","","","","","","","","","","","","","","","",""
"479.07000000122935","225762","SARL_v6","SARL_v6yccuhk42","5b134a12bd9c31000156d4e2","freq","","","img/orange_2bandit_b2.png","70","","70","test","1","","64","","","","circle","square","62","21","3","0.9193548387096774","","","","","","","",""
"null","226098","SARL_v6","SARL_v6yccuhk42","5b134a12bd9c31000156d4e2","freq_resp","","","img/orange_2bandit_b.png","70","img/orange_2bandit_b.png","70","test","","","","","","","","","","","3","","","","","","","","",""
"null","226265","SARL_v6","SARL_v6yccuhk42","5b134a12bd9c31000156d4e2","fixation","","","img/fixation.png","null","","","test","","","","","","","","","","","","","","","","","","","",""
"378.23499999649357","226657","SARL_v6","SARL_v6yccuhk42","5b134a12bd9c31000156d4e2","freq","","","img/orange_2bandit_b2.png","70","","70","test","1","","65","","","","circle","square","63","22","3","0.9206349206349206","","","","","","","",""
"null","227094","SARL_v6","SARL_v6yccuhk42","5b134a12bd9c31000156d4e2","freq_resp","","","img/orange_2bandit_b.png","70","img/orange_2bandit_b.png","70","test","","","","","","","","","","","3","","","","","","","","",""
"null","227261","SARL_v6","SARL_v6yccuhk42","5b134a12bd9c31000156d4e2","fixation","","","img/fixation.png","null","","","test","","","","","","","","","","","","","","","","","","","",""
"579.6899999986636","227861","SARL_v6","SARL_v6yccuhk42","5b134a12bd9c31000156d4e2","rl","","","img/black_2bandit_b2.png","75","","0","test","","","66","","","-4","circle","square","","0","3","","75","-8","-4","-8","-4","square","3","0"
"null","228637","SARL_v6","SARL_v6yccuhk42","5b134a12bd9c31000156d4e2","feedback","","","<div class=""verylowPoints_sq""> -4 </div>","null","","na","test","","","NaN","","","","","","","","3","","75","","","","","","3",""
"761.4100000064354","229413","SARL_v6","SARL_v6yccuhk42","5b134a12bd9c31000156d4e2","freq","","","img/orange_2bandit_b2.png","70","","70","test","1","","67","","","","circle","square","64","1","4","0.921875","","","","","","","",""
"null","229471","SARL_v6","SARL_v6yccuhk42","5b134a12bd9c31000156d4e2","freq_resp","","","img/orange_2bandit_b.png","70","img/orange_2bandit_b.png","70","test","","","","","","","","","","","4","","","","","","","","",""
"null","229633","SARL_v6","SARL_v6yccuhk42","5b134a12bd9c31000156d4e2","fixation","","","img/fixation.png","null","","","test","","","","","","","","","","","","","","","","","","","",""
"511.63999999698717","230163","SARL_v6","SARL_v6yccuhk42","5b134a12bd9c31000156d4e2","freq","","","img/orange_2bandit_b2.png","70","","70","test","1","","68","","","","circle","square","65","2","4","0.9230769230769231","","","","","","","",""
"null","230469","SARL_v6","SARL_v6yccuhk42","5b134a12bd9c31000156d4e2","freq_resp","","","img/orange_2bandit_b.png","70","img/orange_2bandit_b.png","70","test","","","","","","","","","","","4","","","","","","","","",""
"null","230637","SARL_v6","SARL_v6yccuhk42","5b134a12bd9c31000156d4e2","fixation","","","img/fixation.png","null","","","test","","","","","","","","","","","","","","","","","","","",""
"545.5050000018673","231200","SARL_v6","SARL_v6yccuhk42","5b134a12bd9c31000156d4e2","freq","","","img/orange_2bandit_b2.png","70","","70","test","1","","69","","","","circle","square","66","3","4","0.9242424242424242","","","","","","","",""
"null","231474","SARL_v6","SARL_v6yccuhk42","5b134a12bd9c31000156d4e2","freq_resp","","","img/orange_2bandit_b.png","70","img/orange_2bandit_b.png","70","test","","","","","","","","","","","4","","","","","","","","",""
"null","231641","SARL_v6","SARL_v6yccuhk42","5b134a12bd9c31000156d4e2","fixation","","","img/fixation.png","null","","","test","","","","","","","","","","","","","","","","","","","",""
"444.78999999410007","232109","SARL_v6","SARL_v6yccuhk42","5b134a12bd9c31000156d4e2","freq","","","img/orange_2bandit_b2.png","70","","70","test","1","","70","","","","circle","square","67","4","4","0.9253731343283582","","","","","","","",""
"null","232489","SARL_v6","SARL_v6yccuhk42","5b134a12bd9c31000156d4e2","freq_resp","","","img/orange_2bandit_b.png","70","img/orange_2bandit_b.png","70","test","","","","","","","","","","","4","","","","","","","","",""
"null","232662","SARL_v6","SARL_v6yccuhk42","5b134a12bd9c31000156d4e2","fixation","","","img/fixation.png","null","","","test","","","","","","","","","","","","","","","","","","","",""
"378.69000001228414","233055","SARL_v6","SARL_v6yccuhk42","5b134a12bd9c31000156d4e2","freq","","","img/orange_2bandit_b2.png","70","","70","test","1","","71","","","","circle","square","68","5","4","0.9264705882352942","","","","","","","",""
"null","233498","SARL_v6","SARL_v6yccuhk42","5b134a12bd9c31000156d4e2","freq_resp","","","img/orange_2bandit_b.png","70","img/orange_2bandit_b.png","70","test","","","","","","","","","","","4","","","","","","","","",""
"null","233660","SARL_v6","SARL_v6yccuhk42","5b134a12bd9c31000156d4e2","fixation","","","img/fixation.png","null","","","test","","","","","","","","","","","","","","","","","","","",""
"381.5699999977369","234056","SARL_v6","SARL_v6yccuhk42","5b134a12bd9c31000156d4e2","freq","","","img/orange_2bandit_b2.png","70","","70","test","1","","72","","","","circle","square","69","6","4","0.927536231884058","","","","","","","",""
"null","234497","SARL_v6","SARL_v6yccuhk42","5b134a12bd9c31000156d4e2","freq_resp","","","img/orange_2bandit_b.png","70","img/orange_2bandit_b.png","70","test","","","","","","","","","","","4","","","","","","","","",""
"null","234670","SARL_v6","SARL_v6yccuhk42","5b134a12bd9c31000156d4e2","fixation","","","img/fixation.png","null","","","test","","","","","","","","","","","","","","","","","","","",""
"456.82000000670087","235142","SARL_v6","SARL_v6yccuhk42","5b134a12bd9c31000156d4e2","freq","","","img/orange_2bandit_b2.png","70","","70","test","1","","73","","","","circle","square","70","7","4","0.9285714285714286","","","","","","","",""
"null","235504","SARL_v6","SARL_v6yccuhk42","5b134a12bd9c31000156d4e2","freq_resp","","","img/orange_2bandit_b.png","70","img/orange_2bandit_b.png","70","test","","","","","","","","","","","4","","","","","","","","",""
"null","235671","SARL_v6","SARL_v6yccuhk42","5b134a12bd9c31000156d4e2","fixation","","","img/fixation.png","null","","","test","","","","","","","","","","","","","","","","","","","",""
"331.83999999891967","236026","SARL_v6","SARL_v6yccuhk42","5b134a12bd9c31000156d4e2","freq","","","img/orange_2bandit_b2.png","70","","70","test","1","","74","","","","circle","square","71","8","4","0.9295774647887324","","","","","","","",""
"null","236518","SARL_v6","SARL_v6yccuhk42","5b134a12bd9c31000156d4e2","freq_resp","","","img/orange_2bandit_b.png","70","img/orange_2bandit_b.png","70","test","","","","","","","","","","","4","","","","","","","","",""
"null","236685","SARL_v6","SARL_v6yccuhk42","5b134a12bd9c31000156d4e2","fixation","","","img/fixation.png","null","","","test","","","","","","","","","","","","","","","","","","","",""
"323.69499999913387","237027","SARL_v6","SARL_v6yccuhk42","5b134a12bd9c31000156d4e2","freq","","","img/orange_2bandit_b2.png","70","","70","test","1","","75","","","","circle","square","72","9","4","0.9305555555555556","","","","","","","",""
"null","237526","SARL_v6","SARL_v6yccuhk42","5b134a12bd9c31000156d4e2","freq_resp","","","img/orange_2bandit_b.png","70","img/orange_2bandit_b.png","70","test","","","","","","","","","","","4","","","","","","","","",""
"null","237698","SARL_v6","SARL_v6yccuhk42","5b134a12bd9c31000156d4e2","fixation","","","img/fixation.png","null","","","test","","","","","","","","","","","","","","","","","","","",""
"329.15000000502914","238038","SARL_v6","SARL_v6yccuhk42","5b134a12bd9c31000156d4e2","freq","","","img/orange_2bandit_b2.png","70","","70","test","1","","76","","","","circle","square","73","10","4","0.9315068493150684","","","","","","","",""
"null","238529","SARL_v6","SARL_v6yccuhk42","5b134a12bd9c31000156d4e2","freq_resp","","","img/orange_2bandit_b.png","70","img/orange_2bandit_b.png","70","test","","","","","","","","","","","4","","","","","","","","",""
"null","238688","SARL_v6","SARL_v6yccuhk42","5b134a12bd9c31000156d4e2","fixation","","","img/fixation.png","null","","","test","","","","","","","","","","","","","","","","","","","",""
"334.19000000867527","239042","SARL_v6","SARL_v6yccuhk42","5b134a12bd9c31000156d4e2","freq","","","img/orange_2bandit_b2.png","70","","70","test","1","","77","","","","circle","square","74","11","4","0.9324324324324325","","","","","","","",""
"null","239532","SARL_v6","SARL_v6yccuhk42","5b134a12bd9c31000156d4e2","freq_resp","","","img/orange_2bandit_b.png","70","img/orange_2bandit_b.png","70","test","","","","","","","","","","","4","","","","","","","","",""
"null","239695","SARL_v6","SARL_v6yccuhk42","5b134a12bd9c31000156d4e2","fixation","","","img/fixation.png","null","","","test","","","","","","","","","","","","","","","","","","","",""
"345.00000000116415","240051","SARL_v6","SARL_v6yccuhk42","5b134a12bd9c31000156d4e2","freq","","","img/orange_2bandit_b2.png","70","","70","test","1","","78","","","","circle","square","75","12","4","0.9333333333333333","","","","","","","",""
"null","240530","SARL_v6","SARL_v6yccuhk42","5b134a12bd9c31000156d4e2","freq_resp","","","img/orange_2bandit_b.png","70","img/orange_2bandit_b.png","70","test","","","","","","","","","","","4","","","","","","","","",""
"null","240702","SARL_v6","SARL_v6yccuhk42","5b134a12bd9c31000156d4e2","fixation","","","img/fixation.png","null","","","test","","","","","","","","","","","","","","","","","","","",""
"296.51000000012573","241021","SARL_v6","SARL_v6yccuhk42","5b134a12bd9c31000156d4e2","freq","","","img/orange_2bandit_b2.png","70","","70","test","1","","79","","","","circle","square","76","13","4","0.9342105263157895","","","","","","","",""
"null","241547","SARL_v6","SARL_v6yccuhk42","5b134a12bd9c31000156d4e2","freq_resp","","","img/orange_2bandit_b.png","70","img/orange_2bandit_b.png","70","test","","","","","","","","","","","4","","","","","","","","",""
"null","241709","SARL_v6","SARL_v6yccuhk42","5b134a12bd9c31000156d4e2","fixation","","","img/fixation.png","null","","","test","","","","","","","","","","","","","","","","","","","",""
"224.04999998980202","241946","SARL_v6","SARL_v6yccuhk42","5b134a12bd9c31000156d4e2","freq","","","img/orange_2bandit_b2.png","70","","70","test","1","","80","","","","circle","square","77","14","4","0.935064935064935","","","","","","","",""
"null","242544","SARL_v6","SARL_v6yccuhk42","5b134a12bd9c31000156d4e2","freq_resp","","","img/orange_2bandit_b.png","70","img/orange_2bandit_b.png","70","test","","","","","","","","","","","4","","","","","","","","",""
"null","242708","SARL_v6","SARL_v6yccuhk42","5b134a12bd9c31000156d4e2","fixation","","","img/fixation.png","null","","","test","","","","","","","","","","","","","","","","","","","",""
"261.72999999835156","242988","SARL_v6","SARL_v6yccuhk42","5b134a12bd9c31000156d4e2","freq","","","img/orange_2bandit_b2.png","70","","70","test","1","","81","","","","circle","square","78","15","4","0.9358974358974359","","","","","","","",""
"null","243549","SARL_v6","SARL_v6yccuhk42","5b134a12bd9c31000156d4e2","freq_resp","","","img/orange_2bandit_b.png","70","img/orange_2bandit_b.png","70","test","","","","","","","","","","","4","","","","","","","","",""
"null","243713","SARL_v6","SARL_v6yccuhk42","5b134a12bd9c31000156d4e2","fixation","","","img/fixation.png","null","","","test","","","","","","","","","","","","","","","","","","","",""
"196.41000000410713","243928","SARL_v6","SARL_v6yccuhk42","5b134a12bd9c31000156d4e2","infreq","","","img/blue_2bandit_b2.png","70","","68","test","0","","82","","","","circle","square","79","16","4","0.9240506329113924","","","","","","","",""
"null","244556","SARL_v6","SARL_v6yccuhk42","5b134a12bd9c31000156d4e2","infreq_resp","","","img/blue_2bandit_b.png","70","img/blue_2bandit_b.png","68","test","","","","","","","","","","","4","","","","","","","","",""
"null","244730","SARL_v6","SARL_v6yccuhk42","5b134a12bd9c31000156d4e2","fixation","","","img/fixation.png","null","","","test","","","","","","","","","","","","","","","","","","","",""
"475.9899999917252","245221","SARL_v6","SARL_v6yccuhk42","5b134a12bd9c31000156d4e2","freq","","","img/orange_2bandit_b2.png","70","","70","test","1","","83","","","","circle","square","80","17","4","0.925","","","","","","","",""
"null","245568","SARL_v6","SARL_v6yccuhk42","5b134a12bd9c31000156d4e2","freq_resp","","","img/orange_2bandit_b.png","70","img/orange_2bandit_b.png","70","test","","","","","","","","","","","4","","","","","","","","",""
"null","245727","SARL_v6","SARL_v6yccuhk42","5b134a12bd9c31000156d4e2","fixation","","","img/fixation.png","null","","","test","","","","","","","","","","","","","","","","","","","",""
"494.29000000236556","246242","SARL_v6","SARL_v6yccuhk42","5b134a12bd9c31000156d4e2","infreq","","","img/blue_2bandit_b2.png","68","","68","test","1","","84","","","","circle","square","81","18","4","0.9259259259259259","","","","","","","",""
"null","246573","SARL_v6","SARL_v6yccuhk42","5b134a12bd9c31000156d4e2","infreq_resp","","","img/blue_2bandit_b.png","68","img/blue_2bandit_b.png","68","test","","","","","","","","","","","4","","","","","","","","",""
"null","246742","SARL_v6","SARL_v6yccuhk42","5b134a12bd9c31000156d4e2","fixation","","","img/fixation.png","null","","","test","","","","","","","","","","","","","","","","","","","",""
"428.84000000776723","247188","SARL_v6","SARL_v6yccuhk42","5b134a12bd9c31000156d4e2","freq","","","img/orange_2bandit_b2.png","70","","70","test","1","","85","","","","circle","square","82","19","4","0.926829268292683","","","","","","","",""
"null","247574","SARL_v6","SARL_v6yccuhk42","5b134a12bd9c31000156d4e2","freq_resp","","","img/orange_2bandit_b.png","70","img/orange_2bandit_b.png","70","test","","","","","","","","","","","4","","","","","","","","",""
"null","247745","SARL_v6","SARL_v6yccuhk42","5b134a12bd9c31000156d4e2","fixation","","","img/fixation.png","null","","","test","","","","","","","","","","","","","","","","","","","",""
"357.47499999706633","248122","SARL_v6","SARL_v6yccuhk42","5b134a12bd9c31000156d4e2","freq","","","img/orange_2bandit_b2.png","70","","70","test","1","","86","","","","circle","square","83","20","4","0.927710843373494","","","","","","","",""
"null","248584","SARL_v6","SARL_v6yccuhk42","5b134a12bd9c31000156d4e2","freq_resp","","","img/orange_2bandit_b.png","70","img/orange_2bandit_b.png","70","test","","","","","","","","","","","4","","","","","","","","",""
"null","248753","SARL_v6","SARL_v6yccuhk42","5b134a12bd9c31000156d4e2","fixation","","","img/fixation.png","null","","","test","","","","","","","","","","","","","","","","","","","",""
"491.5599999949336","249272","SARL_v6","SARL_v6yccuhk42","5b134a12bd9c31000156d4e2","freq","","","img/orange_2bandit_b2.png","70","","70","test","1","","87","","","","circle","square","84","21","4","0.9285714285714286","","","","","","","",""
"null","249604","SARL_v6","SARL_v6yccuhk42","5b134a12bd9c31000156d4e2","freq_resp","","","img/orange_2bandit_b.png","70","img/orange_2bandit_b.png","70","test","","","","","","","","","","","4","","","","","","","","",""
"null","249775","SARL_v6","SARL_v6yccuhk42","5b134a12bd9c31000156d4e2","fixation","","","img/fixation.png","null","","","test","","","","","","","","","","","","","","","","","","","",""
"null","251298","SARL_v6","SARL_v6yccuhk42","5b134a12bd9c31000156d4e2","rl","","","img/black_2bandit_b2.png","null","","0","test","","","88","","","0","circle","square","","0","4","","null","-12","0","-12","0","too slow","4","0"
"null","252073","SARL_v6","SARL_v6yccuhk42","5b134a12bd9c31000156d4e2","feedback","","","<div font size = 80> TOO SLOW  </div>","null","","na","test","","","NaN","","","","","","","","4","","null","","","","","","4",""
"null","252895","SARL_v6","SARL_v6yccuhk42","5b134a12bd9c31000156d4e2","freq","","","img/orange_2bandit_b2.png","null","","70","test","0","","89","","","","circle","square","85","1","5","0.9176470588235294","","","","","","","",""
"null","253058","SARL_v6","SARL_v6yccuhk42","5b134a12bd9c31000156d4e2","fixation","","","img/fixation.png","null","","","test","","","","","","","","","","","","","","","","","","","",""
"526.2899999943329","253608","SARL_v6","SARL_v6yccuhk42","5b134a12bd9c31000156d4e2","freq","","","img/orange_2bandit_b2.png","70","","70","test","1","","90","","","","circle","square","86","2","5","0.9186046511627907","","","","","","","",""
"null","253895","SARL_v6","SARL_v6yccuhk42","5b134a12bd9c31000156d4e2","freq_resp","","","img/orange_2bandit_b.png","70","img/orange_2bandit_b.png","70","test","","","","","","","","","","","5","","","","","","","","",""
"null","254062","SARL_v6","SARL_v6yccuhk42","5b134a12bd9c31000156d4e2","fixation","","","img/fixation.png","null","","","test","","","","","","","","","","","","","","","","","","","",""
"463.85499999450985","254550","SARL_v6","SARL_v6yccuhk42","5b134a12bd9c31000156d4e2","freq","","","img/orange_2bandit_b2.png","70","","70","test","1","","91","","","","circle","square","87","3","5","0.9195402298850575","","","","","","","",""
"null","254910","SARL_v6","SARL_v6yccuhk42","5b134a12bd9c31000156d4e2","freq_resp","","","img/orange_2bandit_b.png","70","img/orange_2bandit_b.png","70","test","","","","","","","","","","","5","","","","","","","","",""
"null","255083","SARL_v6","SARL_v6yccuhk42","5b134a12bd9c31000156d4e2","fixation","","","img/fixation.png","null","","","test","","","","","","","","","","","","","","","","","","","",""
"356.54999999678694","255462","SARL_v6","SARL_v6yccuhk42","5b134a12bd9c31000156d4e2","freq","","","img/orange_2bandit_b2.png","70","","70","test","1","","92","","","","circle","square","88","4","5","0.9204545454545454","","","","","","","",""
"null","255930","SARL_v6","SARL_v6yccuhk42","5b134a12bd9c31000156d4e2","freq_resp","","","img/orange_2bandit_b.png","70","img/orange_2bandit_b.png","70","test","","","","","","","","","","","5","","","","","","","","",""
"null","256089","SARL_v6","SARL_v6yccuhk42","5b134a12bd9c31000156d4e2","fixation","","","img/fixation.png","null","","","test","","","","","","","","","","","","","","","","","","","",""
"406.4349999971455","256516","SARL_v6","SARL_v6yccuhk42","5b134a12bd9c31000156d4e2","freq","","","img/orange_2bandit_b2.png","70","","70","test","1","","93","","","","circle","square","89","5","5","0.9213483146067416","","","","","","","",""
"null","256934","SARL_v6","SARL_v6yccuhk42","5b134a12bd9c31000156d4e2","freq_resp","","","img/orange_2bandit_b.png","70","img/orange_2bandit_b.png","70","test","","","","","","","","","","","5","","","","","","","","",""
"null","257107","SARL_v6","SARL_v6yccuhk42","5b134a12bd9c31000156d4e2","fixation","","","img/fixation.png","null","","","test","","","","","","","","","","","","","","","","","","","",""
"573.8999999884982","257706","SARL_v6","SARL_v6yccuhk42","5b134a12bd9c31000156d4e2","infreq","","","img/blue_2bandit_b2.png","68","","68","test","1","","94","","","","circle","square","90","6","5","0.9222222222222223","","","","","","","",""
"null","257947","SARL_v6","SARL_v6yccuhk42","5b134a12bd9c31000156d4e2","infreq_resp","","","img/blue_2bandit_b.png","68","img/blue_2bandit_b.png","68","test","","","","","","","","","","","5","","","","","","","","",""
"null","258114","SARL_v6","SARL_v6yccuhk42","5b134a12bd9c31000156d4e2","fixation","","","img/fixation.png","null","","","test","","","","","","","","","","","","","","","","","","","",""
"453.77999999618623","258591","SARL_v6","SARL_v6yccuhk42","5b134a12bd9c31000156d4e2","freq","","","img/orange_2bandit_b2.png","70","","70","test","1","","95","","","","circle","square","91","7","5","0.9230769230769231","","","","","","","",""
"null","258968","SARL_v6","SARL_v6yccuhk42","5b134a12bd9c31000156d4e2","freq_resp","","","img/orange_2bandit_b.png","70","img/orange_2bandit_b.png","70","test","","","","","","","","","","","5","","","","","","","","",""
"null","259132","SARL_v6","SARL_v6yccuhk42","5b134a12bd9c31000156d4e2","fixation","","","img/fixation.png","null","","","test","","","","","","","","","","","","","","","","","","","",""
"509.8850000067614","259668","SARL_v6","SARL_v6yccuhk42","5b134a12bd9c31000156d4e2","freq","","","img/orange_2bandit_b2.png","70","","70","test","1","","96","","","","circle","square","92","8","5","0.9239130434782609","","","","","","","",""
"null","259978","SARL_v6","SARL_v6yccuhk42","5b134a12bd9c31000156d4e2","freq_resp","","","img/orange_2bandit_b.png","70","img/orange_2bandit_b.png","70","test","","","","","","","","","","","5","","","","","","","","",""
"null","260145","SARL_v6","SARL_v6yccuhk42","5b134a12bd9c31000156d4e2","fixation","","","img/fixation.png","null","","","test","","","","","","","","","","","","","","","","","","","",""
"448.13999999314547","260615","SARL_v6","SARL_v6yccuhk42","5b134a12bd9c31000156d4e2","freq","","","img/orange_2bandit_b2.png","70","","70","test","1","","97","","","","circle","square","93","9","5","0.9247311827956989","","","","","","","",""
"null","260990","SARL_v6","SARL_v6yccuhk42","5b134a12bd9c31000156d4e2","freq_resp","","","img/orange_2bandit_b.png","70","img/orange_2bandit_b.png","70","test","","","","","","","","","","","5","","","","","","","","",""
"null","261163","SARL_v6","SARL_v6yccuhk42","5b134a12bd9c31000156d4e2","fixation","","","img/fixation.png","null","","","test","","","","","","","","","","","","","","","","","","","",""
"448.7449999869568","261635","SARL_v6","SARL_v6yccuhk42","5b134a12bd9c31000156d4e2","freq","","","img/orange_2bandit_b2.png","70","","70","test","1","","98","","","","circle","square","94","10","5","0.925531914893617","","","","","","","",""
"null","262006","SARL_v6","SARL_v6yccuhk42","5b134a12bd9c31000156d4e2","freq_resp","","","img/orange_2bandit_b.png","70","img/orange_2bandit_b.png","70","test","","","","","","","","","","","5","","","","","","","","",""
"null","262179","SARL_v6","SARL_v6yccuhk42","5b134a12bd9c31000156d4e2","fixation","","","img/fixation.png","null","","","test","","","","","","","","","","","","","","","","","","","",""
"419.2850000108592","262625","SARL_v6","SARL_v6yccuhk42","5b134a12bd9c31000156d4e2","freq","","","img/orange_2bandit_b2.png","70","","70","test","1","","99","","","","circle","square","95","11","5","0.9263157894736842","","","","","","","",""
"null","263025","SARL_v6","SARL_v6yccuhk42","5b134a12bd9c31000156d4e2","freq_resp","","","img/orange_2bandit_b.png","70","img/orange_2bandit_b.png","70","test","","","","","","","","","","","5","","","","","","","","",""
"null","263194","SARL_v6","SARL_v6yccuhk42","5b134a12bd9c31000156d4e2","fixation","","","img/fixation.png","null","","","test","","","","","","","","","","","","","","","","","","","",""
"425.1650000078371","263638","SARL_v6","SARL_v6yccuhk42","5b134a12bd9c31000156d4e2","freq","","","img/orange_2bandit_b2.png","70","","70","test","1","","100","","","","circle","square","96","12","5","0.9270833333333334","","","","","","","",""
"null","264031","SARL_v6","SARL_v6yccuhk42","5b134a12bd9c31000156d4e2","freq_resp","","","img/orange_2bandit_b.png","70","img/orange_2bandit_b.png","70","test","","","","","","","","","","","5","","","","","","","","",""
"null","264198","SARL_v6","SARL_v6yccuhk42","5b134a12bd9c31000156d4e2","fixation","","","img/fixation.png","null","","","test","","","","","","","","","","","","","","","","","","","",""
"332.85500000056345","264550","SARL_v6","SARL_v6yccuhk42","5b134a12bd9c31000156d4e2","freq","","","img/orange_2bandit_b2.png","70","","70","test","1","","101","","","","circle","square","97","13","5","0.9278350515463918","","","","","","","",""
"null","265041","SARL_v6","SARL_v6yccuhk42","5b134a12bd9c31000156d4e2","freq_resp","","","img/orange_2bandit_b.png","70","img/orange_2bandit_b.png","70","test","","","","","","","","","","","5","","","","","","","","",""
"null","265213","SARL_v6","SARL_v6yccuhk42","5b134a12bd9c31000156d4e2","fixation","","","img/fixation.png","null","","","test","","","","","","","","","","","","","","","","","","","",""
"419.21500000171363","265648","SARL_v6","SARL_v6yccuhk42","5b134a12bd9c31000156d4e2","freq","","","img/orange_2bandit_b2.png","70","","70","test","1","","102","","","","circle","square","98","14","5","0.9285714285714286","","","","","","","",""
"null","266045","SARL_v6","SARL_v6yccuhk42","5b134a12bd9c31000156d4e2","freq_resp","","","img/orange_2bandit_b.png","70","img/orange_2bandit_b.png","70","test","","","","","","","","","","","5","","","","","","","","",""
"null","266213","SARL_v6","SARL_v6yccuhk42","5b134a12bd9c31000156d4e2","fixation","","","img/fixation.png","null","","","test","","","","","","","","","","","","","","","","","","","",""
"522.4749999906635","266758","SARL_v6","SARL_v6yccuhk42","5b134a12bd9c31000156d4e2","infreq","","","img/blue_2bandit_b2.png","68","","68","test","1","","103","","","","circle","square","99","15","5","0.9292929292929293","","","","","","","",""
"null","267053","SARL_v6","SARL_v6yccuhk42","5b134a12bd9c31000156d4e2","infreq_resp","","","img/blue_2bandit_b.png","68","img/blue_2bandit_b.png","68","test","","","","","","","","","","","5","","","","","","","","",""
"null","267220","SARL_v6","SARL_v6yccuhk42","5b134a12bd9c31000156d4e2","fixation","","","img/fixation.png","null","","","test","","","","","","","","","","","","","","","","","","","",""
"486.0550000012154","267730","SARL_v6","SARL_v6yccuhk42","5b134a12bd9c31000156d4e2","freq","","","img/orange_2bandit_b2.png","70","","70","test","1","","104","","","","circle","square","100","16","5","0.93","","","","","","","",""
"null","268062","SARL_v6","SARL_v6yccuhk42","5b134a12bd9c31000156d4e2","freq_resp","","","img/orange_2bandit_b.png","70","img/orange_2bandit_b.png","70","test","","","","","","","","","","","5","","","","","","","","",""
"null","268229","SARL_v6","SARL_v6yccuhk42","5b134a12bd9c31000156d4e2","fixation","","","img/fixation.png","null","","","test","","","","","","","","","","","","","","","","","","","",""
"659.4899999909103","268911","SARL_v6","SARL_v6yccuhk42","5b134a12bd9c31000156d4e2","freq","","","img/orange_2bandit_b2.png","70","","70","test","1","","105","","","","circle","square","101","17","5","0.9306930693069307","","","","","","","",""
"null","269063","SARL_v6","SARL_v6yccuhk42","5b134a12bd9c31000156d4e2","freq_resp","","","img/orange_2bandit_b.png","70","img/orange_2bandit_b.png","70","test","","","","","","","","","","","5","","","","","","","","",""
"null","269222","SARL_v6","SARL_v6yccuhk42","5b134a12bd9c31000156d4e2","fixation","","","img/fixation.png","null","","","test","","","","","","","","","","","","","","","","","","","",""
"429.374999992433","269667","SARL_v6","SARL_v6yccuhk42","5b134a12bd9c31000156d4e2","freq","","","img/orange_2bandit_b2.png","70","","70","test","1","","106","","","","circle","square","102","18","5","0.9313725490196079","","","","","","","",""
"null","270055","SARL_v6","SARL_v6yccuhk42","5b134a12bd9c31000156d4e2","freq_resp","","","img/orange_2bandit_b.png","70","img/orange_2bandit_b.png","70","test","","","","","","","","","","","5","","","","","","","","",""
"null","270222","SARL_v6","SARL_v6yccuhk42","5b134a12bd9c31000156d4e2","fixation","","","img/fixation.png","null","","","test","","","","","","","","","","","","","","","","","","","",""
"375.0399999989895","270615","SARL_v6","SARL_v6yccuhk42","5b134a12bd9c31000156d4e2","freq","","","img/orange_2bandit_b2.png","70","","70","test","1","","107","","","","circle","square","103","19","5","0.9320388349514563","","","","","","","",""
"null","271057","SARL_v6","SARL_v6yccuhk42","5b134a12bd9c31000156d4e2","freq_resp","","","img/orange_2bandit_b.png","70","img/orange_2bandit_b.png","70","test","","","","","","","","","","","5","","","","","","","","",""
"null","271224","SARL_v6","SARL_v6yccuhk42","5b134a12bd9c31000156d4e2","fixation","","","img/fixation.png","null","","","test","","","","","","","","","","","","","","","","","","","",""
"null","272049","SARL_v6","SARL_v6yccuhk42","5b134a12bd9c31000156d4e2","freq","","","img/orange_2bandit_b2.png","null","","70","test","0","","108","","","","circle","square","104","20","5","0.9230769230769231","","","","","","","",""
"null","272210","SARL_v6","SARL_v6yccuhk42","5b134a12bd9c31000156d4e2","fixation","","","img/fixation.png","null","","","test","","","","","","","","","","","","","","","","","","","",""
"627.4599999887869","272859","SARL_v6","SARL_v6yccuhk42","5b134a12bd9c31000156d4e2","rl","","","img/black_2bandit_b2.png","74","","0","test","","","109","","","-7","circle","square","","0","5","","74","-7","4","-7","4","circle","5","0"
"null","273636","SARL_v6","SARL_v6yccuhk42","5b134a12bd9c31000156d4e2","feedback","","","<div class=""verylowPoints""> -7 </div>","null","","na","test","","","NaN","","","","","","","","5","","74","","","","","","5",""
"608.2150000002002","274269","SARL_v6","SARL_v6yccuhk42","5b134a12bd9c31000156d4e2","freq","","","img/orange_2bandit_b2.png","70","","70","test","1","","110","","","","circle","square","105","1","6","0.9238095238095239","","","","","","","",""
"null","274470","SARL_v6","SARL_v6yccuhk42","5b134a12bd9c31000156d4e2","freq_resp","","","img/orange_2bandit_b.png","70","img/orange_2bandit_b.png","70","test","","","","","","","","","","","6","","","","","","","","",""
"null","274643","SARL_v6","SARL_v6yccuhk42","5b134a12bd9c31000156d4e2","fixation","","","img/fixation.png","null","","","test","","","","","","","","","","","","","","","","","","","",""
"518.3649999962654","275186","SARL_v6","SARL_v6yccuhk42","5b134a12bd9c31000156d4e2","infreq","","","img/blue_2bandit_b2.png","68","","68","test","1","","111","","","","circle","square","106","2","6","0.9245283018867925","","","","","","","",""
"null","275491","SARL_v6","SARL_v6yccuhk42","5b134a12bd9c31000156d4e2","infreq_resp","","","img/blue_2bandit_b.png","68","img/blue_2bandit_b.png","68","test","","","","","","","","","","","6","","","","","","","","",""
"null","275666","SARL_v6","SARL_v6yccuhk42","5b134a12bd9c31000156d4e2","fixation","","","img/fixation.png","null","","","test","","","","","","","","","","","","","","","","","","","",""
"424.3900000001304","276104","SARL_v6","SARL_v6yccuhk42","5b134a12bd9c31000156d4e2","freq","","","img/orange_2bandit_b2.png","70","","70","test","1","","112","","","","circle","square","107","3","6","0.9252336448598131","","","","","","","",""
"null","276504","SARL_v6","SARL_v6yccuhk42","5b134a12bd9c31000156d4e2","freq_resp","","","img/orange_2bandit_b.png","70","img/orange_2bandit_b.png","70","test","","","","","","","","","","","6","","","","","","","","",""
"null","276678","SARL_v6","SARL_v6yccuhk42","5b134a12bd9c31000156d4e2","fixation","","","img/fixation.png","null","","","test","","","","","","","","","","","","","","","","","","","",""
"569.0850000100909","277272","SARL_v6","SARL_v6yccuhk42","5b134a12bd9c31000156d4e2","freq","","","img/orange_2bandit_b2.png","70","","70","test","1","","113","","","","circle","square","108","4","6","0.9259259259259259","","","","","","","",""
"null","277528","SARL_v6","SARL_v6yccuhk42","5b134a12bd9c31000156d4e2","freq_resp","","","img/orange_2bandit_b.png","70","img/orange_2bandit_b.png","70","test","","","","","","","","","","","6","","","","","","","","",""
"null","277701","SARL_v6","SARL_v6yccuhk42","5b134a12bd9c31000156d4e2","fixation","","","img/fixation.png","null","","","test","","","","","","","","","","","","","","","","","","","",""
"404.13499998976476","278130","SARL_v6","SARL_v6yccuhk42","5b134a12bd9c31000156d4e2","freq","","","img/orange_2bandit_b2.png","70","","70","test","1","","114","","","","circle","square","109","5","6","0.926605504587156","","","","","","","",""
"null","278549","SARL_v6","SARL_v6yccuhk42","5b134a12bd9c31000156d4e2","freq_resp","","","img/orange_2bandit_b.png","70","img/orange_2bandit_b.png","70","test","","","","","","","","","","","6","","","","","","","","",""
"null","278708","SARL_v6","SARL_v6yccuhk42","5b134a12bd9c31000156d4e2","fixation","","","img/fixation.png","null","","","test","","","","","","","","","","","","","","","","","","","",""
"398.29500000632834","279123","SARL_v6","SARL_v6yccuhk42","5b134a12bd9c31000156d4e2","freq","","","img/orange_2bandit_b2.png","70","","70","test","1","","115","","","","circle","square","110","6","6","0.9272727272727272","","","","","","","",""
"null","279551","SARL_v6","SARL_v6yccuhk42","5b134a12bd9c31000156d4e2","freq_resp","","","img/orange_2bandit_b.png","70","img/orange_2bandit_b.png","70","test","","","","","","","","","","","6","","","","","","","","",""
"null","279715","SARL_v6","SARL_v6yccuhk42","5b134a12bd9c31000156d4e2","fixation","","","img/fixation.png","null","","","test","","","","","","","","","","","","","","","","","","","",""
"351.53499999432825","280081","SARL_v6","SARL_v6yccuhk42","5b134a12bd9c31000156d4e2","freq","","","img/orange_2bandit_b2.png","70","","70","test","1","","116","","","","circle","square","111","7","6","0.9279279279279279","","","","","","","",""
"null","280552","SARL_v6","SARL_v6yccuhk42","5b134a12bd9c31000156d4e2","freq_resp","","","img/orange_2bandit_b.png","70","img/orange_2bandit_b.png","70","test","","","","","","","","","","","6","","","","","","","","",""
"null","280715","SARL_v6","SARL_v6yccuhk42","5b134a12bd9c31000156d4e2","fixation","","","img/fixation.png","null","","","test","","","","","","","","","","","","","","","","","","","",""
"406.5999999875203","281144","SARL_v6","SARL_v6yccuhk42","5b134a12bd9c31000156d4e2","freq","","","img/orange_2bandit_b2.png","70","","70","test","1","","117","","","","circle","square","112","8","6","0.9285714285714286","","","","","","","",""
"null","281561","SARL_v6","SARL_v6yccuhk42","5b134a12bd9c31000156d4e2","freq_resp","","","img/orange_2bandit_b.png","70","img/orange_2bandit_b.png","70","test","","","","","","","","","","","6","","","","","","","","",""
"null","281722","SARL_v6","SARL_v6yccuhk42","5b134a12bd9c31000156d4e2","fixation","","","img/fixation.png","null","","","test","","","","","","","","","","","","","","","","","","","",""
"358.5000000020955","282101","SARL_v6","SARL_v6yccuhk42","5b134a12bd9c31000156d4e2","freq","","","img/orange_2bandit_b2.png","70","","70","test","1","","118","","","","circle","square","113","9","6","0.9292035398230089","","","","","","","",""
"null","282565","SARL_v6","SARL_v6yccuhk42","5b134a12bd9c31000156d4e2","freq_resp","","","img/orange_2bandit_b.png","70","img/orange_2bandit_b.png","70","test","","","","","","","","","","","6","","","","","","","","",""
"null","282730","SARL_v6","SARL_v6yccuhk42","5b134a12bd9c31000156d4e2","fixation","","","img/fixation.png","null","","","test","","","","","","","","","","","","","","","","","","","",""
"392.6050000009127","283138","SARL_v6","SARL_v6yccuhk42","5b134a12bd9c31000156d4e2","freq","","","img/orange_2bandit_b2.png","70","","70","test","1","","119","","","","circle","square","114","10","6","0.9298245614035088","","","","","","","",""
"null","283563","SARL_v6","SARL_v6yccuhk42","5b134a12bd9c31000156d4e2","freq_resp","","","img/orange_2bandit_b.png","70","img/orange_2bandit_b.png","70","test","","","","","","","","","","","6","","","","","","","","",""
"null","283731","SARL_v6","SARL_v6yccuhk42","5b134a12bd9c31000156d4e2","fixation","","","img/fixation.png","null","","","test","","","","","","","","","","","","","","","","","","","",""
"396.2700000120094","284145","SARL_v6","SARL_v6yccuhk42","5b134a12bd9c31000156d4e2","freq","","","img/orange_2bandit_b2.png","70","","70","test","1","","120","","","","circle","square","115","11","6","0.9304347826086956","","","","","","","",""
"null","284570","SARL_v6","SARL_v6yccuhk42","5b134a12bd9c31000156d4e2","freq_resp","","","img/orange_2bandit_b.png","70","img/orange_2bandit_b.png","70","test","","","","","","","","","","","6","","","","","","","","",""
"null","284734","SARL_v6","SARL_v6yccuhk42","5b134a12bd9c31000156d4e2","fixation","","","img/fixation.png","null","","","test","","","","","","","","","","","","","","","","","","","",""
"383.5350000008475","285135","SARL_v6","SARL_v6yccuhk42","5b134a12bd9c31000156d4e2","freq","","","img/orange_2bandit_b2.png","70","","70","test","1","","121","","","","circle","square","116","12","6","0.9310344827586207","","","","","","","",""
"null","285574","SARL_v6","SARL_v6yccuhk42","5b134a12bd9c31000156d4e2","freq_resp","","","img/orange_2bandit_b.png","70","img/orange_2bandit_b.png","70","test","","","","","","","","","","","6","","","","","","","","",""
"null","285746","SARL_v6","SARL_v6yccuhk42","5b134a12bd9c31000156d4e2","fixation","","","img/fixation.png","null","","","test","","","","","","","","","","","","","","","","","","","",""
"532.1350000012899","286303","SARL_v6","SARL_v6yccuhk42","5b134a12bd9c31000156d4e2","freq","","","img/orange_2bandit_b2.png","70","","70","test","1","","122","","","","circle","square","117","13","6","0.9316239316239316","","","","","","","",""
"null","286593","SARL_v6","SARL_v6yccuhk42","5b134a12bd9c31000156d4e2","freq_resp","","","img/orange_2bandit_b.png","70","img/orange_2bandit_b.png","70","test","","","","","","","","","","","6","","","","","","","","",""
"null","286757","SARL_v6","SARL_v6yccuhk42","5b134a12bd9c31000156d4e2","fixation","","","img/fixation.png","null","","","test","","","","","","","","","","","","","","","","","","","",""
"392.78000000922475","287171","SARL_v6","SARL_v6yccuhk42","5b134a12bd9c31000156d4e2","freq","","","img/orange_2bandit_b2.png","70","","70","test","1","","123","","","","circle","square","118","14","6","0.9322033898305084","","","","","","","",""
"null","287602","SARL_v6","SARL_v6yccuhk42","5b134a12bd9c31000156d4e2","freq_resp","","","img/orange_2bandit_b.png","70","img/orange_2bandit_b.png","70","test","","","","","","","","","","","6","","","","","","","","",""
"null","287765","SARL_v6","SARL_v6yccuhk42","5b134a12bd9c31000156d4e2","fixation","","","img/fixation.png","null","","","test","","","","","","","","","","","","","","","","","","","",""
"413.27999999339227","288195","SARL_v6","SARL_v6yccuhk42","5b134a12bd9c31000156d4e2","freq","","","img/orange_2bandit_b2.png","70","","70","test","1","","124","","","","circle","square","119","15","6","0.9327731092436975","","","","","","","",""
"null","288600","SARL_v6","SARL_v6yccuhk42","5b134a12bd9c31000156d4e2","freq_resp","","","img/orange_2bandit_b.png","70","img/orange_2bandit_b.png","70","test","","","","","","","","","","","6","","","","","","","","",""
"null","288767","SARL_v6","SARL_v6yccuhk42","5b134a12bd9c31000156d4e2","fixation","","","img/fixation.png","null","","","test","","","","","","","","","","","","","","","","","","","",""
"310.38499998976476","289096","SARL_v6","SARL_v6yccuhk42","5b134a12bd9c31000156d4e2","freq","","","img/orange_2bandit_b2.png","70","","70","test","1","","125","","","","circle","square","120","16","6","0.9333333333333333","","","","","","","",""
"null","289603","SARL_v6","SARL_v6yccuhk42","5b134a12bd9c31000156d4e2","freq_resp","","","img/orange_2bandit_b.png","70","img/orange_2bandit_b.png","70","test","","","","","","","","","","","6","","","","","","","","",""
"null","289771","SARL_v6","SARL_v6yccuhk42","5b134a12bd9c31000156d4e2","fixation","","","img/fixation.png","null","","","test","","","","","","","","","","","","","","","","","","","",""
"313.52500000502914","290102","SARL_v6","SARL_v6yccuhk42","5b134a12bd9c31000156d4e2","freq","","","img/orange_2bandit_b2.png","70","","70","test","1","","126","","","","circle","square","121","17","6","0.9338842975206612","","","","","","","",""
"null","290607","SARL_v6","SARL_v6yccuhk42","5b134a12bd9c31000156d4e2","freq_resp","","","img/orange_2bandit_b.png","70","img/orange_2bandit_b.png","70","test","","","","","","","","","","","6","","","","","","","","",""
"null","290774","SARL_v6","SARL_v6yccuhk42","5b134a12bd9c31000156d4e2","fixation","","","img/fixation.png","null","","","test","","","","","","","","","","","","","","","","","","","",""
"331.22999999613967","291125","SARL_v6","SARL_v6yccuhk42","5b134a12bd9c31000156d4e2","freq","","","img/orange_2bandit_b2.png","70","","70","test","1","","127","","","","circle","square","122","18","6","0.9344262295081968","","","","","","","",""
"null","291611","SARL_v6","SARL_v6yccuhk42","5b134a12bd9c31000156d4e2","freq_resp","","","img/orange_2bandit_b.png","70","img/orange_2bandit_b.png","70","test","","","","","","","","","","","6","","","","","","","","",""
"null","291778","SARL_v6","SARL_v6yccuhk42","5b134a12bd9c31000156d4e2","fixation","","","img/fixation.png","null","","","test","","","","","","","","","","","","","","","","","","","",""
"305.145000005723","292102","SARL_v6","SARL_v6yccuhk42","5b134a12bd9c31000156d4e2","freq","","","img/orange_2bandit_b2.png","70","","70","test","1","","128","","","","circle","square","123","19","6","0.9349593495934959","","","","","","","",""
"null","292616","SARL_v6","SARL_v6yccuhk42","5b134a12bd9c31000156d4e2","freq_resp","","","img/orange_2bandit_b.png","70","img/orange_2bandit_b.png","70","test","","","","","","","","","","","6","","","","","","","","",""
"null","292784","SARL_v6","SARL_v6yccuhk42","5b134a12bd9c31000156d4e2","fixation","","","img/fixation.png","null","","","test","","","","","","","","","","","","","","","","","","","",""
"543.4249999962049","293345","SARL_v6","SARL_v6yccuhk42","5b134a12bd9c31000156d4e2","infreq","","","img/blue_2bandit_b2.png","68","","68","test","1","","129","","","","circle","square","124","20","6","0.9354838709677419","","","","","","","",""
"null","293619","SARL_v6","SARL_v6yccuhk42","5b134a12bd9c31000156d4e2","infreq_resp","","","img/blue_2bandit_b.png","68","img/blue_2bandit_b.png","68","test","","","","","","","","","","","6","","","","","","","","",""
"null","293791","SARL_v6","SARL_v6yccuhk42","5b134a12bd9c31000156d4e2","fixation","","","img/fixation.png","null","","","test","","","","","","","","","","","","","","","","","","","",""
