"rt","time_elapsed","expId","subject","prolificID","trialType","rlType","attType","stimulus","key_press","stim","corrresp","phase","corr","pracCounter","trialNum","rewardOne","rewardTwo","reward","bandOne","bandTwo","attentionNum","attentionRunNum","blockNum","performance","bandChosen","circleVal","squareVal","bandOneVal","bandTwoVal","shapeChosen","rlNum","badFlag"
"2538.599999964237","2548","SARL_v6","SARL_v67wh32be0","5f20c7843957f61f62c58bb6","","","","","","","","","","","","","","","","","","","","","","","","","","","",""
"","4741","SARL_v6","SARL_v67wh32be0","5f20c7843957f61f62c58bb6","fullscreen","fullscreen","fullscreen","","","","","","","","","","","","","","","","","","","","","","","","",""
"5855.700000047684","10601","SARL_v6","SARL_v67wh32be0","5f20c7843957f61f62c58bb6","","","","","","","","","","","","","","","","","","","","","","","","","","","",""
"null","11410","SARL_v6","SARL_v67wh32be0","5f20c7843957f61f62c58bb6","freqPrac","","","img/orange_2bandit_a2.png","null","img/orange_2bandit_a2.png","70","prac","0","1","","","","","","","","","","","","","","","","","",""
"null","12429","SARL_v6","SARL_v67wh32be0","5f20c7843957f61f62c58bb6","feedback","","","img/tooSlow.png","null","","na","prac","","","","","","","","","","","","","","","","","","","",""
"null","12595","SARL_v6","SARL_v67wh32be0","5f20c7843957f61f62c58bb6","fixation","","","img/fixation.png","null","","","prac","","","","","","","","","","","","","","","","","","","",""
"null","13407","SARL_v6","SARL_v67wh32be0","5f20c7843957f61f62c58bb6","infreqPrac","","","img/blue_2bandit_a2.png","null","img/blue_2bandit_a2.png","68","prac","0","2","","","","","","","","","","","","","","","","","",""
"null","14411","SARL_v6","SARL_v67wh32be0","5f20c7843957f61f62c58bb6","feedback","","","img/tooSlow.png","null","","na","prac","","","","","","","","","","","","","","","","","","","",""
"null","14575","SARL_v6","SARL_v67wh32be0","5f20c7843957f61f62c58bb6","fixation","","","img/fixation.png","null","","","prac","","","","","","","","","","","","","","","","","","","",""
"399.39999997615814","14978","SARL_v6","SARL_v67wh32be0","5f20c7843957f61f62c58bb6","freqPrac","","","img/orange_2bandit_a2.png","68","img/orange_2bandit_a2.png","70","prac","0","3","","","","","","","","","","","","","","","","","",""
"399.39999997615814","15385","SARL_v6","SARL_v67wh32be0","5f20c7843957f61f62c58bb6","freqPrac_resp","","","img/orange_2bandit_a.png","68","img/orange_2bandit_a.png","70","prac","","","","","","","","","","","","","","","","","","","",""
"null","16391","SARL_v6","SARL_v67wh32be0","5f20c7843957f61f62c58bb6","feedback","","","img/wrongKey.png","null","","na","prac","","","","","","","","","","","","","","","","","","","",""
"null","16549","SARL_v6","SARL_v67wh32be0","5f20c7843957f61f62c58bb6","fixation","","","img/fixation.png","null","","","prac","","","","","","","","","","","","","","","","","","","",""
"null","17357","SARL_v6","SARL_v67wh32be0","5f20c7843957f61f62c58bb6","infreqPrac","","","img/blue_2bandit_a2.png","null","img/blue_2bandit_a2.png","68","prac","0","4","","","","","","","","","","","","","","","","","",""
"null","18379","SARL_v6","SARL_v67wh32be0","5f20c7843957f61f62c58bb6","feedback","","","img/tooSlow.png","null","","na","prac","","","","","","","","","","","","","","","","","","","",""
"null","18535","SARL_v6","SARL_v67wh32be0","5f20c7843957f61f62c58bb6","fixation","","","img/fixation.png","null","","","prac","","","","","","","","","","","","","","","","","","","",""
"339.89999997615814","18878","SARL_v6","SARL_v67wh32be0","5f20c7843957f61f62c58bb6","infreqPrac","","","img/blue_2bandit_a2.png","68","img/blue_2bandit_a2.png","68","prac","1","4","","","","","","","","","","","","","","","","","",""
"339.89999997615814","19345","SARL_v6","SARL_v67wh32be0","5f20c7843957f61f62c58bb6","infreqPrac_resp","","","img/blue_2bandit_a.png","68","img/blue_2bandit_a.png","68","prac","","","","","","","","","","","","","","","","","","","",""
"null","19510","SARL_v6","SARL_v67wh32be0","5f20c7843957f61f62c58bb6","fixation","","","img/fixation.png","null","","","prac","","","","","","","","","","","","","","","","","","","",""
"324.5","19837","SARL_v6","SARL_v67wh32be0","5f20c7843957f61f62c58bb6","infreqPrac","","","img/blue_2bandit_a2.png","68","img/blue_2bandit_a2.png","68","prac","1","4","","","","","","","","","","","","","","","","","",""
"324.5","20325","SARL_v6","SARL_v67wh32be0","5f20c7843957f61f62c58bb6","infreqPrac_resp","","","img/blue_2bandit_a.png","68","img/blue_2bandit_a.png","68","prac","","","","","","","","","","","","","","","","","","","",""
"null","20488","SARL_v6","SARL_v67wh32be0","5f20c7843957f61f62c58bb6","fixation","","","img/fixation.png","null","","","prac","","","","","","","","","","","","","","","","","","","",""
"289.19999998807907","20781","SARL_v6","SARL_v67wh32be0","5f20c7843957f61f62c58bb6","freqPrac","","","img/orange_2bandit_a2.png","68","img/orange_2bandit_a2.png","70","prac","0","5","","","","","","","","","","","","","","","","","",""
"289.19999998807907","21305","SARL_v6","SARL_v67wh32be0","5f20c7843957f61f62c58bb6","freqPrac_resp","","","img/orange_2bandit_a.png","68","img/orange_2bandit_a.png","70","prac","","","","","","","","","","","","","","","","","","","",""
"null","22317","SARL_v6","SARL_v67wh32be0","5f20c7843957f61f62c58bb6","feedback","","","img/wrongKey.png","null","","na","prac","","","","","","","","","","","","","","","","","","","",""
"null","22475","SARL_v6","SARL_v67wh32be0","5f20c7843957f61f62c58bb6","fixation","","","img/fixation.png","null","","","prac","","","","","","","","","","","","","","","","","","","",""
"329.80000001192093","22808","SARL_v6","SARL_v67wh32be0","5f20c7843957f61f62c58bb6","infreqPrac","","","img/blue_2bandit_a2.png","68","img/blue_2bandit_a2.png","68","prac","1","5","","","","","","","","","","","","","","","","","",""
"329.80000001192093","23288","SARL_v6","SARL_v67wh32be0","5f20c7843957f61f62c58bb6","infreqPrac_resp","","","img/blue_2bandit_a.png","68","img/blue_2bandit_a.png","68","prac","","","","","","","","","","","","","","","","","","","",""
"null","23454","SARL_v6","SARL_v67wh32be0","5f20c7843957f61f62c58bb6","fixation","","","img/fixation.png","null","","","prac","","","","","","","","","","","","","","","","","","","",""
"458.80000001192093","23915","SARL_v6","SARL_v67wh32be0","5f20c7843957f61f62c58bb6","freqPrac","","","img/orange_2bandit_a2.png","70","img/orange_2bandit_a2.png","70","prac","1","5","","","","","","","","","","","","","","","","","",""
"458.80000001192093","24270","SARL_v6","SARL_v67wh32be0","5f20c7843957f61f62c58bb6","freqPrac_resp","","","img/orange_2bandit_a.png","70","img/orange_2bandit_a.png","70","prac","","","","","","","","","","","","","","","","","","","",""
"null","24431","SARL_v6","SARL_v67wh32be0","5f20c7843957f61f62c58bb6","fixation","","","img/fixation.png","null","","","prac","","","","","","","","","","","","","","","","","","","",""
"720.9000000357628","25155","SARL_v6","SARL_v67wh32be0","5f20c7843957f61f62c58bb6","freqPrac","","","img/orange_2bandit_a2.png","70","img/orange_2bandit_a2.png","70","prac","1","5","","","","","","","","","","","","","","","","","",""
"720.9000000357628","25249","SARL_v6","SARL_v67wh32be0","5f20c7843957f61f62c58bb6","freqPrac_resp","","","img/orange_2bandit_a.png","70","img/orange_2bandit_a.png","70","prac","","","","","","","","","","","","","","","","","","","",""
"null","25416","SARL_v6","SARL_v67wh32be0","5f20c7843957f61f62c58bb6","fixation","","","img/fixation.png","null","","","prac","","","","","","","","","","","","","","","","","","","",""
"7624","33043","SARL_v6","SARL_v67wh32be0","5f20c7843957f61f62c58bb6","","","","","","","","prac","","","","","","","","","","","","","","","","","","","",""
"1463","34511","SARL_v6","SARL_v67wh32be0","5f20c7843957f61f62c58bb6","rlPractice","","","img/black_2bandit_a2.png","74","img/black_2bandit_a2.png","","prac","","","0","","","","","","","","","","","","","","","","",""
"null","35270","SARL_v6","SARL_v67wh32be0","5f20c7843957f61f62c58bb6","feedback","","","<div class=""verylowPoints_sq""> -14 </div>","null","","na","prac","","","1","10","-14","10","","","","","","","","","","","","","",""
"null","35425","SARL_v6","SARL_v67wh32be0","5f20c7843957f61f62c58bb6","fixation","","","img/fixation.png","null","","","prac","","","","","","","","","","","","","","","","","","","",""
"589.7000000476837","36017","SARL_v6","SARL_v67wh32be0","5f20c7843957f61f62c58bb6","rlPractice","","","img/black_2bandit_a2.png","75","img/black_2bandit_a2.png","","prac","","","1","","","","","","","","","","","","","","","","",""
"null","36778","SARL_v6","SARL_v67wh32be0","5f20c7843957f61f62c58bb6","feedback","","","<div class=""veryhighPoints""> 5 </div>","null","","na","prac","","","2","5","-5","5","","","","","","","","","","","","","",""
"null","36949","SARL_v6","SARL_v67wh32be0","5f20c7843957f61f62c58bb6","fixation","","","img/fixation.png","null","","","prac","","","","","","","","","","","","","","","","","","","",""
"348.69999998807907","37300","SARL_v6","SARL_v67wh32be0","5f20c7843957f61f62c58bb6","rlPractice","","","img/black_2bandit_a2.png","75","img/black_2bandit_a2.png","","prac","","","2","","","","","","","","","","","","","","","","",""
"null","38060","SARL_v6","SARL_v67wh32be0","5f20c7843957f61f62c58bb6","feedback","","","<div class=""veryhighPoints""> 30 </div>","null","","na","prac","","","3","30","2","30","","","","","","","","","","","","","",""
"null","38228","SARL_v6","SARL_v67wh32be0","5f20c7843957f61f62c58bb6","fixation","","","img/fixation.png","null","","","prac","","","","","","","","","","","","","","","","","","","",""
"345.5999999642372","38577","SARL_v6","SARL_v67wh32be0","5f20c7843957f61f62c58bb6","rlPractice","","","img/black_2bandit_a2.png","75","img/black_2bandit_a2.png","","prac","","","3","","","","","","","","","","","","","","","","",""
"null","39346","SARL_v6","SARL_v67wh32be0","5f20c7843957f61f62c58bb6","feedback","","","<div class=""verylowPoints""> -2 </div>","null","","na","prac","","","4","-2","20","-2","","","","","","","","","","","","","",""
"null","39503","SARL_v6","SARL_v67wh32be0","5f20c7843957f61f62c58bb6","fixation","","","img/fixation.png","null","","","prac","","","","","","","","","","","","","","","","","","","",""
"2512.2000000476837","42018","SARL_v6","SARL_v67wh32be0","5f20c7843957f61f62c58bb6","","","","","","","","prac","","","","","","","","","","","","","","","","","","","",""
"null","42837","SARL_v6","SARL_v67wh32be0","5f20c7843957f61f62c58bb6","mixAttFreqPrac","","","img/orange_2bandit_a2.png","null","img/orange_2bandit_a2.png","70","prac","","","1","","","","","","","","","","","","","","","","",""
"null","42999","SARL_v6","SARL_v67wh32be0","5f20c7843957f61f62c58bb6","fixation","","","img/fixation.png","null","","","prac","","","","","","","","","","","","","","","","","","","",""
"56.09999996423721","43057","SARL_v6","SARL_v67wh32be0","5f20c7843957f61f62c58bb6","mixAttInfreqPrac","","","img/blue_2bandit_a2.png","70","img/blue_2bandit_a2.png","68","prac","","","2","","","","","","","","","","","","","","","","",""
"56.09999996423721","43815","SARL_v6","SARL_v67wh32be0","5f20c7843957f61f62c58bb6","infreqPrac_resp","","","img/blue_2bandit_a.png","70","img/orange_2bandit_a.png","68","prac","","","2","","","","","","","","","","","","","","","","",""
"null","43971","SARL_v6","SARL_v67wh32be0","5f20c7843957f61f62c58bb6","fixation","","","img/fixation.png","null","","","prac","","","","","","","","","","","","","","","","","","","",""
"80.79999995231628","44055","SARL_v6","SARL_v67wh32be0","5f20c7843957f61f62c58bb6","mixAttInfreqPrac","","","img/blue_2bandit_a2.png","70","img/blue_2bandit_a2.png","68","prac","","","3","","","","","","","","","","","","","","","","",""
"80.79999995231628","44779","SARL_v6","SARL_v67wh32be0","5f20c7843957f61f62c58bb6","infreqPrac_resp","","","img/blue_2bandit_a.png","70","img/orange_2bandit_a.png","68","prac","","","3","","","","","","","","","","","","","","","","",""
"48.10000002384186","44933","SARL_v6","SARL_v67wh32be0","5f20c7843957f61f62c58bb6","fixation","","","img/fixation.png","68","","","prac","","","","","","","","","","","","","","","","","","","",""
"641.6000000238419","45578","SARL_v6","SARL_v67wh32be0","5f20c7843957f61f62c58bb6","mixAttInfreqPrac","","","img/blue_2bandit_a2.png","68","img/blue_2bandit_a2.png","68","prac","","","4","","","","","","","","","","","","","","","","",""
"641.6000000238419","45749","SARL_v6","SARL_v67wh32be0","5f20c7843957f61f62c58bb6","infreqPrac_resp","","","img/blue_2bandit_a.png","68","img/orange_2bandit_a.png","68","prac","","","4","","","","","","","","","","","","","","","","",""
"null","45910","SARL_v6","SARL_v67wh32be0","5f20c7843957f61f62c58bb6","fixation","","","img/fixation.png","null","","","prac","","","","","","","","","","","","","","","","","","","",""
"517.7999999523163","46431","SARL_v6","SARL_v67wh32be0","5f20c7843957f61f62c58bb6","mixAttFreqPrac","","","img/orange_2bandit_a2.png","70","img/orange_2bandit_a2.png","70","prac","","","5","","","","","","","","","","","","","","","","",""
"517.7999999523163","46728","SARL_v6","SARL_v67wh32be0","5f20c7843957f61f62c58bb6","freqPrac_resp","","","img/orange_2bandit_a.png","70","img/orange_2bandit_a.png","70","prac","","","5","","","","","","","","","","","","","","","","",""
"null","46891","SARL_v6","SARL_v67wh32be0","5f20c7843957f61f62c58bb6","fixation","","","img/fixation.png","null","","","prac","","","","","","","","","","","","","","","","","","","",""
"614.3000000119209","47508","SARL_v6","SARL_v67wh32be0","5f20c7843957f61f62c58bb6","mixRLPractice","","","img/black_2bandit_a2.png","75","img/black_2bandit_a2.png","","prac","","","5","","","","","","","","","","","","","","","","",""
"null","48262","SARL_v6","SARL_v67wh32be0","5f20c7843957f61f62c58bb6","feedback","","","<div class=""verylowPoints""> -14 </div>","null","","na","prac","","","6","-14","10","-14","","","","","","","","","","","","","",""
"null","48419","SARL_v6","SARL_v67wh32be0","5f20c7843957f61f62c58bb6","fixation","","","img/fixation.png","null","","","prac","","","","","","","","","","","","","","","","","","","",""
"557.3999999761581","48980","SARL_v6","SARL_v67wh32be0","5f20c7843957f61f62c58bb6","mixAttFreqPrac","","","img/orange_2bandit_a2.png","70","img/orange_2bandit_a2.png","70","prac","","","7","","","","","","","","","","","","","","","","",""
"557.3999999761581","49230","SARL_v6","SARL_v67wh32be0","5f20c7843957f61f62c58bb6","freqPrac_resp","","","img/orange_2bandit_a.png","70","img/orange_2bandit_a.png","70","prac","","","7","","","","","","","","","","","","","","","","",""
"null","49393","SARL_v6","SARL_v67wh32be0","5f20c7843957f61f62c58bb6","fixation","","","img/fixation.png","null","","","prac","","","","","","","","","","","","","","","","","","","",""
"615.3000000119209","50011","SARL_v6","SARL_v67wh32be0","5f20c7843957f61f62c58bb6","mixAttInfreqPrac","","","img/blue_2bandit_a2.png","68","img/blue_2bandit_a2.png","68","prac","","","8","","","","","","","","","","","","","","","","",""
"615.3000000119209","50211","SARL_v6","SARL_v67wh32be0","5f20c7843957f61f62c58bb6","infreqPrac_resp","","","img/blue_2bandit_a.png","68","img/orange_2bandit_a.png","68","prac","","","8","","","","","","","","","","","","","","","","",""
"null","50366","SARL_v6","SARL_v67wh32be0","5f20c7843957f61f62c58bb6","fixation","","","img/fixation.png","null","","","prac","","","","","","","","","","","","","","","","","","","",""
"737.3999999761581","51106","SARL_v6","SARL_v67wh32be0","5f20c7843957f61f62c58bb6","mixAttFreqPrac","","","img/orange_2bandit_a2.png","70","img/orange_2bandit_a2.png","70","prac","","","9","","","","","","","","","","","","","","","","",""
"737.3999999761581","51173","SARL_v6","SARL_v67wh32be0","5f20c7843957f61f62c58bb6","freqPrac_resp","","","img/orange_2bandit_a.png","70","img/orange_2bandit_a.png","70","prac","","","9","","","","","","","","","","","","","","","","",""
"null","51327","SARL_v6","SARL_v67wh32be0","5f20c7843957f61f62c58bb6","fixation","","","img/fixation.png","null","","","prac","","","","","","","","","","","","","","","","","","","",""
"null","52134","SARL_v6","SARL_v67wh32be0","5f20c7843957f61f62c58bb6","mixAttFreqPrac","","","img/orange_2bandit_a2.png","null","img/orange_2bandit_a2.png","70","prac","","","10","","","","","","","","","","","","","","","","",""
"90.80000001192093","52289","SARL_v6","SARL_v67wh32be0","5f20c7843957f61f62c58bb6","fixation","","","img/fixation.png","70","","","prac","","","","","","","","","","","","","","","","","","","",""
"608.8999999761581","52901","SARL_v6","SARL_v67wh32be0","5f20c7843957f61f62c58bb6","mixAttInfreqPrac","","","img/blue_2bandit_a2.png","68","img/blue_2bandit_a2.png","68","prac","","","11","","","","","","","","","","","","","","","","",""
"608.8999999761581","53104","SARL_v6","SARL_v67wh32be0","5f20c7843957f61f62c58bb6","infreqPrac_resp","","","img/blue_2bandit_a.png","68","img/orange_2bandit_a.png","68","prac","","","11","","","","","","","","","","","","","","","","",""
"null","53267","SARL_v6","SARL_v67wh32be0","5f20c7843957f61f62c58bb6","fixation","","","img/fixation.png","null","","","prac","","","","","","","","","","","","","","","","","","","",""
"553.6999999880791","53824","SARL_v6","SARL_v67wh32be0","5f20c7843957f61f62c58bb6","mixRLPractice","","","img/black_2bandit_a2.png","75","img/black_2bandit_a2.png","","prac","","","11","","","","","","","","","","","","","","","","",""
"null","54585","SARL_v6","SARL_v67wh32be0","5f20c7843957f61f62c58bb6","feedback","","","<div class=""veryhighPoints""> 5 </div>","null","","na","prac","","","12","5","-5","5","","","","","","","","","","","","","",""
"null","54744","SARL_v6","SARL_v67wh32be0","5f20c7843957f61f62c58bb6","fixation","","","img/fixation.png","null","","","prac","","","","","","","","","","","","","","","","","","","",""
"8074.399999976158","62821","SARL_v6","SARL_v67wh32be0","5f20c7843957f61f62c58bb6","","","","","","","","prac","","","","","","","","","","","","","","","","","","","",""
"797.8000000119209","63623","SARL_v6","SARL_v67wh32be0","5f20c7843957f61f62c58bb6","freq","","","img/orange_2bandit_a2.png","70","","70","test","1","","1","","","","square","circle","1","1","1","1","","","","","","","",""
"null","63629","SARL_v6","SARL_v67wh32be0","5f20c7843957f61f62c58bb6","freq_resp","","","img/orange_2bandit_a.png","70","img/orange_2bandit_a.png","70","test","","","","","","","","","","","1","","","","","","","","",""
"null","63783","SARL_v6","SARL_v67wh32be0","5f20c7843957f61f62c58bb6","fixation","","","img/fixation.png","null","","","test","","","","","","","","","","","","","","","","","","","",""
"477.80000001192093","64264","SARL_v6","SARL_v67wh32be0","5f20c7843957f61f62c58bb6","freq","","","img/orange_2bandit_a2.png","70","","70","test","1","","2","","","","square","circle","2","2","1","1","","","","","","","",""
"null","64597","SARL_v6","SARL_v67wh32be0","5f20c7843957f61f62c58bb6","freq_resp","","","img/orange_2bandit_a.png","70","img/orange_2bandit_a.png","70","test","","","","","","","","","","","1","","","","","","","","",""
"null","64756","SARL_v6","SARL_v67wh32be0","5f20c7843957f61f62c58bb6","fixation","","","img/fixation.png","null","","","test","","","","","","","","","","","","","","","","","","","",""
"302.30000001192093","65061","SARL_v6","SARL_v67wh32be0","5f20c7843957f61f62c58bb6","freq","","","img/orange_2bandit_a2.png","70","","70","test","1","","3","","","","square","circle","3","3","1","1","","","","","","","",""
"null","65570","SARL_v6","SARL_v67wh32be0","5f20c7843957f61f62c58bb6","freq_resp","","","img/orange_2bandit_a.png","70","img/orange_2bandit_a.png","70","test","","","","","","","","","","","1","","","","","","","","",""
"null","65733","SARL_v6","SARL_v67wh32be0","5f20c7843957f61f62c58bb6","fixation","","","img/fixation.png","null","","","test","","","","","","","","","","","","","","","","","","","",""
"361.39999997615814","66098","SARL_v6","SARL_v67wh32be0","5f20c7843957f61f62c58bb6","freq","","","img/orange_2bandit_a2.png","70","","70","test","1","","4","","","","square","circle","4","4","1","1","","","","","","","",""
"null","66539","SARL_v6","SARL_v67wh32be0","5f20c7843957f61f62c58bb6","freq_resp","","","img/orange_2bandit_a.png","70","img/orange_2bandit_a.png","70","test","","","","","","","","","","","1","","","","","","","","",""
"null","66693","SARL_v6","SARL_v67wh32be0","5f20c7843957f61f62c58bb6","fixation","","","img/fixation.png","null","","","test","","","","","","","","","","","","","","","","","","","",""
"458.9000000357628","67155","SARL_v6","SARL_v67wh32be0","5f20c7843957f61f62c58bb6","infreq","","","img/blue_2bandit_a2.png","68","","68","test","1","","5","","","","square","circle","5","5","1","1","","","","","","","",""
"null","67509","SARL_v6","SARL_v67wh32be0","5f20c7843957f61f62c58bb6","infreq_resp","","","img/blue_2bandit_a.png","68","img/blue_2bandit_a.png","68","test","","","","","","","","","","","1","","","","","","","","",""
"null","67665","SARL_v6","SARL_v67wh32be0","5f20c7843957f61f62c58bb6","fixation","","","img/fixation.png","null","","","test","","","","","","","","","","","","","","","","","","","",""
"437","68105","SARL_v6","SARL_v67wh32be0","5f20c7843957f61f62c58bb6","freq","","","img/orange_2bandit_a2.png","70","","70","test","1","","6","","","","square","circle","6","6","1","1","","","","","","","",""
"null","68484","SARL_v6","SARL_v67wh32be0","5f20c7843957f61f62c58bb6","freq_resp","","","img/orange_2bandit_a.png","70","img/orange_2bandit_a.png","70","test","","","","","","","","","","","1","","","","","","","","",""
"null","68646","SARL_v6","SARL_v67wh32be0","5f20c7843957f61f62c58bb6","fixation","","","img/fixation.png","null","","","test","","","","","","","","","","","","","","","","","","","",""
"463.5","69112","SARL_v6","SARL_v67wh32be0","5f20c7843957f61f62c58bb6","freq","","","img/orange_2bandit_a2.png","70","","70","test","1","","7","","","","square","circle","7","7","1","1","","","","","","","",""
"null","69461","SARL_v6","SARL_v67wh32be0","5f20c7843957f61f62c58bb6","freq_resp","","","img/orange_2bandit_a.png","70","img/orange_2bandit_a.png","70","test","","","","","","","","","","","1","","","","","","","","",""
"null","69623","SARL_v6","SARL_v67wh32be0","5f20c7843957f61f62c58bb6","fixation","","","img/fixation.png","null","","","test","","","","","","","","","","","","","","","","","","","",""
"477.5","70104","SARL_v6","SARL_v67wh32be0","5f20c7843957f61f62c58bb6","freq","","","img/orange_2bandit_a2.png","70","","70","test","1","","8","","","","square","circle","8","8","1","1","","","","","","","",""
"null","70439","SARL_v6","SARL_v67wh32be0","5f20c7843957f61f62c58bb6","freq_resp","","","img/orange_2bandit_a.png","70","img/orange_2bandit_a.png","70","test","","","","","","","","","","","1","","","","","","","","",""
"null","70605","SARL_v6","SARL_v67wh32be0","5f20c7843957f61f62c58bb6","fixation","","","img/fixation.png","null","","","test","","","","","","","","","","","","","","","","","","","",""
"461.69999998807907","71069","SARL_v6","SARL_v67wh32be0","5f20c7843957f61f62c58bb6","freq","","","img/orange_2bandit_a2.png","70","","70","test","1","","9","","","","square","circle","9","9","1","1","","","","","","","",""
"null","71421","SARL_v6","SARL_v67wh32be0","5f20c7843957f61f62c58bb6","freq_resp","","","img/orange_2bandit_a.png","70","img/orange_2bandit_a.png","70","test","","","","","","","","","","","1","","","","","","","","",""
"null","71585","SARL_v6","SARL_v67wh32be0","5f20c7843957f61f62c58bb6","fixation","","","img/fixation.png","null","","","test","","","","","","","","","","","","","","","","","","","",""
"424.10000002384186","72013","SARL_v6","SARL_v67wh32be0","5f20c7843957f61f62c58bb6","freq","","","img/orange_2bandit_a2.png","70","","70","test","1","","10","","","","square","circle","10","10","1","1","","","","","","","",""
"null","72407","SARL_v6","SARL_v67wh32be0","5f20c7843957f61f62c58bb6","freq_resp","","","img/orange_2bandit_a.png","70","img/orange_2bandit_a.png","70","test","","","","","","","","","","","1","","","","","","","","",""
"null","72574","SARL_v6","SARL_v67wh32be0","5f20c7843957f61f62c58bb6","fixation","","","img/fixation.png","null","","","test","","","","","","","","","","","","","","","","","","","",""
"429.5999999642372","73007","SARL_v6","SARL_v67wh32be0","5f20c7843957f61f62c58bb6","freq","","","img/orange_2bandit_a2.png","70","","70","test","1","","11","","","","square","circle","11","11","1","1","","","","","","","",""
"null","73396","SARL_v6","SARL_v67wh32be0","5f20c7843957f61f62c58bb6","freq_resp","","","img/orange_2bandit_a.png","70","img/orange_2bandit_a.png","70","test","","","","","","","","","","","1","","","","","","","","",""
"null","73551","SARL_v6","SARL_v67wh32be0","5f20c7843957f61f62c58bb6","fixation","","","img/fixation.png","null","","","test","","","","","","","","","","","","","","","","","","","",""
"436.80000001192093","73991","SARL_v6","SARL_v67wh32be0","5f20c7843957f61f62c58bb6","freq","","","img/orange_2bandit_a2.png","70","","70","test","1","","12","","","","square","circle","12","12","1","1","","","","","","","",""
"null","74361","SARL_v6","SARL_v67wh32be0","5f20c7843957f61f62c58bb6","freq_resp","","","img/orange_2bandit_a.png","70","img/orange_2bandit_a.png","70","test","","","","","","","","","","","1","","","","","","","","",""
"null","74527","SARL_v6","SARL_v67wh32be0","5f20c7843957f61f62c58bb6","fixation","","","img/fixation.png","null","","","test","","","","","","","","","","","","","","","","","","","",""
"395.5","74925","SARL_v6","SARL_v67wh32be0","5f20c7843957f61f62c58bb6","freq","","","img/orange_2bandit_a2.png","70","","70","test","1","","13","","","","square","circle","13","13","1","1","","","","","","","",""
"null","75342","SARL_v6","SARL_v67wh32be0","5f20c7843957f61f62c58bb6","freq_resp","","","img/orange_2bandit_a.png","70","img/orange_2bandit_a.png","70","test","","","","","","","","","","","1","","","","","","","","",""
"null","75504","SARL_v6","SARL_v67wh32be0","5f20c7843957f61f62c58bb6","fixation","","","img/fixation.png","null","","","test","","","","","","","","","","","","","","","","","","","",""
"414.60000002384186","75922","SARL_v6","SARL_v67wh32be0","5f20c7843957f61f62c58bb6","freq","","","img/orange_2bandit_a2.png","70","","70","test","1","","14","","","","square","circle","14","14","1","1","","","","","","","",""
"null","76322","SARL_v6","SARL_v67wh32be0","5f20c7843957f61f62c58bb6","freq_resp","","","img/orange_2bandit_a.png","70","img/orange_2bandit_a.png","70","test","","","","","","","","","","","1","","","","","","","","",""
"null","76480","SARL_v6","SARL_v67wh32be0","5f20c7843957f61f62c58bb6","fixation","","","img/fixation.png","null","","","test","","","","","","","","","","","","","","","","","","","",""
"397.4000000357628","76881","SARL_v6","SARL_v67wh32be0","5f20c7843957f61f62c58bb6","freq","","","img/orange_2bandit_a2.png","70","","70","test","1","","15","","","","square","circle","15","15","1","1","","","","","","","",""
"null","77296","SARL_v6","SARL_v67wh32be0","5f20c7843957f61f62c58bb6","freq_resp","","","img/orange_2bandit_a.png","70","img/orange_2bandit_a.png","70","test","","","","","","","","","","","1","","","","","","","","",""
"null","77461","SARL_v6","SARL_v67wh32be0","5f20c7843957f61f62c58bb6","fixation","","","img/fixation.png","null","","","test","","","","","","","","","","","","","","","","","","","",""
"388.5","77854","SARL_v6","SARL_v67wh32be0","5f20c7843957f61f62c58bb6","freq","","","img/orange_2bandit_a2.png","70","","70","test","1","","16","","","","square","circle","16","16","1","1","","","","","","","",""
"null","78273","SARL_v6","SARL_v67wh32be0","5f20c7843957f61f62c58bb6","freq_resp","","","img/orange_2bandit_a.png","70","img/orange_2bandit_a.png","70","test","","","","","","","","","","","1","","","","","","","","",""
"null","78428","SARL_v6","SARL_v67wh32be0","5f20c7843957f61f62c58bb6","fixation","","","img/fixation.png","null","","","test","","","","","","","","","","","","","","","","","","","",""
"509.0999999642372","78940","SARL_v6","SARL_v67wh32be0","5f20c7843957f61f62c58bb6","infreq","","","img/blue_2bandit_a2.png","68","","68","test","1","","17","","","","square","circle","17","17","1","1","","","","","","","",""
"null","79246","SARL_v6","SARL_v67wh32be0","5f20c7843957f61f62c58bb6","infreq_resp","","","img/blue_2bandit_a.png","68","img/blue_2bandit_a.png","68","test","","","","","","","","","","","1","","","","","","","","",""
"null","79415","SARL_v6","SARL_v67wh32be0","5f20c7843957f61f62c58bb6","fixation","","","img/fixation.png","null","","","test","","","","","","","","","","","","","","","","","","","",""
"486","79904","SARL_v6","SARL_v67wh32be0","5f20c7843957f61f62c58bb6","freq","","","img/orange_2bandit_a2.png","70","","70","test","1","","18","","","","square","circle","18","18","1","1","","","","","","","",""
"null","80223","SARL_v6","SARL_v67wh32be0","5f20c7843957f61f62c58bb6","freq_resp","","","img/orange_2bandit_a.png","70","img/orange_2bandit_a.png","70","test","","","","","","","","","","","1","","","","","","","","",""
"null","80390","SARL_v6","SARL_v67wh32be0","5f20c7843957f61f62c58bb6","fixation","","","img/fixation.png","null","","","test","","","","","","","","","","","","","","","","","","","",""
"591.5","80984","SARL_v6","SARL_v67wh32be0","5f20c7843957f61f62c58bb6","freq","","","img/orange_2bandit_a2.png","70","","70","test","1","","19","","","","square","circle","19","19","1","1","","","","","","","",""
"null","81204","SARL_v6","SARL_v67wh32be0","5f20c7843957f61f62c58bb6","freq_resp","","","img/orange_2bandit_a.png","70","img/orange_2bandit_a.png","70","test","","","","","","","","","","","1","","","","","","","","",""
"null","81365","SARL_v6","SARL_v67wh32be0","5f20c7843957f61f62c58bb6","fixation","","","img/fixation.png","null","","","test","","","","","","","","","","","","","","","","","","","",""
"615","81983","SARL_v6","SARL_v67wh32be0","5f20c7843957f61f62c58bb6","rl","","","img/black_2bandit_a2.png","74","","0","test","","","20","","","-3","square","circle","","0","1","","74","-3","-3","-3","-3","square","1","0"
"null","82742","SARL_v6","SARL_v67wh32be0","5f20c7843957f61f62c58bb6","feedback","","","<div class=""verylowPoints_sq""> -3 </div>","null","","na","test","","","NaN","","","","","","","","1","","74","","","","","","1",""
"780.7000000476837","83526","SARL_v6","SARL_v67wh32be0","5f20c7843957f61f62c58bb6","freq","","","img/orange_2bandit_a2.png","70","","70","test","1","","21","","","","square","circle","20","1","2","1","","","","","","","",""
"null","83550","SARL_v6","SARL_v67wh32be0","5f20c7843957f61f62c58bb6","freq_resp","","","img/orange_2bandit_a.png","70","img/orange_2bandit_a.png","70","test","","","","","","","","","","","2","","","","","","","","",""
"null","83706","SARL_v6","SARL_v67wh32be0","5f20c7843957f61f62c58bb6","fixation","","","img/fixation.png","null","","","test","","","","","","","","","","","","","","","","","","","",""
"727","84436","SARL_v6","SARL_v67wh32be0","5f20c7843957f61f62c58bb6","freq","","","img/orange_2bandit_a2.png","70","","70","test","1","","22","","","","square","circle","21","2","2","1","","","","","","","",""
"null","84525","SARL_v6","SARL_v67wh32be0","5f20c7843957f61f62c58bb6","freq_resp","","","img/orange_2bandit_a.png","70","img/orange_2bandit_a.png","70","test","","","","","","","","","","","2","","","","","","","","",""
"null","84693","SARL_v6","SARL_v67wh32be0","5f20c7843957f61f62c58bb6","fixation","","","img/fixation.png","null","","","test","","","","","","","","","","","","","","","","","","","",""
"727.3000000119209","85423","SARL_v6","SARL_v67wh32be0","5f20c7843957f61f62c58bb6","freq","","","img/orange_2bandit_a2.png","70","","70","test","1","","23","","","","square","circle","22","3","2","1","","","","","","","",""
"null","85499","SARL_v6","SARL_v67wh32be0","5f20c7843957f61f62c58bb6","freq_resp","","","img/orange_2bandit_a.png","70","img/orange_2bandit_a.png","70","test","","","","","","","","","","","2","","","","","","","","",""
"null","85664","SARL_v6","SARL_v67wh32be0","5f20c7843957f61f62c58bb6","fixation","","","img/fixation.png","null","","","test","","","","","","","","","","","","","","","","","","","",""
"652.0999999642372","86319","SARL_v6","SARL_v67wh32be0","5f20c7843957f61f62c58bb6","freq","","","img/orange_2bandit_a2.png","70","","70","test","1","","24","","","","square","circle","23","4","2","1","","","","","","","",""
"null","86479","SARL_v6","SARL_v67wh32be0","5f20c7843957f61f62c58bb6","freq_resp","","","img/orange_2bandit_a.png","70","img/orange_2bandit_a.png","70","test","","","","","","","","","","","2","","","","","","","","",""
"null","86635","SARL_v6","SARL_v67wh32be0","5f20c7843957f61f62c58bb6","fixation","","","img/fixation.png","null","","","test","","","","","","","","","","","","","","","","","","","",""
"432.0999999642372","87070","SARL_v6","SARL_v67wh32be0","5f20c7843957f61f62c58bb6","freq","","","img/orange_2bandit_a2.png","70","","70","test","1","","25","","","","square","circle","24","5","2","1","","","","","","","",""
"null","87454","SARL_v6","SARL_v67wh32be0","5f20c7843957f61f62c58bb6","freq_resp","","","img/orange_2bandit_a.png","70","img/orange_2bandit_a.png","70","test","","","","","","","","","","","2","","","","","","","","",""
"null","87616","SARL_v6","SARL_v67wh32be0","5f20c7843957f61f62c58bb6","fixation","","","img/fixation.png","null","","","test","","","","","","","","","","","","","","","","","","","",""
"412.60000002384186","88033","SARL_v6","SARL_v67wh32be0","5f20c7843957f61f62c58bb6","freq","","","img/orange_2bandit_a2.png","70","","70","test","1","","26","","","","square","circle","25","6","2","1","","","","","","","",""
"null","88433","SARL_v6","SARL_v67wh32be0","5f20c7843957f61f62c58bb6","freq_resp","","","img/orange_2bandit_a.png","70","img/orange_2bandit_a.png","70","test","","","","","","","","","","","2","","","","","","","","",""
"null","88590","SARL_v6","SARL_v67wh32be0","5f20c7843957f61f62c58bb6","fixation","","","img/fixation.png","null","","","test","","","","","","","","","","","","","","","","","","","",""
"377.39999997615814","88971","SARL_v6","SARL_v67wh32be0","5f20c7843957f61f62c58bb6","freq","","","img/orange_2bandit_a2.png","70","","70","test","1","","27","","","","square","circle","26","7","2","1","","","","","","","",""
"null","89399","SARL_v6","SARL_v67wh32be0","5f20c7843957f61f62c58bb6","freq_resp","","","img/orange_2bandit_a.png","70","img/orange_2bandit_a.png","70","test","","","","","","","","","","","2","","","","","","","","",""
"null","89559","SARL_v6","SARL_v67wh32be0","5f20c7843957f61f62c58bb6","fixation","","","img/fixation.png","null","","","test","","","","","","","","","","","","","","","","","","","",""
"386.4000000357628","89948","SARL_v6","SARL_v67wh32be0","5f20c7843957f61f62c58bb6","freq","","","img/orange_2bandit_a2.png","70","","70","test","1","","28","","","","square","circle","27","8","2","1","","","","","","","",""
"null","90369","SARL_v6","SARL_v67wh32be0","5f20c7843957f61f62c58bb6","freq_resp","","","img/orange_2bandit_a.png","70","img/orange_2bandit_a.png","70","test","","","","","","","","","","","2","","","","","","","","",""
"null","90531","SARL_v6","SARL_v67wh32be0","5f20c7843957f61f62c58bb6","fixation","","","img/fixation.png","null","","","test","","","","","","","","","","","","","","","","","","","",""
"363.5","90897","SARL_v6","SARL_v67wh32be0","5f20c7843957f61f62c58bb6","freq","","","img/orange_2bandit_a2.png","70","","70","test","1","","29","","","","square","circle","28","9","2","1","","","","","","","",""
"null","91340","SARL_v6","SARL_v67wh32be0","5f20c7843957f61f62c58bb6","freq_resp","","","img/orange_2bandit_a.png","70","img/orange_2bandit_a.png","70","test","","","","","","","","","","","2","","","","","","","","",""
"null","91501","SARL_v6","SARL_v67wh32be0","5f20c7843957f61f62c58bb6","fixation","","","img/fixation.png","null","","","test","","","","","","","","","","","","","","","","","","","",""
"345.89999997615814","91850","SARL_v6","SARL_v67wh32be0","5f20c7843957f61f62c58bb6","freq","","","img/orange_2bandit_a2.png","70","","70","test","1","","30","","","","square","circle","29","10","2","1","","","","","","","",""
"null","92321","SARL_v6","SARL_v67wh32be0","5f20c7843957f61f62c58bb6","freq_resp","","","img/orange_2bandit_a.png","70","img/orange_2bandit_a.png","70","test","","","","","","","","","","","2","","","","","","","","",""
"null","92484","SARL_v6","SARL_v67wh32be0","5f20c7843957f61f62c58bb6","fixation","","","img/fixation.png","null","","","test","","","","","","","","","","","","","","","","","","","",""
"405.10000002384186","92892","SARL_v6","SARL_v67wh32be0","5f20c7843957f61f62c58bb6","freq","","","img/orange_2bandit_a2.png","70","","70","test","1","","31","","","","square","circle","30","11","2","1","","","","","","","",""
"null","93301","SARL_v6","SARL_v67wh32be0","5f20c7843957f61f62c58bb6","freq_resp","","","img/orange_2bandit_a.png","70","img/orange_2bandit_a.png","70","test","","","","","","","","","","","2","","","","","","","","",""
"null","93459","SARL_v6","SARL_v67wh32be0","5f20c7843957f61f62c58bb6","fixation","","","img/fixation.png","null","","","test","","","","","","","","","","","","","","","","","","","",""
"327.0999999642372","93789","SARL_v6","SARL_v67wh32be0","5f20c7843957f61f62c58bb6","freq","","","img/orange_2bandit_a2.png","70","","70","test","1","","32","","","","square","circle","31","12","2","1","","","","","","","",""
"null","94270","SARL_v6","SARL_v67wh32be0","5f20c7843957f61f62c58bb6","freq_resp","","","img/orange_2bandit_a.png","70","img/orange_2bandit_a.png","70","test","","","","","","","","","","","2","","","","","","","","",""
"null","94427","SARL_v6","SARL_v67wh32be0","5f20c7843957f61f62c58bb6","fixation","","","img/fixation.png","null","","","test","","","","","","","","","","","","","","","","","","","",""
"379.5999999642372","94810","SARL_v6","SARL_v67wh32be0","5f20c7843957f61f62c58bb6","freq","","","img/orange_2bandit_a2.png","70","","70","test","1","","33","","","","square","circle","32","13","2","1","","","","","","","",""
"null","95234","SARL_v6","SARL_v67wh32be0","5f20c7843957f61f62c58bb6","freq_resp","","","img/orange_2bandit_a.png","70","img/orange_2bandit_a.png","70","test","","","","","","","","","","","2","","","","","","","","",""
"null","95399","SARL_v6","SARL_v67wh32be0","5f20c7843957f61f62c58bb6","fixation","","","img/fixation.png","null","","","test","","","","","","","","","","","","","","","","","","","",""
"335.30000001192093","95738","SARL_v6","SARL_v67wh32be0","5f20c7843957f61f62c58bb6","freq","","","img/orange_2bandit_a2.png","70","","70","test","1","","34","","","","square","circle","33","14","2","1","","","","","","","",""
"null","96218","SARL_v6","SARL_v67wh32be0","5f20c7843957f61f62c58bb6","freq_resp","","","img/orange_2bandit_a.png","70","img/orange_2bandit_a.png","70","test","","","","","","","","","","","2","","","","","","","","",""
"null","96376","SARL_v6","SARL_v67wh32be0","5f20c7843957f61f62c58bb6","fixation","","","img/fixation.png","null","","","test","","","","","","","","","","","","","","","","","","","",""
"528.1999999880791","96907","SARL_v6","SARL_v67wh32be0","5f20c7843957f61f62c58bb6","infreq","","","img/blue_2bandit_a2.png","68","","68","test","1","","35","","","","square","circle","34","15","2","1","","","","","","","",""
"null","97191","SARL_v6","SARL_v67wh32be0","5f20c7843957f61f62c58bb6","infreq_resp","","","img/blue_2bandit_a.png","68","img/blue_2bandit_a.png","68","test","","","","","","","","","","","2","","","","","","","","",""
"null","97346","SARL_v6","SARL_v67wh32be0","5f20c7843957f61f62c58bb6","fixation","","","img/fixation.png","null","","","test","","","","","","","","","","","","","","","","","","","",""
"445.19999998807907","97794","SARL_v6","SARL_v67wh32be0","5f20c7843957f61f62c58bb6","freq","","","img/orange_2bandit_a2.png","70","","70","test","1","","36","","","","square","circle","35","16","2","1","","","","","","","",""
"null","98155","SARL_v6","SARL_v67wh32be0","5f20c7843957f61f62c58bb6","freq_resp","","","img/orange_2bandit_a.png","70","img/orange_2bandit_a.png","70","test","","","","","","","","","","","2","","","","","","","","",""
"null","98319","SARL_v6","SARL_v67wh32be0","5f20c7843957f61f62c58bb6","fixation","","","img/fixation.png","null","","","test","","","","","","","","","","","","","","","","","","","",""
"497.30000001192093","98819","SARL_v6","SARL_v67wh32be0","5f20c7843957f61f62c58bb6","freq","","","img/orange_2bandit_a2.png","70","","70","test","1","","37","","","","square","circle","36","17","2","1","","","","","","","",""
"null","99127","SARL_v6","SARL_v67wh32be0","5f20c7843957f61f62c58bb6","freq_resp","","","img/orange_2bandit_a.png","70","img/orange_2bandit_a.png","70","test","","","","","","","","","","","2","","","","","","","","",""
"null","99289","SARL_v6","SARL_v67wh32be0","5f20c7843957f61f62c58bb6","fixation","","","img/fixation.png","null","","","test","","","","","","","","","","","","","","","","","","","",""
"392.2999999523163","99685","SARL_v6","SARL_v67wh32be0","5f20c7843957f61f62c58bb6","freq","","","img/orange_2bandit_a2.png","70","","70","test","1","","38","","","","square","circle","37","18","2","1","","","","","","","",""
"null","100105","SARL_v6","SARL_v67wh32be0","5f20c7843957f61f62c58bb6","freq_resp","","","img/orange_2bandit_a.png","70","img/orange_2bandit_a.png","70","test","","","","","","","","","","","2","","","","","","","","",""
"null","100268","SARL_v6","SARL_v67wh32be0","5f20c7843957f61f62c58bb6","fixation","","","img/fixation.png","null","","","test","","","","","","","","","","","","","","","","","","","",""
"464.69999998807907","100736","SARL_v6","SARL_v67wh32be0","5f20c7843957f61f62c58bb6","infreq","","","img/blue_2bandit_a2.png","68","","68","test","1","","39","","","","square","circle","38","19","2","1","","","","","","","",""
"null","101078","SARL_v6","SARL_v67wh32be0","5f20c7843957f61f62c58bb6","infreq_resp","","","img/blue_2bandit_a.png","68","img/blue_2bandit_a.png","68","test","","","","","","","","","","","2","","","","","","","","",""
"null","101241","SARL_v6","SARL_v67wh32be0","5f20c7843957f61f62c58bb6","fixation","","","img/fixation.png","null","","","test","","","","","","","","","","","","","","","","","","","",""
"394.60000002384186","101638","SARL_v6","SARL_v67wh32be0","5f20c7843957f61f62c58bb6","freq","","","img/orange_2bandit_a2.png","70","","70","test","1","","40","","","","square","circle","39","20","2","1","","","","","","","",""
"null","102060","SARL_v6","SARL_v67wh32be0","5f20c7843957f61f62c58bb6","freq_resp","","","img/orange_2bandit_a.png","70","img/orange_2bandit_a.png","70","test","","","","","","","","","","","2","","","","","","","","",""
"null","102220","SARL_v6","SARL_v67wh32be0","5f20c7843957f61f62c58bb6","fixation","","","img/fixation.png","null","","","test","","","","","","","","","","","","","","","","","","","",""
"288","102511","SARL_v6","SARL_v67wh32be0","5f20c7843957f61f62c58bb6","freq","","","img/orange_2bandit_a2.png","70","","70","test","1","","41","","","","square","circle","40","21","2","1","","","","","","","",""
"null","103031","SARL_v6","SARL_v67wh32be0","5f20c7843957f61f62c58bb6","freq_resp","","","img/orange_2bandit_a.png","70","img/orange_2bandit_a.png","70","test","","","","","","","","","","","2","","","","","","","","",""
"null","103192","SARL_v6","SARL_v67wh32be0","5f20c7843957f61f62c58bb6","fixation","","","img/fixation.png","null","","","test","","","","","","","","","","","","","","","","","","","",""
"548.5999999642372","103744","SARL_v6","SARL_v67wh32be0","5f20c7843957f61f62c58bb6","freq","","","img/orange_2bandit_a2.png","68","","70","test","0","","42","","","","square","circle","41","22","2","0.975609756097561","","","","","","","",""
"null","104006","SARL_v6","SARL_v67wh32be0","5f20c7843957f61f62c58bb6","freq_resp","","","img/orange_2bandit_a.png","68","img/orange_2bandit_a.png","70","test","","","","","","","","","","","2","","","","","","","","",""
"null","104173","SARL_v6","SARL_v67wh32be0","5f20c7843957f61f62c58bb6","fixation","","","img/fixation.png","null","","","test","","","","","","","","","","","","","","","","","","","",""
"568.0999999642372","104744","SARL_v6","SARL_v67wh32be0","5f20c7843957f61f62c58bb6","rl","","","img/black_2bandit_a2.png","74","","0","test","","","43","","","-5","square","circle","","0","2","","74","-8","-5","-5","-8","square","2","0"
"null","105507","SARL_v6","SARL_v67wh32be0","5f20c7843957f61f62c58bb6","feedback","","","<div class=""verylowPoints_sq""> -5 </div>","null","","na","test","","","NaN","","","","","","","","2","","74","","","","","","2",""
"270.89999997615814","105781","SARL_v6","SARL_v67wh32be0","5f20c7843957f61f62c58bb6","freq","","","img/orange_2bandit_a2.png","68","","70","test","0","","44","","","","square","circle","42","1","3","0.9523809523809523","","","","","","","",""
"null","106315","SARL_v6","SARL_v67wh32be0","5f20c7843957f61f62c58bb6","freq_resp","","","img/orange_2bandit_a.png","68","img/orange_2bandit_a.png","70","test","","","","","","","","","","","3","","","","","","","","",""
"null","106470","SARL_v6","SARL_v67wh32be0","5f20c7843957f61f62c58bb6","fixation","","","img/fixation.png","null","","","test","","","","","","","","","","","","","","","","","","","",""
"1.699999988079071","106477","SARL_v6","SARL_v67wh32be0","5f20c7843957f61f62c58bb6","freq","","","img/orange_2bandit_a2.png","70","","70","test","1","","45","","","","square","circle","43","2","3","0.9534883720930233","","","","","","","",""
"null","107286","SARL_v6","SARL_v67wh32be0","5f20c7843957f61f62c58bb6","freq_resp","","","img/orange_2bandit_a.png","70","img/orange_2bandit_a.png","70","test","","","","","","","","","","","3","","","","","","","","",""
"null","107452","SARL_v6","SARL_v67wh32be0","5f20c7843957f61f62c58bb6","fixation","","","img/fixation.png","null","","","test","","","","","","","","","","","","","","","","","","","",""
"294.9000000357628","107750","SARL_v6","SARL_v67wh32be0","5f20c7843957f61f62c58bb6","freq","","","img/orange_2bandit_a2.png","70","","70","test","1","","46","","","","square","circle","44","3","3","0.9545454545454546","","","","","","","",""
"null","108269","SARL_v6","SARL_v67wh32be0","5f20c7843957f61f62c58bb6","freq_resp","","","img/orange_2bandit_a.png","70","img/orange_2bandit_a.png","70","test","","","","","","","","","","","3","","","","","","","","",""
"null","108423","SARL_v6","SARL_v67wh32be0","5f20c7843957f61f62c58bb6","fixation","","","img/fixation.png","null","","","test","","","","","","","","","","","","","","","","","","","",""
"358.69999998807907","108785","SARL_v6","SARL_v67wh32be0","5f20c7843957f61f62c58bb6","freq","","","img/orange_2bandit_a2.png","70","","70","test","1","","47","","","","square","circle","45","4","3","0.9555555555555556","","","","","","","",""
"null","109234","SARL_v6","SARL_v67wh32be0","5f20c7843957f61f62c58bb6","freq_resp","","","img/orange_2bandit_a.png","70","img/orange_2bandit_a.png","70","test","","","","","","","","","","","3","","","","","","","","",""
"null","109396","SARL_v6","SARL_v67wh32be0","5f20c7843957f61f62c58bb6","fixation","","","img/fixation.png","null","","","test","","","","","","","","","","","","","","","","","","","",""
"291.80000001192093","109690","SARL_v6","SARL_v67wh32be0","5f20c7843957f61f62c58bb6","freq","","","img/orange_2bandit_a2.png","70","","70","test","1","","48","","","","square","circle","46","5","3","0.9565217391304348","","","","","","","",""
"null","110208","SARL_v6","SARL_v67wh32be0","5f20c7843957f61f62c58bb6","freq_resp","","","img/orange_2bandit_a.png","70","img/orange_2bandit_a.png","70","test","","","","","","","","","","","3","","","","","","","","",""
"null","110369","SARL_v6","SARL_v67wh32be0","5f20c7843957f61f62c58bb6","fixation","","","img/fixation.png","null","","","test","","","","","","","","","","","","","","","","","","","",""
"165.5","110538","SARL_v6","SARL_v67wh32be0","5f20c7843957f61f62c58bb6","infreq","","","img/blue_2bandit_a2.png","70","","68","test","0","","49","","","","square","circle","47","6","3","0.9361702127659575","","","","","","","",""
"null","111177","SARL_v6","SARL_v67wh32be0","5f20c7843957f61f62c58bb6","infreq_resp","","","img/blue_2bandit_a.png","70","img/blue_2bandit_a.png","68","test","","","","","","","","","","","3","","","","","","","","",""
"null","111341","SARL_v6","SARL_v67wh32be0","5f20c7843957f61f62c58bb6","fixation","","","img/fixation.png","null","","","test","","","","","","","","","","","","","","","","","","","",""
"473.39999997615814","111817","SARL_v6","SARL_v67wh32be0","5f20c7843957f61f62c58bb6","freq","","","img/orange_2bandit_a2.png","70","","70","test","1","","50","","","","square","circle","48","7","3","0.9375","","","","","","","",""
"null","112154","SARL_v6","SARL_v67wh32be0","5f20c7843957f61f62c58bb6","freq_resp","","","img/orange_2bandit_a.png","70","img/orange_2bandit_a.png","70","test","","","","","","","","","","","3","","","","","","","","",""
"null","112320","SARL_v6","SARL_v67wh32be0","5f20c7843957f61f62c58bb6","fixation","","","img/fixation.png","null","","","test","","","","","","","","","","","","","","","","","","","",""
"343.0999999642372","112666","SARL_v6","SARL_v67wh32be0","5f20c7843957f61f62c58bb6","freq","","","img/orange_2bandit_a2.png","70","","70","test","1","","51","","","","square","circle","49","8","3","0.9387755102040817","","","","","","","",""
"null","113129","SARL_v6","SARL_v67wh32be0","5f20c7843957f61f62c58bb6","freq_resp","","","img/orange_2bandit_a.png","70","img/orange_2bandit_a.png","70","test","","","","","","","","","","","3","","","","","","","","",""
"null","113292","SARL_v6","SARL_v67wh32be0","5f20c7843957f61f62c58bb6","fixation","","","img/fixation.png","null","","","test","","","","","","","","","","","","","","","","","","","",""
"334.10000002384186","113629","SARL_v6","SARL_v67wh32be0","5f20c7843957f61f62c58bb6","freq","","","img/orange_2bandit_a2.png","70","","70","test","1","","52","","","","square","circle","50","9","3","0.94","","","","","","","",""
"null","114112","SARL_v6","SARL_v67wh32be0","5f20c7843957f61f62c58bb6","freq_resp","","","img/orange_2bandit_a.png","70","img/orange_2bandit_a.png","70","test","","","","","","","","","","","3","","","","","","","","",""
"null","114268","SARL_v6","SARL_v67wh32be0","5f20c7843957f61f62c58bb6","fixation","","","img/fixation.png","null","","","test","","","","","","","","","","","","","","","","","","","",""
"293.30000001192093","114566","SARL_v6","SARL_v67wh32be0","5f20c7843957f61f62c58bb6","freq","","","img/orange_2bandit_a2.png","70","","70","test","1","","53","","","","square","circle","51","10","3","0.9411764705882353","","","","","","","",""
"null","115088","SARL_v6","SARL_v67wh32be0","5f20c7843957f61f62c58bb6","freq_resp","","","img/orange_2bandit_a.png","70","img/orange_2bandit_a.png","70","test","","","","","","","","","","","3","","","","","","","","",""
"null","115252","SARL_v6","SARL_v67wh32be0","5f20c7843957f61f62c58bb6","fixation","","","img/fixation.png","null","","","test","","","","","","","","","","","","","","","","","","","",""
"336.39999997615814","115592","SARL_v6","SARL_v67wh32be0","5f20c7843957f61f62c58bb6","freq","","","img/orange_2bandit_a2.png","70","","70","test","1","","54","","","","square","circle","52","11","3","0.9423076923076923","","","","","","","",""
"null","116067","SARL_v6","SARL_v67wh32be0","5f20c7843957f61f62c58bb6","freq_resp","","","img/orange_2bandit_a.png","70","img/orange_2bandit_a.png","70","test","","","","","","","","","","","3","","","","","","","","",""
"null","116231","SARL_v6","SARL_v67wh32be0","5f20c7843957f61f62c58bb6","fixation","","","img/fixation.png","null","","","test","","","","","","","","","","","","","","","","","","","",""
"403.9000000357628","116638","SARL_v6","SARL_v67wh32be0","5f20c7843957f61f62c58bb6","freq","","","img/orange_2bandit_a2.png","70","","70","test","1","","55","","","","square","circle","53","12","3","0.9433962264150944","","","","","","","",""
"null","117047","SARL_v6","SARL_v67wh32be0","5f20c7843957f61f62c58bb6","freq_resp","","","img/orange_2bandit_a.png","70","img/orange_2bandit_a.png","70","test","","","","","","","","","","","3","","","","","","","","",""
"null","117204","SARL_v6","SARL_v67wh32be0","5f20c7843957f61f62c58bb6","fixation","","","img/fixation.png","null","","","test","","","","","","","","","","","","","","","","","","","",""
"302.80000001192093","117510","SARL_v6","SARL_v67wh32be0","5f20c7843957f61f62c58bb6","freq","","","img/orange_2bandit_a2.png","70","","70","test","1","","56","","","","square","circle","54","13","3","0.9444444444444444","","","","","","","",""
"null","118011","SARL_v6","SARL_v67wh32be0","5f20c7843957f61f62c58bb6","freq_resp","","","img/orange_2bandit_a.png","70","img/orange_2bandit_a.png","70","test","","","","","","","","","","","3","","","","","","","","",""
"null","118166","SARL_v6","SARL_v67wh32be0","5f20c7843957f61f62c58bb6","fixation","","","img/fixation.png","null","","","test","","","","","","","","","","","","","","","","","","","",""
"166.80000001192093","118336","SARL_v6","SARL_v67wh32be0","5f20c7843957f61f62c58bb6","freq","","","img/orange_2bandit_a2.png","70","","70","test","1","","57","","","","square","circle","55","14","3","0.9454545454545454","","","","","","","",""
"null","118987","SARL_v6","SARL_v67wh32be0","5f20c7843957f61f62c58bb6","freq_resp","","","img/orange_2bandit_a.png","70","img/orange_2bandit_a.png","70","test","","","","","","","","","","","3","","","","","","","","",""
"null","119150","SARL_v6","SARL_v67wh32be0","5f20c7843957f61f62c58bb6","fixation","","","img/fixation.png","null","","","test","","","","","","","","","","","","","","","","","","","",""
"107.89999997615814","119261","SARL_v6","SARL_v67wh32be0","5f20c7843957f61f62c58bb6","freq","","","img/orange_2bandit_a2.png","70","","70","test","1","","58","","","","square","circle","56","15","3","0.9464285714285714","","","","","","","",""
"null","119965","SARL_v6","SARL_v67wh32be0","5f20c7843957f61f62c58bb6","freq_resp","","","img/orange_2bandit_a.png","70","img/orange_2bandit_a.png","70","test","","","","","","","","","","","3","","","","","","","","",""
"null","120123","SARL_v6","SARL_v67wh32be0","5f20c7843957f61f62c58bb6","fixation","","","img/fixation.png","null","","","test","","","","","","","","","","","","","","","","","","","",""
"92","120218","SARL_v6","SARL_v67wh32be0","5f20c7843957f61f62c58bb6","freq","","","img/orange_2bandit_a2.png","70","","70","test","1","","59","","","","square","circle","57","16","3","0.9473684210526315","","","","","","","",""
"null","120935","SARL_v6","SARL_v67wh32be0","5f20c7843957f61f62c58bb6","freq_resp","","","img/orange_2bandit_a.png","70","img/orange_2bandit_a.png","70","test","","","","","","","","","","","3","","","","","","","","",""
"null","121091","SARL_v6","SARL_v67wh32be0","5f20c7843957f61f62c58bb6","fixation","","","img/fixation.png","null","","","test","","","","","","","","","","","","","","","","","","","",""
"292.80000001192093","121387","SARL_v6","SARL_v67wh32be0","5f20c7843957f61f62c58bb6","freq","","","img/orange_2bandit_a2.png","70","","70","test","1","","60","","","","square","circle","58","17","3","0.9482758620689655","","","","","","","",""
"null","121904","SARL_v6","SARL_v67wh32be0","5f20c7843957f61f62c58bb6","freq_resp","","","img/orange_2bandit_a.png","70","img/orange_2bandit_a.png","70","test","","","","","","","","","","","3","","","","","","","","",""
"null","122059","SARL_v6","SARL_v67wh32be0","5f20c7843957f61f62c58bb6","fixation","","","img/fixation.png","null","","","test","","","","","","","","","","","","","","","","","","","",""
"240.30000001192093","122303","SARL_v6","SARL_v67wh32be0","5f20c7843957f61f62c58bb6","freq","","","img/orange_2bandit_a2.png","70","","70","test","1","","61","","","","square","circle","59","18","3","0.9491525423728814","","","","","","","",""
"null","122871","SARL_v6","SARL_v67wh32be0","5f20c7843957f61f62c58bb6","freq_resp","","","img/orange_2bandit_a.png","70","img/orange_2bandit_a.png","70","test","","","","","","","","","","","3","","","","","","","","",""
"null","123037","SARL_v6","SARL_v67wh32be0","5f20c7843957f61f62c58bb6","fixation","","","img/fixation.png","null","","","test","","","","","","","","","","","","","","","","","","","",""
"153.0999999642372","123193","SARL_v6","SARL_v67wh32be0","5f20c7843957f61f62c58bb6","freq","","","img/orange_2bandit_a2.png","70","","70","test","1","","62","","","","square","circle","60","19","3","0.95","","","","","","","",""
"null","123850","SARL_v6","SARL_v67wh32be0","5f20c7843957f61f62c58bb6","freq_resp","","","img/orange_2bandit_a.png","70","img/orange_2bandit_a.png","70","test","","","","","","","","","","","3","","","","","","","","",""
"null","124008","SARL_v6","SARL_v67wh32be0","5f20c7843957f61f62c58bb6","fixation","","","img/fixation.png","null","","","test","","","","","","","","","","","","","","","","","","","",""
"261.19999998807907","124272","SARL_v6","SARL_v67wh32be0","5f20c7843957f61f62c58bb6","infreq","","","img/blue_2bandit_a2.png","70","","68","test","0","","63","","","","square","circle","61","20","3","0.9344262295081968","","","","","","","",""
"null","124817","SARL_v6","SARL_v67wh32be0","5f20c7843957f61f62c58bb6","infreq_resp","","","img/blue_2bandit_a.png","70","img/blue_2bandit_a.png","68","test","","","","","","","","","","","3","","","","","","","","",""
"null","124984","SARL_v6","SARL_v67wh32be0","5f20c7843957f61f62c58bb6","fixation","","","img/fixation.png","null","","","test","","","","","","","","","","","","","","","","","","","",""
"489.5","125476","SARL_v6","SARL_v67wh32be0","5f20c7843957f61f62c58bb6","freq","","","img/orange_2bandit_a2.png","70","","70","test","1","","64","","","","square","circle","62","21","3","0.9354838709677419","","","","","","","",""
"null","125795","SARL_v6","SARL_v67wh32be0","5f20c7843957f61f62c58bb6","freq_resp","","","img/orange_2bandit_a.png","70","img/orange_2bandit_a.png","70","test","","","","","","","","","","","3","","","","","","","","",""
"null","125956","SARL_v6","SARL_v67wh32be0","5f20c7843957f61f62c58bb6","fixation","","","img/fixation.png","null","","","test","","","","","","","","","","","","","","","","","","","",""
"379.4000000357628","126338","SARL_v6","SARL_v67wh32be0","5f20c7843957f61f62c58bb6","freq","","","img/orange_2bandit_a2.png","70","","70","test","1","","65","","","","square","circle","63","22","3","0.9365079365079365","","","","","","","",""
"null","126773","SARL_v6","SARL_v67wh32be0","5f20c7843957f61f62c58bb6","freq_resp","","","img/orange_2bandit_a.png","70","img/orange_2bandit_a.png","70","test","","","","","","","","","","","3","","","","","","","","",""
"null","126937","SARL_v6","SARL_v67wh32be0","5f20c7843957f61f62c58bb6","fixation","","","img/fixation.png","null","","","test","","","","","","","","","","","","","","","","","","","",""
"492.2999999523163","127433","SARL_v6","SARL_v67wh32be0","5f20c7843957f61f62c58bb6","rl","","","img/black_2bandit_a2.png","74","","0","test","","","66","","","-4","square","circle","","0","3","","74","-8","-4","-4","-8","square","3","0"
"null","128197","SARL_v6","SARL_v67wh32be0","5f20c7843957f61f62c58bb6","feedback","","","<div class=""verylowPoints_sq""> -4 </div>","null","","na","test","","","NaN","","","","","","","","3","","74","","","","","","3",""
"582.1999999880791","128782","SARL_v6","SARL_v67wh32be0","5f20c7843957f61f62c58bb6","freq","","","img/orange_2bandit_a2.png","70","","70","test","1","","67","","","","square","circle","64","1","4","0.9375","","","","","","","",""
"null","129010","SARL_v6","SARL_v67wh32be0","5f20c7843957f61f62c58bb6","freq_resp","","","img/orange_2bandit_a.png","70","img/orange_2bandit_a.png","70","test","","","","","","","","","","","4","","","","","","","","",""
"null","129164","SARL_v6","SARL_v67wh32be0","5f20c7843957f61f62c58bb6","fixation","","","img/fixation.png","null","","","test","","","","","","","","","","","","","","","","","","","",""
"409.30000001192093","129576","SARL_v6","SARL_v67wh32be0","5f20c7843957f61f62c58bb6","freq","","","img/orange_2bandit_a2.png","70","","70","test","1","","68","","","","square","circle","65","2","4","0.9384615384615385","","","","","","","",""
"null","129981","SARL_v6","SARL_v67wh32be0","5f20c7843957f61f62c58bb6","freq_resp","","","img/orange_2bandit_a.png","70","img/orange_2bandit_a.png","70","test","","","","","","","","","","","4","","","","","","","","",""
"null","130137","SARL_v6","SARL_v67wh32be0","5f20c7843957f61f62c58bb6","fixation","","","img/fixation.png","null","","","test","","","","","","","","","","","","","","","","","","","",""
"302","130442","SARL_v6","SARL_v67wh32be0","5f20c7843957f61f62c58bb6","freq","","","img/orange_2bandit_a2.png","70","","70","test","1","","69","","","","square","circle","66","3","4","0.9393939393939394","","","","","","","",""
"null","130953","SARL_v6","SARL_v67wh32be0","5f20c7843957f61f62c58bb6","freq_resp","","","img/orange_2bandit_a.png","70","img/orange_2bandit_a.png","70","test","","","","","","","","","","","4","","","","","","","","",""
"null","131115","SARL_v6","SARL_v67wh32be0","5f20c7843957f61f62c58bb6","fixation","","","img/fixation.png","null","","","test","","","","","","","","","","","","","","","","","","","",""
"240.30000001192093","131358","SARL_v6","SARL_v67wh32be0","5f20c7843957f61f62c58bb6","freq","","","img/orange_2bandit_a2.png","70","","70","test","1","","70","","","","square","circle","67","4","4","0.9402985074626866","","","","","","","",""
"null","131926","SARL_v6","SARL_v67wh32be0","5f20c7843957f61f62c58bb6","freq_resp","","","img/orange_2bandit_a.png","70","img/orange_2bandit_a.png","70","test","","","","","","","","","","","4","","","","","","","","",""
"null","132083","SARL_v6","SARL_v67wh32be0","5f20c7843957f61f62c58bb6","fixation","","","img/fixation.png","null","","","test","","","","","","","","","","","","","","","","","","","",""
"337.69999998807907","132424","SARL_v6","SARL_v67wh32be0","5f20c7843957f61f62c58bb6","freq","","","img/orange_2bandit_a2.png","70","","70","test","1","","71","","","","square","circle","68","5","4","0.9411764705882353","","","","","","","",""
"null","132900","SARL_v6","SARL_v67wh32be0","5f20c7843957f61f62c58bb6","freq_resp","","","img/orange_2bandit_a.png","70","img/orange_2bandit_a.png","70","test","","","","","","","","","","","4","","","","","","","","",""
"null","133066","SARL_v6","SARL_v67wh32be0","5f20c7843957f61f62c58bb6","fixation","","","img/fixation.png","null","","","test","","","","","","","","","","","","","","","","","","","",""
"334.4000000357628","133403","SARL_v6","SARL_v67wh32be0","5f20c7843957f61f62c58bb6","freq","","","img/orange_2bandit_a2.png","70","","70","test","1","","72","","","","square","circle","69","6","4","0.9420289855072463","","","","","","","",""
"null","133883","SARL_v6","SARL_v67wh32be0","5f20c7843957f61f62c58bb6","freq_resp","","","img/orange_2bandit_a.png","70","img/orange_2bandit_a.png","70","test","","","","","","","","","","","4","","","","","","","","",""
"null","134037","SARL_v6","SARL_v67wh32be0","5f20c7843957f61f62c58bb6","fixation","","","img/fixation.png","null","","","test","","","","","","","","","","","","","","","","","","","",""
"353.0999999642372","134393","SARL_v6","SARL_v67wh32be0","5f20c7843957f61f62c58bb6","freq","","","img/orange_2bandit_a2.png","70","","70","test","1","","73","","","","square","circle","70","7","4","0.9428571428571428","","","","","","","",""
"null","134850","SARL_v6","SARL_v67wh32be0","5f20c7843957f61f62c58bb6","freq_resp","","","img/orange_2bandit_a.png","70","img/orange_2bandit_a.png","70","test","","","","","","","","","","","4","","","","","","","","",""
"null","135015","SARL_v6","SARL_v67wh32be0","5f20c7843957f61f62c58bb6","fixation","","","img/fixation.png","null","","","test","","","","","","","","","","","","","","","","","","","",""
"394.7000000476837","135413","SARL_v6","SARL_v67wh32be0","5f20c7843957f61f62c58bb6","freq","","","img/orange_2bandit_a2.png","70","","70","test","1","","74","","","","square","circle","71","8","4","0.9436619718309859","","","","","","","",""
"null","135826","SARL_v6","SARL_v67wh32be0","5f20c7843957f61f62c58bb6","freq_resp","","","img/orange_2bandit_a.png","70","img/orange_2bandit_a.png","70","test","","","","","","","","","","","4","","","","","","","","",""
"null","135982","SARL_v6","SARL_v67wh32be0","5f20c7843957f61f62c58bb6","fixation","","","img/fixation.png","null","","","test","","","","","","","","","","","","","","","","","","","",""
"392.9000000357628","136378","SARL_v6","SARL_v67wh32be0","5f20c7843957f61f62c58bb6","freq","","","img/orange_2bandit_a2.png","70","","70","test","1","","75","","","","square","circle","72","9","4","0.9444444444444444","","","","","","","",""
"null","136799","SARL_v6","SARL_v67wh32be0","5f20c7843957f61f62c58bb6","freq_resp","","","img/orange_2bandit_a.png","70","img/orange_2bandit_a.png","70","test","","","","","","","","","","","4","","","","","","","","",""
"null","136957","SARL_v6","SARL_v67wh32be0","5f20c7843957f61f62c58bb6","fixation","","","img/fixation.png","null","","","test","","","","","","","","","","","","","","","","","","","",""
"402.4000000357628","137363","SARL_v6","SARL_v67wh32be0","5f20c7843957f61f62c58bb6","freq","","","img/orange_2bandit_a2.png","70","","70","test","1","","76","","","","square","circle","73","10","4","0.9452054794520548","","","","","","","",""
"null","137776","SARL_v6","SARL_v67wh32be0","5f20c7843957f61f62c58bb6","freq_resp","","","img/orange_2bandit_a.png","70","img/orange_2bandit_a.png","70","test","","","","","","","","","","","4","","","","","","","","",""
"null","137940","SARL_v6","SARL_v67wh32be0","5f20c7843957f61f62c58bb6","fixation","","","img/fixation.png","null","","","test","","","","","","","","","","","","","","","","","","","",""
"337.0999999642372","138280","SARL_v6","SARL_v67wh32be0","5f20c7843957f61f62c58bb6","freq","","","img/orange_2bandit_a2.png","70","","70","test","1","","77","","","","square","circle","74","11","4","0.9459459459459459","","","","","","","",""
"null","138754","SARL_v6","SARL_v67wh32be0","5f20c7843957f61f62c58bb6","freq_resp","","","img/orange_2bandit_a.png","70","img/orange_2bandit_a.png","70","test","","","","","","","","","","","4","","","","","","","","",""
"null","138911","SARL_v6","SARL_v67wh32be0","5f20c7843957f61f62c58bb6","fixation","","","img/fixation.png","null","","","test","","","","","","","","","","","","","","","","","","","",""
"323.5","139237","SARL_v6","SARL_v67wh32be0","5f20c7843957f61f62c58bb6","freq","","","img/orange_2bandit_a2.png","70","","70","test","1","","78","","","","square","circle","75","12","4","0.9466666666666667","","","","","","","",""
"null","139731","SARL_v6","SARL_v67wh32be0","5f20c7843957f61f62c58bb6","freq_resp","","","img/orange_2bandit_a.png","70","img/orange_2bandit_a.png","70","test","","","","","","","","","","","4","","","","","","","","",""
"null","139894","SARL_v6","SARL_v67wh32be0","5f20c7843957f61f62c58bb6","fixation","","","img/fixation.png","null","","","test","","","","","","","","","","","","","","","","","","","",""
"242.30000001192093","140140","SARL_v6","SARL_v67wh32be0","5f20c7843957f61f62c58bb6","freq","","","img/orange_2bandit_a2.png","70","","70","test","1","","79","","","","square","circle","76","13","4","0.9473684210526315","","","","","","","",""
"null","140705","SARL_v6","SARL_v67wh32be0","5f20c7843957f61f62c58bb6","freq_resp","","","img/orange_2bandit_a.png","70","img/orange_2bandit_a.png","70","test","","","","","","","","","","","4","","","","","","","","",""
"null","140861","SARL_v6","SARL_v67wh32be0","5f20c7843957f61f62c58bb6","fixation","","","img/fixation.png","null","","","test","","","","","","","","","","","","","","","","","","","",""
"349.80000001192093","141213","SARL_v6","SARL_v67wh32be0","5f20c7843957f61f62c58bb6","freq","","","img/orange_2bandit_a2.png","70","","70","test","1","","80","","","","square","circle","77","14","4","0.948051948051948","","","","","","","",""
"null","141668","SARL_v6","SARL_v67wh32be0","5f20c7843957f61f62c58bb6","freq_resp","","","img/orange_2bandit_a.png","70","img/orange_2bandit_a.png","70","test","","","","","","","","","","","4","","","","","","","","",""
"null","141837","SARL_v6","SARL_v67wh32be0","5f20c7843957f61f62c58bb6","fixation","","","img/fixation.png","null","","","test","","","","","","","","","","","","","","","","","","","",""
"333.5","142174","SARL_v6","SARL_v67wh32be0","5f20c7843957f61f62c58bb6","freq","","","img/orange_2bandit_a2.png","70","","70","test","1","","81","","","","square","circle","78","15","4","0.9487179487179487","","","","","","","",""
"null","142647","SARL_v6","SARL_v67wh32be0","5f20c7843957f61f62c58bb6","freq_resp","","","img/orange_2bandit_a.png","70","img/orange_2bandit_a.png","70","test","","","","","","","","","","","4","","","","","","","","",""
"null","142810","SARL_v6","SARL_v67wh32be0","5f20c7843957f61f62c58bb6","fixation","","","img/fixation.png","null","","","test","","","","","","","","","","","","","","","","","","","",""
"489.10000002384186","143303","SARL_v6","SARL_v67wh32be0","5f20c7843957f61f62c58bb6","infreq","","","img/blue_2bandit_a2.png","68","","68","test","1","","82","","","","square","circle","79","16","4","0.9493670886075949","","","","","","","",""
"null","143628","SARL_v6","SARL_v67wh32be0","5f20c7843957f61f62c58bb6","infreq_resp","","","img/blue_2bandit_a.png","68","img/blue_2bandit_a.png","68","test","","","","","","","","","","","4","","","","","","","","",""
"null","143783","SARL_v6","SARL_v67wh32be0","5f20c7843957f61f62c58bb6","fixation","","","img/fixation.png","null","","","test","","","","","","","","","","","","","","","","","","","",""
"537.6999999880791","144324","SARL_v6","SARL_v67wh32be0","5f20c7843957f61f62c58bb6","freq","","","img/orange_2bandit_a2.png","70","","70","test","1","","83","","","","square","circle","80","17","4","0.95","","","","","","","",""
"null","144597","SARL_v6","SARL_v67wh32be0","5f20c7843957f61f62c58bb6","freq_resp","","","img/orange_2bandit_a.png","70","img/orange_2bandit_a.png","70","test","","","","","","","","","","","4","","","","","","","","",""
"null","144760","SARL_v6","SARL_v67wh32be0","5f20c7843957f61f62c58bb6","fixation","","","img/fixation.png","null","","","test","","","","","","","","","","","","","","","","","","","",""
"574","145337","SARL_v6","SARL_v67wh32be0","5f20c7843957f61f62c58bb6","infreq","","","img/blue_2bandit_a2.png","68","","68","test","1","","84","","","","square","circle","81","18","4","0.9506172839506173","","","","","","","",""
"null","145575","SARL_v6","SARL_v67wh32be0","5f20c7843957f61f62c58bb6","infreq_resp","","","img/blue_2bandit_a.png","68","img/blue_2bandit_a.png","68","test","","","","","","","","","","","4","","","","","","","","",""
"null","145740","SARL_v6","SARL_v67wh32be0","5f20c7843957f61f62c58bb6","fixation","","","img/fixation.png","null","","","test","","","","","","","","","","","","","","","","","","","",""
"551.9000000357628","146296","SARL_v6","SARL_v67wh32be0","5f20c7843957f61f62c58bb6","freq","","","img/orange_2bandit_a2.png","70","","70","test","1","","85","","","","square","circle","82","19","4","0.9512195121951219","","","","","","","",""
"null","146555","SARL_v6","SARL_v67wh32be0","5f20c7843957f61f62c58bb6","freq_resp","","","img/orange_2bandit_a.png","70","img/orange_2bandit_a.png","70","test","","","","","","","","","","","4","","","","","","","","",""
"null","146716","SARL_v6","SARL_v67wh32be0","5f20c7843957f61f62c58bb6","fixation","","","img/fixation.png","null","","","test","","","","","","","","","","","","","","","","","","","",""
"461.80000001192093","147181","SARL_v6","SARL_v67wh32be0","5f20c7843957f61f62c58bb6","freq","","","img/orange_2bandit_a2.png","70","","70","test","1","","86","","","","square","circle","83","20","4","0.9518072289156626","","","","","","","",""
"null","147528","SARL_v6","SARL_v67wh32be0","5f20c7843957f61f62c58bb6","freq_resp","","","img/orange_2bandit_a.png","70","img/orange_2bandit_a.png","70","test","","","","","","","","","","","4","","","","","","","","",""
"null","147684","SARL_v6","SARL_v67wh32be0","5f20c7843957f61f62c58bb6","fixation","","","img/fixation.png","null","","","test","","","","","","","","","","","","","","","","","","","",""
"477.5","148164","SARL_v6","SARL_v67wh32be0","5f20c7843957f61f62c58bb6","freq","","","img/orange_2bandit_a2.png","70","","70","test","1","","87","","","","square","circle","84","21","4","0.9523809523809523","","","","","","","",""
"null","148498","SARL_v6","SARL_v67wh32be0","5f20c7843957f61f62c58bb6","freq_resp","","","img/orange_2bandit_a.png","70","img/orange_2bandit_a.png","70","test","","","","","","","","","","","4","","","","","","","","",""
"null","148662","SARL_v6","SARL_v67wh32be0","5f20c7843957f61f62c58bb6","fixation","","","img/fixation.png","null","","","test","","","","","","","","","","","","","","","","","","","",""
"448.9000000357628","149113","SARL_v6","SARL_v67wh32be0","5f20c7843957f61f62c58bb6","rl","","","img/black_2bandit_a2.png","74","","0","test","","","88","","","0","square","circle","","0","4","","74","-12","0","0","-12","square","4","0"
"null","149869","SARL_v6","SARL_v67wh32be0","5f20c7843957f61f62c58bb6","feedback","","","<div class=""verylowPoints_sq""> 0 </div>","null","","na","test","","","NaN","","","","","","","","4","","74","","","","","","4",""
"747.1999999880791","150619","SARL_v6","SARL_v67wh32be0","5f20c7843957f61f62c58bb6","freq","","","img/orange_2bandit_a2.png","70","","70","test","1","","89","","","","square","circle","85","1","5","0.9529411764705882","","","","","","","",""
"null","150680","SARL_v6","SARL_v67wh32be0","5f20c7843957f61f62c58bb6","freq_resp","","","img/orange_2bandit_a.png","70","img/orange_2bandit_a.png","70","test","","","","","","","","","","","5","","","","","","","","",""
"null","150845","SARL_v6","SARL_v67wh32be0","5f20c7843957f61f62c58bb6","fixation","","","img/fixation.png","null","","","test","","","","","","","","","","","","","","","","","","","",""
"674.1000000238419","151522","SARL_v6","SARL_v67wh32be0","5f20c7843957f61f62c58bb6","freq","","","img/orange_2bandit_a2.png","70","","70","test","1","","90","","","","square","circle","86","2","5","0.9534883720930233","","","","","","","",""
"null","151665","SARL_v6","SARL_v67wh32be0","5f20c7843957f61f62c58bb6","freq_resp","","","img/orange_2bandit_a.png","70","img/orange_2bandit_a.png","70","test","","","","","","","","","","","5","","","","","","","","",""
"null","151820","SARL_v6","SARL_v67wh32be0","5f20c7843957f61f62c58bb6","fixation","","","img/fixation.png","null","","","test","","","","","","","","","","","","","","","","","","","",""
"454.19999998807907","152277","SARL_v6","SARL_v67wh32be0","5f20c7843957f61f62c58bb6","freq","","","img/orange_2bandit_a2.png","70","","70","test","1","","91","","","","square","circle","87","3","5","0.9540229885057471","","","","","","","",""
"null","152627","SARL_v6","SARL_v67wh32be0","5f20c7843957f61f62c58bb6","freq_resp","","","img/orange_2bandit_a.png","70","img/orange_2bandit_a.png","70","test","","","","","","","","","","","5","","","","","","","","",""
"null","152789","SARL_v6","SARL_v67wh32be0","5f20c7843957f61f62c58bb6","fixation","","","img/fixation.png","null","","","test","","","","","","","","","","","","","","","","","","","",""
"415.7999999523163","153208","SARL_v6","SARL_v67wh32be0","5f20c7843957f61f62c58bb6","freq","","","img/orange_2bandit_a2.png","70","","70","test","1","","92","","","","square","circle","88","4","5","0.9545454545454546","","","","","","","",""
"null","153603","SARL_v6","SARL_v67wh32be0","5f20c7843957f61f62c58bb6","freq_resp","","","img/orange_2bandit_a.png","70","img/orange_2bandit_a.png","70","test","","","","","","","","","","","5","","","","","","","","",""
"null","153762","SARL_v6","SARL_v67wh32be0","5f20c7843957f61f62c58bb6","fixation","","","img/fixation.png","null","","","test","","","","","","","","","","","","","","","","","","","",""
"451.10000002384186","154216","SARL_v6","SARL_v67wh32be0","5f20c7843957f61f62c58bb6","freq","","","img/orange_2bandit_a2.png","70","","70","test","1","","93","","","","square","circle","89","5","5","0.9550561797752809","","","","","","","",""
"null","154570","SARL_v6","SARL_v67wh32be0","5f20c7843957f61f62c58bb6","freq_resp","","","img/orange_2bandit_a.png","70","img/orange_2bandit_a.png","70","test","","","","","","","","","","","5","","","","","","","","",""
"null","154730","SARL_v6","SARL_v67wh32be0","5f20c7843957f61f62c58bb6","fixation","","","img/fixation.png","null","","","test","","","","","","","","","","","","","","","","","","","",""
"503.69999998807907","155237","SARL_v6","SARL_v67wh32be0","5f20c7843957f61f62c58bb6","infreq","","","img/blue_2bandit_a2.png","68","","68","test","1","","94","","","","square","circle","90","6","5","0.9555555555555556","","","","","","","",""
"null","155549","SARL_v6","SARL_v67wh32be0","5f20c7843957f61f62c58bb6","infreq_resp","","","img/blue_2bandit_a.png","68","img/blue_2bandit_a.png","68","test","","","","","","","","","","","5","","","","","","","","",""
"null","155703","SARL_v6","SARL_v67wh32be0","5f20c7843957f61f62c58bb6","fixation","","","img/fixation.png","null","","","test","","","","","","","","","","","","","","","","","","","",""
"785.9000000357628","156492","SARL_v6","SARL_v67wh32be0","5f20c7843957f61f62c58bb6","freq","","","img/orange_2bandit_a2.png","70","","70","test","1","","95","","","","square","circle","91","7","5","0.9560439560439561","","","","","","","",""
"null","156511","SARL_v6","SARL_v67wh32be0","5f20c7843957f61f62c58bb6","freq_resp","","","img/orange_2bandit_a.png","70","img/orange_2bandit_a.png","70","test","","","","","","","","","","","5","","","","","","","","",""
"null","156676","SARL_v6","SARL_v67wh32be0","5f20c7843957f61f62c58bb6","fixation","","","img/fixation.png","null","","","test","","","","","","","","","","","","","","","","","","","",""
"610.1999999880791","157289","SARL_v6","SARL_v67wh32be0","5f20c7843957f61f62c58bb6","freq","","","img/orange_2bandit_a2.png","70","","70","test","1","","96","","","","square","circle","92","8","5","0.9565217391304348","","","","","","","",""
"null","157493","SARL_v6","SARL_v67wh32be0","5f20c7843957f61f62c58bb6","freq_resp","","","img/orange_2bandit_a.png","70","img/orange_2bandit_a.png","70","test","","","","","","","","","","","5","","","","","","","","",""
"null","157653","SARL_v6","SARL_v67wh32be0","5f20c7843957f61f62c58bb6","fixation","","","img/fixation.png","null","","","test","","","","","","","","","","","","","","","","","","","",""
"492.19999998807907","158148","SARL_v6","SARL_v67wh32be0","5f20c7843957f61f62c58bb6","freq","","","img/orange_2bandit_a2.png","70","","70","test","1","","97","","","","square","circle","93","9","5","0.956989247311828","","","","","","","",""
"null","158462","SARL_v6","SARL_v67wh32be0","5f20c7843957f61f62c58bb6","freq_resp","","","img/orange_2bandit_a.png","70","img/orange_2bandit_a.png","70","test","","","","","","","","","","","5","","","","","","","","",""
"null","158618","SARL_v6","SARL_v67wh32be0","5f20c7843957f61f62c58bb6","fixation","","","img/fixation.png","null","","","test","","","","","","","","","","","","","","","","","","","",""
"395.60000002384186","159017","SARL_v6","SARL_v67wh32be0","5f20c7843957f61f62c58bb6","freq","","","img/orange_2bandit_a2.png","70","","70","test","1","","98","","","","square","circle","94","10","5","0.9574468085106383","","","","","","","",""
"null","159435","SARL_v6","SARL_v67wh32be0","5f20c7843957f61f62c58bb6","freq_resp","","","img/orange_2bandit_a.png","70","img/orange_2bandit_a.png","70","test","","","","","","","","","","","5","","","","","","","","",""
"null","159591","SARL_v6","SARL_v67wh32be0","5f20c7843957f61f62c58bb6","fixation","","","img/fixation.png","null","","","test","","","","","","","","","","","","","","","","","","","",""
"372.30000001192093","159968","SARL_v6","SARL_v67wh32be0","5f20c7843957f61f62c58bb6","freq","","","img/orange_2bandit_a2.png","70","","70","test","1","","99","","","","square","circle","95","11","5","0.9578947368421052","","","","","","","",""
"null","160400","SARL_v6","SARL_v67wh32be0","5f20c7843957f61f62c58bb6","freq_resp","","","img/orange_2bandit_a.png","70","img/orange_2bandit_a.png","70","test","","","","","","","","","","","5","","","","","","","","",""
"null","160556","SARL_v6","SARL_v67wh32be0","5f20c7843957f61f62c58bb6","fixation","","","img/fixation.png","null","","","test","","","","","","","","","","","","","","","","","","","",""
"455","161014","SARL_v6","SARL_v67wh32be0","5f20c7843957f61f62c58bb6","freq","","","img/orange_2bandit_a2.png","70","","70","test","1","","100","","","","square","circle","96","12","5","0.9583333333333334","","","","","","","",""
"null","161376","SARL_v6","SARL_v67wh32be0","5f20c7843957f61f62c58bb6","freq_resp","","","img/orange_2bandit_a.png","70","img/orange_2bandit_a.png","70","test","","","","","","","","","","","5","","","","","","","","",""
"null","161541","SARL_v6","SARL_v67wh32be0","5f20c7843957f61f62c58bb6","fixation","","","img/fixation.png","null","","","test","","","","","","","","","","","","","","","","","","","",""
"391.5","161936","SARL_v6","SARL_v67wh32be0","5f20c7843957f61f62c58bb6","freq","","","img/orange_2bandit_a2.png","70","","70","test","1","","101","","","","square","circle","97","13","5","0.9587628865979382","","","","","","","",""
"null","162356","SARL_v6","SARL_v67wh32be0","5f20c7843957f61f62c58bb6","freq_resp","","","img/orange_2bandit_a.png","70","img/orange_2bandit_a.png","70","test","","","","","","","","","","","5","","","","","","","","",""
"null","162517","SARL_v6","SARL_v67wh32be0","5f20c7843957f61f62c58bb6","fixation","","","img/fixation.png","null","","","test","","","","","","","","","","","","","","","","","","","",""
"323.5","162844","SARL_v6","SARL_v67wh32be0","5f20c7843957f61f62c58bb6","freq","","","img/orange_2bandit_a2.png","70","","70","test","1","","102","","","","square","circle","98","14","5","0.9591836734693877","","","","","","","",""
"null","163338","SARL_v6","SARL_v67wh32be0","5f20c7843957f61f62c58bb6","freq_resp","","","img/orange_2bandit_a.png","70","img/orange_2bandit_a.png","70","test","","","","","","","","","","","5","","","","","","","","",""
"null","163492","SARL_v6","SARL_v67wh32be0","5f20c7843957f61f62c58bb6","fixation","","","img/fixation.png","null","","","test","","","","","","","","","","","","","","","","","","","",""
"507","164002","SARL_v6","SARL_v67wh32be0","5f20c7843957f61f62c58bb6","infreq","","","img/blue_2bandit_a2.png","68","","68","test","1","","103","","","","square","circle","99","15","5","0.9595959595959596","","","","","","","",""
"null","164310","SARL_v6","SARL_v67wh32be0","5f20c7843957f61f62c58bb6","infreq_resp","","","img/blue_2bandit_a.png","68","img/blue_2bandit_a.png","68","test","","","","","","","","","","","5","","","","","","","","",""
"null","164479","SARL_v6","SARL_v67wh32be0","5f20c7843957f61f62c58bb6","fixation","","","img/fixation.png","null","","","test","","","","","","","","","","","","","","","","","","","",""
"326.80000001192093","164809","SARL_v6","SARL_v67wh32be0","5f20c7843957f61f62c58bb6","freq","","","img/orange_2bandit_a2.png","70","","70","test","1","","104","","","","square","circle","100","16","5","0.96","","","","","","","",""
"null","165291","SARL_v6","SARL_v67wh32be0","5f20c7843957f61f62c58bb6","freq_resp","","","img/orange_2bandit_a.png","70","img/orange_2bandit_a.png","70","test","","","","","","","","","","","5","","","","","","","","",""
"null","165453","SARL_v6","SARL_v67wh32be0","5f20c7843957f61f62c58bb6","fixation","","","img/fixation.png","null","","","test","","","","","","","","","","","","","","","","","","","",""
"194.5999999642372","165651","SARL_v6","SARL_v67wh32be0","5f20c7843957f61f62c58bb6","freq","","","img/orange_2bandit_a2.png","70","","70","test","1","","105","","","","square","circle","101","17","5","0.9603960396039604","","","","","","","",""
"null","166272","SARL_v6","SARL_v67wh32be0","5f20c7843957f61f62c58bb6","freq_resp","","","img/orange_2bandit_a.png","70","img/orange_2bandit_a.png","70","test","","","","","","","","","","","5","","","","","","","","",""
"null","166439","SARL_v6","SARL_v67wh32be0","5f20c7843957f61f62c58bb6","fixation","","","img/fixation.png","null","","","test","","","","","","","","","","","","","","","","","","","",""
"75","166517","SARL_v6","SARL_v67wh32be0","5f20c7843957f61f62c58bb6","freq","","","img/orange_2bandit_a2.png","70","","70","test","1","","106","","","","square","circle","102","18","5","0.9607843137254902","","","","","","","",""
"null","167253","SARL_v6","SARL_v67wh32be0","5f20c7843957f61f62c58bb6","freq_resp","","","img/orange_2bandit_a.png","70","img/orange_2bandit_a.png","70","test","","","","","","","","","","","5","","","","","","","","",""
"null","167415","SARL_v6","SARL_v67wh32be0","5f20c7843957f61f62c58bb6","fixation","","","img/fixation.png","null","","","test","","","","","","","","","","","","","","","","","","","",""
"332.60000002384186","167751","SARL_v6","SARL_v67wh32be0","5f20c7843957f61f62c58bb6","freq","","","img/orange_2bandit_a2.png","70","","70","test","1","","107","","","","square","circle","103","19","5","0.9611650485436893","","","","","","","",""
"null","168226","SARL_v6","SARL_v67wh32be0","5f20c7843957f61f62c58bb6","freq_resp","","","img/orange_2bandit_a.png","70","img/orange_2bandit_a.png","70","test","","","","","","","","","","","5","","","","","","","","",""
"null","168380","SARL_v6","SARL_v67wh32be0","5f20c7843957f61f62c58bb6","fixation","","","img/fixation.png","null","","","test","","","","","","","","","","","","","","","","","","","",""
"121.90000003576279","168505","SARL_v6","SARL_v67wh32be0","5f20c7843957f61f62c58bb6","freq","","","img/orange_2bandit_a2.png","70","","70","test","1","","108","","","","square","circle","104","20","5","0.9615384615384616","","","","","","","",""
"null","169191","SARL_v6","SARL_v67wh32be0","5f20c7843957f61f62c58bb6","freq_resp","","","img/orange_2bandit_a.png","70","img/orange_2bandit_a.png","70","test","","","","","","","","","","","5","","","","","","","","",""
"null","169351","SARL_v6","SARL_v67wh32be0","5f20c7843957f61f62c58bb6","fixation","","","img/fixation.png","null","","","test","","","","","","","","","","","","","","","","","","","",""
"574","169928","SARL_v6","SARL_v67wh32be0","5f20c7843957f61f62c58bb6","rl","","","img/black_2bandit_a2.png","74","","0","test","","","109","","","4","square","circle","","0","5","","74","-7","4","4","-7","square","5","0"
"null","170690","SARL_v6","SARL_v67wh32be0","5f20c7843957f61f62c58bb6","feedback","","","<div class=""veryhighPoints_sq""> 4 </div>","null","","na","test","","","NaN","","","","","","","","5","","74","","","","","","5",""
"519.0999999642372","171212","SARL_v6","SARL_v67wh32be0","5f20c7843957f61f62c58bb6","freq","","","img/orange_2bandit_a2.png","70","","70","test","1","","110","","","","square","circle","105","1","6","0.9619047619047619","","","","","","","",""
"null","171500","SARL_v6","SARL_v67wh32be0","5f20c7843957f61f62c58bb6","freq_resp","","","img/orange_2bandit_a.png","70","img/orange_2bandit_a.png","70","test","","","","","","","","","","","6","","","","","","","","",""
"null","171655","SARL_v6","SARL_v67wh32be0","5f20c7843957f61f62c58bb6","fixation","","","img/fixation.png","null","","","test","","","","","","","","","","","","","","","","","","","",""
"583.9000000357628","172242","SARL_v6","SARL_v67wh32be0","5f20c7843957f61f62c58bb6","infreq","","","img/blue_2bandit_a2.png","70","","68","test","0","","111","","","","square","circle","106","2","6","0.9528301886792453","","","","","","","",""
"null","172475","SARL_v6","SARL_v67wh32be0","5f20c7843957f61f62c58bb6","infreq_resp","","","img/blue_2bandit_a.png","70","img/blue_2bandit_a.png","68","test","","","","","","","","","","","6","","","","","","","","",""
"null","172634","SARL_v6","SARL_v67wh32be0","5f20c7843957f61f62c58bb6","fixation","","","img/fixation.png","null","","","test","","","","","","","","","","","","","","","","","","","",""
"433.89999997615814","173071","SARL_v6","SARL_v67wh32be0","5f20c7843957f61f62c58bb6","freq","","","img/orange_2bandit_a2.png","70","","70","test","1","","112","","","","square","circle","107","3","6","0.9532710280373832","","","","","","","",""
"null","173448","SARL_v6","SARL_v67wh32be0","5f20c7843957f61f62c58bb6","freq_resp","","","img/orange_2bandit_a.png","70","img/orange_2bandit_a.png","70","test","","","","","","","","","","","6","","","","","","","","",""
"null","173610","SARL_v6","SARL_v67wh32be0","5f20c7843957f61f62c58bb6","fixation","","","img/fixation.png","null","","","test","","","","","","","","","","","","","","","","","","","",""
"356.39999997615814","173970","SARL_v6","SARL_v67wh32be0","5f20c7843957f61f62c58bb6","freq","","","img/orange_2bandit_a2.png","70","","70","test","1","","113","","","","square","circle","108","4","6","0.9537037037037037","","","","","","","",""
"null","174418","SARL_v6","SARL_v67wh32be0","5f20c7843957f61f62c58bb6","freq_resp","","","img/orange_2bandit_a.png","70","img/orange_2bandit_a.png","70","test","","","","","","","","","","","6","","","","","","","","",""
"null","174578","SARL_v6","SARL_v67wh32be0","5f20c7843957f61f62c58bb6","fixation","","","img/fixation.png","null","","","test","","","","","","","","","","","","","","","","","","","",""
"387.89999997615814","174969","SARL_v6","SARL_v67wh32be0","5f20c7843957f61f62c58bb6","freq","","","img/orange_2bandit_a2.png","70","","70","test","1","","114","","","","square","circle","109","5","6","0.9541284403669725","","","","","","","",""
"null","175390","SARL_v6","SARL_v67wh32be0","5f20c7843957f61f62c58bb6","freq_resp","","","img/orange_2bandit_a.png","70","img/orange_2bandit_a.png","70","test","","","","","","","","","","","6","","","","","","","","",""
"null","175556","SARL_v6","SARL_v67wh32be0","5f20c7843957f61f62c58bb6","fixation","","","img/fixation.png","null","","","test","","","","","","","","","","","","","","","","","","","",""
"428.30000001192093","175987","SARL_v6","SARL_v67wh32be0","5f20c7843957f61f62c58bb6","freq","","","img/orange_2bandit_a2.png","70","","70","test","1","","115","","","","square","circle","110","6","6","0.9545454545454546","","","","","","","",""
"null","176369","SARL_v6","SARL_v67wh32be0","5f20c7843957f61f62c58bb6","freq_resp","","","img/orange_2bandit_a.png","70","img/orange_2bandit_a.png","70","test","","","","","","","","","","","6","","","","","","","","",""
"null","176533","SARL_v6","SARL_v67wh32be0","5f20c7843957f61f62c58bb6","fixation","","","img/fixation.png","null","","","test","","","","","","","","","","","","","","","","","","","",""
"339.80000001192093","176876","SARL_v6","SARL_v67wh32be0","5f20c7843957f61f62c58bb6","freq","","","img/orange_2bandit_a2.png","70","","70","test","1","","116","","","","square","circle","111","7","6","0.954954954954955","","","","","","","",""
"null","177346","SARL_v6","SARL_v67wh32be0","5f20c7843957f61f62c58bb6","freq_resp","","","img/orange_2bandit_a.png","70","img/orange_2bandit_a.png","70","test","","","","","","","","","","","6","","","","","","","","",""
"null","177506","SARL_v6","SARL_v67wh32be0","5f20c7843957f61f62c58bb6","fixation","","","img/fixation.png","null","","","test","","","","","","","","","","","","","","","","","","","",""
"298.0999999642372","177807","SARL_v6","SARL_v67wh32be0","5f20c7843957f61f62c58bb6","freq","","","img/orange_2bandit_a2.png","70","","70","test","1","","117","","","","square","circle","112","8","6","0.9553571428571429","","","","","","","",""
"null","178312","SARL_v6","SARL_v67wh32be0","5f20c7843957f61f62c58bb6","freq_resp","","","img/orange_2bandit_a.png","70","img/orange_2bandit_a.png","70","test","","","","","","","","","","","6","","","","","","","","",""
"null","178465","SARL_v6","SARL_v67wh32be0","5f20c7843957f61f62c58bb6","fixation","","","img/fixation.png","null","","","test","","","","","","","","","","","","","","","","","","","",""
"283.89999997615814","178752","SARL_v6","SARL_v67wh32be0","5f20c7843957f61f62c58bb6","freq","","","img/orange_2bandit_a2.png","70","","70","test","1","","118","","","","square","circle","113","9","6","0.9557522123893806","","","","","","","",""
"null","179274","SARL_v6","SARL_v67wh32be0","5f20c7843957f61f62c58bb6","freq_resp","","","img/orange_2bandit_a.png","70","img/orange_2bandit_a.png","70","test","","","","","","","","","","","6","","","","","","","","",""
"null","179429","SARL_v6","SARL_v67wh32be0","5f20c7843957f61f62c58bb6","fixation","","","img/fixation.png","null","","","test","","","","","","","","","","","","","","","","","","","",""
"339","179772","SARL_v6","SARL_v67wh32be0","5f20c7843957f61f62c58bb6","freq","","","img/orange_2bandit_a2.png","70","","70","test","1","","119","","","","square","circle","114","10","6","0.956140350877193","","","","","","","",""
"null","180252","SARL_v6","SARL_v67wh32be0","5f20c7843957f61f62c58bb6","freq_resp","","","img/orange_2bandit_a.png","70","img/orange_2bandit_a.png","70","test","","","","","","","","","","","6","","","","","","","","",""
"null","180407","SARL_v6","SARL_v67wh32be0","5f20c7843957f61f62c58bb6","fixation","","","img/fixation.png","null","","","test","","","","","","","","","","","","","","","","","","","",""
"347","180757","SARL_v6","SARL_v67wh32be0","5f20c7843957f61f62c58bb6","freq","","","img/orange_2bandit_a2.png","70","","70","test","1","","120","","","","square","circle","115","11","6","0.9565217391304348","","","","","","","",""
"null","181222","SARL_v6","SARL_v67wh32be0","5f20c7843957f61f62c58bb6","freq_resp","","","img/orange_2bandit_a.png","70","img/orange_2bandit_a.png","70","test","","","","","","","","","","","6","","","","","","","","",""
"null","181385","SARL_v6","SARL_v67wh32be0","5f20c7843957f61f62c58bb6","fixation","","","img/fixation.png","null","","","test","","","","","","","","","","","","","","","","","","","",""
"336.89999997615814","181725","SARL_v6","SARL_v67wh32be0","5f20c7843957f61f62c58bb6","freq","","","img/orange_2bandit_a2.png","70","","70","test","1","","121","","","","square","circle","116","12","6","0.9568965517241379","","","","","","","",""
"null","182201","SARL_v6","SARL_v67wh32be0","5f20c7843957f61f62c58bb6","freq_resp","","","img/orange_2bandit_a.png","70","img/orange_2bandit_a.png","70","test","","","","","","","","","","","6","","","","","","","","",""
"null","182356","SARL_v6","SARL_v67wh32be0","5f20c7843957f61f62c58bb6","fixation","","","img/fixation.png","null","","","test","","","","","","","","","","","","","","","","","","","",""
"594.8999999761581","182953","SARL_v6","SARL_v67wh32be0","5f20c7843957f61f62c58bb6","freq","","","img/orange_2bandit_a2.png","70","","70","test","1","","122","","","","square","circle","117","13","6","0.9572649572649573","","","","","","","",""
"null","183164","SARL_v6","SARL_v67wh32be0","5f20c7843957f61f62c58bb6","freq_resp","","","img/orange_2bandit_a.png","70","img/orange_2bandit_a.png","70","test","","","","","","","","","","","6","","","","","","","","",""
"null","183330","SARL_v6","SARL_v67wh32be0","5f20c7843957f61f62c58bb6","fixation","","","img/fixation.png","null","","","test","","","","","","","","","","","","","","","","","","","",""
"759.1999999880791","184093","SARL_v6","SARL_v67wh32be0","5f20c7843957f61f62c58bb6","freq","","","img/orange_2bandit_a2.png","70","","70","test","1","","123","","","","square","circle","118","14","6","0.9576271186440678","","","","","","","",""
"null","184137","SARL_v6","SARL_v67wh32be0","5f20c7843957f61f62c58bb6","freq_resp","","","img/orange_2bandit_a.png","70","img/orange_2bandit_a.png","70","test","","","","","","","","","","","6","","","","","","","","",""
"null","184299","SARL_v6","SARL_v67wh32be0","5f20c7843957f61f62c58bb6","fixation","","","img/fixation.png","null","","","test","","","","","","","","","","","","","","","","","","","",""
"null","185110","SARL_v6","SARL_v67wh32be0","5f20c7843957f61f62c58bb6","freq","","","img/orange_2bandit_a2.png","null","","70","test","0","","124","","","","square","circle","119","15","6","0.9495798319327731","","","","","","","",""
"null","185264","SARL_v6","SARL_v67wh32be0","5f20c7843957f61f62c58bb6","fixation","","","img/fixation.png","null","","","test","","","","","","","","","","","","","","","","","","","",""
"309.69999998807907","185577","SARL_v6","SARL_v67wh32be0","5f20c7843957f61f62c58bb6","freq","","","img/orange_2bandit_a2.png","70","","70","test","1","","125","","","","square","circle","120","16","6","0.95","","","","","","","",""
"null","186080","SARL_v6","SARL_v67wh32be0","5f20c7843957f61f62c58bb6","freq_resp","","","img/orange_2bandit_a.png","70","img/orange_2bandit_a.png","70","test","","","","","","","","","","","6","","","","","","","","",""
"null","186250","SARL_v6","SARL_v67wh32be0","5f20c7843957f61f62c58bb6","fixation","","","img/fixation.png","null","","","test","","","","","","","","","","","","","","","","","","","",""
"477.5","186730","SARL_v6","SARL_v67wh32be0","5f20c7843957f61f62c58bb6","freq","","","img/orange_2bandit_a2.png","70","","70","test","1","","126","","","","square","circle","121","17","6","0.9504132231404959","","","","","","","",""
"null","187060","SARL_v6","SARL_v67wh32be0","5f20c7843957f61f62c58bb6","freq_resp","","","img/orange_2bandit_a.png","70","img/orange_2bandit_a.png","70","test","","","","","","","","","","","6","","","","","","","","",""
"null","187225","SARL_v6","SARL_v67wh32be0","5f20c7843957f61f62c58bb6","fixation","","","img/fixation.png","null","","","test","","","","","","","","","","","","","","","","","","","",""
"392.39999997615814","187620","SARL_v6","SARL_v67wh32be0","5f20c7843957f61f62c58bb6","freq","","","img/orange_2bandit_a2.png","70","","70","test","1","","127","","","","square","circle","122","18","6","0.9508196721311475","","","","","","","",""
"null","188040","SARL_v6","SARL_v67wh32be0","5f20c7843957f61f62c58bb6","freq_resp","","","img/orange_2bandit_a.png","70","img/orange_2bandit_a.png","70","test","","","","","","","","","","","6","","","","","","","","",""
"null","188206","SARL_v6","SARL_v67wh32be0","5f20c7843957f61f62c58bb6","fixation","","","img/fixation.png","null","","","test","","","","","","","","","","","","","","","","","","","",""
"576.1999999880791","188786","SARL_v6","SARL_v67wh32be0","5f20c7843957f61f62c58bb6","freq","","","img/orange_2bandit_a2.png","70","","70","test","1","","128","","","","square","circle","123","19","6","0.9512195121951219","","","","","","","",""
"null","189021","SARL_v6","SARL_v67wh32be0","5f20c7843957f61f62c58bb6","freq_resp","","","img/orange_2bandit_a.png","70","img/orange_2bandit_a.png","70","test","","","","","","","","","","","6","","","","","","","","",""
"null","189184","SARL_v6","SARL_v67wh32be0","5f20c7843957f61f62c58bb6","fixation","","","img/fixation.png","null","","","test","","","","","","","","","","","","","","","","","","","",""
"490.39999997615814","189678","SARL_v6","SARL_v67wh32be0","5f20c7843957f61f62c58bb6","infreq","","","img/blue_2bandit_a2.png","68","","68","test","1","","129","","","","square","circle","124","20","6","0.9516129032258065","","","","","","","",""
"null","189990","SARL_v6","SARL_v67wh32be0","5f20c7843957f61f62c58bb6","infreq_resp","","","img/blue_2bandit_a.png","68","img/blue_2bandit_a.png","68","test","","","","","","","","","","","6","","","","","","","","",""
"null","190157","SARL_v6","SARL_v67wh32be0","5f20c7843957f61f62c58bb6","fixation","","","img/fixation.png","null","","","test","","","","","","","","","","","","","","","","","","","",""
"364.5","190525","SARL_v6","SARL_v67wh32be0","5f20c7843957f61f62c58bb6","freq","","","img/orange_2bandit_a2.png","70","","70","test","1","","130","","","","square","circle","125","21","6","0.952","","","","","","","",""
