"rt","time_elapsed","expId","subject","prolificID","trialType","rlType","attType","stimulus","key_press","stim","corrresp","phase","corr","pracCounter","trialNum","rewardOne","rewardTwo","reward","bandOne","bandTwo","attentionNum","attentionRunNum","blockNum","performance","bandChosen","circleVal","squareVal","bandOneVal","bandTwoVal","shapeChosen","rlNum","badFlag"
"23383.10000000894","23387","SARL_v6","SARL_v6tqg93jfh","62eab7b53494af2a6cb73504","","","","","","","","","","","","","","","","","","","","","","","","","","","",""
"","26280","SARL_v6","SARL_v6tqg93jfh","62eab7b53494af2a6cb73504","fullscreen","fullscreen","fullscreen","","","","","","","","","","","","","","","","","","","","","","","","",""
"182605","208890","SARL_v6","SARL_v6tqg93jfh","62eab7b53494af2a6cb73504","","","","","","","","","","","","","","","","","","","","","","","","","","","",""
"783.0999999940395","209677","SARL_v6","SARL_v6tqg93jfh","62eab7b53494af2a6cb73504","freqPrac","","","img/blue_2bandit_b2.png","70","img/blue_2bandit_b2.png","70","prac","1","0","","","","","","","","","","","","","","","","","",""
"783.0999999940395","209703","SARL_v6","SARL_v6tqg93jfh","62eab7b53494af2a6cb73504","freqPrac_resp","","","img/blue_2bandit_b.png","70","img/blue_2bandit_b.png","70","prac","","","","","","","","","","","","","","","","","","","",""
"null","209871","SARL_v6","SARL_v6tqg93jfh","62eab7b53494af2a6cb73504","fixation","","","img/fixation.png","null","","","prac","","","","","","","","","","","","","","","","","","","",""
"542.1000000089407","210417","SARL_v6","SARL_v6tqg93jfh","62eab7b53494af2a6cb73504","infreqPrac","","","img/orange_2bandit_b2.png","68","img/orange_2bandit_b2.png","68","prac","1","0","","","","","","","","","","","","","","","","","",""
"542.1000000089407","210683","SARL_v6","SARL_v6tqg93jfh","62eab7b53494af2a6cb73504","infreqPrac_resp","","","img/orange_2bandit_b.png","68","img/orange_2bandit_b.png","68","prac","","","","","","","","","","","","","","","","","","","",""
"null","210839","SARL_v6","SARL_v6tqg93jfh","62eab7b53494af2a6cb73504","fixation","","","img/fixation.png","null","","","prac","","","","","","","","","","","","","","","","","","","",""
"409.79999999701977","211252","SARL_v6","SARL_v6tqg93jfh","62eab7b53494af2a6cb73504","freqPrac","","","img/blue_2bandit_b2.png","70","img/blue_2bandit_b2.png","70","prac","1","0","","","","","","","","","","","","","","","","","",""
"409.79999999701977","211657","SARL_v6","SARL_v6tqg93jfh","62eab7b53494af2a6cb73504","freqPrac_resp","","","img/blue_2bandit_b.png","70","img/blue_2bandit_b.png","70","prac","","","","","","","","","","","","","","","","","","","",""
"null","211813","SARL_v6","SARL_v6tqg93jfh","62eab7b53494af2a6cb73504","fixation","","","img/fixation.png","null","","","prac","","","","","","","","","","","","","","","","","","","",""
"423.59999999403954","212240","SARL_v6","SARL_v6tqg93jfh","62eab7b53494af2a6cb73504","infreqPrac","","","img/orange_2bandit_b2.png","68","img/orange_2bandit_b2.png","68","prac","1","0","","","","","","","","","","","","","","","","","",""
"423.59999999403954","212633","SARL_v6","SARL_v6tqg93jfh","62eab7b53494af2a6cb73504","infreqPrac_resp","","","img/orange_2bandit_b.png","68","img/orange_2bandit_b.png","68","prac","","","","","","","","","","","","","","","","","","","",""
"null","212803","SARL_v6","SARL_v6tqg93jfh","62eab7b53494af2a6cb73504","fixation","","","img/fixation.png","null","","","prac","","","","","","","","","","","","","","","","","","","",""
"296.5","213102","SARL_v6","SARL_v6tqg93jfh","62eab7b53494af2a6cb73504","infreqPrac","","","img/orange_2bandit_b2.png","68","img/orange_2bandit_b2.png","68","prac","1","0","","","","","","","","","","","","","","","","","",""
"296.5","213621","SARL_v6","SARL_v6tqg93jfh","62eab7b53494af2a6cb73504","infreqPrac_resp","","","img/orange_2bandit_b.png","68","img/orange_2bandit_b.png","68","prac","","","","","","","","","","","","","","","","","","","",""
"null","213777","SARL_v6","SARL_v6tqg93jfh","62eab7b53494af2a6cb73504","fixation","","","img/fixation.png","null","","","prac","","","","","","","","","","","","","","","","","","","",""
"326.3999999910593","214106","SARL_v6","SARL_v6tqg93jfh","62eab7b53494af2a6cb73504","infreqPrac","","","img/orange_2bandit_b2.png","68","img/orange_2bandit_b2.png","68","prac","1","0","","","","","","","","","","","","","","","","","",""
"326.3999999910593","214592","SARL_v6","SARL_v6tqg93jfh","62eab7b53494af2a6cb73504","infreqPrac_resp","","","img/orange_2bandit_b.png","68","img/orange_2bandit_b.png","68","prac","","","","","","","","","","","","","","","","","","","",""
"null","214751","SARL_v6","SARL_v6tqg93jfh","62eab7b53494af2a6cb73504","fixation","","","img/fixation.png","null","","","prac","","","","","","","","","","","","","","","","","","","",""
"475.40000000596046","215230","SARL_v6","SARL_v6tqg93jfh","62eab7b53494af2a6cb73504","freqPrac","","","img/blue_2bandit_b2.png","70","img/blue_2bandit_b2.png","70","prac","1","0","","","","","","","","","","","","","","","","","",""
"475.40000000596046","215557","SARL_v6","SARL_v6tqg93jfh","62eab7b53494af2a6cb73504","freqPrac_resp","","","img/blue_2bandit_b.png","70","img/blue_2bandit_b.png","70","prac","","","","","","","","","","","","","","","","","","","",""
"null","215717","SARL_v6","SARL_v6tqg93jfh","62eab7b53494af2a6cb73504","fixation","","","img/fixation.png","null","","","prac","","","","","","","","","","","","","","","","","","","",""
"377","216097","SARL_v6","SARL_v6tqg93jfh","62eab7b53494af2a6cb73504","infreqPrac","","","img/orange_2bandit_b2.png","68","img/orange_2bandit_b2.png","68","prac","1","0","","","","","","","","","","","","","","","","","",""
"377","216534","SARL_v6","SARL_v6tqg93jfh","62eab7b53494af2a6cb73504","infreqPrac_resp","","","img/orange_2bandit_b.png","68","img/orange_2bandit_b.png","68","prac","","","","","","","","","","","","","","","","","","","",""
"null","216698","SARL_v6","SARL_v6tqg93jfh","62eab7b53494af2a6cb73504","fixation","","","img/fixation.png","null","","","prac","","","","","","","","","","","","","","","","","","","",""
"655.4000000059605","217357","SARL_v6","SARL_v6tqg93jfh","62eab7b53494af2a6cb73504","freqPrac","","","img/blue_2bandit_b2.png","70","img/blue_2bandit_b2.png","70","prac","1","0","","","","","","","","","","","","","","","","","",""
"655.4000000059605","217508","SARL_v6","SARL_v6tqg93jfh","62eab7b53494af2a6cb73504","freqPrac_resp","","","img/blue_2bandit_b.png","70","img/blue_2bandit_b.png","70","prac","","","","","","","","","","","","","","","","","","","",""
"null","217675","SARL_v6","SARL_v6tqg93jfh","62eab7b53494af2a6cb73504","fixation","","","img/fixation.png","null","","","prac","","","","","","","","","","","","","","","","","","","",""
"385.40000000596046","218063","SARL_v6","SARL_v6tqg93jfh","62eab7b53494af2a6cb73504","freqPrac","","","img/blue_2bandit_b2.png","70","img/blue_2bandit_b2.png","70","prac","1","0","","","","","","","","","","","","","","","","","",""
"385.40000000596046","218496","SARL_v6","SARL_v6tqg93jfh","62eab7b53494af2a6cb73504","freqPrac_resp","","","img/blue_2bandit_b.png","70","img/blue_2bandit_b.png","70","prac","","","","","","","","","","","","","","","","","","","",""
"null","218664","SARL_v6","SARL_v6tqg93jfh","62eab7b53494af2a6cb73504","fixation","","","img/fixation.png","null","","","prac","","","","","","","","","","","","","","","","","","","",""
"52183.89999999106","270850","SARL_v6","SARL_v6tqg93jfh","62eab7b53494af2a6cb73504","","","","","","","","prac","","","","","","","","","","","","","","","","","","","",""
"522.6999999880791","271377","SARL_v6","SARL_v6tqg93jfh","62eab7b53494af2a6cb73504","rlPractice","","","img/black_2bandit_b2.png","75","img/black_2bandit_b2.png","","prac","","","0","","","","","","","","","","","","","","","","",""
"null","272136","SARL_v6","SARL_v6tqg93jfh","62eab7b53494af2a6cb73504","feedback","","","<div class=""verylowPoints_sq""> -14 </div>","null","","na","prac","","","1","10","-14","10","","","","","","","","","","","","","",""
"null","272303","SARL_v6","SARL_v6tqg93jfh","62eab7b53494af2a6cb73504","fixation","","","img/fixation.png","null","","","prac","","","","","","","","","","","","","","","","","","","",""
"707","273013","SARL_v6","SARL_v6tqg93jfh","62eab7b53494af2a6cb73504","rlPractice","","","img/black_2bandit_b2.png","74","img/black_2bandit_b2.png","","prac","","","1","","","","","","","","","","","","","","","","",""
"null","273775","SARL_v6","SARL_v6tqg93jfh","62eab7b53494af2a6cb73504","feedback","","","<div class=""veryhighPoints""> 5 </div>","null","","na","prac","","","2","5","-5","5","","","","","","","","","","","","","",""
"null","273941","SARL_v6","SARL_v6tqg93jfh","62eab7b53494af2a6cb73504","fixation","","","img/fixation.png","null","","","prac","","","","","","","","","","","","","","","","","","","",""
"315","274259","SARL_v6","SARL_v6tqg93jfh","62eab7b53494af2a6cb73504","rlPractice","","","img/black_2bandit_b2.png","74","img/black_2bandit_b2.png","","prac","","","2","","","","","","","","","","","","","","","","",""
"null","275023","SARL_v6","SARL_v6tqg93jfh","62eab7b53494af2a6cb73504","feedback","","","<div class=""veryhighPoints""> 30 </div>","null","","na","prac","","","3","30","2","30","","","","","","","","","","","","","",""
"null","275182","SARL_v6","SARL_v6tqg93jfh","62eab7b53494af2a6cb73504","fixation","","","img/fixation.png","null","","","prac","","","","","","","","","","","","","","","","","","","",""
"305.70000000298023","275490","SARL_v6","SARL_v6tqg93jfh","62eab7b53494af2a6cb73504","rlPractice","","","img/black_2bandit_b2.png","74","img/black_2bandit_b2.png","","prac","","","3","","","","","","","","","","","","","","","","",""
"null","276248","SARL_v6","SARL_v6tqg93jfh","62eab7b53494af2a6cb73504","feedback","","","<div class=""verylowPoints""> -2 </div>","null","","na","prac","","","4","-2","20","-2","","","","","","","","","","","","","",""
"null","276413","SARL_v6","SARL_v6tqg93jfh","62eab7b53494af2a6cb73504","fixation","","","img/fixation.png","null","","","prac","","","","","","","","","","","","","","","","","","","",""
"21895.09999999404","298310","SARL_v6","SARL_v6tqg93jfh","62eab7b53494af2a6cb73504","","","","","","","","prac","","","","","","","","","","","","","","","","","","","",""
"590.2000000029802","298904","SARL_v6","SARL_v6tqg93jfh","62eab7b53494af2a6cb73504","mixAttFreqPrac","","","img/blue_2bandit_b2.png","70","img/blue_2bandit_b2.png","70","prac","","","1","","","","","","","","","","","","","","","","",""
"590.2000000029802","299122","SARL_v6","SARL_v6tqg93jfh","62eab7b53494af2a6cb73504","freqPrac_resp","","","img/blue_2bandit_b.png","70","img/blue_2bandit_b.png","70","prac","","","1","","","","","","","","","","","","","","","","",""
"null","299291","SARL_v6","SARL_v6tqg93jfh","62eab7b53494af2a6cb73504","fixation","","","img/fixation.png","null","","","prac","","","","","","","","","","","","","","","","","","","",""
"359.8999999910593","299654","SARL_v6","SARL_v6tqg93jfh","62eab7b53494af2a6cb73504","mixAttInfreqPrac","","","img/orange_2bandit_b2.png","68","img/orange_2bandit_b2.png","68","prac","","","2","","","","","","","","","","","","","","","","",""
"359.8999999910593","300109","SARL_v6","SARL_v6tqg93jfh","62eab7b53494af2a6cb73504","infreqPrac_resp","","","img/orange_2bandit_b.png","68","img/blue_2bandit_b.png","68","prac","","","2","","","","","","","","","","","","","","","","",""
"null","300275","SARL_v6","SARL_v6tqg93jfh","62eab7b53494af2a6cb73504","fixation","","","img/fixation.png","null","","","prac","","","","","","","","","","","","","","","","","","","",""
"378.6000000089407","300657","SARL_v6","SARL_v6tqg93jfh","62eab7b53494af2a6cb73504","mixAttInfreqPrac","","","img/orange_2bandit_b2.png","68","img/orange_2bandit_b2.png","68","prac","","","3","","","","","","","","","","","","","","","","",""
"378.6000000089407","301091","SARL_v6","SARL_v6tqg93jfh","62eab7b53494af2a6cb73504","infreqPrac_resp","","","img/orange_2bandit_b.png","68","img/blue_2bandit_b.png","68","prac","","","3","","","","","","","","","","","","","","","","",""
"null","301248","SARL_v6","SARL_v6tqg93jfh","62eab7b53494af2a6cb73504","fixation","","","img/fixation.png","null","","","prac","","","","","","","","","","","","","","","","","","","",""
"298.8999999910593","301550","SARL_v6","SARL_v6tqg93jfh","62eab7b53494af2a6cb73504","mixAttInfreqPrac","","","img/orange_2bandit_b2.png","68","img/orange_2bandit_b2.png","68","prac","","","4","","","","","","","","","","","","","","","","",""
"298.8999999910593","302062","SARL_v6","SARL_v6tqg93jfh","62eab7b53494af2a6cb73504","infreqPrac_resp","","","img/orange_2bandit_b.png","68","img/blue_2bandit_b.png","68","prac","","","4","","","","","","","","","","","","","","","","",""
"null","302230","SARL_v6","SARL_v6tqg93jfh","62eab7b53494af2a6cb73504","fixation","","","img/fixation.png","null","","","prac","","","","","","","","","","","","","","","","","","","",""
"332.09999999403954","302565","SARL_v6","SARL_v6tqg93jfh","62eab7b53494af2a6cb73504","mixAttFreqPrac","","","img/blue_2bandit_b2.png","70","img/blue_2bandit_b2.png","70","prac","","","5","","","","","","","","","","","","","","","","",""
"332.09999999403954","303045","SARL_v6","SARL_v6tqg93jfh","62eab7b53494af2a6cb73504","freqPrac_resp","","","img/blue_2bandit_b.png","70","img/blue_2bandit_b.png","70","prac","","","5","","","","","","","","","","","","","","","","",""
"null","303206","SARL_v6","SARL_v6tqg93jfh","62eab7b53494af2a6cb73504","fixation","","","img/fixation.png","null","","","prac","","","","","","","","","","","","","","","","","","","",""
"517.2999999970198","303726","SARL_v6","SARL_v6tqg93jfh","62eab7b53494af2a6cb73504","mixRLPractice","","","img/black_2bandit_b2.png","74","img/black_2bandit_b2.png","","prac","","","5","","","","","","","","","","","","","","","","",""
"null","304493","SARL_v6","SARL_v6tqg93jfh","62eab7b53494af2a6cb73504","feedback","","","<div class=""verylowPoints""> -14 </div>","null","","na","prac","","","6","-14","10","-14","","","","","","","","","","","","","",""
"null","304660","SARL_v6","SARL_v6tqg93jfh","62eab7b53494af2a6cb73504","fixation","","","img/fixation.png","null","","","prac","","","","","","","","","","","","","","","","","","","",""
"null","305466","SARL_v6","SARL_v6tqg93jfh","62eab7b53494af2a6cb73504","mixAttFreqPrac","","","img/blue_2bandit_b2.png","null","img/blue_2bandit_b2.png","70","prac","","","7","","","","","","","","","","","","","","","","",""
"67","305634","SARL_v6","SARL_v6tqg93jfh","62eab7b53494af2a6cb73504","fixation","","","img/fixation.png","70","","","prac","","","","","","","","","","","","","","","","","","","",""
"454.8999999910593","306092","SARL_v6","SARL_v6tqg93jfh","62eab7b53494af2a6cb73504","mixAttInfreqPrac","","","img/orange_2bandit_b2.png","68","img/orange_2bandit_b2.png","68","prac","","","8","","","","","","","","","","","","","","","","",""
"454.8999999910593","306443","SARL_v6","SARL_v6tqg93jfh","62eab7b53494af2a6cb73504","infreqPrac_resp","","","img/orange_2bandit_b.png","68","img/blue_2bandit_b.png","68","prac","","","8","","","","","","","","","","","","","","","","",""
"null","306609","SARL_v6","SARL_v6tqg93jfh","62eab7b53494af2a6cb73504","fixation","","","img/fixation.png","null","","","prac","","","","","","","","","","","","","","","","","","","",""
"548.5999999940395","307160","SARL_v6","SARL_v6tqg93jfh","62eab7b53494af2a6cb73504","mixAttFreqPrac","","","img/blue_2bandit_b2.png","70","img/blue_2bandit_b2.png","70","prac","","","9","","","","","","","","","","","","","","","","",""
"548.5999999940395","307422","SARL_v6","SARL_v6tqg93jfh","62eab7b53494af2a6cb73504","freqPrac_resp","","","img/blue_2bandit_b.png","70","img/blue_2bandit_b.png","70","prac","","","9","","","","","","","","","","","","","","","","",""
"null","307586","SARL_v6","SARL_v6tqg93jfh","62eab7b53494af2a6cb73504","fixation","","","img/fixation.png","null","","","prac","","","","","","","","","","","","","","","","","","","",""
"459.5","308049","SARL_v6","SARL_v6tqg93jfh","62eab7b53494af2a6cb73504","mixAttFreqPrac","","","img/blue_2bandit_b2.png","70","img/blue_2bandit_b2.png","70","prac","","","10","","","","","","","","","","","","","","","","",""
"459.5","308397","SARL_v6","SARL_v6tqg93jfh","62eab7b53494af2a6cb73504","freqPrac_resp","","","img/blue_2bandit_b.png","70","img/blue_2bandit_b.png","70","prac","","","10","","","","","","","","","","","","","","","","",""
"null","308550","SARL_v6","SARL_v6tqg93jfh","62eab7b53494af2a6cb73504","fixation","","","img/fixation.png","null","","","prac","","","","","","","","","","","","","","","","","","","",""
"486.20000000298023","309039","SARL_v6","SARL_v6tqg93jfh","62eab7b53494af2a6cb73504","mixAttInfreqPrac","","","img/orange_2bandit_b2.png","68","img/orange_2bandit_b2.png","68","prac","","","11","","","","","","","","","","","","","","","","",""
"486.20000000298023","309357","SARL_v6","SARL_v6tqg93jfh","62eab7b53494af2a6cb73504","infreqPrac_resp","","","img/orange_2bandit_b.png","68","img/blue_2bandit_b.png","68","prac","","","11","","","","","","","","","","","","","","","","",""
"null","309523","SARL_v6","SARL_v6tqg93jfh","62eab7b53494af2a6cb73504","fixation","","","img/fixation.png","null","","","prac","","","","","","","","","","","","","","","","","","","",""
"494.29999999701977","310020","SARL_v6","SARL_v6tqg93jfh","62eab7b53494af2a6cb73504","mixRLPractice","","","img/black_2bandit_b2.png","75","img/black_2bandit_b2.png","","prac","","","11","","","","","","","","","","","","","","","","",""
"null","310783","SARL_v6","SARL_v6tqg93jfh","62eab7b53494af2a6cb73504","feedback","","","<div class=""verylowPoints_sq""> -5 </div>","null","","na","prac","","","12","5","-5","5","","","","","","","","","","","","","",""
"null","310951","SARL_v6","SARL_v6tqg93jfh","62eab7b53494af2a6cb73504","fixation","","","img/fixation.png","null","","","prac","","","","","","","","","","","","","","","","","","","",""
"20380.69999998808","331336","SARL_v6","SARL_v6tqg93jfh","62eab7b53494af2a6cb73504","","","","","","","","prac","","","","","","","","","","","","","","","","","","","",""
"620.5","331960","SARL_v6","SARL_v6tqg93jfh","62eab7b53494af2a6cb73504","freq","","","img/blue_2bandit_b2.png","70","","70","test","1","","1","","","","circle","square","1","1","1","1","","","","","","","",""
"null","332143","SARL_v6","SARL_v6tqg93jfh","62eab7b53494af2a6cb73504","freq_resp","","","img/blue_2bandit_b.png","70","img/blue_2bandit_b.png","70","test","","","","","","","","","","","1","","","","","","","","",""
"null","332303","SARL_v6","SARL_v6tqg93jfh","62eab7b53494af2a6cb73504","fixation","","","img/fixation.png","null","","","test","","","","","","","","","","","","","","","","","","","",""
"391.8999999910593","332697","SARL_v6","SARL_v6tqg93jfh","62eab7b53494af2a6cb73504","freq","","","img/blue_2bandit_b2.png","70","","70","test","1","","2","","","","circle","square","2","2","1","1","","","","","","","",""
"null","333112","SARL_v6","SARL_v6tqg93jfh","62eab7b53494af2a6cb73504","freq_resp","","","img/blue_2bandit_b.png","70","img/blue_2bandit_b.png","70","test","","","","","","","","","","","1","","","","","","","","",""
"null","333277","SARL_v6","SARL_v6tqg93jfh","62eab7b53494af2a6cb73504","fixation","","","img/fixation.png","null","","","test","","","","","","","","","","","","","","","","","","","",""
"337.6000000089407","333618","SARL_v6","SARL_v6tqg93jfh","62eab7b53494af2a6cb73504","infreq","","","img/orange_2bandit_b2.png","70","","68","test","0","","3","","","","circle","square","3","3","1","0.6666666666666666","","","","","","","",""
"null","334085","SARL_v6","SARL_v6tqg93jfh","62eab7b53494af2a6cb73504","infreq_resp","","","img/orange_2bandit_b.png","70","img/orange_2bandit_b.png","68","test","","","","","","","","","","","1","","","","","","","","",""
"null","334245","SARL_v6","SARL_v6tqg93jfh","62eab7b53494af2a6cb73504","fixation","","","img/fixation.png","null","","","test","","","","","","","","","","","","","","","","","","","",""
"475.70000000298023","334723","SARL_v6","SARL_v6tqg93jfh","62eab7b53494af2a6cb73504","freq","","","img/blue_2bandit_b2.png","70","","70","test","1","","4","","","","circle","square","4","4","1","0.75","","","","","","","",""
"null","335054","SARL_v6","SARL_v6tqg93jfh","62eab7b53494af2a6cb73504","freq_resp","","","img/blue_2bandit_b.png","70","img/blue_2bandit_b.png","70","test","","","","","","","","","","","1","","","","","","","","",""
"null","335209","SARL_v6","SARL_v6tqg93jfh","62eab7b53494af2a6cb73504","fixation","","","img/fixation.png","null","","","test","","","","","","","","","","","","","","","","","","","",""
"391.8999999910593","335603","SARL_v6","SARL_v6tqg93jfh","62eab7b53494af2a6cb73504","freq","","","img/blue_2bandit_b2.png","70","","70","test","1","","5","","","","circle","square","5","5","1","0.8","","","","","","","",""
"null","336022","SARL_v6","SARL_v6tqg93jfh","62eab7b53494af2a6cb73504","freq_resp","","","img/blue_2bandit_b.png","70","img/blue_2bandit_b.png","70","test","","","","","","","","","","","1","","","","","","","","",""
"null","336187","SARL_v6","SARL_v6tqg93jfh","62eab7b53494af2a6cb73504","fixation","","","img/fixation.png","null","","","test","","","","","","","","","","","","","","","","","","","",""
"420.29999999701977","336610","SARL_v6","SARL_v6tqg93jfh","62eab7b53494af2a6cb73504","freq","","","img/blue_2bandit_b2.png","70","","70","test","1","","6","","","","circle","square","6","6","1","0.8333333333333334","","","","","","","",""
"null","337003","SARL_v6","SARL_v6tqg93jfh","62eab7b53494af2a6cb73504","freq_resp","","","img/blue_2bandit_b.png","70","img/blue_2bandit_b.png","70","test","","","","","","","","","","","1","","","","","","","","",""
"null","337159","SARL_v6","SARL_v6tqg93jfh","62eab7b53494af2a6cb73504","fixation","","","img/fixation.png","null","","","test","","","","","","","","","","","","","","","","","","","",""
"454.6000000089407","337616","SARL_v6","SARL_v6tqg93jfh","62eab7b53494af2a6cb73504","freq","","","img/blue_2bandit_b2.png","70","","70","test","1","","7","","","","circle","square","7","7","1","0.8571428571428571","","","","","","","",""
"null","337968","SARL_v6","SARL_v6tqg93jfh","62eab7b53494af2a6cb73504","freq_resp","","","img/blue_2bandit_b.png","70","img/blue_2bandit_b.png","70","test","","","","","","","","","","","1","","","","","","","","",""
"null","338125","SARL_v6","SARL_v6tqg93jfh","62eab7b53494af2a6cb73504","fixation","","","img/fixation.png","null","","","test","","","","","","","","","","","","","","","","","","","",""
"589.2999999970198","338718","SARL_v6","SARL_v6tqg93jfh","62eab7b53494af2a6cb73504","freq","","","img/blue_2bandit_b2.png","70","","70","test","1","","8","","","","circle","square","8","8","1","0.875","","","","","","","",""
"null","338942","SARL_v6","SARL_v6tqg93jfh","62eab7b53494af2a6cb73504","freq_resp","","","img/blue_2bandit_b.png","70","img/blue_2bandit_b.png","70","test","","","","","","","","","","","1","","","","","","","","",""
"null","339106","SARL_v6","SARL_v6tqg93jfh","62eab7b53494af2a6cb73504","fixation","","","img/fixation.png","null","","","test","","","","","","","","","","","","","","","","","","","",""
"353.59999999403954","339462","SARL_v6","SARL_v6tqg93jfh","62eab7b53494af2a6cb73504","freq","","","img/blue_2bandit_b2.png","70","","70","test","1","","9","","","","circle","square","9","9","1","0.8888888888888888","","","","","","","",""
"null","339921","SARL_v6","SARL_v6tqg93jfh","62eab7b53494af2a6cb73504","freq_resp","","","img/blue_2bandit_b.png","70","img/blue_2bandit_b.png","70","test","","","","","","","","","","","1","","","","","","","","",""
"null","340082","SARL_v6","SARL_v6tqg93jfh","62eab7b53494af2a6cb73504","fixation","","","img/fixation.png","null","","","test","","","","","","","","","","","","","","","","","","","",""
"372.59999999403954","340458","SARL_v6","SARL_v6tqg93jfh","62eab7b53494af2a6cb73504","freq","","","img/blue_2bandit_b2.png","70","","70","test","1","","10","","","","circle","square","10","10","1","0.9","","","","","","","",""
"null","340896","SARL_v6","SARL_v6tqg93jfh","62eab7b53494af2a6cb73504","freq_resp","","","img/blue_2bandit_b.png","70","img/blue_2bandit_b.png","70","test","","","","","","","","","","","1","","","","","","","","",""
"null","341061","SARL_v6","SARL_v6tqg93jfh","62eab7b53494af2a6cb73504","fixation","","","img/fixation.png","null","","","test","","","","","","","","","","","","","","","","","","","",""
"390.70000000298023","341455","SARL_v6","SARL_v6tqg93jfh","62eab7b53494af2a6cb73504","freq","","","img/blue_2bandit_b2.png","70","","70","test","1","","11","","","","circle","square","11","11","1","0.9090909090909091","","","","","","","",""
"null","341877","SARL_v6","SARL_v6tqg93jfh","62eab7b53494af2a6cb73504","freq_resp","","","img/blue_2bandit_b.png","70","img/blue_2bandit_b.png","70","test","","","","","","","","","","","1","","","","","","","","",""
"null","342035","SARL_v6","SARL_v6tqg93jfh","62eab7b53494af2a6cb73504","fixation","","","img/fixation.png","null","","","test","","","","","","","","","","","","","","","","","","","",""
"336","342374","SARL_v6","SARL_v6tqg93jfh","62eab7b53494af2a6cb73504","freq","","","img/blue_2bandit_b2.png","70","","70","test","1","","12","","","","circle","square","12","12","1","0.9166666666666666","","","","","","","",""
"null","342850","SARL_v6","SARL_v6tqg93jfh","62eab7b53494af2a6cb73504","freq_resp","","","img/blue_2bandit_b.png","70","img/blue_2bandit_b.png","70","test","","","","","","","","","","","1","","","","","","","","",""
"null","343017","SARL_v6","SARL_v6tqg93jfh","62eab7b53494af2a6cb73504","fixation","","","img/fixation.png","null","","","test","","","","","","","","","","","","","","","","","","","",""
"335.29999999701977","343355","SARL_v6","SARL_v6tqg93jfh","62eab7b53494af2a6cb73504","freq","","","img/blue_2bandit_b2.png","70","","70","test","1","","13","","","","circle","square","13","13","1","0.9230769230769231","","","","","","","",""
"null","343833","SARL_v6","SARL_v6tqg93jfh","62eab7b53494af2a6cb73504","freq_resp","","","img/blue_2bandit_b.png","70","img/blue_2bandit_b.png","70","test","","","","","","","","","","","1","","","","","","","","",""
"null","343999","SARL_v6","SARL_v6tqg93jfh","62eab7b53494af2a6cb73504","fixation","","","img/fixation.png","null","","","test","","","","","","","","","","","","","","","","","","","",""
"347.29999999701977","344349","SARL_v6","SARL_v6tqg93jfh","62eab7b53494af2a6cb73504","freq","","","img/blue_2bandit_b2.png","70","","70","test","1","","14","","","","circle","square","14","14","1","0.9285714285714286","","","","","","","",""
"null","344805","SARL_v6","SARL_v6tqg93jfh","62eab7b53494af2a6cb73504","freq_resp","","","img/blue_2bandit_b.png","70","img/blue_2bandit_b.png","70","test","","","","","","","","","","","1","","","","","","","","",""
"null","344968","SARL_v6","SARL_v6tqg93jfh","62eab7b53494af2a6cb73504","fixation","","","img/fixation.png","null","","","test","","","","","","","","","","","","","","","","","","","",""
"321.59999999403954","345293","SARL_v6","SARL_v6tqg93jfh","62eab7b53494af2a6cb73504","freq","","","img/blue_2bandit_b2.png","70","","70","test","1","","15","","","","circle","square","15","15","1","0.9333333333333333","","","","","","","",""
"null","345781","SARL_v6","SARL_v6tqg93jfh","62eab7b53494af2a6cb73504","freq_resp","","","img/blue_2bandit_b.png","70","img/blue_2bandit_b.png","70","test","","","","","","","","","","","1","","","","","","","","",""
"null","345947","SARL_v6","SARL_v6tqg93jfh","62eab7b53494af2a6cb73504","fixation","","","img/fixation.png","null","","","test","","","","","","","","","","","","","","","","","","","",""
"323.40000000596046","346274","SARL_v6","SARL_v6tqg93jfh","62eab7b53494af2a6cb73504","freq","","","img/blue_2bandit_b2.png","70","","70","test","1","","16","","","","circle","square","16","16","1","0.9375","","","","","","","",""
"null","346753","SARL_v6","SARL_v6tqg93jfh","62eab7b53494af2a6cb73504","freq_resp","","","img/blue_2bandit_b.png","70","img/blue_2bandit_b.png","70","test","","","","","","","","","","","1","","","","","","","","",""
"null","346906","SARL_v6","SARL_v6tqg93jfh","62eab7b53494af2a6cb73504","fixation","","","img/fixation.png","null","","","test","","","","","","","","","","","","","","","","","","","",""
"302.5","347212","SARL_v6","SARL_v6tqg93jfh","62eab7b53494af2a6cb73504","freq","","","img/blue_2bandit_b2.png","70","","70","test","1","","17","","","","circle","square","17","17","1","0.9411764705882353","","","","","","","",""
"null","347718","SARL_v6","SARL_v6tqg93jfh","62eab7b53494af2a6cb73504","freq_resp","","","img/blue_2bandit_b.png","70","img/blue_2bandit_b.png","70","test","","","","","","","","","","","1","","","","","","","","",""
"null","347872","SARL_v6","SARL_v6tqg93jfh","62eab7b53494af2a6cb73504","fixation","","","img/fixation.png","null","","","test","","","","","","","","","","","","","","","","","","","",""
"465.29999999701977","348341","SARL_v6","SARL_v6tqg93jfh","62eab7b53494af2a6cb73504","infreq","","","img/orange_2bandit_b2.png","68","","68","test","1","","18","","","","circle","square","18","18","1","0.9444444444444444","","","","","","","",""
"null","348693","SARL_v6","SARL_v6tqg93jfh","62eab7b53494af2a6cb73504","infreq_resp","","","img/orange_2bandit_b.png","68","img/orange_2bandit_b.png","68","test","","","","","","","","","","","1","","","","","","","","",""
"null","348858","SARL_v6","SARL_v6tqg93jfh","62eab7b53494af2a6cb73504","fixation","","","img/fixation.png","null","","","test","","","","","","","","","","","","","","","","","","","",""
"364.79999999701977","349226","SARL_v6","SARL_v6tqg93jfh","62eab7b53494af2a6cb73504","freq","","","img/blue_2bandit_b2.png","68","","70","test","0","","19","","","","circle","square","19","19","1","0.8947368421052632","","","","","","","",""
"null","349679","SARL_v6","SARL_v6tqg93jfh","62eab7b53494af2a6cb73504","freq_resp","","","img/blue_2bandit_b.png","68","img/blue_2bandit_b.png","70","test","","","","","","","","","","","1","","","","","","","","",""
"null","349846","SARL_v6","SARL_v6tqg93jfh","62eab7b53494af2a6cb73504","fixation","","","img/fixation.png","null","","","test","","","","","","","","","","","","","","","","","","","",""
"556.7000000029802","350406","SARL_v6","SARL_v6tqg93jfh","62eab7b53494af2a6cb73504","freq","","","img/blue_2bandit_b2.png","70","","70","test","1","","20","","","","circle","square","20","20","1","0.9","","","","","","","",""
"null","350655","SARL_v6","SARL_v6tqg93jfh","62eab7b53494af2a6cb73504","freq_resp","","","img/blue_2bandit_b.png","70","img/blue_2bandit_b.png","70","test","","","","","","","","","","","1","","","","","","","","",""
"null","350810","SARL_v6","SARL_v6tqg93jfh","62eab7b53494af2a6cb73504","fixation","","","img/fixation.png","null","","","test","","","","","","","","","","","","","","","","","","","",""
"318.79999999701977","351132","SARL_v6","SARL_v6tqg93jfh","62eab7b53494af2a6cb73504","freq","","","img/blue_2bandit_b2.png","70","","70","test","1","","21","","","","circle","square","21","21","1","0.9047619047619048","","","","","","","",""
"null","351618","SARL_v6","SARL_v6tqg93jfh","62eab7b53494af2a6cb73504","freq_resp","","","img/blue_2bandit_b.png","70","img/blue_2bandit_b.png","70","test","","","","","","","","","","","1","","","","","","","","",""
"null","351783","SARL_v6","SARL_v6tqg93jfh","62eab7b53494af2a6cb73504","fixation","","","img/fixation.png","null","","","test","","","","","","","","","","","","","","","","","","","",""
"317.1000000089407","352103","SARL_v6","SARL_v6tqg93jfh","62eab7b53494af2a6cb73504","freq","","","img/blue_2bandit_b2.png","70","","70","test","1","","22","","","","circle","square","22","22","1","0.9090909090909091","","","","","","","",""
"null","352594","SARL_v6","SARL_v6tqg93jfh","62eab7b53494af2a6cb73504","freq_resp","","","img/blue_2bandit_b.png","70","img/blue_2bandit_b.png","70","test","","","","","","","","","","","1","","","","","","","","",""
"null","352750","SARL_v6","SARL_v6tqg93jfh","62eab7b53494af2a6cb73504","fixation","","","img/fixation.png","null","","","test","","","","","","","","","","","","","","","","","","","",""
"291.70000000298023","353045","SARL_v6","SARL_v6tqg93jfh","62eab7b53494af2a6cb73504","freq","","","img/blue_2bandit_b2.png","70","","70","test","1","","23","","","","circle","square","23","23","1","0.9130434782608695","","","","","","","",""
"null","353568","SARL_v6","SARL_v6tqg93jfh","62eab7b53494af2a6cb73504","freq_resp","","","img/blue_2bandit_b.png","70","img/blue_2bandit_b.png","70","test","","","","","","","","","","","1","","","","","","","","",""
"null","353724","SARL_v6","SARL_v6tqg93jfh","62eab7b53494af2a6cb73504","fixation","","","img/fixation.png","null","","","test","","","","","","","","","","","","","","","","","","","",""
"434.5","354162","SARL_v6","SARL_v6tqg93jfh","62eab7b53494af2a6cb73504","rl","","","img/black_2bandit_b2.png","74","","0","test","","","24","","","-3","circle","square","","0","1","","74","-3","-3","-3","-3","circle","1","0"
"null","354920","SARL_v6","SARL_v6tqg93jfh","62eab7b53494af2a6cb73504","feedback","","","<div class=""verylowPoints""> -3 </div>","null","","na","test","","","NaN","","","","","","","","1","","74","","","","","","1",""
"781.0999999940395","355705","SARL_v6","SARL_v6tqg93jfh","62eab7b53494af2a6cb73504","freq","","","img/blue_2bandit_b2.png","70","","70","test","1","","25","","","","circle","square","24","1","2","0.9166666666666666","","","","","","","",""
"null","355727","SARL_v6","SARL_v6tqg93jfh","62eab7b53494af2a6cb73504","freq_resp","","","img/blue_2bandit_b.png","70","img/blue_2bandit_b.png","70","test","","","","","","","","","","","2","","","","","","","","",""
"null","355889","SARL_v6","SARL_v6tqg93jfh","62eab7b53494af2a6cb73504","fixation","","","img/fixation.png","null","","","test","","","","","","","","","","","","","","","","","","","",""
"418.59999999403954","356311","SARL_v6","SARL_v6tqg93jfh","62eab7b53494af2a6cb73504","freq","","","img/blue_2bandit_b2.png","70","","70","test","1","","26","","","","circle","square","25","2","2","0.92","","","","","","","",""
"null","356706","SARL_v6","SARL_v6tqg93jfh","62eab7b53494af2a6cb73504","freq_resp","","","img/blue_2bandit_b.png","70","img/blue_2bandit_b.png","70","test","","","","","","","","","","","2","","","","","","","","",""
"null","356871","SARL_v6","SARL_v6tqg93jfh","62eab7b53494af2a6cb73504","fixation","","","img/fixation.png","null","","","test","","","","","","","","","","","","","","","","","","","",""
"390.09999999403954","357264","SARL_v6","SARL_v6tqg93jfh","62eab7b53494af2a6cb73504","freq","","","img/blue_2bandit_b2.png","70","","70","test","1","","27","","","","circle","square","26","3","2","0.9230769230769231","","","","","","","",""
"null","357679","SARL_v6","SARL_v6tqg93jfh","62eab7b53494af2a6cb73504","freq_resp","","","img/blue_2bandit_b.png","70","img/blue_2bandit_b.png","70","test","","","","","","","","","","","2","","","","","","","","",""
"null","357837","SARL_v6","SARL_v6tqg93jfh","62eab7b53494af2a6cb73504","fixation","","","img/fixation.png","null","","","test","","","","","","","","","","","","","","","","","","","",""
"347.79999999701977","358188","SARL_v6","SARL_v6tqg93jfh","62eab7b53494af2a6cb73504","freq","","","img/blue_2bandit_b2.png","70","","70","test","1","","28","","","","circle","square","27","4","2","0.9259259259259259","","","","","","","",""
"null","358643","SARL_v6","SARL_v6tqg93jfh","62eab7b53494af2a6cb73504","freq_resp","","","img/blue_2bandit_b.png","70","img/blue_2bandit_b.png","70","test","","","","","","","","","","","2","","","","","","","","",""
"null","358810","SARL_v6","SARL_v6tqg93jfh","62eab7b53494af2a6cb73504","fixation","","","img/fixation.png","null","","","test","","","","","","","","","","","","","","","","","","","",""
"402.79999999701977","359216","SARL_v6","SARL_v6tqg93jfh","62eab7b53494af2a6cb73504","infreq","","","img/orange_2bandit_b2.png","68","","68","test","1","","29","","","","circle","square","28","5","2","0.9285714285714286","","","","","","","",""
"null","359627","SARL_v6","SARL_v6tqg93jfh","62eab7b53494af2a6cb73504","infreq_resp","","","img/orange_2bandit_b.png","68","img/orange_2bandit_b.png","68","test","","","","","","","","","","","2","","","","","","","","",""
"null","359787","SARL_v6","SARL_v6tqg93jfh","62eab7b53494af2a6cb73504","fixation","","","img/fixation.png","null","","","test","","","","","","","","","","","","","","","","","","","",""
"430.59999999403954","360220","SARL_v6","SARL_v6tqg93jfh","62eab7b53494af2a6cb73504","freq","","","img/blue_2bandit_b2.png","70","","70","test","1","","30","","","","circle","square","29","6","2","0.9310344827586207","","","","","","","",""
"null","360606","SARL_v6","SARL_v6tqg93jfh","62eab7b53494af2a6cb73504","freq_resp","","","img/blue_2bandit_b.png","70","img/blue_2bandit_b.png","70","test","","","","","","","","","","","2","","","","","","","","",""
"null","360774","SARL_v6","SARL_v6tqg93jfh","62eab7b53494af2a6cb73504","fixation","","","img/fixation.png","null","","","test","","","","","","","","","","","","","","","","","","","",""
"450.79999999701977","361228","SARL_v6","SARL_v6tqg93jfh","62eab7b53494af2a6cb73504","freq","","","img/blue_2bandit_b2.png","70","","70","test","1","","31","","","","circle","square","30","7","2","0.9333333333333333","","","","","","","",""
"null","361588","SARL_v6","SARL_v6tqg93jfh","62eab7b53494af2a6cb73504","freq_resp","","","img/blue_2bandit_b.png","70","img/blue_2bandit_b.png","70","test","","","","","","","","","","","2","","","","","","","","",""
"null","361742","SARL_v6","SARL_v6tqg93jfh","62eab7b53494af2a6cb73504","fixation","","","img/fixation.png","null","","","test","","","","","","","","","","","","","","","","","","","",""
"286.29999999701977","362031","SARL_v6","SARL_v6tqg93jfh","62eab7b53494af2a6cb73504","freq","","","img/blue_2bandit_b2.png","70","","70","test","1","","32","","","","circle","square","31","8","2","0.9354838709677419","","","","","","","",""
"null","362561","SARL_v6","SARL_v6tqg93jfh","62eab7b53494af2a6cb73504","freq_resp","","","img/blue_2bandit_b.png","70","img/blue_2bandit_b.png","70","test","","","","","","","","","","","2","","","","","","","","",""
"null","362722","SARL_v6","SARL_v6tqg93jfh","62eab7b53494af2a6cb73504","fixation","","","img/fixation.png","null","","","test","","","","","","","","","","","","","","","","","","","",""
"396","363121","SARL_v6","SARL_v6tqg93jfh","62eab7b53494af2a6cb73504","freq","","","img/blue_2bandit_b2.png","70","","70","test","1","","33","","","","circle","square","32","9","2","0.9375","","","","","","","",""
"null","363535","SARL_v6","SARL_v6tqg93jfh","62eab7b53494af2a6cb73504","freq_resp","","","img/blue_2bandit_b.png","70","img/blue_2bandit_b.png","70","test","","","","","","","","","","","2","","","","","","","","",""
"null","363698","SARL_v6","SARL_v6tqg93jfh","62eab7b53494af2a6cb73504","fixation","","","img/fixation.png","null","","","test","","","","","","","","","","","","","","","","","","","",""
"542.5","364244","SARL_v6","SARL_v6tqg93jfh","62eab7b53494af2a6cb73504","freq","","","img/blue_2bandit_b2.png","70","","70","test","1","","34","","","","circle","square","33","10","2","0.9393939393939394","","","","","","","",""
"null","364508","SARL_v6","SARL_v6tqg93jfh","62eab7b53494af2a6cb73504","freq_resp","","","img/blue_2bandit_b.png","70","img/blue_2bandit_b.png","70","test","","","","","","","","","","","2","","","","","","","","",""
"null","364670","SARL_v6","SARL_v6tqg93jfh","62eab7b53494af2a6cb73504","fixation","","","img/fixation.png","null","","","test","","","","","","","","","","","","","","","","","","","",""
"346.29999999701977","365019","SARL_v6","SARL_v6tqg93jfh","62eab7b53494af2a6cb73504","freq","","","img/blue_2bandit_b2.png","70","","70","test","1","","35","","","","circle","square","34","11","2","0.9411764705882353","","","","","","","",""
"null","365479","SARL_v6","SARL_v6tqg93jfh","62eab7b53494af2a6cb73504","freq_resp","","","img/blue_2bandit_b.png","70","img/blue_2bandit_b.png","70","test","","","","","","","","","","","2","","","","","","","","",""
"null","365645","SARL_v6","SARL_v6tqg93jfh","62eab7b53494af2a6cb73504","fixation","","","img/fixation.png","null","","","test","","","","","","","","","","","","","","","","","","","",""
"330.30000001192093","365979","SARL_v6","SARL_v6tqg93jfh","62eab7b53494af2a6cb73504","freq","","","img/blue_2bandit_b2.png","70","","70","test","1","","36","","","","circle","square","35","12","2","0.9428571428571428","","","","","","","",""
"null","366454","SARL_v6","SARL_v6tqg93jfh","62eab7b53494af2a6cb73504","freq_resp","","","img/blue_2bandit_b.png","70","img/blue_2bandit_b.png","70","test","","","","","","","","","","","2","","","","","","","","",""
"null","366620","SARL_v6","SARL_v6tqg93jfh","62eab7b53494af2a6cb73504","fixation","","","img/fixation.png","null","","","test","","","","","","","","","","","","","","","","","","","",""
"357.19999998807907","366980","SARL_v6","SARL_v6tqg93jfh","62eab7b53494af2a6cb73504","freq","","","img/blue_2bandit_b2.png","70","","70","test","1","","37","","","","circle","square","36","13","2","0.9444444444444444","","","","","","","",""
"null","367435","SARL_v6","SARL_v6tqg93jfh","62eab7b53494af2a6cb73504","freq_resp","","","img/blue_2bandit_b.png","70","img/blue_2bandit_b.png","70","test","","","","","","","","","","","2","","","","","","","","",""
"null","367594","SARL_v6","SARL_v6tqg93jfh","62eab7b53494af2a6cb73504","fixation","","","img/fixation.png","null","","","test","","","","","","","","","","","","","","","","","","","",""
"365.59999999403954","367963","SARL_v6","SARL_v6tqg93jfh","62eab7b53494af2a6cb73504","freq","","","img/blue_2bandit_b2.png","70","","70","test","1","","38","","","","circle","square","37","14","2","0.9459459459459459","","","","","","","",""
"null","368402","SARL_v6","SARL_v6tqg93jfh","62eab7b53494af2a6cb73504","freq_resp","","","img/blue_2bandit_b.png","70","img/blue_2bandit_b.png","70","test","","","","","","","","","","","2","","","","","","","","",""
"null","368559","SARL_v6","SARL_v6tqg93jfh","62eab7b53494af2a6cb73504","fixation","","","img/fixation.png","null","","","test","","","","","","","","","","","","","","","","","","","",""
"386.70000000298023","368949","SARL_v6","SARL_v6tqg93jfh","62eab7b53494af2a6cb73504","infreq","","","img/orange_2bandit_b2.png","68","","68","test","1","","39","","","","circle","square","38","15","2","0.9473684210526315","","","","","","","",""
"null","369370","SARL_v6","SARL_v6tqg93jfh","62eab7b53494af2a6cb73504","infreq_resp","","","img/orange_2bandit_b.png","68","img/orange_2bandit_b.png","68","test","","","","","","","","","","","2","","","","","","","","",""
"null","369533","SARL_v6","SARL_v6tqg93jfh","62eab7b53494af2a6cb73504","fixation","","","img/fixation.png","null","","","test","","","","","","","","","","","","","","","","","","","",""
"372.79999999701977","369909","SARL_v6","SARL_v6tqg93jfh","62eab7b53494af2a6cb73504","freq","","","img/blue_2bandit_b2.png","70","","70","test","1","","40","","","","circle","square","39","16","2","0.9487179487179487","","","","","","","",""
"null","370350","SARL_v6","SARL_v6tqg93jfh","62eab7b53494af2a6cb73504","freq_resp","","","img/blue_2bandit_b.png","70","img/blue_2bandit_b.png","70","test","","","","","","","","","","","2","","","","","","","","",""
"null","370508","SARL_v6","SARL_v6tqg93jfh","62eab7b53494af2a6cb73504","fixation","","","img/fixation.png","null","","","test","","","","","","","","","","","","","","","","","","","",""
"285.5","370796","SARL_v6","SARL_v6tqg93jfh","62eab7b53494af2a6cb73504","freq","","","img/blue_2bandit_b2.png","70","","70","test","1","","41","","","","circle","square","40","17","2","0.95","","","","","","","",""
"null","371319","SARL_v6","SARL_v6tqg93jfh","62eab7b53494af2a6cb73504","freq_resp","","","img/blue_2bandit_b.png","70","img/blue_2bandit_b.png","70","test","","","","","","","","","","","2","","","","","","","","",""
"null","371481","SARL_v6","SARL_v6tqg93jfh","62eab7b53494af2a6cb73504","fixation","","","img/fixation.png","null","","","test","","","","","","","","","","","","","","","","","","","",""
"340.09999999403954","371824","SARL_v6","SARL_v6tqg93jfh","62eab7b53494af2a6cb73504","freq","","","img/blue_2bandit_b2.png","70","","70","test","1","","42","","","","circle","square","41","18","2","0.9512195121951219","","","","","","","",""
"null","372296","SARL_v6","SARL_v6tqg93jfh","62eab7b53494af2a6cb73504","freq_resp","","","img/blue_2bandit_b.png","70","img/blue_2bandit_b.png","70","test","","","","","","","","","","","2","","","","","","","","",""
"null","372464","SARL_v6","SARL_v6tqg93jfh","62eab7b53494af2a6cb73504","fixation","","","img/fixation.png","null","","","test","","","","","","","","","","","","","","","","","","","",""
"361.5","372828","SARL_v6","SARL_v6tqg93jfh","62eab7b53494af2a6cb73504","freq","","","img/blue_2bandit_b2.png","70","","70","test","1","","43","","","","circle","square","42","19","2","0.9523809523809523","","","","","","","",""
"null","373276","SARL_v6","SARL_v6tqg93jfh","62eab7b53494af2a6cb73504","freq_resp","","","img/blue_2bandit_b.png","70","img/blue_2bandit_b.png","70","test","","","","","","","","","","","2","","","","","","","","",""
"null","373431","SARL_v6","SARL_v6tqg93jfh","62eab7b53494af2a6cb73504","fixation","","","img/fixation.png","null","","","test","","","","","","","","","","","","","","","","","","","",""
"332.1000000089407","373767","SARL_v6","SARL_v6tqg93jfh","62eab7b53494af2a6cb73504","freq","","","img/blue_2bandit_b2.png","70","","70","test","1","","44","","","","circle","square","43","20","2","0.9534883720930233","","","","","","","",""
"null","374252","SARL_v6","SARL_v6tqg93jfh","62eab7b53494af2a6cb73504","freq_resp","","","img/blue_2bandit_b.png","70","img/blue_2bandit_b.png","70","test","","","","","","","","","","","2","","","","","","","","",""
"null","374412","SARL_v6","SARL_v6tqg93jfh","62eab7b53494af2a6cb73504","fixation","","","img/fixation.png","null","","","test","","","","","","","","","","","","","","","","","","","",""
"442.1000000089407","374858","SARL_v6","SARL_v6tqg93jfh","62eab7b53494af2a6cb73504","freq","","","img/blue_2bandit_b2.png","70","","70","test","1","","45","","","","circle","square","44","21","2","0.9545454545454546","","","","","","","",""
"null","375226","SARL_v6","SARL_v6tqg93jfh","62eab7b53494af2a6cb73504","freq_resp","","","img/blue_2bandit_b.png","70","img/blue_2bandit_b.png","70","test","","","","","","","","","","","2","","","","","","","","",""
"null","375388","SARL_v6","SARL_v6tqg93jfh","62eab7b53494af2a6cb73504","fixation","","","img/fixation.png","null","","","test","","","","","","","","","","","","","","","","","","","",""
"289.5","375681","SARL_v6","SARL_v6tqg93jfh","62eab7b53494af2a6cb73504","freq","","","img/blue_2bandit_b2.png","70","","70","test","1","","46","","","","circle","square","45","22","2","0.9555555555555556","","","","","","","",""
"null","376204","SARL_v6","SARL_v6tqg93jfh","62eab7b53494af2a6cb73504","freq_resp","","","img/blue_2bandit_b.png","70","img/blue_2bandit_b.png","70","test","","","","","","","","","","","2","","","","","","","","",""
"null","376369","SARL_v6","SARL_v6tqg93jfh","62eab7b53494af2a6cb73504","fixation","","","img/fixation.png","null","","","test","","","","","","","","","","","","","","","","","","","",""
"365.59999999403954","376738","SARL_v6","SARL_v6tqg93jfh","62eab7b53494af2a6cb73504","freq","","","img/blue_2bandit_b2.png","70","","70","test","1","","47","","","","circle","square","46","23","2","0.9565217391304348","","","","","","","",""
"null","377188","SARL_v6","SARL_v6tqg93jfh","62eab7b53494af2a6cb73504","freq_resp","","","img/blue_2bandit_b.png","70","img/blue_2bandit_b.png","70","test","","","","","","","","","","","2","","","","","","","","",""
"null","377344","SARL_v6","SARL_v6tqg93jfh","62eab7b53494af2a6cb73504","fixation","","","img/fixation.png","null","","","test","","","","","","","","","","","","","","","","","","","",""
"397.1000000089407","377744","SARL_v6","SARL_v6tqg93jfh","62eab7b53494af2a6cb73504","freq","","","img/blue_2bandit_b2.png","70","","70","test","1","","48","","","","circle","square","47","24","2","0.9574468085106383","","","","","","","",""
"null","378158","SARL_v6","SARL_v6tqg93jfh","62eab7b53494af2a6cb73504","freq_resp","","","img/blue_2bandit_b.png","70","img/blue_2bandit_b.png","70","test","","","","","","","","","","","2","","","","","","","","",""
"null","378325","SARL_v6","SARL_v6tqg93jfh","62eab7b53494af2a6cb73504","fixation","","","img/fixation.png","null","","","test","","","","","","","","","","","","","","","","","","","",""
"564.2999999970198","378892","SARL_v6","SARL_v6tqg93jfh","62eab7b53494af2a6cb73504","rl","","","img/black_2bandit_b2.png","75","","0","test","","","49","","","-8","circle","square","","0","2","","75","-5","-8","-5","-8","square","2","0"
"null","379648","SARL_v6","SARL_v6tqg93jfh","62eab7b53494af2a6cb73504","feedback","","","<div class=""verylowPoints_sq""> -8 </div>","null","","na","test","","","NaN","","","","","","","","2","","75","","","","","","2",""
"459.6000000089407","380111","SARL_v6","SARL_v6tqg93jfh","62eab7b53494af2a6cb73504","freq","","","img/blue_2bandit_b2.png","70","","70","test","1","","50","","","","circle","square","48","1","3","0.9583333333333334","","","","","","","",""
"null","380459","SARL_v6","SARL_v6tqg93jfh","62eab7b53494af2a6cb73504","freq_resp","","","img/blue_2bandit_b.png","70","img/blue_2bandit_b.png","70","test","","","","","","","","","","","3","","","","","","","","",""
"null","380622","SARL_v6","SARL_v6tqg93jfh","62eab7b53494af2a6cb73504","fixation","","","img/fixation.png","null","","","test","","","","","","","","","","","","","","","","","","","",""
"409.6000000089407","381035","SARL_v6","SARL_v6tqg93jfh","62eab7b53494af2a6cb73504","freq","","","img/blue_2bandit_b2.png","70","","70","test","1","","51","","","","circle","square","49","2","3","0.9591836734693877","","","","","","","",""
"null","381429","SARL_v6","SARL_v6tqg93jfh","62eab7b53494af2a6cb73504","freq_resp","","","img/blue_2bandit_b.png","70","img/blue_2bandit_b.png","70","test","","","","","","","","","","","3","","","","","","","","",""
"null","381597","SARL_v6","SARL_v6tqg93jfh","62eab7b53494af2a6cb73504","fixation","","","img/fixation.png","null","","","test","","","","","","","","","","","","","","","","","","","",""
"319.8999999910593","381920","SARL_v6","SARL_v6tqg93jfh","62eab7b53494af2a6cb73504","freq","","","img/blue_2bandit_b2.png","70","","70","test","1","","52","","","","circle","square","50","3","3","0.96","","","","","","","",""
"null","382417","SARL_v6","SARL_v6tqg93jfh","62eab7b53494af2a6cb73504","freq_resp","","","img/blue_2bandit_b.png","70","img/blue_2bandit_b.png","70","test","","","","","","","","","","","3","","","","","","","","",""
"null","382581","SARL_v6","SARL_v6tqg93jfh","62eab7b53494af2a6cb73504","fixation","","","img/fixation.png","null","","","test","","","","","","","","","","","","","","","","","","","",""
"316.29999999701977","382901","SARL_v6","SARL_v6tqg93jfh","62eab7b53494af2a6cb73504","freq","","","img/blue_2bandit_b2.png","70","","70","test","1","","53","","","","circle","square","51","4","3","0.9607843137254902","","","","","","","",""
"null","383395","SARL_v6","SARL_v6tqg93jfh","62eab7b53494af2a6cb73504","freq_resp","","","img/blue_2bandit_b.png","70","img/blue_2bandit_b.png","70","test","","","","","","","","","","","3","","","","","","","","",""
"null","383552","SARL_v6","SARL_v6tqg93jfh","62eab7b53494af2a6cb73504","fixation","","","img/fixation.png","null","","","test","","","","","","","","","","","","","","","","","","","",""
"287.5","383843","SARL_v6","SARL_v6tqg93jfh","62eab7b53494af2a6cb73504","freq","","","img/blue_2bandit_b2.png","70","","70","test","1","","54","","","","circle","square","52","5","3","0.9615384615384616","","","","","","","",""
"null","384373","SARL_v6","SARL_v6tqg93jfh","62eab7b53494af2a6cb73504","freq_resp","","","img/blue_2bandit_b.png","70","img/blue_2bandit_b.png","70","test","","","","","","","","","","","3","","","","","","","","",""
"null","384528","SARL_v6","SARL_v6tqg93jfh","62eab7b53494af2a6cb73504","fixation","","","img/fixation.png","null","","","test","","","","","","","","","","","","","","","","","","","",""
"346.70000000298023","384878","SARL_v6","SARL_v6tqg93jfh","62eab7b53494af2a6cb73504","freq","","","img/blue_2bandit_b2.png","70","","70","test","1","","55","","","","circle","square","53","6","3","0.9622641509433962","","","","","","","",""
"null","385344","SARL_v6","SARL_v6tqg93jfh","62eab7b53494af2a6cb73504","freq_resp","","","img/blue_2bandit_b.png","70","img/blue_2bandit_b.png","70","test","","","","","","","","","","","3","","","","","","","","",""
"null","385501","SARL_v6","SARL_v6tqg93jfh","62eab7b53494af2a6cb73504","fixation","","","img/fixation.png","null","","","test","","","","","","","","","","","","","","","","","","","",""
"296.29999999701977","385801","SARL_v6","SARL_v6tqg93jfh","62eab7b53494af2a6cb73504","freq","","","img/blue_2bandit_b2.png","70","","70","test","1","","56","","","","circle","square","54","7","3","0.9629629629629629","","","","","","","",""
"null","386307","SARL_v6","SARL_v6tqg93jfh","62eab7b53494af2a6cb73504","freq_resp","","","img/blue_2bandit_b.png","70","img/blue_2bandit_b.png","70","test","","","","","","","","","","","3","","","","","","","","",""
"null","386467","SARL_v6","SARL_v6tqg93jfh","62eab7b53494af2a6cb73504","fixation","","","img/fixation.png","null","","","test","","","","","","","","","","","","","","","","","","","",""
"285.20000000298023","386755","SARL_v6","SARL_v6tqg93jfh","62eab7b53494af2a6cb73504","freq","","","img/blue_2bandit_b2.png","70","","70","test","1","","57","","","","circle","square","55","8","3","0.9636363636363636","","","","","","","",""
"null","387276","SARL_v6","SARL_v6tqg93jfh","62eab7b53494af2a6cb73504","freq_resp","","","img/blue_2bandit_b.png","70","img/blue_2bandit_b.png","70","test","","","","","","","","","","","3","","","","","","","","",""
"null","387432","SARL_v6","SARL_v6tqg93jfh","62eab7b53494af2a6cb73504","fixation","","","img/fixation.png","null","","","test","","","","","","","","","","","","","","","","","","","",""
"260.40000000596046","387696","SARL_v6","SARL_v6tqg93jfh","62eab7b53494af2a6cb73504","freq","","","img/blue_2bandit_b2.png","70","","70","test","1","","58","","","","circle","square","56","9","3","0.9642857142857143","","","","","","","",""
"null","388242","SARL_v6","SARL_v6tqg93jfh","62eab7b53494af2a6cb73504","freq_resp","","","img/blue_2bandit_b.png","70","img/blue_2bandit_b.png","70","test","","","","","","","","","","","3","","","","","","","","",""
"null","388406","SARL_v6","SARL_v6tqg93jfh","62eab7b53494af2a6cb73504","fixation","","","img/fixation.png","null","","","test","","","","","","","","","","","","","","","","","","","",""
"259.59999999403954","388669","SARL_v6","SARL_v6tqg93jfh","62eab7b53494af2a6cb73504","freq","","","img/blue_2bandit_b2.png","70","","70","test","1","","59","","","","circle","square","57","10","3","0.9649122807017544","","","","","","","",""
"null","389224","SARL_v6","SARL_v6tqg93jfh","62eab7b53494af2a6cb73504","freq_resp","","","img/blue_2bandit_b.png","70","img/blue_2bandit_b.png","70","test","","","","","","","","","","","3","","","","","","","","",""
"null","389389","SARL_v6","SARL_v6tqg93jfh","62eab7b53494af2a6cb73504","fixation","","","img/fixation.png","null","","","test","","","","","","","","","","","","","","","","","","","",""
"263","389655","SARL_v6","SARL_v6tqg93jfh","62eab7b53494af2a6cb73504","freq","","","img/blue_2bandit_b2.png","70","","70","test","1","","60","","","","circle","square","58","11","3","0.9655172413793104","","","","","","","",""
"null","390199","SARL_v6","SARL_v6tqg93jfh","62eab7b53494af2a6cb73504","freq_resp","","","img/blue_2bandit_b.png","70","img/blue_2bandit_b.png","70","test","","","","","","","","","","","3","","","","","","","","",""
"null","390355","SARL_v6","SARL_v6tqg93jfh","62eab7b53494af2a6cb73504","fixation","","","img/fixation.png","null","","","test","","","","","","","","","","","","","","","","","","","",""
"261.79999999701977","390619","SARL_v6","SARL_v6tqg93jfh","62eab7b53494af2a6cb73504","freq","","","img/blue_2bandit_b2.png","70","","70","test","1","","61","","","","circle","square","59","12","3","0.9661016949152542","","","","","","","",""
"null","391171","SARL_v6","SARL_v6tqg93jfh","62eab7b53494af2a6cb73504","freq_resp","","","img/blue_2bandit_b.png","70","img/blue_2bandit_b.png","70","test","","","","","","","","","","","3","","","","","","","","",""
"null","391332","SARL_v6","SARL_v6tqg93jfh","62eab7b53494af2a6cb73504","fixation","","","img/fixation.png","null","","","test","","","","","","","","","","","","","","","","","","","",""
"277.5","391613","SARL_v6","SARL_v6tqg93jfh","62eab7b53494af2a6cb73504","freq","","","img/blue_2bandit_b2.png","70","","70","test","1","","62","","","","circle","square","60","13","3","0.9666666666666667","","","","","","","",""
"null","392141","SARL_v6","SARL_v6tqg93jfh","62eab7b53494af2a6cb73504","freq_resp","","","img/blue_2bandit_b.png","70","img/blue_2bandit_b.png","70","test","","","","","","","","","","","3","","","","","","","","",""
"null","392304","SARL_v6","SARL_v6tqg93jfh","62eab7b53494af2a6cb73504","fixation","","","img/fixation.png","null","","","test","","","","","","","","","","","","","","","","","","","",""
"353.40000000596046","392660","SARL_v6","SARL_v6tqg93jfh","62eab7b53494af2a6cb73504","freq","","","img/blue_2bandit_b2.png","70","","70","test","1","","63","","","","circle","square","61","14","3","0.9672131147540983","","","","","","","",""
"null","393110","SARL_v6","SARL_v6tqg93jfh","62eab7b53494af2a6cb73504","freq_resp","","","img/blue_2bandit_b.png","70","img/blue_2bandit_b.png","70","test","","","","","","","","","","","3","","","","","","","","",""
"null","393276","SARL_v6","SARL_v6tqg93jfh","62eab7b53494af2a6cb73504","fixation","","","img/fixation.png","null","","","test","","","","","","","","","","","","","","","","","","","",""
"289.70000000298023","393569","SARL_v6","SARL_v6tqg93jfh","62eab7b53494af2a6cb73504","freq","","","img/blue_2bandit_b2.png","70","","70","test","1","","64","","","","circle","square","62","15","3","0.967741935483871","","","","","","","",""
"null","394089","SARL_v6","SARL_v6tqg93jfh","62eab7b53494af2a6cb73504","freq_resp","","","img/blue_2bandit_b.png","70","img/blue_2bandit_b.png","70","test","","","","","","","","","","","3","","","","","","","","",""
"null","394254","SARL_v6","SARL_v6tqg93jfh","62eab7b53494af2a6cb73504","fixation","","","img/fixation.png","null","","","test","","","","","","","","","","","","","","","","","","","",""
"426.09999999403954","394683","SARL_v6","SARL_v6tqg93jfh","62eab7b53494af2a6cb73504","infreq","","","img/orange_2bandit_b2.png","68","","68","test","1","","65","","","","circle","square","63","16","3","0.9682539682539683","","","","","","","",""
"null","395070","SARL_v6","SARL_v6tqg93jfh","62eab7b53494af2a6cb73504","infreq_resp","","","img/orange_2bandit_b.png","68","img/orange_2bandit_b.png","68","test","","","","","","","","","","","3","","","","","","","","",""
"null","395233","SARL_v6","SARL_v6tqg93jfh","62eab7b53494af2a6cb73504","fixation","","","img/fixation.png","null","","","test","","","","","","","","","","","","","","","","","","","",""
"353.79999999701977","395590","SARL_v6","SARL_v6tqg93jfh","62eab7b53494af2a6cb73504","freq","","","img/blue_2bandit_b2.png","70","","70","test","1","","66","","","","circle","square","64","17","3","0.96875","","","","","","","",""
"null","396044","SARL_v6","SARL_v6tqg93jfh","62eab7b53494af2a6cb73504","freq_resp","","","img/blue_2bandit_b.png","70","img/blue_2bandit_b.png","70","test","","","","","","","","","","","3","","","","","","","","",""
"null","396198","SARL_v6","SARL_v6tqg93jfh","62eab7b53494af2a6cb73504","fixation","","","img/fixation.png","null","","","test","","","","","","","","","","","","","","","","","","","",""
"425.5","396627","SARL_v6","SARL_v6tqg93jfh","62eab7b53494af2a6cb73504","infreq","","","img/orange_2bandit_b2.png","68","","68","test","1","","67","","","","circle","square","65","18","3","0.9692307692307692","","","","","","","",""
"null","397004","SARL_v6","SARL_v6tqg93jfh","62eab7b53494af2a6cb73504","infreq_resp","","","img/orange_2bandit_b.png","68","img/orange_2bandit_b.png","68","test","","","","","","","","","","","3","","","","","","","","",""
"null","397166","SARL_v6","SARL_v6tqg93jfh","62eab7b53494af2a6cb73504","fixation","","","img/fixation.png","null","","","test","","","","","","","","","","","","","","","","","","","",""
"392.20000000298023","397561","SARL_v6","SARL_v6tqg93jfh","62eab7b53494af2a6cb73504","freq","","","img/blue_2bandit_b2.png","70","","70","test","1","","68","","","","circle","square","66","19","3","0.9696969696969697","","","","","","","",""
"null","397974","SARL_v6","SARL_v6tqg93jfh","62eab7b53494af2a6cb73504","freq_resp","","","img/blue_2bandit_b.png","70","img/blue_2bandit_b.png","70","test","","","","","","","","","","","3","","","","","","","","",""
"null","398130","SARL_v6","SARL_v6tqg93jfh","62eab7b53494af2a6cb73504","fixation","","","img/fixation.png","null","","","test","","","","","","","","","","","","","","","","","","","",""
"355.09999999403954","398489","SARL_v6","SARL_v6tqg93jfh","62eab7b53494af2a6cb73504","freq","","","img/blue_2bandit_b2.png","70","","70","test","1","","69","","","","circle","square","67","20","3","0.9701492537313433","","","","","","","",""
"null","398937","SARL_v6","SARL_v6tqg93jfh","62eab7b53494af2a6cb73504","freq_resp","","","img/blue_2bandit_b.png","70","img/blue_2bandit_b.png","70","test","","","","","","","","","","","3","","","","","","","","",""
"null","399098","SARL_v6","SARL_v6tqg93jfh","62eab7b53494af2a6cb73504","fixation","","","img/fixation.png","null","","","test","","","","","","","","","","","","","","","","","","","",""
"317.70000000298023","399419","SARL_v6","SARL_v6tqg93jfh","62eab7b53494af2a6cb73504","freq","","","img/blue_2bandit_b2.png","70","","70","test","1","","70","","","","circle","square","68","21","3","0.9705882352941176","","","","","","","",""
"null","399917","SARL_v6","SARL_v6tqg93jfh","62eab7b53494af2a6cb73504","freq_resp","","","img/blue_2bandit_b.png","70","img/blue_2bandit_b.png","70","test","","","","","","","","","","","3","","","","","","","","",""
"null","400076","SARL_v6","SARL_v6tqg93jfh","62eab7b53494af2a6cb73504","fixation","","","img/fixation.png","null","","","test","","","","","","","","","","","","","","","","","","","",""
"414.5","400494","SARL_v6","SARL_v6tqg93jfh","62eab7b53494af2a6cb73504","rl","","","img/black_2bandit_b2.png","75","","0","test","","","71","","","-8","circle","square","","0","3","","75","-4","-8","-4","-8","square","3","0"
"null","401258","SARL_v6","SARL_v6tqg93jfh","62eab7b53494af2a6cb73504","feedback","","","<div class=""verylowPoints_sq""> -8 </div>","null","","na","test","","","NaN","","","","","","","","3","","75","","","","","","3",""
"637.5","401899","SARL_v6","SARL_v6tqg93jfh","62eab7b53494af2a6cb73504","freq","","","img/blue_2bandit_b2.png","70","","70","test","1","","72","","","","circle","square","69","1","4","0.9710144927536232","","","","","","","",""
"null","402068","SARL_v6","SARL_v6tqg93jfh","62eab7b53494af2a6cb73504","freq_resp","","","img/blue_2bandit_b.png","70","img/blue_2bandit_b.png","70","test","","","","","","","","","","","4","","","","","","","","",""
"null","402226","SARL_v6","SARL_v6tqg93jfh","62eab7b53494af2a6cb73504","fixation","","","img/fixation.png","null","","","test","","","","","","","","","","","","","","","","","","","",""
"588.4000000059605","402818","SARL_v6","SARL_v6tqg93jfh","62eab7b53494af2a6cb73504","freq","","","img/blue_2bandit_b2.png","70","","70","test","1","","73","","","","circle","square","70","2","4","0.9714285714285714","","","","","","","",""
"null","403038","SARL_v6","SARL_v6tqg93jfh","62eab7b53494af2a6cb73504","freq_resp","","","img/blue_2bandit_b.png","70","img/blue_2bandit_b.png","70","test","","","","","","","","","","","4","","","","","","","","",""
"null","403194","SARL_v6","SARL_v6tqg93jfh","62eab7b53494af2a6cb73504","fixation","","","img/fixation.png","null","","","test","","","","","","","","","","","","","","","","","","","",""
"396","403593","SARL_v6","SARL_v6tqg93jfh","62eab7b53494af2a6cb73504","freq","","","img/blue_2bandit_b2.png","70","","70","test","1","","74","","","","circle","square","71","3","4","0.971830985915493","","","","","","","",""
"null","404009","SARL_v6","SARL_v6tqg93jfh","62eab7b53494af2a6cb73504","freq_resp","","","img/blue_2bandit_b.png","70","img/blue_2bandit_b.png","70","test","","","","","","","","","","","4","","","","","","","","",""
"null","404167","SARL_v6","SARL_v6tqg93jfh","62eab7b53494af2a6cb73504","fixation","","","img/fixation.png","null","","","test","","","","","","","","","","","","","","","","","","","",""
"276.70000000298023","404447","SARL_v6","SARL_v6tqg93jfh","62eab7b53494af2a6cb73504","infreq","","","img/orange_2bandit_b2.png","70","","68","test","0","","75","","","","circle","square","72","4","4","0.9583333333333334","","","","","","","",""
"null","404979","SARL_v6","SARL_v6tqg93jfh","62eab7b53494af2a6cb73504","infreq_resp","","","img/orange_2bandit_b.png","70","img/orange_2bandit_b.png","68","test","","","","","","","","","","","4","","","","","","","","",""
"null","405147","SARL_v6","SARL_v6tqg93jfh","62eab7b53494af2a6cb73504","fixation","","","img/fixation.png","null","","","test","","","","","","","","","","","","","","","","","","","",""
"340.5","405491","SARL_v6","SARL_v6tqg93jfh","62eab7b53494af2a6cb73504","freq","","","img/blue_2bandit_b2.png","70","","70","test","1","","76","","","","circle","square","73","5","4","0.958904109589041","","","","","","","",""
"null","405955","SARL_v6","SARL_v6tqg93jfh","62eab7b53494af2a6cb73504","freq_resp","","","img/blue_2bandit_b.png","70","img/blue_2bandit_b.png","70","test","","","","","","","","","","","4","","","","","","","","",""
"null","406121","SARL_v6","SARL_v6tqg93jfh","62eab7b53494af2a6cb73504","fixation","","","img/fixation.png","null","","","test","","","","","","","","","","","","","","","","","","","",""
"292.59999999403954","406417","SARL_v6","SARL_v6tqg93jfh","62eab7b53494af2a6cb73504","freq","","","img/blue_2bandit_b2.png","70","","70","test","1","","77","","","","circle","square","74","6","4","0.9594594594594594","","","","","","","",""
"null","406937","SARL_v6","SARL_v6tqg93jfh","62eab7b53494af2a6cb73504","freq_resp","","","img/blue_2bandit_b.png","70","img/blue_2bandit_b.png","70","test","","","","","","","","","","","4","","","","","","","","",""
"null","407096","SARL_v6","SARL_v6tqg93jfh","62eab7b53494af2a6cb73504","fixation","","","img/fixation.png","null","","","test","","","","","","","","","","","","","","","","","","","",""
"254.70000000298023","407353","SARL_v6","SARL_v6tqg93jfh","62eab7b53494af2a6cb73504","freq","","","img/blue_2bandit_b2.png","70","","70","test","1","","78","","","","circle","square","75","7","4","0.96","","","","","","","",""
"null","407909","SARL_v6","SARL_v6tqg93jfh","62eab7b53494af2a6cb73504","freq_resp","","","img/blue_2bandit_b.png","70","img/blue_2bandit_b.png","70","test","","","","","","","","","","","4","","","","","","","","",""
"null","408064","SARL_v6","SARL_v6tqg93jfh","62eab7b53494af2a6cb73504","fixation","","","img/fixation.png","null","","","test","","","","","","","","","","","","","","","","","","","",""
"251.70000000298023","408318","SARL_v6","SARL_v6tqg93jfh","62eab7b53494af2a6cb73504","freq","","","img/blue_2bandit_b2.png","70","","70","test","1","","79","","","","circle","square","76","8","4","0.9605263157894737","","","","","","","",""
"null","408872","SARL_v6","SARL_v6tqg93jfh","62eab7b53494af2a6cb73504","freq_resp","","","img/blue_2bandit_b.png","70","img/blue_2bandit_b.png","70","test","","","","","","","","","","","4","","","","","","","","",""
"null","409029","SARL_v6","SARL_v6tqg93jfh","62eab7b53494af2a6cb73504","fixation","","","img/fixation.png","null","","","test","","","","","","","","","","","","","","","","","","","",""
"278.20000000298023","409310","SARL_v6","SARL_v6tqg93jfh","62eab7b53494af2a6cb73504","freq","","","img/blue_2bandit_b2.png","70","","70","test","1","","80","","","","circle","square","77","9","4","0.961038961038961","","","","","","","",""
"null","409839","SARL_v6","SARL_v6tqg93jfh","62eab7b53494af2a6cb73504","freq_resp","","","img/blue_2bandit_b.png","70","img/blue_2bandit_b.png","70","test","","","","","","","","","","","4","","","","","","","","",""
"null","410001","SARL_v6","SARL_v6tqg93jfh","62eab7b53494af2a6cb73504","fixation","","","img/fixation.png","null","","","test","","","","","","","","","","","","","","","","","","","",""
"265.19999998807907","410270","SARL_v6","SARL_v6tqg93jfh","62eab7b53494af2a6cb73504","freq","","","img/blue_2bandit_b2.png","70","","70","test","1","","81","","","","circle","square","78","10","4","0.9615384615384616","","","","","","","",""
"null","410814","SARL_v6","SARL_v6tqg93jfh","62eab7b53494af2a6cb73504","freq_resp","","","img/blue_2bandit_b.png","70","img/blue_2bandit_b.png","70","test","","","","","","","","","","","4","","","","","","","","",""
"null","410975","SARL_v6","SARL_v6tqg93jfh","62eab7b53494af2a6cb73504","fixation","","","img/fixation.png","null","","","test","","","","","","","","","","","","","","","","","","","",""
"313","411292","SARL_v6","SARL_v6tqg93jfh","62eab7b53494af2a6cb73504","freq","","","img/blue_2bandit_b2.png","70","","70","test","1","","82","","","","circle","square","79","11","4","0.9620253164556962","","","","","","","",""
"null","411783","SARL_v6","SARL_v6tqg93jfh","62eab7b53494af2a6cb73504","freq_resp","","","img/blue_2bandit_b.png","70","img/blue_2bandit_b.png","70","test","","","","","","","","","","","4","","","","","","","","",""
"null","411943","SARL_v6","SARL_v6tqg93jfh","62eab7b53494af2a6cb73504","fixation","","","img/fixation.png","null","","","test","","","","","","","","","","","","","","","","","","","",""
"461","412407","SARL_v6","SARL_v6tqg93jfh","62eab7b53494af2a6cb73504","infreq","","","img/orange_2bandit_b2.png","68","","68","test","1","","83","","","","circle","square","80","12","4","0.9625","","","","","","","",""
"null","412755","SARL_v6","SARL_v6tqg93jfh","62eab7b53494af2a6cb73504","infreq_resp","","","img/orange_2bandit_b.png","68","img/orange_2bandit_b.png","68","test","","","","","","","","","","","4","","","","","","","","",""
"null","412909","SARL_v6","SARL_v6tqg93jfh","62eab7b53494af2a6cb73504","fixation","","","img/fixation.png","null","","","test","","","","","","","","","","","","","","","","","","","",""
"423.79999999701977","413336","SARL_v6","SARL_v6tqg93jfh","62eab7b53494af2a6cb73504","freq","","","img/blue_2bandit_b2.png","70","","70","test","1","","84","","","","circle","square","81","13","4","0.9629629629629629","","","","","","","",""
"null","413727","SARL_v6","SARL_v6tqg93jfh","62eab7b53494af2a6cb73504","freq_resp","","","img/blue_2bandit_b.png","70","img/blue_2bandit_b.png","70","test","","","","","","","","","","","4","","","","","","","","",""
"null","413888","SARL_v6","SARL_v6tqg93jfh","62eab7b53494af2a6cb73504","fixation","","","img/fixation.png","null","","","test","","","","","","","","","","","","","","","","","","","",""
"327.09999999403954","414219","SARL_v6","SARL_v6tqg93jfh","62eab7b53494af2a6cb73504","freq","","","img/blue_2bandit_b2.png","70","","70","test","1","","85","","","","circle","square","82","14","4","0.9634146341463414","","","","","","","",""
"null","414702","SARL_v6","SARL_v6tqg93jfh","62eab7b53494af2a6cb73504","freq_resp","","","img/blue_2bandit_b.png","70","img/blue_2bandit_b.png","70","test","","","","","","","","","","","4","","","","","","","","",""
"null","414855","SARL_v6","SARL_v6tqg93jfh","62eab7b53494af2a6cb73504","fixation","","","img/fixation.png","null","","","test","","","","","","","","","","","","","","","","","","","",""
"305","415163","SARL_v6","SARL_v6tqg93jfh","62eab7b53494af2a6cb73504","freq","","","img/blue_2bandit_b2.png","70","","70","test","1","","86","","","","circle","square","83","15","4","0.963855421686747","","","","","","","",""
"null","415669","SARL_v6","SARL_v6tqg93jfh","62eab7b53494af2a6cb73504","freq_resp","","","img/blue_2bandit_b.png","70","img/blue_2bandit_b.png","70","test","","","","","","","","","","","4","","","","","","","","",""
"null","415837","SARL_v6","SARL_v6tqg93jfh","62eab7b53494af2a6cb73504","fixation","","","img/fixation.png","null","","","test","","","","","","","","","","","","","","","","","","","",""
"273.29999999701977","416114","SARL_v6","SARL_v6tqg93jfh","62eab7b53494af2a6cb73504","freq","","","img/blue_2bandit_b2.png","70","","70","test","1","","87","","","","circle","square","84","16","4","0.9642857142857143","","","","","","","",""
"null","416658","SARL_v6","SARL_v6tqg93jfh","62eab7b53494af2a6cb73504","freq_resp","","","img/blue_2bandit_b.png","70","img/blue_2bandit_b.png","70","test","","","","","","","","","","","4","","","","","","","","",""
"null","416814","SARL_v6","SARL_v6tqg93jfh","62eab7b53494af2a6cb73504","fixation","","","img/fixation.png","null","","","test","","","","","","","","","","","","","","","","","","","",""
"291.20000000298023","417109","SARL_v6","SARL_v6tqg93jfh","62eab7b53494af2a6cb73504","freq","","","img/blue_2bandit_b2.png","70","","70","test","1","","88","","","","circle","square","85","17","4","0.9647058823529412","","","","","","","",""
"null","417632","SARL_v6","SARL_v6tqg93jfh","62eab7b53494af2a6cb73504","freq_resp","","","img/blue_2bandit_b.png","70","img/blue_2bandit_b.png","70","test","","","","","","","","","","","4","","","","","","","","",""
"null","417786","SARL_v6","SARL_v6tqg93jfh","62eab7b53494af2a6cb73504","fixation","","","img/fixation.png","null","","","test","","","","","","","","","","","","","","","","","","","",""
"322.5","418112","SARL_v6","SARL_v6tqg93jfh","62eab7b53494af2a6cb73504","freq","","","img/blue_2bandit_b2.png","70","","70","test","1","","89","","","","circle","square","86","18","4","0.9651162790697675","","","","","","","",""
"null","418599","SARL_v6","SARL_v6tqg93jfh","62eab7b53494af2a6cb73504","freq_resp","","","img/blue_2bandit_b.png","70","img/blue_2bandit_b.png","70","test","","","","","","","","","","","4","","","","","","","","",""
"null","418761","SARL_v6","SARL_v6tqg93jfh","62eab7b53494af2a6cb73504","fixation","","","img/fixation.png","null","","","test","","","","","","","","","","","","","","","","","","","",""
"321.90000000596046","419087","SARL_v6","SARL_v6tqg93jfh","62eab7b53494af2a6cb73504","freq","","","img/blue_2bandit_b2.png","70","","70","test","1","","90","","","","circle","square","87","19","4","0.9655172413793104","","","","","","","",""
"null","419583","SARL_v6","SARL_v6tqg93jfh","62eab7b53494af2a6cb73504","freq_resp","","","img/blue_2bandit_b.png","70","img/blue_2bandit_b.png","70","test","","","","","","","","","","","4","","","","","","","","",""
"null","419750","SARL_v6","SARL_v6tqg93jfh","62eab7b53494af2a6cb73504","fixation","","","img/fixation.png","null","","","test","","","","","","","","","","","","","","","","","","","",""
"300.09999999403954","420054","SARL_v6","SARL_v6tqg93jfh","62eab7b53494af2a6cb73504","freq","","","img/blue_2bandit_b2.png","70","","70","test","1","","91","","","","circle","square","88","20","4","0.9659090909090909","","","","","","","",""
"null","420562","SARL_v6","SARL_v6tqg93jfh","62eab7b53494af2a6cb73504","freq_resp","","","img/blue_2bandit_b.png","70","img/blue_2bandit_b.png","70","test","","","","","","","","","","","4","","","","","","","","",""
"null","420729","SARL_v6","SARL_v6tqg93jfh","62eab7b53494af2a6cb73504","fixation","","","img/fixation.png","null","","","test","","","","","","","","","","","","","","","","","","","",""
"327.20000000298023","421059","SARL_v6","SARL_v6tqg93jfh","62eab7b53494af2a6cb73504","freq","","","img/blue_2bandit_b2.png","70","","70","test","1","","92","","","","circle","square","89","21","4","0.9662921348314607","","","","","","","",""
"null","421542","SARL_v6","SARL_v6tqg93jfh","62eab7b53494af2a6cb73504","freq_resp","","","img/blue_2bandit_b.png","70","img/blue_2bandit_b.png","70","test","","","","","","","","","","","4","","","","","","","","",""
"null","421708","SARL_v6","SARL_v6tqg93jfh","62eab7b53494af2a6cb73504","fixation","","","img/fixation.png","null","","","test","","","","","","","","","","","","","","","","","","","",""
"283.3999999910593","421994","SARL_v6","SARL_v6tqg93jfh","62eab7b53494af2a6cb73504","freq","","","img/blue_2bandit_b2.png","70","","70","test","1","","93","","","","circle","square","90","22","4","0.9666666666666667","","","","","","","",""
"null","422520","SARL_v6","SARL_v6tqg93jfh","62eab7b53494af2a6cb73504","freq_resp","","","img/blue_2bandit_b.png","70","img/blue_2bandit_b.png","70","test","","","","","","","","","","","4","","","","","","","","",""
"null","422675","SARL_v6","SARL_v6tqg93jfh","62eab7b53494af2a6cb73504","fixation","","","img/fixation.png","null","","","test","","","","","","","","","","","","","","","","","","","",""
"312.69999998807907","422991","SARL_v6","SARL_v6tqg93jfh","62eab7b53494af2a6cb73504","freq","","","img/blue_2bandit_b2.png","70","","70","test","1","","94","","","","circle","square","91","23","4","0.967032967032967","","","","","","","",""
"null","423485","SARL_v6","SARL_v6tqg93jfh","62eab7b53494af2a6cb73504","freq_resp","","","img/blue_2bandit_b.png","70","img/blue_2bandit_b.png","70","test","","","","","","","","","","","4","","","","","","","","",""
"null","423646","SARL_v6","SARL_v6tqg93jfh","62eab7b53494af2a6cb73504","fixation","","","img/fixation.png","null","","","test","","","","","","","","","","","","","","","","","","","",""
"281.90000000596046","423932","SARL_v6","SARL_v6tqg93jfh","62eab7b53494af2a6cb73504","freq","","","img/blue_2bandit_b2.png","70","","70","test","1","","95","","","","circle","square","92","24","4","0.967391304347826","","","","","","","",""
"null","424467","SARL_v6","SARL_v6tqg93jfh","62eab7b53494af2a6cb73504","freq_resp","","","img/blue_2bandit_b.png","70","img/blue_2bandit_b.png","70","test","","","","","","","","","","","4","","","","","","","","",""
"null","424623","SARL_v6","SARL_v6tqg93jfh","62eab7b53494af2a6cb73504","fixation","","","img/fixation.png","null","","","test","","","","","","","","","","","","","","","","","","","",""
"275.5","424901","SARL_v6","SARL_v6tqg93jfh","62eab7b53494af2a6cb73504","freq","","","img/blue_2bandit_b2.png","70","","70","test","1","","96","","","","circle","square","93","25","4","0.967741935483871","","","","","","","",""
"null","425432","SARL_v6","SARL_v6tqg93jfh","62eab7b53494af2a6cb73504","freq_resp","","","img/blue_2bandit_b.png","70","img/blue_2bandit_b.png","70","test","","","","","","","","","","","4","","","","","","","","",""
"null","425595","SARL_v6","SARL_v6tqg93jfh","62eab7b53494af2a6cb73504","fixation","","","img/fixation.png","null","","","test","","","","","","","","","","","","","","","","","","","",""
"495.59999999403954","426094","SARL_v6","SARL_v6tqg93jfh","62eab7b53494af2a6cb73504","rl","","","img/black_2bandit_b2.png","75","","0","test","","","97","","","-12","circle","square","","0","4","","75","0","-12","0","-12","square","4","0"
"null","426851","SARL_v6","SARL_v6tqg93jfh","62eab7b53494af2a6cb73504","feedback","","","<div class=""verylowPoints_sq""> -12 </div>","null","","na","test","","","NaN","","","","","","","","4","","75","","","","","","4",""
"568.5","427423","SARL_v6","SARL_v6tqg93jfh","62eab7b53494af2a6cb73504","freq","","","img/blue_2bandit_b2.png","70","","70","test","1","","98","","","","circle","square","94","1","5","0.9680851063829787","","","","","","","",""
"null","427664","SARL_v6","SARL_v6tqg93jfh","62eab7b53494af2a6cb73504","freq_resp","","","img/blue_2bandit_b.png","70","img/blue_2bandit_b.png","70","test","","","","","","","","","","","5","","","","","","","","",""
"null","427825","SARL_v6","SARL_v6tqg93jfh","62eab7b53494af2a6cb73504","fixation","","","img/fixation.png","null","","","test","","","","","","","","","","","","","","","","","","","",""
"445.80000001192093","428275","SARL_v6","SARL_v6tqg93jfh","62eab7b53494af2a6cb73504","infreq","","","img/orange_2bandit_b2.png","68","","68","test","1","","99","","","","circle","square","95","2","5","0.968421052631579","","","","","","","",""
"null","428637","SARL_v6","SARL_v6tqg93jfh","62eab7b53494af2a6cb73504","infreq_resp","","","img/orange_2bandit_b.png","68","img/orange_2bandit_b.png","68","test","","","","","","","","","","","5","","","","","","","","",""
"null","428801","SARL_v6","SARL_v6tqg93jfh","62eab7b53494af2a6cb73504","fixation","","","img/fixation.png","null","","","test","","","","","","","","","","","","","","","","","","","",""
"498","429302","SARL_v6","SARL_v6tqg93jfh","62eab7b53494af2a6cb73504","freq","","","img/blue_2bandit_b2.png","70","","70","test","1","","100","","","","circle","square","96","3","5","0.96875","","","","","","","",""
"null","429615","SARL_v6","SARL_v6tqg93jfh","62eab7b53494af2a6cb73504","freq_resp","","","img/blue_2bandit_b.png","70","img/blue_2bandit_b.png","70","test","","","","","","","","","","","5","","","","","","","","",""
"null","429781","SARL_v6","SARL_v6tqg93jfh","62eab7b53494af2a6cb73504","fixation","","","img/fixation.png","null","","","test","","","","","","","","","","","","","","","","","","","",""
"368.90000000596046","430154","SARL_v6","SARL_v6tqg93jfh","62eab7b53494af2a6cb73504","freq","","","img/blue_2bandit_b2.png","70","","70","test","1","","101","","","","circle","square","97","4","5","0.9690721649484536","","","","","","","",""
"null","430601","SARL_v6","SARL_v6tqg93jfh","62eab7b53494af2a6cb73504","freq_resp","","","img/blue_2bandit_b.png","70","img/blue_2bandit_b.png","70","test","","","","","","","","","","","5","","","","","","","","",""
"null","430758","SARL_v6","SARL_v6tqg93jfh","62eab7b53494af2a6cb73504","fixation","","","img/fixation.png","null","","","test","","","","","","","","","","","","","","","","","","","",""
"361.20000000298023","431122","SARL_v6","SARL_v6tqg93jfh","62eab7b53494af2a6cb73504","freq","","","img/blue_2bandit_b2.png","70","","70","test","1","","102","","","","circle","square","98","5","5","0.9693877551020408","","","","","","","",""
"null","431580","SARL_v6","SARL_v6tqg93jfh","62eab7b53494af2a6cb73504","freq_resp","","","img/blue_2bandit_b.png","70","img/blue_2bandit_b.png","70","test","","","","","","","","","","","5","","","","","","","","",""
"null","431746","SARL_v6","SARL_v6tqg93jfh","62eab7b53494af2a6cb73504","fixation","","","img/fixation.png","null","","","test","","","","","","","","","","","","","","","","","","","",""
"329.70000000298023","432079","SARL_v6","SARL_v6tqg93jfh","62eab7b53494af2a6cb73504","freq","","","img/blue_2bandit_b2.png","70","","70","test","1","","103","","","","circle","square","99","6","5","0.9696969696969697","","","","","","","",""
"null","432561","SARL_v6","SARL_v6tqg93jfh","62eab7b53494af2a6cb73504","freq_resp","","","img/blue_2bandit_b.png","70","img/blue_2bandit_b.png","70","test","","","","","","","","","","","5","","","","","","","","",""
"null","432720","SARL_v6","SARL_v6tqg93jfh","62eab7b53494af2a6cb73504","fixation","","","img/fixation.png","null","","","test","","","","","","","","","","","","","","","","","","","",""
"303","433027","SARL_v6","SARL_v6tqg93jfh","62eab7b53494af2a6cb73504","freq","","","img/blue_2bandit_b2.png","70","","70","test","1","","104","","","","circle","square","100","7","5","0.97","","","","","","","",""
"null","433529","SARL_v6","SARL_v6tqg93jfh","62eab7b53494af2a6cb73504","freq_resp","","","img/blue_2bandit_b.png","70","img/blue_2bandit_b.png","70","test","","","","","","","","","","","5","","","","","","","","",""
"null","433688","SARL_v6","SARL_v6tqg93jfh","62eab7b53494af2a6cb73504","fixation","","","img/fixation.png","null","","","test","","","","","","","","","","","","","","","","","","","",""
"347.3999999910593","434038","SARL_v6","SARL_v6tqg93jfh","62eab7b53494af2a6cb73504","freq","","","img/blue_2bandit_b2.png","70","","70","test","1","","105","","","","circle","square","101","8","5","0.9702970297029703","","","","","","","",""
"null","434497","SARL_v6","SARL_v6tqg93jfh","62eab7b53494af2a6cb73504","freq_resp","","","img/blue_2bandit_b.png","70","img/blue_2bandit_b.png","70","test","","","","","","","","","","","5","","","","","","","","",""
"null","434659","SARL_v6","SARL_v6tqg93jfh","62eab7b53494af2a6cb73504","fixation","","","img/fixation.png","null","","","test","","","","","","","","","","","","","","","","","","","",""
"289.69999998807907","434952","SARL_v6","SARL_v6tqg93jfh","62eab7b53494af2a6cb73504","freq","","","img/blue_2bandit_b2.png","70","","70","test","1","","106","","","","circle","square","102","9","5","0.9705882352941176","","","","","","","",""
"null","435470","SARL_v6","SARL_v6tqg93jfh","62eab7b53494af2a6cb73504","freq_resp","","","img/blue_2bandit_b.png","70","img/blue_2bandit_b.png","70","test","","","","","","","","","","","5","","","","","","","","",""
"null","435635","SARL_v6","SARL_v6tqg93jfh","62eab7b53494af2a6cb73504","fixation","","","img/fixation.png","null","","","test","","","","","","","","","","","","","","","","","","","",""
"279.80000001192093","435918","SARL_v6","SARL_v6tqg93jfh","62eab7b53494af2a6cb73504","freq","","","img/blue_2bandit_b2.png","70","","70","test","1","","107","","","","circle","square","103","10","5","0.970873786407767","","","","","","","",""
"null","436447","SARL_v6","SARL_v6tqg93jfh","62eab7b53494af2a6cb73504","freq_resp","","","img/blue_2bandit_b.png","70","img/blue_2bandit_b.png","70","test","","","","","","","","","","","5","","","","","","","","",""
"null","436602","SARL_v6","SARL_v6tqg93jfh","62eab7b53494af2a6cb73504","fixation","","","img/fixation.png","null","","","test","","","","","","","","","","","","","","","","","","","",""
"270.59999999403954","436876","SARL_v6","SARL_v6tqg93jfh","62eab7b53494af2a6cb73504","freq","","","img/blue_2bandit_b2.png","70","","70","test","1","","108","","","","circle","square","104","11","5","0.9711538461538461","","","","","","","",""
"null","437420","SARL_v6","SARL_v6tqg93jfh","62eab7b53494af2a6cb73504","freq_resp","","","img/blue_2bandit_b.png","70","img/blue_2bandit_b.png","70","test","","","","","","","","","","","5","","","","","","","","",""
"null","437583","SARL_v6","SARL_v6tqg93jfh","62eab7b53494af2a6cb73504","fixation","","","img/fixation.png","null","","","test","","","","","","","","","","","","","","","","","","","",""
"300.69999998807907","437887","SARL_v6","SARL_v6tqg93jfh","62eab7b53494af2a6cb73504","infreq","","","img/orange_2bandit_b2.png","70","","68","test","0","","109","","","","circle","square","105","12","5","0.9619047619047619","","","","","","","",""
"null","438398","SARL_v6","SARL_v6tqg93jfh","62eab7b53494af2a6cb73504","infreq_resp","","","img/orange_2bandit_b.png","70","img/orange_2bandit_b.png","68","test","","","","","","","","","","","5","","","","","","","","",""
"null","438564","SARL_v6","SARL_v6tqg93jfh","62eab7b53494af2a6cb73504","fixation","","","img/fixation.png","null","","","test","","","","","","","","","","","","","","","","","","","",""
"323.20000000298023","438891","SARL_v6","SARL_v6tqg93jfh","62eab7b53494af2a6cb73504","freq","","","img/blue_2bandit_b2.png","70","","70","test","1","","110","","","","circle","square","106","13","5","0.9622641509433962","","","","","","","",""
"null","439383","SARL_v6","SARL_v6tqg93jfh","62eab7b53494af2a6cb73504","freq_resp","","","img/blue_2bandit_b.png","70","img/blue_2bandit_b.png","70","test","","","","","","","","","","","5","","","","","","","","",""
"null","439548","SARL_v6","SARL_v6tqg93jfh","62eab7b53494af2a6cb73504","fixation","","","img/fixation.png","null","","","test","","","","","","","","","","","","","","","","","","","",""
"261.5","439812","SARL_v6","SARL_v6tqg93jfh","62eab7b53494af2a6cb73504","freq","","","img/blue_2bandit_b2.png","70","","70","test","1","","111","","","","circle","square","107","14","5","0.9626168224299065","","","","","","","",""
"null","440357","SARL_v6","SARL_v6tqg93jfh","62eab7b53494af2a6cb73504","freq_resp","","","img/blue_2bandit_b.png","70","img/blue_2bandit_b.png","70","test","","","","","","","","","","","5","","","","","","","","",""
"null","440525","SARL_v6","SARL_v6tqg93jfh","62eab7b53494af2a6cb73504","fixation","","","img/fixation.png","null","","","test","","","","","","","","","","","","","","","","","","","",""
"347.29999999701977","440876","SARL_v6","SARL_v6tqg93jfh","62eab7b53494af2a6cb73504","freq","","","img/blue_2bandit_b2.png","70","","70","test","1","","112","","","","circle","square","108","15","5","0.9629629629629629","","","","","","","",""
"null","441341","SARL_v6","SARL_v6tqg93jfh","62eab7b53494af2a6cb73504","freq_resp","","","img/blue_2bandit_b.png","70","img/blue_2bandit_b.png","70","test","","","","","","","","","","","5","","","","","","","","",""
"null","441504","SARL_v6","SARL_v6tqg93jfh","62eab7b53494af2a6cb73504","fixation","","","img/fixation.png","null","","","test","","","","","","","","","","","","","","","","","","","",""
"315.1000000089407","441822","SARL_v6","SARL_v6tqg93jfh","62eab7b53494af2a6cb73504","freq","","","img/blue_2bandit_b2.png","70","","70","test","1","","113","","","","circle","square","109","16","5","0.963302752293578","","","","","","","",""
"null","442318","SARL_v6","SARL_v6tqg93jfh","62eab7b53494af2a6cb73504","freq_resp","","","img/blue_2bandit_b.png","70","img/blue_2bandit_b.png","70","test","","","","","","","","","","","5","","","","","","","","",""
"null","442487","SARL_v6","SARL_v6tqg93jfh","62eab7b53494af2a6cb73504","fixation","","","img/fixation.png","null","","","test","","","","","","","","","","","","","","","","","","","",""
"354.1000000089407","442844","SARL_v6","SARL_v6tqg93jfh","62eab7b53494af2a6cb73504","freq","","","img/blue_2bandit_b2.png","70","","70","test","1","","114","","","","circle","square","110","17","5","0.9636363636363636","","","","","","","",""
"null","443293","SARL_v6","SARL_v6tqg93jfh","62eab7b53494af2a6cb73504","freq_resp","","","img/blue_2bandit_b.png","70","img/blue_2bandit_b.png","70","test","","","","","","","","","","","5","","","","","","","","",""
"null","443453","SARL_v6","SARL_v6tqg93jfh","62eab7b53494af2a6cb73504","fixation","","","img/fixation.png","null","","","test","","","","","","","","","","","","","","","","","","","",""
"354.30000001192093","443810","SARL_v6","SARL_v6tqg93jfh","62eab7b53494af2a6cb73504","freq","","","img/blue_2bandit_b2.png","70","","70","test","1","","115","","","","circle","square","111","18","5","0.963963963963964","","","","","","","",""
"null","444260","SARL_v6","SARL_v6tqg93jfh","62eab7b53494af2a6cb73504","freq_resp","","","img/blue_2bandit_b.png","70","img/blue_2bandit_b.png","70","test","","","","","","","","","","","5","","","","","","","","",""
"null","444425","SARL_v6","SARL_v6tqg93jfh","62eab7b53494af2a6cb73504","fixation","","","img/fixation.png","null","","","test","","","","","","","","","","","","","","","","","","","",""
"363.20000000298023","444792","SARL_v6","SARL_v6tqg93jfh","62eab7b53494af2a6cb73504","freq","","","img/blue_2bandit_b2.png","70","","70","test","1","","116","","","","circle","square","112","19","5","0.9642857142857143","","","","","","","",""
"null","445241","SARL_v6","SARL_v6tqg93jfh","62eab7b53494af2a6cb73504","freq_resp","","","img/blue_2bandit_b.png","70","img/blue_2bandit_b.png","70","test","","","","","","","","","","","5","","","","","","","","",""
"null","445408","SARL_v6","SARL_v6tqg93jfh","62eab7b53494af2a6cb73504","fixation","","","img/fixation.png","null","","","test","","","","","","","","","","","","","","","","","","","",""
"293.5","445705","SARL_v6","SARL_v6tqg93jfh","62eab7b53494af2a6cb73504","freq","","","img/blue_2bandit_b2.png","70","","70","test","1","","117","","","","circle","square","113","20","5","0.9646017699115044","","","","","","","",""
"null","446214","SARL_v6","SARL_v6tqg93jfh","62eab7b53494af2a6cb73504","freq_resp","","","img/blue_2bandit_b.png","70","img/blue_2bandit_b.png","70","test","","","","","","","","","","","5","","","","","","","","",""
"null","446382","SARL_v6","SARL_v6tqg93jfh","62eab7b53494af2a6cb73504","fixation","","","img/fixation.png","null","","","test","","","","","","","","","","","","","","","","","","","",""
"328.09999999403954","446714","SARL_v6","SARL_v6tqg93jfh","62eab7b53494af2a6cb73504","freq","","","img/blue_2bandit_b2.png","70","","70","test","1","","118","","","","circle","square","114","21","5","0.9649122807017544","","","","","","","",""
"null","447204","SARL_v6","SARL_v6tqg93jfh","62eab7b53494af2a6cb73504","freq_resp","","","img/blue_2bandit_b.png","70","img/blue_2bandit_b.png","70","test","","","","","","","","","","","5","","","","","","","","",""
"null","447358","SARL_v6","SARL_v6tqg93jfh","62eab7b53494af2a6cb73504","fixation","","","img/fixation.png","null","","","test","","","","","","","","","","","","","","","","","","","",""
"1265.2999999970198","448627","SARL_v6","SARL_v6tqg93jfh","62eab7b53494af2a6cb73504","rl","","","img/black_2bandit_b2.png","75","","0","test","","","119","","","-7","circle","square","","0","5","","75","4","-7","4","-7","square","5","0"
"null","449385","SARL_v6","SARL_v6tqg93jfh","62eab7b53494af2a6cb73504","feedback","","","<div class=""verylowPoints_sq""> -7 </div>","null","","na","test","","","NaN","","","","","","","","5","","75","","","","","","5",""
"578.0999999940395","449966","SARL_v6","SARL_v6tqg93jfh","62eab7b53494af2a6cb73504","freq","","","img/blue_2bandit_b2.png","70","","70","test","1","","120","","","","circle","square","115","1","6","0.9652173913043478","","","","","","","",""
"null","450200","SARL_v6","SARL_v6tqg93jfh","62eab7b53494af2a6cb73504","freq_resp","","","img/blue_2bandit_b.png","70","img/blue_2bandit_b.png","70","test","","","","","","","","","","","6","","","","","","","","",""
"null","450356","SARL_v6","SARL_v6tqg93jfh","62eab7b53494af2a6cb73504","fixation","","","img/fixation.png","null","","","test","","","","","","","","","","","","","","","","","","","",""
"644.6999999880791","451004","SARL_v6","SARL_v6tqg93jfh","62eab7b53494af2a6cb73504","freq","","","img/blue_2bandit_b2.png","70","","70","test","1","","121","","","","circle","square","116","2","6","0.9655172413793104","","","","","","","",""
"null","451169","SARL_v6","SARL_v6tqg93jfh","62eab7b53494af2a6cb73504","freq_resp","","","img/blue_2bandit_b.png","70","img/blue_2bandit_b.png","70","test","","","","","","","","","","","6","","","","","","","","",""
"null","451335","SARL_v6","SARL_v6tqg93jfh","62eab7b53494af2a6cb73504","fixation","","","img/fixation.png","null","","","test","","","","","","","","","","","","","","","","","","","",""
"580.7999999970198","451919","SARL_v6","SARL_v6tqg93jfh","62eab7b53494af2a6cb73504","freq","","","img/blue_2bandit_b2.png","70","","70","test","1","","122","","","","circle","square","117","3","6","0.9658119658119658","","","","","","","",""
"null","452157","SARL_v6","SARL_v6tqg93jfh","62eab7b53494af2a6cb73504","freq_resp","","","img/blue_2bandit_b.png","70","img/blue_2bandit_b.png","70","test","","","","","","","","","","","6","","","","","","","","",""
"null","452321","SARL_v6","SARL_v6tqg93jfh","62eab7b53494af2a6cb73504","fixation","","","img/fixation.png","null","","","test","","","","","","","","","","","","","","","","","","","",""
"629.6000000089407","452954","SARL_v6","SARL_v6tqg93jfh","62eab7b53494af2a6cb73504","freq","","","img/blue_2bandit_b2.png","70","","70","test","1","","123","","","","circle","square","118","4","6","0.9661016949152542","","","","","","","",""
"null","453142","SARL_v6","SARL_v6tqg93jfh","62eab7b53494af2a6cb73504","freq_resp","","","img/blue_2bandit_b.png","70","img/blue_2bandit_b.png","70","test","","","","","","","","","","","6","","","","","","","","",""
"null","453302","SARL_v6","SARL_v6tqg93jfh","62eab7b53494af2a6cb73504","fixation","","","img/fixation.png","null","","","test","","","","","","","","","","","","","","","","","","","",""
"552.4000000059605","453857","SARL_v6","SARL_v6tqg93jfh","62eab7b53494af2a6cb73504","freq","","","img/blue_2bandit_b2.png","70","","70","test","1","","124","","","","circle","square","119","5","6","0.9663865546218487","","","","","","","",""
"null","454112","SARL_v6","SARL_v6tqg93jfh","62eab7b53494af2a6cb73504","freq_resp","","","img/blue_2bandit_b.png","70","img/blue_2bandit_b.png","70","test","","","","","","","","","","","6","","","","","","","","",""
"null","454267","SARL_v6","SARL_v6tqg93jfh","62eab7b53494af2a6cb73504","fixation","","","img/fixation.png","null","","","test","","","","","","","","","","","","","","","","","","","",""
"364.79999999701977","454635","SARL_v6","SARL_v6tqg93jfh","62eab7b53494af2a6cb73504","freq","","","img/blue_2bandit_b2.png","70","","70","test","1","","125","","","","circle","square","120","6","6","0.9666666666666667","","","","","","","",""
"null","455082","SARL_v6","SARL_v6tqg93jfh","62eab7b53494af2a6cb73504","freq_resp","","","img/blue_2bandit_b.png","70","img/blue_2bandit_b.png","70","test","","","","","","","","","","","6","","","","","","","","",""
"null","455243","SARL_v6","SARL_v6tqg93jfh","62eab7b53494af2a6cb73504","fixation","","","img/fixation.png","null","","","test","","","","","","","","","","","","","","","","","","","",""
"302.29999999701977","455548","SARL_v6","SARL_v6tqg93jfh","62eab7b53494af2a6cb73504","freq","","","img/blue_2bandit_b2.png","70","","70","test","1","","126","","","","circle","square","121","7","6","0.9669421487603306","","","","","","","",""
"null","456062","SARL_v6","SARL_v6tqg93jfh","62eab7b53494af2a6cb73504","freq_resp","","","img/blue_2bandit_b.png","70","img/blue_2bandit_b.png","70","test","","","","","","","","","","","6","","","","","","","","",""
"null","456225","SARL_v6","SARL_v6tqg93jfh","62eab7b53494af2a6cb73504","fixation","","","img/fixation.png","null","","","test","","","","","","","","","","","","","","","","","","","",""
"349.90000000596046","456578","SARL_v6","SARL_v6tqg93jfh","62eab7b53494af2a6cb73504","freq","","","img/blue_2bandit_b2.png","70","","70","test","1","","127","","","","circle","square","122","8","6","0.9672131147540983","","","","","","","",""
"null","457041","SARL_v6","SARL_v6tqg93jfh","62eab7b53494af2a6cb73504","freq_resp","","","img/blue_2bandit_b.png","70","img/blue_2bandit_b.png","70","test","","","","","","","","","","","6","","","","","","","","",""
"null","457206","SARL_v6","SARL_v6tqg93jfh","62eab7b53494af2a6cb73504","fixation","","","img/fixation.png","null","","","test","","","","","","","","","","","","","","","","","","","",""
"564","457774","SARL_v6","SARL_v6tqg93jfh","62eab7b53494af2a6cb73504","freq","","","img/blue_2bandit_b2.png","70","","70","test","1","","128","","","","circle","square","123","9","6","0.967479674796748","","","","","","","",""
"null","458025","SARL_v6","SARL_v6tqg93jfh","62eab7b53494af2a6cb73504","freq_resp","","","img/blue_2bandit_b.png","70","img/blue_2bandit_b.png","70","test","","","","","","","","","","","6","","","","","","","","",""
"null","458181","SARL_v6","SARL_v6tqg93jfh","62eab7b53494af2a6cb73504","fixation","","","img/fixation.png","null","","","test","","","","","","","","","","","","","","","","","","","",""
"317","458501","SARL_v6","SARL_v6tqg93jfh","62eab7b53494af2a6cb73504","freq","","","img/blue_2bandit_b2.png","70","","70","test","1","","129","","","","circle","square","124","10","6","0.967741935483871","","","","","","","",""
"null","459002","SARL_v6","SARL_v6tqg93jfh","62eab7b53494af2a6cb73504","freq_resp","","","img/blue_2bandit_b.png","70","img/blue_2bandit_b.png","70","test","","","","","","","","","","","6","","","","","","","","",""
"null","459159","SARL_v6","SARL_v6tqg93jfh","62eab7b53494af2a6cb73504","fixation","","","img/fixation.png","null","","","test","","","","","","","","","","","","","","","","","","","",""
