"rt","time_elapsed","expId","subject","prolificID","trialType","rlType","attType","stimulus","key_press","stim","corrresp","phase","corr","pracCounter","trialNum","rewardOne","rewardTwo","reward","bandOne","bandTwo","attentionNum","attentionRunNum","blockNum","performance","bandChosen","circleVal","squareVal","bandOneVal","bandTwoVal","shapeChosen","rlNum","badFlag"
"4127.800000190735","4136","SARL_v6","SARL_v6a3s0rnkd","5b9b422307c6960001614c35","","","","","","","","","","","","","","","","","","","","","","","","","","","",""
"","7223","SARL_v6","SARL_v6a3s0rnkd","5b9b422307c6960001614c35","fullscreen","fullscreen","fullscreen","","","","","","","","","","","","","","","","","","","","","","","","",""
"8943.699999809265","16183","SARL_v6","SARL_v6a3s0rnkd","5b9b422307c6960001614c35","","","","","","","","","","","","","","","","","","","","","","","","","","","",""
"null","17007","SARL_v6","SARL_v6a3s0rnkd","5b9b422307c6960001614c35","freqPrac","","","img/orange_2bandit_a2.png","null","img/orange_2bandit_a2.png","70","prac","0","1","","","","","","","","","","","","","","","","","",""
"null","18023","SARL_v6","SARL_v6a3s0rnkd","5b9b422307c6960001614c35","feedback","","","img/tooSlow.png","null","","na","prac","","","","","","","","","","","","","","","","","","","",""
"null","18181","SARL_v6","SARL_v6a3s0rnkd","5b9b422307c6960001614c35","fixation","","","img/fixation.png","null","","","prac","","","","","","","","","","","","","","","","","","","",""
"705.8999996185303","18892","SARL_v6","SARL_v6a3s0rnkd","5b9b422307c6960001614c35","infreqPrac","","","img/blue_2bandit_a2.png","68","img/blue_2bandit_a2.png","68","prac","1","1","","","","","","","","","","","","","","","","","",""
"705.8999996185303","19001","SARL_v6","SARL_v6a3s0rnkd","5b9b422307c6960001614c35","infreqPrac_resp","","","img/blue_2bandit_a.png","68","img/blue_2bandit_a.png","68","prac","","","","","","","","","","","","","","","","","","","",""
"null","19165","SARL_v6","SARL_v6a3s0rnkd","5b9b422307c6960001614c35","fixation","","","img/fixation.png","null","","","prac","","","","","","","","","","","","","","","","","","","",""
"499.7000002861023","19669","SARL_v6","SARL_v6a3s0rnkd","5b9b422307c6960001614c35","freqPrac","","","img/orange_2bandit_a2.png","70","img/orange_2bandit_a2.png","70","prac","1","1","","","","","","","","","","","","","","","","","",""
"499.7000002861023","19982","SARL_v6","SARL_v6a3s0rnkd","5b9b422307c6960001614c35","freqPrac_resp","","","img/orange_2bandit_a.png","70","img/orange_2bandit_a.png","70","prac","","","","","","","","","","","","","","","","","","","",""
"null","20146","SARL_v6","SARL_v6a3s0rnkd","5b9b422307c6960001614c35","fixation","","","img/fixation.png","null","","","prac","","","","","","","","","","","","","","","","","","","",""
"421.90000009536743","20575","SARL_v6","SARL_v6a3s0rnkd","5b9b422307c6960001614c35","infreqPrac","","","img/blue_2bandit_a2.png","68","img/blue_2bandit_a2.png","68","prac","1","1","","","","","","","","","","","","","","","","","",""
"421.90000009536743","20969","SARL_v6","SARL_v6a3s0rnkd","5b9b422307c6960001614c35","infreqPrac_resp","","","img/blue_2bandit_a.png","68","img/blue_2bandit_a.png","68","prac","","","","","","","","","","","","","","","","","","","",""
"null","21139","SARL_v6","SARL_v6a3s0rnkd","5b9b422307c6960001614c35","fixation","","","img/fixation.png","null","","","prac","","","","","","","","","","","","","","","","","","","",""
"417.30000019073486","21563","SARL_v6","SARL_v6a3s0rnkd","5b9b422307c6960001614c35","infreqPrac","","","img/blue_2bandit_a2.png","68","img/blue_2bandit_a2.png","68","prac","1","1","","","","","","","","","","","","","","","","","",""
"417.30000019073486","21962","SARL_v6","SARL_v6a3s0rnkd","5b9b422307c6960001614c35","infreqPrac_resp","","","img/blue_2bandit_a.png","68","img/blue_2bandit_a.png","68","prac","","","","","","","","","","","","","","","","","","","",""
"null","22130","SARL_v6","SARL_v6a3s0rnkd","5b9b422307c6960001614c35","fixation","","","img/fixation.png","null","","","prac","","","","","","","","","","","","","","","","","","","",""
"384.6000003814697","22521","SARL_v6","SARL_v6a3s0rnkd","5b9b422307c6960001614c35","infreqPrac","","","img/blue_2bandit_a2.png","68","img/blue_2bandit_a2.png","68","prac","1","1","","","","","","","","","","","","","","","","","",""
"384.6000003814697","22951","SARL_v6","SARL_v6a3s0rnkd","5b9b422307c6960001614c35","infreqPrac_resp","","","img/blue_2bandit_a.png","68","img/blue_2bandit_a.png","68","prac","","","","","","","","","","","","","","","","","","","",""
"null","23111","SARL_v6","SARL_v6a3s0rnkd","5b9b422307c6960001614c35","fixation","","","img/fixation.png","null","","","prac","","","","","","","","","","","","","","","","","","","",""
"393.69999980926514","23512","SARL_v6","SARL_v6a3s0rnkd","5b9b422307c6960001614c35","freqPrac","","","img/orange_2bandit_a2.png","70","img/orange_2bandit_a2.png","70","prac","1","1","","","","","","","","","","","","","","","","","",""
"393.69999980926514","23938","SARL_v6","SARL_v6a3s0rnkd","5b9b422307c6960001614c35","freqPrac_resp","","","img/orange_2bandit_a.png","70","img/orange_2bandit_a.png","70","prac","","","","","","","","","","","","","","","","","","","",""
"null","24105","SARL_v6","SARL_v6a3s0rnkd","5b9b422307c6960001614c35","fixation","","","img/fixation.png","null","","","prac","","","","","","","","","","","","","","","","","","","",""
"450.8999996185303","24558","SARL_v6","SARL_v6a3s0rnkd","5b9b422307c6960001614c35","infreqPrac","","","img/blue_2bandit_a2.png","70","img/blue_2bandit_a2.png","68","prac","0","2","","","","","","","","","","","","","","","","","",""
"450.8999996185303","24919","SARL_v6","SARL_v6a3s0rnkd","5b9b422307c6960001614c35","infreqPrac_resp","","","img/blue_2bandit_a.png","70","img/blue_2bandit_a.png","68","prac","","","","","","","","","","","","","","","","","","","",""
"null","25938","SARL_v6","SARL_v6a3s0rnkd","5b9b422307c6960001614c35","feedback","","","img/wrongKey.png","null","","na","prac","","","","","","","","","","","","","","","","","","","",""
"null","26102","SARL_v6","SARL_v6a3s0rnkd","5b9b422307c6960001614c35","fixation","","","img/fixation.png","null","","","prac","","","","","","","","","","","","","","","","","","","",""
"567.4000000953674","26676","SARL_v6","SARL_v6a3s0rnkd","5b9b422307c6960001614c35","freqPrac","","","img/orange_2bandit_a2.png","68","img/orange_2bandit_a2.png","70","prac","0","3","","","","","","","","","","","","","","","","","",""
"567.4000000953674","26923","SARL_v6","SARL_v6a3s0rnkd","5b9b422307c6960001614c35","freqPrac_resp","","","img/orange_2bandit_a.png","68","img/orange_2bandit_a.png","70","prac","","","","","","","","","","","","","","","","","","","",""
"null","27938","SARL_v6","SARL_v6a3s0rnkd","5b9b422307c6960001614c35","feedback","","","img/wrongKey.png","null","","na","prac","","","","","","","","","","","","","","","","","","","",""
"null","28105","SARL_v6","SARL_v6a3s0rnkd","5b9b422307c6960001614c35","fixation","","","img/fixation.png","null","","","prac","","","","","","","","","","","","","","","","","","","",""
"546.5","28658","SARL_v6","SARL_v6a3s0rnkd","5b9b422307c6960001614c35","freqPrac","","","img/orange_2bandit_a2.png","70","img/orange_2bandit_a2.png","70","prac","1","3","","","","","","","","","","","","","","","","","",""
"546.5","28930","SARL_v6","SARL_v6a3s0rnkd","5b9b422307c6960001614c35","freqPrac_resp","","","img/orange_2bandit_a.png","70","img/orange_2bandit_a.png","70","prac","","","","","","","","","","","","","","","","","","","",""
"null","29098","SARL_v6","SARL_v6a3s0rnkd","5b9b422307c6960001614c35","fixation","","","img/fixation.png","null","","","prac","","","","","","","","","","","","","","","","","","","",""
"106005","135107","SARL_v6","SARL_v6a3s0rnkd","5b9b422307c6960001614c35","","","","","","","","prac","","","","","","","","","","","","","","","","","","","",""
"779.3000001907349","135894","SARL_v6","SARL_v6a3s0rnkd","5b9b422307c6960001614c35","rlPractice","","","img/black_2bandit_a2.png","74","img/black_2bandit_a2.png","","prac","","","0","","","","","","","","","","","","","","","","",""
"null","136664","SARL_v6","SARL_v6a3s0rnkd","5b9b422307c6960001614c35","feedback","","","<div class=""verylowPoints_sq""> -14 </div>","null","","na","prac","","","1","10","-14","10","","","","","","","","","","","","","",""
"null","136830","SARL_v6","SARL_v6a3s0rnkd","5b9b422307c6960001614c35","fixation","","","img/fixation.png","null","","","prac","","","","","","","","","","","","","","","","","","","",""
"589.1000003814697","137426","SARL_v6","SARL_v6a3s0rnkd","5b9b422307c6960001614c35","rlPractice","","","img/black_2bandit_a2.png","75","img/black_2bandit_a2.png","","prac","","","1","","","","","","","","","","","","","","","","",""
"null","138185","SARL_v6","SARL_v6a3s0rnkd","5b9b422307c6960001614c35","feedback","","","<div class=""veryhighPoints""> 5 </div>","null","","na","prac","","","2","5","-5","5","","","","","","","","","","","","","",""
"null","138352","SARL_v6","SARL_v6a3s0rnkd","5b9b422307c6960001614c35","fixation","","","img/fixation.png","null","","","prac","","","","","","","","","","","","","","","","","","","",""
"416.30000019073486","138775","SARL_v6","SARL_v6a3s0rnkd","5b9b422307c6960001614c35","rlPractice","","","img/black_2bandit_a2.png","75","img/black_2bandit_a2.png","","prac","","","2","","","","","","","","","","","","","","","","",""
"null","139545","SARL_v6","SARL_v6a3s0rnkd","5b9b422307c6960001614c35","feedback","","","<div class=""veryhighPoints""> 30 </div>","null","","na","prac","","","3","30","2","30","","","","","","","","","","","","","",""
"null","139713","SARL_v6","SARL_v6a3s0rnkd","5b9b422307c6960001614c35","fixation","","","img/fixation.png","null","","","prac","","","","","","","","","","","","","","","","","","","",""
"374.09999990463257","140094","SARL_v6","SARL_v6a3s0rnkd","5b9b422307c6960001614c35","rlPractice","","","img/black_2bandit_a2.png","75","img/black_2bandit_a2.png","","prac","","","3","","","","","","","","","","","","","","","","",""
"null","140857","SARL_v6","SARL_v6a3s0rnkd","5b9b422307c6960001614c35","feedback","","","<div class=""verylowPoints""> -2 </div>","null","","na","prac","","","4","-2","20","-2","","","","","","","","","","","","","",""
"null","141021","SARL_v6","SARL_v6a3s0rnkd","5b9b422307c6960001614c35","fixation","","","img/fixation.png","null","","","prac","","","","","","","","","","","","","","","","","","","",""
"133500.40000009537","274526","SARL_v6","SARL_v6a3s0rnkd","5b9b422307c6960001614c35","","","","","","","","prac","","","","","","","","","","","","","","","","","","","",""
"706","275240","SARL_v6","SARL_v6a3s0rnkd","5b9b422307c6960001614c35","mixAttFreqPrac","","","img/orange_2bandit_a2.png","70","img/orange_2bandit_a2.png","70","prac","","","1","","","","","","","","","","","","","","","","",""
"706","275351","SARL_v6","SARL_v6a3s0rnkd","5b9b422307c6960001614c35","freqPrac_resp","","","img/orange_2bandit_a.png","70","img/orange_2bandit_a.png","70","prac","","","1","","","","","","","","","","","","","","","","",""
"null","275520","SARL_v6","SARL_v6a3s0rnkd","5b9b422307c6960001614c35","fixation","","","img/fixation.png","null","","","prac","","","","","","","","","","","","","","","","","","","",""
"460","275984","SARL_v6","SARL_v6a3s0rnkd","5b9b422307c6960001614c35","mixAttInfreqPrac","","","img/blue_2bandit_a2.png","68","img/blue_2bandit_a2.png","68","prac","","","2","","","","","","","","","","","","","","","","",""
"460","276339","SARL_v6","SARL_v6a3s0rnkd","5b9b422307c6960001614c35","infreqPrac_resp","","","img/blue_2bandit_a.png","68","img/orange_2bandit_a.png","68","prac","","","2","","","","","","","","","","","","","","","","",""
"null","276499","SARL_v6","SARL_v6a3s0rnkd","5b9b422307c6960001614c35","fixation","","","img/fixation.png","null","","","prac","","","","","","","","","","","","","","","","","","","",""
"442.2999997138977","276965","SARL_v6","SARL_v6a3s0rnkd","5b9b422307c6960001614c35","mixAttInfreqPrac","","","img/blue_2bandit_a2.png","68","img/blue_2bandit_a2.png","68","prac","","","3","","","","","","","","","","","","","","","","",""
"442.2999997138977","277335","SARL_v6","SARL_v6a3s0rnkd","5b9b422307c6960001614c35","infreqPrac_resp","","","img/blue_2bandit_a.png","68","img/orange_2bandit_a.png","68","prac","","","3","","","","","","","","","","","","","","","","",""
"null","277504","SARL_v6","SARL_v6a3s0rnkd","5b9b422307c6960001614c35","fixation","","","img/fixation.png","null","","","prac","","","","","","","","","","","","","","","","","","","",""
"426.7999997138977","277937","SARL_v6","SARL_v6a3s0rnkd","5b9b422307c6960001614c35","mixAttInfreqPrac","","","img/blue_2bandit_a2.png","68","img/blue_2bandit_a2.png","68","prac","","","4","","","","","","","","","","","","","","","","",""
"426.7999997138977","278320","SARL_v6","SARL_v6a3s0rnkd","5b9b422307c6960001614c35","infreqPrac_resp","","","img/blue_2bandit_a.png","68","img/orange_2bandit_a.png","68","prac","","","4","","","","","","","","","","","","","","","","",""
"null","278487","SARL_v6","SARL_v6a3s0rnkd","5b9b422307c6960001614c35","fixation","","","img/fixation.png","null","","","prac","","","","","","","","","","","","","","","","","","","",""
"434.59999990463257","278929","SARL_v6","SARL_v6a3s0rnkd","5b9b422307c6960001614c35","mixAttFreqPrac","","","img/orange_2bandit_a2.png","70","img/orange_2bandit_a2.png","70","prac","","","5","","","","","","","","","","","","","","","","",""
"434.59999990463257","279307","SARL_v6","SARL_v6a3s0rnkd","5b9b422307c6960001614c35","freqPrac_resp","","","img/orange_2bandit_a.png","70","img/orange_2bandit_a.png","70","prac","","","5","","","","","","","","","","","","","","","","",""
"null","279465","SARL_v6","SARL_v6a3s0rnkd","5b9b422307c6960001614c35","fixation","","","img/fixation.png","null","","","prac","","","","","","","","","","","","","","","","","","","",""
"779","280251","SARL_v6","SARL_v6a3s0rnkd","5b9b422307c6960001614c35","mixRLPractice","","","img/black_2bandit_a2.png","75","img/black_2bandit_a2.png","","prac","","","5","","","","","","","","","","","","","","","","",""
"null","281009","SARL_v6","SARL_v6a3s0rnkd","5b9b422307c6960001614c35","feedback","","","<div class=""verylowPoints""> -14 </div>","null","","na","prac","","","6","-14","10","-14","","","","","","","","","","","","","",""
"null","281170","SARL_v6","SARL_v6a3s0rnkd","5b9b422307c6960001614c35","fixation","","","img/fixation.png","null","","","prac","","","","","","","","","","","","","","","","","","","",""
"783","281959","SARL_v6","SARL_v6a3s0rnkd","5b9b422307c6960001614c35","mixAttFreqPrac","","","img/orange_2bandit_a2.png","70","img/orange_2bandit_a2.png","70","prac","","","7","","","","","","","","","","","","","","","","",""
"783","281982","SARL_v6","SARL_v6a3s0rnkd","5b9b422307c6960001614c35","freqPrac_resp","","","img/orange_2bandit_a.png","70","img/orange_2bandit_a.png","70","prac","","","7","","","","","","","","","","","","","","","","",""
"null","282151","SARL_v6","SARL_v6a3s0rnkd","5b9b422307c6960001614c35","fixation","","","img/fixation.png","null","","","prac","","","","","","","","","","","","","","","","","","","",""
"673","282831","SARL_v6","SARL_v6a3s0rnkd","5b9b422307c6960001614c35","mixAttInfreqPrac","","","img/blue_2bandit_a2.png","68","img/blue_2bandit_a2.png","68","prac","","","8","","","","","","","","","","","","","","","","",""
"673","282975","SARL_v6","SARL_v6a3s0rnkd","5b9b422307c6960001614c35","infreqPrac_resp","","","img/blue_2bandit_a.png","68","img/orange_2bandit_a.png","68","prac","","","8","","","","","","","","","","","","","","","","",""
"null","283139","SARL_v6","SARL_v6a3s0rnkd","5b9b422307c6960001614c35","fixation","","","img/fixation.png","null","","","prac","","","","","","","","","","","","","","","","","","","",""
"583.5","283728","SARL_v6","SARL_v6a3s0rnkd","5b9b422307c6960001614c35","mixAttFreqPrac","","","img/orange_2bandit_a2.png","70","img/orange_2bandit_a2.png","70","prac","","","9","","","","","","","","","","","","","","","","",""
"583.5","283955","SARL_v6","SARL_v6a3s0rnkd","5b9b422307c6960001614c35","freqPrac_resp","","","img/orange_2bandit_a.png","70","img/orange_2bandit_a.png","70","prac","","","9","","","","","","","","","","","","","","","","",""
"null","284120","SARL_v6","SARL_v6a3s0rnkd","5b9b422307c6960001614c35","fixation","","","img/fixation.png","null","","","prac","","","","","","","","","","","","","","","","","","","",""
"440.40000009536743","284563","SARL_v6","SARL_v6a3s0rnkd","5b9b422307c6960001614c35","mixAttFreqPrac","","","img/orange_2bandit_a2.png","70","img/orange_2bandit_a2.png","70","prac","","","10","","","","","","","","","","","","","","","","",""
"440.40000009536743","284936","SARL_v6","SARL_v6a3s0rnkd","5b9b422307c6960001614c35","freqPrac_resp","","","img/orange_2bandit_a.png","70","img/orange_2bandit_a.png","70","prac","","","10","","","","","","","","","","","","","","","","",""
"null","285103","SARL_v6","SARL_v6a3s0rnkd","5b9b422307c6960001614c35","fixation","","","img/fixation.png","null","","","prac","","","","","","","","","","","","","","","","","","","",""
"389.7999997138977","285500","SARL_v6","SARL_v6a3s0rnkd","5b9b422307c6960001614c35","mixAttInfreqPrac","","","img/blue_2bandit_a2.png","68","img/blue_2bandit_a2.png","68","prac","","","11","","","","","","","","","","","","","","","","",""
"389.7999997138977","285926","SARL_v6","SARL_v6a3s0rnkd","5b9b422307c6960001614c35","infreqPrac_resp","","","img/blue_2bandit_a.png","68","img/orange_2bandit_a.png","68","prac","","","11","","","","","","","","","","","","","","","","",""
"null","286095","SARL_v6","SARL_v6a3s0rnkd","5b9b422307c6960001614c35","fixation","","","img/fixation.png","null","","","prac","","","","","","","","","","","","","","","","","","","",""
"658.1999998092651","286760","SARL_v6","SARL_v6a3s0rnkd","5b9b422307c6960001614c35","mixRLPractice","","","img/black_2bandit_a2.png","74","img/black_2bandit_a2.png","","prac","","","11","","","","","","","","","","","","","","","","",""
"null","287526","SARL_v6","SARL_v6a3s0rnkd","5b9b422307c6960001614c35","feedback","","","<div class=""verylowPoints_sq""> -5 </div>","null","","na","prac","","","12","5","-5","5","","","","","","","","","","","","","",""
"null","287695","SARL_v6","SARL_v6a3s0rnkd","5b9b422307c6960001614c35","fixation","","","img/fixation.png","null","","","prac","","","","","","","","","","","","","","","","","","","",""
"69746.2999997139","357442","SARL_v6","SARL_v6a3s0rnkd","5b9b422307c6960001614c35","","","","","","","","prac","","","","","","","","","","","","","","","","","","","",""
"501.2000002861023","357947","SARL_v6","SARL_v6a3s0rnkd","5b9b422307c6960001614c35","freq","","","img/orange_2bandit_a2.png","70","","70","test","1","","1","","","","square","circle","1","1","1","1","","","","","","","",""
"null","358257","SARL_v6","SARL_v6a3s0rnkd","5b9b422307c6960001614c35","freq_resp","","","img/orange_2bandit_a.png","70","img/orange_2bandit_a.png","70","test","","","","","","","","","","","1","","","","","","","","",""
"null","358422","SARL_v6","SARL_v6a3s0rnkd","5b9b422307c6960001614c35","fixation","","","img/fixation.png","null","","","test","","","","","","","","","","","","","","","","","","","",""
"420.6000003814697","358845","SARL_v6","SARL_v6a3s0rnkd","5b9b422307c6960001614c35","freq","","","img/orange_2bandit_a2.png","70","","70","test","1","","2","","","","square","circle","2","2","1","1","","","","","","","",""
"null","359238","SARL_v6","SARL_v6a3s0rnkd","5b9b422307c6960001614c35","freq_resp","","","img/orange_2bandit_a.png","70","img/orange_2bandit_a.png","70","test","","","","","","","","","","","1","","","","","","","","",""
"null","359404","SARL_v6","SARL_v6a3s0rnkd","5b9b422307c6960001614c35","fixation","","","img/fixation.png","null","","","test","","","","","","","","","","","","","","","","","","","",""
"370.30000019073486","359777","SARL_v6","SARL_v6a3s0rnkd","5b9b422307c6960001614c35","freq","","","img/orange_2bandit_a2.png","70","","70","test","1","","3","","","","square","circle","3","3","1","1","","","","","","","",""
"null","360218","SARL_v6","SARL_v6a3s0rnkd","5b9b422307c6960001614c35","freq_resp","","","img/orange_2bandit_a.png","70","img/orange_2bandit_a.png","70","test","","","","","","","","","","","1","","","","","","","","",""
"null","360380","SARL_v6","SARL_v6a3s0rnkd","5b9b422307c6960001614c35","fixation","","","img/fixation.png","null","","","test","","","","","","","","","","","","","","","","","","","",""
"382.5","360765","SARL_v6","SARL_v6a3s0rnkd","5b9b422307c6960001614c35","freq","","","img/orange_2bandit_a2.png","70","","70","test","1","","4","","","","square","circle","4","4","1","1","","","","","","","",""
"null","361198","SARL_v6","SARL_v6a3s0rnkd","5b9b422307c6960001614c35","freq_resp","","","img/orange_2bandit_a.png","70","img/orange_2bandit_a.png","70","test","","","","","","","","","","","1","","","","","","","","",""
"null","361360","SARL_v6","SARL_v6a3s0rnkd","5b9b422307c6960001614c35","fixation","","","img/fixation.png","null","","","test","","","","","","","","","","","","","","","","","","","",""
"422.80000019073486","361785","SARL_v6","SARL_v6a3s0rnkd","5b9b422307c6960001614c35","infreq","","","img/blue_2bandit_a2.png","68","","68","test","1","","5","","","","square","circle","5","5","1","1","","","","","","","",""
"null","362173","SARL_v6","SARL_v6a3s0rnkd","5b9b422307c6960001614c35","infreq_resp","","","img/blue_2bandit_a.png","68","img/blue_2bandit_a.png","68","test","","","","","","","","","","","1","","","","","","","","",""
"null","362341","SARL_v6","SARL_v6a3s0rnkd","5b9b422307c6960001614c35","fixation","","","img/fixation.png","null","","","test","","","","","","","","","","","","","","","","","","","",""
"402","362746","SARL_v6","SARL_v6a3s0rnkd","5b9b422307c6960001614c35","freq","","","img/orange_2bandit_a2.png","70","","70","test","1","","6","","","","square","circle","6","6","1","1","","","","","","","",""
"null","363155","SARL_v6","SARL_v6a3s0rnkd","5b9b422307c6960001614c35","freq_resp","","","img/orange_2bandit_a.png","70","img/orange_2bandit_a.png","70","test","","","","","","","","","","","1","","","","","","","","",""
"null","363313","SARL_v6","SARL_v6a3s0rnkd","5b9b422307c6960001614c35","fixation","","","img/fixation.png","null","","","test","","","","","","","","","","","","","","","","","","","",""
"449.5","363767","SARL_v6","SARL_v6a3s0rnkd","5b9b422307c6960001614c35","freq","","","img/orange_2bandit_a2.png","70","","70","test","1","","7","","","","square","circle","7","7","1","1","","","","","","","",""
"null","364134","SARL_v6","SARL_v6a3s0rnkd","5b9b422307c6960001614c35","freq_resp","","","img/orange_2bandit_a.png","70","img/orange_2bandit_a.png","70","test","","","","","","","","","","","1","","","","","","","","",""
"null","364300","SARL_v6","SARL_v6a3s0rnkd","5b9b422307c6960001614c35","fixation","","","img/fixation.png","null","","","test","","","","","","","","","","","","","","","","","","","",""
"422.59999990463257","364727","SARL_v6","SARL_v6a3s0rnkd","5b9b422307c6960001614c35","freq","","","img/orange_2bandit_a2.png","70","","70","test","1","","8","","","","square","circle","8","8","1","1","","","","","","","",""
"null","365116","SARL_v6","SARL_v6a3s0rnkd","5b9b422307c6960001614c35","freq_resp","","","img/orange_2bandit_a.png","70","img/orange_2bandit_a.png","70","test","","","","","","","","","","","1","","","","","","","","",""
"null","365279","SARL_v6","SARL_v6a3s0rnkd","5b9b422307c6960001614c35","fixation","","","img/fixation.png","null","","","test","","","","","","","","","","","","","","","","","","","",""
"497.5","365780","SARL_v6","SARL_v6a3s0rnkd","5b9b422307c6960001614c35","freq","","","img/orange_2bandit_a2.png","70","","70","test","1","","9","","","","square","circle","9","9","1","1","","","","","","","",""
"null","366100","SARL_v6","SARL_v6a3s0rnkd","5b9b422307c6960001614c35","freq_resp","","","img/orange_2bandit_a.png","70","img/orange_2bandit_a.png","70","test","","","","","","","","","","","1","","","","","","","","",""
"null","366259","SARL_v6","SARL_v6a3s0rnkd","5b9b422307c6960001614c35","fixation","","","img/fixation.png","null","","","test","","","","","","","","","","","","","","","","","","","",""
"442.90000009536743","366704","SARL_v6","SARL_v6a3s0rnkd","5b9b422307c6960001614c35","freq","","","img/orange_2bandit_a2.png","70","","70","test","1","","10","","","","square","circle","10","10","1","1","","","","","","","",""
"null","367075","SARL_v6","SARL_v6a3s0rnkd","5b9b422307c6960001614c35","freq_resp","","","img/orange_2bandit_a.png","70","img/orange_2bandit_a.png","70","test","","","","","","","","","","","1","","","","","","","","",""
"null","367235","SARL_v6","SARL_v6a3s0rnkd","5b9b422307c6960001614c35","fixation","","","img/fixation.png","null","","","test","","","","","","","","","","","","","","","","","","","",""
"367.19999980926514","367605","SARL_v6","SARL_v6a3s0rnkd","5b9b422307c6960001614c35","freq","","","img/orange_2bandit_a2.png","70","","70","test","1","","11","","","","square","circle","11","11","1","1","","","","","","","",""
"null","368051","SARL_v6","SARL_v6a3s0rnkd","5b9b422307c6960001614c35","freq_resp","","","img/orange_2bandit_a.png","70","img/orange_2bandit_a.png","70","test","","","","","","","","","","","1","","","","","","","","",""
"null","368212","SARL_v6","SARL_v6a3s0rnkd","5b9b422307c6960001614c35","fixation","","","img/fixation.png","null","","","test","","","","","","","","","","","","","","","","","","","",""
"381.40000009536743","368597","SARL_v6","SARL_v6a3s0rnkd","5b9b422307c6960001614c35","freq","","","img/orange_2bandit_a2.png","70","","70","test","1","","12","","","","square","circle","12","12","1","1","","","","","","","",""
"null","369024","SARL_v6","SARL_v6a3s0rnkd","5b9b422307c6960001614c35","freq_resp","","","img/orange_2bandit_a.png","70","img/orange_2bandit_a.png","70","test","","","","","","","","","","","1","","","","","","","","",""
"null","369187","SARL_v6","SARL_v6a3s0rnkd","5b9b422307c6960001614c35","fixation","","","img/fixation.png","null","","","test","","","","","","","","","","","","","","","","","","","",""
"334.09999990463257","369524","SARL_v6","SARL_v6a3s0rnkd","5b9b422307c6960001614c35","freq","","","img/orange_2bandit_a2.png","70","","70","test","1","","13","","","","square","circle","13","13","1","1","","","","","","","",""
"null","370001","SARL_v6","SARL_v6a3s0rnkd","5b9b422307c6960001614c35","freq_resp","","","img/orange_2bandit_a.png","70","img/orange_2bandit_a.png","70","test","","","","","","","","","","","1","","","","","","","","",""
"null","370159","SARL_v6","SARL_v6a3s0rnkd","5b9b422307c6960001614c35","fixation","","","img/fixation.png","null","","","test","","","","","","","","","","","","","","","","","","","",""
"355.09999990463257","370517","SARL_v6","SARL_v6a3s0rnkd","5b9b422307c6960001614c35","freq","","","img/orange_2bandit_a2.png","70","","70","test","1","","14","","","","square","circle","14","14","1","1","","","","","","","",""
"null","370967","SARL_v6","SARL_v6a3s0rnkd","5b9b422307c6960001614c35","freq_resp","","","img/orange_2bandit_a.png","70","img/orange_2bandit_a.png","70","test","","","","","","","","","","","1","","","","","","","","",""
"null","371128","SARL_v6","SARL_v6a3s0rnkd","5b9b422307c6960001614c35","fixation","","","img/fixation.png","null","","","test","","","","","","","","","","","","","","","","","","","",""
"496.90000009536743","371630","SARL_v6","SARL_v6a3s0rnkd","5b9b422307c6960001614c35","freq","","","img/orange_2bandit_a2.png","70","","70","test","1","","15","","","","square","circle","15","15","1","1","","","","","","","",""
"null","371943","SARL_v6","SARL_v6a3s0rnkd","5b9b422307c6960001614c35","freq_resp","","","img/orange_2bandit_a.png","70","img/orange_2bandit_a.png","70","test","","","","","","","","","","","1","","","","","","","","",""
"null","372106","SARL_v6","SARL_v6a3s0rnkd","5b9b422307c6960001614c35","fixation","","","img/fixation.png","null","","","test","","","","","","","","","","","","","","","","","","","",""
"476.09999990463257","372585","SARL_v6","SARL_v6a3s0rnkd","5b9b422307c6960001614c35","freq","","","img/orange_2bandit_a2.png","70","","70","test","1","","16","","","","square","circle","16","16","1","1","","","","","","","",""
"null","372918","SARL_v6","SARL_v6a3s0rnkd","5b9b422307c6960001614c35","freq_resp","","","img/orange_2bandit_a.png","70","img/orange_2bandit_a.png","70","test","","","","","","","","","","","1","","","","","","","","",""
"null","373080","SARL_v6","SARL_v6a3s0rnkd","5b9b422307c6960001614c35","fixation","","","img/fixation.png","null","","","test","","","","","","","","","","","","","","","","","","","",""
"494.69999980926514","373578","SARL_v6","SARL_v6a3s0rnkd","5b9b422307c6960001614c35","infreq","","","img/blue_2bandit_a2.png","68","","68","test","1","","17","","","","square","circle","17","17","1","1","","","","","","","",""
"null","373901","SARL_v6","SARL_v6a3s0rnkd","5b9b422307c6960001614c35","infreq_resp","","","img/blue_2bandit_a.png","68","img/blue_2bandit_a.png","68","test","","","","","","","","","","","1","","","","","","","","",""
"null","374067","SARL_v6","SARL_v6a3s0rnkd","5b9b422307c6960001614c35","fixation","","","img/fixation.png","null","","","test","","","","","","","","","","","","","","","","","","","",""
"465.09999990463257","374535","SARL_v6","SARL_v6a3s0rnkd","5b9b422307c6960001614c35","freq","","","img/orange_2bandit_a2.png","70","","70","test","1","","18","","","","square","circle","18","18","1","1","","","","","","","",""
"null","374882","SARL_v6","SARL_v6a3s0rnkd","5b9b422307c6960001614c35","freq_resp","","","img/orange_2bandit_a.png","70","img/orange_2bandit_a.png","70","test","","","","","","","","","","","1","","","","","","","","",""
"null","375043","SARL_v6","SARL_v6a3s0rnkd","5b9b422307c6960001614c35","fixation","","","img/fixation.png","null","","","test","","","","","","","","","","","","","","","","","","","",""
"387.30000019073486","375434","SARL_v6","SARL_v6a3s0rnkd","5b9b422307c6960001614c35","freq","","","img/orange_2bandit_a2.png","70","","70","test","1","","19","","","","square","circle","19","19","1","1","","","","","","","",""
"null","375859","SARL_v6","SARL_v6a3s0rnkd","5b9b422307c6960001614c35","freq_resp","","","img/orange_2bandit_a.png","70","img/orange_2bandit_a.png","70","test","","","","","","","","","","","1","","","","","","","","",""
"null","376022","SARL_v6","SARL_v6a3s0rnkd","5b9b422307c6960001614c35","fixation","","","img/fixation.png","null","","","test","","","","","","","","","","","","","","","","","","","",""
"640.7999997138977","376667","SARL_v6","SARL_v6a3s0rnkd","5b9b422307c6960001614c35","rl","","","img/black_2bandit_a2.png","75","","0","test","","","20","","","-3","square","circle","","0","1","","75","-3","-3","-3","-3","circle","1","0"
"null","377427","SARL_v6","SARL_v6a3s0rnkd","5b9b422307c6960001614c35","feedback","","","<div class=""verylowPoints""> -3 </div>","null","","na","test","","","NaN","","","","","","","","1","","75","","","","","","1",""
"586.0999999046326","378015","SARL_v6","SARL_v6a3s0rnkd","5b9b422307c6960001614c35","freq","","","img/orange_2bandit_a2.png","70","","70","test","1","","21","","","","square","circle","20","1","2","1","","","","","","","",""
"null","378243","SARL_v6","SARL_v6a3s0rnkd","5b9b422307c6960001614c35","freq_resp","","","img/orange_2bandit_a.png","70","img/orange_2bandit_a.png","70","test","","","","","","","","","","","2","","","","","","","","",""
"null","378403","SARL_v6","SARL_v6a3s0rnkd","5b9b422307c6960001614c35","fixation","","","img/fixation.png","null","","","test","","","","","","","","","","","","","","","","","","","",""
"449.59999990463257","378855","SARL_v6","SARL_v6a3s0rnkd","5b9b422307c6960001614c35","freq","","","img/orange_2bandit_a2.png","70","","70","test","1","","22","","","","square","circle","21","2","2","1","","","","","","","",""
"null","379220","SARL_v6","SARL_v6a3s0rnkd","5b9b422307c6960001614c35","freq_resp","","","img/orange_2bandit_a.png","70","img/orange_2bandit_a.png","70","test","","","","","","","","","","","2","","","","","","","","",""
"null","379387","SARL_v6","SARL_v6a3s0rnkd","5b9b422307c6960001614c35","fixation","","","img/fixation.png","null","","","test","","","","","","","","","","","","","","","","","","","",""
"397.7000002861023","379787","SARL_v6","SARL_v6a3s0rnkd","5b9b422307c6960001614c35","freq","","","img/orange_2bandit_a2.png","70","","70","test","1","","23","","","","square","circle","22","3","2","1","","","","","","","",""
"null","380200","SARL_v6","SARL_v6a3s0rnkd","5b9b422307c6960001614c35","freq_resp","","","img/orange_2bandit_a.png","70","img/orange_2bandit_a.png","70","test","","","","","","","","","","","2","","","","","","","","",""
"null","380364","SARL_v6","SARL_v6a3s0rnkd","5b9b422307c6960001614c35","fixation","","","img/fixation.png","null","","","test","","","","","","","","","","","","","","","","","","","",""
"408","380774","SARL_v6","SARL_v6a3s0rnkd","5b9b422307c6960001614c35","freq","","","img/orange_2bandit_a2.png","70","","70","test","1","","24","","","","square","circle","23","4","2","1","","","","","","","",""
"null","381179","SARL_v6","SARL_v6a3s0rnkd","5b9b422307c6960001614c35","freq_resp","","","img/orange_2bandit_a.png","70","img/orange_2bandit_a.png","70","test","","","","","","","","","","","2","","","","","","","","",""
"null","381335","SARL_v6","SARL_v6a3s0rnkd","5b9b422307c6960001614c35","fixation","","","img/fixation.png","null","","","test","","","","","","","","","","","","","","","","","","","",""
"518.2999997138977","381858","SARL_v6","SARL_v6a3s0rnkd","5b9b422307c6960001614c35","freq","","","img/orange_2bandit_a2.png","70","","70","test","1","","25","","","","square","circle","24","5","2","1","","","","","","","",""
"null","382152","SARL_v6","SARL_v6a3s0rnkd","5b9b422307c6960001614c35","freq_resp","","","img/orange_2bandit_a.png","70","img/orange_2bandit_a.png","70","test","","","","","","","","","","","2","","","","","","","","",""
"null","382317","SARL_v6","SARL_v6a3s0rnkd","5b9b422307c6960001614c35","fixation","","","img/fixation.png","null","","","test","","","","","","","","","","","","","","","","","","","",""
"380.40000009536743","382702","SARL_v6","SARL_v6a3s0rnkd","5b9b422307c6960001614c35","freq","","","img/orange_2bandit_a2.png","70","","70","test","1","","26","","","","square","circle","25","6","2","1","","","","","","","",""
"null","383132","SARL_v6","SARL_v6a3s0rnkd","5b9b422307c6960001614c35","freq_resp","","","img/orange_2bandit_a.png","70","img/orange_2bandit_a.png","70","test","","","","","","","","","","","2","","","","","","","","",""
"null","383290","SARL_v6","SARL_v6a3s0rnkd","5b9b422307c6960001614c35","fixation","","","img/fixation.png","null","","","test","","","","","","","","","","","","","","","","","","","",""
"362.09999990463257","383654","SARL_v6","SARL_v6a3s0rnkd","5b9b422307c6960001614c35","freq","","","img/orange_2bandit_a2.png","70","","70","test","1","","27","","","","square","circle","26","7","2","1","","","","","","","",""
"null","384106","SARL_v6","SARL_v6a3s0rnkd","5b9b422307c6960001614c35","freq_resp","","","img/orange_2bandit_a.png","70","img/orange_2bandit_a.png","70","test","","","","","","","","","","","2","","","","","","","","",""
"null","384264","SARL_v6","SARL_v6a3s0rnkd","5b9b422307c6960001614c35","fixation","","","img/fixation.png","null","","","test","","","","","","","","","","","","","","","","","","","",""
"410.7999997138977","384678","SARL_v6","SARL_v6a3s0rnkd","5b9b422307c6960001614c35","freq","","","img/orange_2bandit_a2.png","70","","70","test","1","","28","","","","square","circle","27","8","2","1","","","","","","","",""
"null","385083","SARL_v6","SARL_v6a3s0rnkd","5b9b422307c6960001614c35","freq_resp","","","img/orange_2bandit_a.png","70","img/orange_2bandit_a.png","70","test","","","","","","","","","","","2","","","","","","","","",""
"null","385240","SARL_v6","SARL_v6a3s0rnkd","5b9b422307c6960001614c35","fixation","","","img/fixation.png","null","","","test","","","","","","","","","","","","","","","","","","","",""
"333.6000003814697","385579","SARL_v6","SARL_v6a3s0rnkd","5b9b422307c6960001614c35","freq","","","img/orange_2bandit_a2.png","70","","70","test","1","","29","","","","square","circle","28","9","2","1","","","","","","","",""
"null","386058","SARL_v6","SARL_v6a3s0rnkd","5b9b422307c6960001614c35","freq_resp","","","img/orange_2bandit_a.png","70","img/orange_2bandit_a.png","70","test","","","","","","","","","","","2","","","","","","","","",""
"null","386222","SARL_v6","SARL_v6a3s0rnkd","5b9b422307c6960001614c35","fixation","","","img/fixation.png","null","","","test","","","","","","","","","","","","","","","","","","","",""
"312.59999990463257","386539","SARL_v6","SARL_v6a3s0rnkd","5b9b422307c6960001614c35","freq","","","img/orange_2bandit_a2.png","70","","70","test","1","","30","","","","square","circle","29","10","2","1","","","","","","","",""
"null","387032","SARL_v6","SARL_v6a3s0rnkd","5b9b422307c6960001614c35","freq_resp","","","img/orange_2bandit_a.png","70","img/orange_2bandit_a.png","70","test","","","","","","","","","","","2","","","","","","","","",""
"null","387194","SARL_v6","SARL_v6a3s0rnkd","5b9b422307c6960001614c35","fixation","","","img/fixation.png","null","","","test","","","","","","","","","","","","","","","","","","","",""
"329.90000009536743","387527","SARL_v6","SARL_v6a3s0rnkd","5b9b422307c6960001614c35","freq","","","img/orange_2bandit_a2.png","70","","70","test","1","","31","","","","square","circle","30","11","2","1","","","","","","","",""
"null","388011","SARL_v6","SARL_v6a3s0rnkd","5b9b422307c6960001614c35","freq_resp","","","img/orange_2bandit_a.png","70","img/orange_2bandit_a.png","70","test","","","","","","","","","","","2","","","","","","","","",""
"null","388174","SARL_v6","SARL_v6a3s0rnkd","5b9b422307c6960001614c35","fixation","","","img/fixation.png","null","","","test","","","","","","","","","","","","","","","","","","","",""
"285.59999990463257","388462","SARL_v6","SARL_v6a3s0rnkd","5b9b422307c6960001614c35","freq","","","img/orange_2bandit_a2.png","70","","70","test","1","","32","","","","square","circle","31","12","2","1","","","","","","","",""
"null","388982","SARL_v6","SARL_v6a3s0rnkd","5b9b422307c6960001614c35","freq_resp","","","img/orange_2bandit_a.png","70","img/orange_2bandit_a.png","70","test","","","","","","","","","","","2","","","","","","","","",""
"null","389145","SARL_v6","SARL_v6a3s0rnkd","5b9b422307c6960001614c35","fixation","","","img/fixation.png","null","","","test","","","","","","","","","","","","","","","","","","","",""
"268.40000009536743","389418","SARL_v6","SARL_v6a3s0rnkd","5b9b422307c6960001614c35","freq","","","img/orange_2bandit_a2.png","68","","70","test","0","","33","","","","square","circle","32","13","2","0.96875","","","","","","","",""
"null","389961","SARL_v6","SARL_v6a3s0rnkd","5b9b422307c6960001614c35","freq_resp","","","img/orange_2bandit_a.png","68","img/orange_2bandit_a.png","70","test","","","","","","","","","","","2","","","","","","","","",""
"null","390123","SARL_v6","SARL_v6a3s0rnkd","5b9b422307c6960001614c35","fixation","","","img/fixation.png","null","","","test","","","","","","","","","","","","","","","","","","","",""
"791","390919","SARL_v6","SARL_v6a3s0rnkd","5b9b422307c6960001614c35","freq","","","img/orange_2bandit_a2.png","70","","70","test","1","","34","","","","square","circle","33","14","2","0.9696969696969697","","","","","","","",""
"null","390934","SARL_v6","SARL_v6a3s0rnkd","5b9b422307c6960001614c35","freq_resp","","","img/orange_2bandit_a.png","70","img/orange_2bandit_a.png","70","test","","","","","","","","","","","2","","","","","","","","",""
"null","391100","SARL_v6","SARL_v6a3s0rnkd","5b9b422307c6960001614c35","fixation","","","img/fixation.png","null","","","test","","","","","","","","","","","","","","","","","","","",""
"538.2999997138977","391644","SARL_v6","SARL_v6a3s0rnkd","5b9b422307c6960001614c35","infreq","","","img/blue_2bandit_a2.png","68","","68","test","1","","35","","","","square","circle","34","15","2","0.9705882352941176","","","","","","","",""
"null","391917","SARL_v6","SARL_v6a3s0rnkd","5b9b422307c6960001614c35","infreq_resp","","","img/blue_2bandit_a.png","68","img/blue_2bandit_a.png","68","test","","","","","","","","","","","2","","","","","","","","",""
"null","392082","SARL_v6","SARL_v6a3s0rnkd","5b9b422307c6960001614c35","fixation","","","img/fixation.png","null","","","test","","","","","","","","","","","","","","","","","","","",""
"631","392718","SARL_v6","SARL_v6a3s0rnkd","5b9b422307c6960001614c35","freq","","","img/orange_2bandit_a2.png","70","","70","test","1","","36","","","","square","circle","35","16","2","0.9714285714285714","","","","","","","",""
"null","392901","SARL_v6","SARL_v6a3s0rnkd","5b9b422307c6960001614c35","freq_resp","","","img/orange_2bandit_a.png","70","img/orange_2bandit_a.png","70","test","","","","","","","","","","","2","","","","","","","","",""
"null","393066","SARL_v6","SARL_v6a3s0rnkd","5b9b422307c6960001614c35","fixation","","","img/fixation.png","null","","","test","","","","","","","","","","","","","","","","","","","",""
"472.09999990463257","393540","SARL_v6","SARL_v6a3s0rnkd","5b9b422307c6960001614c35","freq","","","img/orange_2bandit_a2.png","70","","70","test","1","","37","","","","square","circle","36","17","2","0.9722222222222222","","","","","","","",""
"null","393880","SARL_v6","SARL_v6a3s0rnkd","5b9b422307c6960001614c35","freq_resp","","","img/orange_2bandit_a.png","70","img/orange_2bandit_a.png","70","test","","","","","","","","","","","2","","","","","","","","",""
"null","394042","SARL_v6","SARL_v6a3s0rnkd","5b9b422307c6960001614c35","fixation","","","img/fixation.png","null","","","test","","","","","","","","","","","","","","","","","","","",""
"356.7999997138977","394401","SARL_v6","SARL_v6a3s0rnkd","5b9b422307c6960001614c35","freq","","","img/orange_2bandit_a2.png","70","","70","test","1","","38","","","","square","circle","37","18","2","0.972972972972973","","","","","","","",""
"null","394858","SARL_v6","SARL_v6a3s0rnkd","5b9b422307c6960001614c35","freq_resp","","","img/orange_2bandit_a.png","70","img/orange_2bandit_a.png","70","test","","","","","","","","","","","2","","","","","","","","",""
"null","395019","SARL_v6","SARL_v6a3s0rnkd","5b9b422307c6960001614c35","fixation","","","img/fixation.png","null","","","test","","","","","","","","","","","","","","","","","","","",""
"516.5999999046326","395538","SARL_v6","SARL_v6a3s0rnkd","5b9b422307c6960001614c35","infreq","","","img/blue_2bandit_a2.png","68","","68","test","1","","39","","","","square","circle","38","19","2","0.9736842105263158","","","","","","","",""
"null","395833","SARL_v6","SARL_v6a3s0rnkd","5b9b422307c6960001614c35","infreq_resp","","","img/blue_2bandit_a.png","68","img/blue_2bandit_a.png","68","test","","","","","","","","","","","2","","","","","","","","",""
"null","395994","SARL_v6","SARL_v6a3s0rnkd","5b9b422307c6960001614c35","fixation","","","img/fixation.png","null","","","test","","","","","","","","","","","","","","","","","","","",""
"500.30000019073486","396499","SARL_v6","SARL_v6a3s0rnkd","5b9b422307c6960001614c35","freq","","","img/orange_2bandit_a2.png","70","","70","test","1","","40","","","","square","circle","39","20","2","0.9743589743589743","","","","","","","",""
"null","396814","SARL_v6","SARL_v6a3s0rnkd","5b9b422307c6960001614c35","freq_resp","","","img/orange_2bandit_a.png","70","img/orange_2bandit_a.png","70","test","","","","","","","","","","","2","","","","","","","","",""
"null","396981","SARL_v6","SARL_v6a3s0rnkd","5b9b422307c6960001614c35","fixation","","","img/fixation.png","null","","","test","","","","","","","","","","","","","","","","","","","",""
"418.09999990463257","397401","SARL_v6","SARL_v6a3s0rnkd","5b9b422307c6960001614c35","freq","","","img/orange_2bandit_a2.png","70","","70","test","1","","41","","","","square","circle","40","21","2","0.975","","","","","","","",""
"null","397793","SARL_v6","SARL_v6a3s0rnkd","5b9b422307c6960001614c35","freq_resp","","","img/orange_2bandit_a.png","70","img/orange_2bandit_a.png","70","test","","","","","","","","","","","2","","","","","","","","",""
"null","397957","SARL_v6","SARL_v6a3s0rnkd","5b9b422307c6960001614c35","fixation","","","img/fixation.png","null","","","test","","","","","","","","","","","","","","","","","","","",""
"305.30000019073486","398265","SARL_v6","SARL_v6a3s0rnkd","5b9b422307c6960001614c35","freq","","","img/orange_2bandit_a2.png","70","","70","test","1","","42","","","","square","circle","41","22","2","0.975609756097561","","","","","","","",""
"null","398772","SARL_v6","SARL_v6a3s0rnkd","5b9b422307c6960001614c35","freq_resp","","","img/orange_2bandit_a.png","70","img/orange_2bandit_a.png","70","test","","","","","","","","","","","2","","","","","","","","",""
"null","398942","SARL_v6","SARL_v6a3s0rnkd","5b9b422307c6960001614c35","fixation","","","img/fixation.png","null","","","test","","","","","","","","","","","","","","","","","","","",""
"641.1999998092651","399587","SARL_v6","SARL_v6a3s0rnkd","5b9b422307c6960001614c35","rl","","","img/black_2bandit_a2.png","74","","0","test","","","43","","","-8","square","circle","","0","2","","74","-5","-8","-8","-5","square","2","0"
"null","400346","SARL_v6","SARL_v6a3s0rnkd","5b9b422307c6960001614c35","feedback","","","<div class=""verylowPoints_sq""> -8 </div>","null","","na","test","","","NaN","","","","","","","","2","","74","","","","","","2",""
"766.7999997138977","401118","SARL_v6","SARL_v6a3s0rnkd","5b9b422307c6960001614c35","freq","","","img/orange_2bandit_a2.png","70","","70","test","1","","44","","","","square","circle","42","1","3","0.9761904761904762","","","","","","","",""
"null","401162","SARL_v6","SARL_v6a3s0rnkd","5b9b422307c6960001614c35","freq_resp","","","img/orange_2bandit_a.png","70","img/orange_2bandit_a.png","70","test","","","","","","","","","","","3","","","","","","","","",""
"null","401321","SARL_v6","SARL_v6a3s0rnkd","5b9b422307c6960001614c35","fixation","","","img/fixation.png","null","","","test","","","","","","","","","","","","","","","","","","","",""
"482.40000009536743","401804","SARL_v6","SARL_v6a3s0rnkd","5b9b422307c6960001614c35","freq","","","img/orange_2bandit_a2.png","70","","70","test","1","","45","","","","square","circle","43","2","3","0.9767441860465116","","","","","","","",""
"null","402131","SARL_v6","SARL_v6a3s0rnkd","5b9b422307c6960001614c35","freq_resp","","","img/orange_2bandit_a.png","70","img/orange_2bandit_a.png","70","test","","","","","","","","","","","3","","","","","","","","",""
"null","402292","SARL_v6","SARL_v6a3s0rnkd","5b9b422307c6960001614c35","fixation","","","img/fixation.png","null","","","test","","","","","","","","","","","","","","","","","","","",""
"354.09999990463257","402650","SARL_v6","SARL_v6a3s0rnkd","5b9b422307c6960001614c35","freq","","","img/orange_2bandit_a2.png","70","","70","test","1","","46","","","","square","circle","44","3","3","0.9772727272727273","","","","","","","",""
"null","403107","SARL_v6","SARL_v6a3s0rnkd","5b9b422307c6960001614c35","freq_resp","","","img/orange_2bandit_a.png","70","img/orange_2bandit_a.png","70","test","","","","","","","","","","","3","","","","","","","","",""
"null","403266","SARL_v6","SARL_v6a3s0rnkd","5b9b422307c6960001614c35","fixation","","","img/fixation.png","null","","","test","","","","","","","","","","","","","","","","","","","",""
"397.7000002861023","403667","SARL_v6","SARL_v6a3s0rnkd","5b9b422307c6960001614c35","freq","","","img/orange_2bandit_a2.png","70","","70","test","1","","47","","","","square","circle","45","4","3","0.9777777777777777","","","","","","","",""
"null","404084","SARL_v6","SARL_v6a3s0rnkd","5b9b422307c6960001614c35","freq_resp","","","img/orange_2bandit_a.png","70","img/orange_2bandit_a.png","70","test","","","","","","","","","","","3","","","","","","","","",""
"null","404250","SARL_v6","SARL_v6a3s0rnkd","5b9b422307c6960001614c35","fixation","","","img/fixation.png","null","","","test","","","","","","","","","","","","","","","","","","","",""
"407.5","404660","SARL_v6","SARL_v6a3s0rnkd","5b9b422307c6960001614c35","freq","","","img/orange_2bandit_a2.png","70","","70","test","1","","48","","","","square","circle","46","5","3","0.9782608695652174","","","","","","","",""
"null","405064","SARL_v6","SARL_v6a3s0rnkd","5b9b422307c6960001614c35","freq_resp","","","img/orange_2bandit_a.png","70","img/orange_2bandit_a.png","70","test","","","","","","","","","","","3","","","","","","","","",""
"null","405226","SARL_v6","SARL_v6a3s0rnkd","5b9b422307c6960001614c35","fixation","","","img/fixation.png","null","","","test","","","","","","","","","","","","","","","","","","","",""
"null","406035","SARL_v6","SARL_v6a3s0rnkd","5b9b422307c6960001614c35","infreq","","","img/blue_2bandit_a2.png","null","","68","test","0","","49","","","","square","circle","47","6","3","0.9574468085106383","","","","","","","",""
"null","406197","SARL_v6","SARL_v6a3s0rnkd","5b9b422307c6960001614c35","fixation","","","img/fixation.png","null","","","test","","","","","","","","","","","","","","","","","","","",""
"616.6999998092651","406817","SARL_v6","SARL_v6a3s0rnkd","5b9b422307c6960001614c35","freq","","","img/orange_2bandit_a2.png","70","","70","test","1","","50","","","","square","circle","48","7","3","0.9583333333333334","","","","","","","",""
"null","407010","SARL_v6","SARL_v6a3s0rnkd","5b9b422307c6960001614c35","freq_resp","","","img/orange_2bandit_a.png","70","img/orange_2bandit_a.png","70","test","","","","","","","","","","","3","","","","","","","","",""
"null","407172","SARL_v6","SARL_v6a3s0rnkd","5b9b422307c6960001614c35","fixation","","","img/fixation.png","null","","","test","","","","","","","","","","","","","","","","","","","",""
"452.5","407628","SARL_v6","SARL_v6a3s0rnkd","5b9b422307c6960001614c35","freq","","","img/orange_2bandit_a2.png","70","","70","test","1","","51","","","","square","circle","49","8","3","0.9591836734693877","","","","","","","",""
"null","407986","SARL_v6","SARL_v6a3s0rnkd","5b9b422307c6960001614c35","freq_resp","","","img/orange_2bandit_a.png","70","img/orange_2bandit_a.png","70","test","","","","","","","","","","","3","","","","","","","","",""
"null","408141","SARL_v6","SARL_v6a3s0rnkd","5b9b422307c6960001614c35","fixation","","","img/fixation.png","null","","","test","","","","","","","","","","","","","","","","","","","",""
"500.59999990463257","408644","SARL_v6","SARL_v6a3s0rnkd","5b9b422307c6960001614c35","freq","","","img/orange_2bandit_a2.png","70","","70","test","1","","52","","","","square","circle","50","9","3","0.96","","","","","","","",""
"null","408957","SARL_v6","SARL_v6a3s0rnkd","5b9b422307c6960001614c35","freq_resp","","","img/orange_2bandit_a.png","70","img/orange_2bandit_a.png","70","test","","","","","","","","","","","3","","","","","","","","",""
"null","409118","SARL_v6","SARL_v6a3s0rnkd","5b9b422307c6960001614c35","fixation","","","img/fixation.png","null","","","test","","","","","","","","","","","","","","","","","","","",""
"544.6000003814697","409665","SARL_v6","SARL_v6a3s0rnkd","5b9b422307c6960001614c35","freq","","","img/orange_2bandit_a2.png","70","","70","test","1","","53","","","","square","circle","51","10","3","0.9607843137254902","","","","","","","",""
"null","409928","SARL_v6","SARL_v6a3s0rnkd","5b9b422307c6960001614c35","freq_resp","","","img/orange_2bandit_a.png","70","img/orange_2bandit_a.png","70","test","","","","","","","","","","","3","","","","","","","","",""
"null","410091","SARL_v6","SARL_v6a3s0rnkd","5b9b422307c6960001614c35","fixation","","","img/fixation.png","null","","","test","","","","","","","","","","","","","","","","","","","",""
"653","410747","SARL_v6","SARL_v6a3s0rnkd","5b9b422307c6960001614c35","freq","","","img/orange_2bandit_a2.png","70","","70","test","1","","54","","","","square","circle","52","11","3","0.9615384615384616","","","","","","","",""
"null","410905","SARL_v6","SARL_v6a3s0rnkd","5b9b422307c6960001614c35","freq_resp","","","img/orange_2bandit_a.png","70","img/orange_2bandit_a.png","70","test","","","","","","","","","","","3","","","","","","","","",""
"null","411070","SARL_v6","SARL_v6a3s0rnkd","5b9b422307c6960001614c35","fixation","","","img/fixation.png","null","","","test","","","","","","","","","","","","","","","","","","","",""
"787.5999999046326","411861","SARL_v6","SARL_v6a3s0rnkd","5b9b422307c6960001614c35","freq","","","img/orange_2bandit_a2.png","70","","70","test","1","","55","","","","square","circle","53","12","3","0.9622641509433962","","","","","","","",""
"null","411878","SARL_v6","SARL_v6a3s0rnkd","5b9b422307c6960001614c35","freq_resp","","","img/orange_2bandit_a.png","70","img/orange_2bandit_a.png","70","test","","","","","","","","","","","3","","","","","","","","",""
"null","412041","SARL_v6","SARL_v6a3s0rnkd","5b9b422307c6960001614c35","fixation","","","img/fixation.png","null","","","test","","","","","","","","","","","","","","","","","","","",""
"682.1000003814697","412726","SARL_v6","SARL_v6a3s0rnkd","5b9b422307c6960001614c35","freq","","","img/orange_2bandit_a2.png","70","","70","test","1","","56","","","","square","circle","54","13","3","0.9629629629629629","","","","","","","",""
"null","412861","SARL_v6","SARL_v6a3s0rnkd","5b9b422307c6960001614c35","freq_resp","","","img/orange_2bandit_a.png","70","img/orange_2bandit_a.png","70","test","","","","","","","","","","","3","","","","","","","","",""
"null","413029","SARL_v6","SARL_v6a3s0rnkd","5b9b422307c6960001614c35","fixation","","","img/fixation.png","null","","","test","","","","","","","","","","","","","","","","","","","",""
"534.2999997138977","413567","SARL_v6","SARL_v6a3s0rnkd","5b9b422307c6960001614c35","freq","","","img/orange_2bandit_a2.png","70","","70","test","1","","57","","","","square","circle","55","14","3","0.9636363636363636","","","","","","","",""
"null","413842","SARL_v6","SARL_v6a3s0rnkd","5b9b422307c6960001614c35","freq_resp","","","img/orange_2bandit_a.png","70","img/orange_2bandit_a.png","70","test","","","","","","","","","","","3","","","","","","","","",""
"null","414003","SARL_v6","SARL_v6a3s0rnkd","5b9b422307c6960001614c35","fixation","","","img/fixation.png","null","","","test","","","","","","","","","","","","","","","","","","","",""
"430.80000019073486","414439","SARL_v6","SARL_v6a3s0rnkd","5b9b422307c6960001614c35","freq","","","img/orange_2bandit_a2.png","70","","70","test","1","","58","","","","square","circle","56","15","3","0.9642857142857143","","","","","","","",""
"null","414820","SARL_v6","SARL_v6a3s0rnkd","5b9b422307c6960001614c35","freq_resp","","","img/orange_2bandit_a.png","70","img/orange_2bandit_a.png","70","test","","","","","","","","","","","3","","","","","","","","",""
"null","414985","SARL_v6","SARL_v6a3s0rnkd","5b9b422307c6960001614c35","fixation","","","img/fixation.png","null","","","test","","","","","","","","","","","","","","","","","","","",""
"378.80000019073486","415367","SARL_v6","SARL_v6a3s0rnkd","5b9b422307c6960001614c35","freq","","","img/orange_2bandit_a2.png","70","","70","test","1","","59","","","","square","circle","57","16","3","0.9649122807017544","","","","","","","",""
"null","415803","SARL_v6","SARL_v6a3s0rnkd","5b9b422307c6960001614c35","freq_resp","","","img/orange_2bandit_a.png","70","img/orange_2bandit_a.png","70","test","","","","","","","","","","","3","","","","","","","","",""
"null","415966","SARL_v6","SARL_v6a3s0rnkd","5b9b422307c6960001614c35","fixation","","","img/fixation.png","null","","","test","","","","","","","","","","","","","","","","","","","",""
"374.19999980926514","416345","SARL_v6","SARL_v6a3s0rnkd","5b9b422307c6960001614c35","freq","","","img/orange_2bandit_a2.png","70","","70","test","1","","60","","","","square","circle","58","17","3","0.9655172413793104","","","","","","","",""
"null","416786","SARL_v6","SARL_v6a3s0rnkd","5b9b422307c6960001614c35","freq_resp","","","img/orange_2bandit_a.png","70","img/orange_2bandit_a.png","70","test","","","","","","","","","","","3","","","","","","","","",""
"null","416948","SARL_v6","SARL_v6a3s0rnkd","5b9b422307c6960001614c35","fixation","","","img/fixation.png","null","","","test","","","","","","","","","","","","","","","","","","","",""
"336.69999980926514","417287","SARL_v6","SARL_v6a3s0rnkd","5b9b422307c6960001614c35","freq","","","img/orange_2bandit_a2.png","70","","70","test","1","","61","","","","square","circle","59","18","3","0.9661016949152542","","","","","","","",""
"null","417764","SARL_v6","SARL_v6a3s0rnkd","5b9b422307c6960001614c35","freq_resp","","","img/orange_2bandit_a.png","70","img/orange_2bandit_a.png","70","test","","","","","","","","","","","3","","","","","","","","",""
"null","417934","SARL_v6","SARL_v6a3s0rnkd","5b9b422307c6960001614c35","fixation","","","img/fixation.png","null","","","test","","","","","","","","","","","","","","","","","","","",""
"346.09999990463257","418284","SARL_v6","SARL_v6a3s0rnkd","5b9b422307c6960001614c35","freq","","","img/orange_2bandit_a2.png","70","","70","test","1","","62","","","","square","circle","60","19","3","0.9666666666666667","","","","","","","",""
"null","418745","SARL_v6","SARL_v6a3s0rnkd","5b9b422307c6960001614c35","freq_resp","","","img/orange_2bandit_a.png","70","img/orange_2bandit_a.png","70","test","","","","","","","","","","","3","","","","","","","","",""
"null","418908","SARL_v6","SARL_v6a3s0rnkd","5b9b422307c6960001614c35","fixation","","","img/fixation.png","null","","","test","","","","","","","","","","","","","","","","","","","",""
"475.80000019073486","419388","SARL_v6","SARL_v6a3s0rnkd","5b9b422307c6960001614c35","infreq","","","img/blue_2bandit_a2.png","68","","68","test","1","","63","","","","square","circle","61","20","3","0.9672131147540983","","","","","","","",""
"null","419721","SARL_v6","SARL_v6a3s0rnkd","5b9b422307c6960001614c35","infreq_resp","","","img/blue_2bandit_a.png","68","img/blue_2bandit_a.png","68","test","","","","","","","","","","","3","","","","","","","","",""
"null","419883","SARL_v6","SARL_v6a3s0rnkd","5b9b422307c6960001614c35","fixation","","","img/fixation.png","null","","","test","","","","","","","","","","","","","","","","","","","",""
"437.7000002861023","420323","SARL_v6","SARL_v6a3s0rnkd","5b9b422307c6960001614c35","freq","","","img/orange_2bandit_a2.png","70","","70","test","1","","64","","","","square","circle","62","21","3","0.967741935483871","","","","","","","",""
"null","420698","SARL_v6","SARL_v6a3s0rnkd","5b9b422307c6960001614c35","freq_resp","","","img/orange_2bandit_a.png","70","img/orange_2bandit_a.png","70","test","","","","","","","","","","","3","","","","","","","","",""
"null","420857","SARL_v6","SARL_v6a3s0rnkd","5b9b422307c6960001614c35","fixation","","","img/fixation.png","null","","","test","","","","","","","","","","","","","","","","","","","",""
"342.09999990463257","421201","SARL_v6","SARL_v6a3s0rnkd","5b9b422307c6960001614c35","freq","","","img/orange_2bandit_a2.png","70","","70","test","1","","65","","","","square","circle","63","22","3","0.9682539682539683","","","","","","","",""
"null","421677","SARL_v6","SARL_v6a3s0rnkd","5b9b422307c6960001614c35","freq_resp","","","img/orange_2bandit_a.png","70","img/orange_2bandit_a.png","70","test","","","","","","","","","","","3","","","","","","","","",""
"null","421841","SARL_v6","SARL_v6a3s0rnkd","5b9b422307c6960001614c35","fixation","","","img/fixation.png","null","","","test","","","","","","","","","","","","","","","","","","","",""
"661.9000000953674","422504","SARL_v6","SARL_v6a3s0rnkd","5b9b422307c6960001614c35","rl","","","img/black_2bandit_a2.png","74","","0","test","","","66","","","-8","square","circle","","0","3","","74","-4","-8","-8","-4","square","3","0"
"null","423266","SARL_v6","SARL_v6a3s0rnkd","5b9b422307c6960001614c35","feedback","","","<div class=""verylowPoints_sq""> -8 </div>","null","","na","test","","","NaN","","","","","","","","3","","74","","","","","","3",""
"531.5999999046326","423803","SARL_v6","SARL_v6a3s0rnkd","5b9b422307c6960001614c35","freq","","","img/orange_2bandit_a2.png","70","","70","test","1","","67","","","","square","circle","64","1","4","0.96875","","","","","","","",""
"null","424083","SARL_v6","SARL_v6a3s0rnkd","5b9b422307c6960001614c35","freq_resp","","","img/orange_2bandit_a.png","70","img/orange_2bandit_a.png","70","test","","","","","","","","","","","4","","","","","","","","",""
"null","424244","SARL_v6","SARL_v6a3s0rnkd","5b9b422307c6960001614c35","fixation","","","img/fixation.png","null","","","test","","","","","","","","","","","","","","","","","","","",""
"456.90000009536743","424704","SARL_v6","SARL_v6a3s0rnkd","5b9b422307c6960001614c35","freq","","","img/orange_2bandit_a2.png","70","","70","test","1","","68","","","","square","circle","65","2","4","0.9692307692307692","","","","","","","",""
"null","425060","SARL_v6","SARL_v6a3s0rnkd","5b9b422307c6960001614c35","freq_resp","","","img/orange_2bandit_a.png","70","img/orange_2bandit_a.png","70","test","","","","","","","","","","","4","","","","","","","","",""
"null","425223","SARL_v6","SARL_v6a3s0rnkd","5b9b422307c6960001614c35","fixation","","","img/fixation.png","null","","","test","","","","","","","","","","","","","","","","","","","",""
"249.5","425477","SARL_v6","SARL_v6a3s0rnkd","5b9b422307c6960001614c35","freq","","","img/orange_2bandit_a2.png","70","","70","test","1","","69","","","","square","circle","66","3","4","0.9696969696969697","","","","","","","",""
"null","426042","SARL_v6","SARL_v6a3s0rnkd","5b9b422307c6960001614c35","freq_resp","","","img/orange_2bandit_a.png","70","img/orange_2bandit_a.png","70","test","","","","","","","","","","","4","","","","","","","","",""
"null","426203","SARL_v6","SARL_v6a3s0rnkd","5b9b422307c6960001614c35","fixation","","","img/fixation.png","null","","","test","","","","","","","","","","","","","","","","","","","",""
"305.59999990463257","426510","SARL_v6","SARL_v6a3s0rnkd","5b9b422307c6960001614c35","freq","","","img/orange_2bandit_a2.png","70","","70","test","1","","70","","","","square","circle","67","4","4","0.9701492537313433","","","","","","","",""
"null","427012","SARL_v6","SARL_v6a3s0rnkd","5b9b422307c6960001614c35","freq_resp","","","img/orange_2bandit_a.png","70","img/orange_2bandit_a.png","70","test","","","","","","","","","","","4","","","","","","","","",""
"null","427180","SARL_v6","SARL_v6a3s0rnkd","5b9b422307c6960001614c35","fixation","","","img/fixation.png","null","","","test","","","","","","","","","","","","","","","","","","","",""
"280.09999990463257","427462","SARL_v6","SARL_v6a3s0rnkd","5b9b422307c6960001614c35","freq","","","img/orange_2bandit_a2.png","70","","70","test","1","","71","","","","square","circle","68","5","4","0.9705882352941176","","","","","","","",""
"null","427993","SARL_v6","SARL_v6a3s0rnkd","5b9b422307c6960001614c35","freq_resp","","","img/orange_2bandit_a.png","70","img/orange_2bandit_a.png","70","test","","","","","","","","","","","4","","","","","","","","",""
"null","428156","SARL_v6","SARL_v6a3s0rnkd","5b9b422307c6960001614c35","fixation","","","img/fixation.png","null","","","test","","","","","","","","","","","","","","","","","","","",""
"264.40000009536743","428423","SARL_v6","SARL_v6a3s0rnkd","5b9b422307c6960001614c35","freq","","","img/orange_2bandit_a2.png","70","","70","test","1","","72","","","","square","circle","69","6","4","0.9710144927536232","","","","","","","",""
"null","428967","SARL_v6","SARL_v6a3s0rnkd","5b9b422307c6960001614c35","freq_resp","","","img/orange_2bandit_a.png","70","img/orange_2bandit_a.png","70","test","","","","","","","","","","","4","","","","","","","","",""
"null","429130","SARL_v6","SARL_v6a3s0rnkd","5b9b422307c6960001614c35","fixation","","","img/fixation.png","null","","","test","","","","","","","","","","","","","","","","","","","",""
"307.5","429441","SARL_v6","SARL_v6a3s0rnkd","5b9b422307c6960001614c35","freq","","","img/orange_2bandit_a2.png","70","","70","test","1","","73","","","","square","circle","70","7","4","0.9714285714285714","","","","","","","",""
"null","429943","SARL_v6","SARL_v6a3s0rnkd","5b9b422307c6960001614c35","freq_resp","","","img/orange_2bandit_a.png","70","img/orange_2bandit_a.png","70","test","","","","","","","","","","","4","","","","","","","","",""
"null","430105","SARL_v6","SARL_v6a3s0rnkd","5b9b422307c6960001614c35","fixation","","","img/fixation.png","null","","","test","","","","","","","","","","","","","","","","","","","",""
"319.19999980926514","430426","SARL_v6","SARL_v6a3s0rnkd","5b9b422307c6960001614c35","freq","","","img/orange_2bandit_a2.png","70","","70","test","1","","74","","","","square","circle","71","8","4","0.971830985915493","","","","","","","",""
"null","430922","SARL_v6","SARL_v6a3s0rnkd","5b9b422307c6960001614c35","freq_resp","","","img/orange_2bandit_a.png","70","img/orange_2bandit_a.png","70","test","","","","","","","","","","","4","","","","","","","","",""
"null","431084","SARL_v6","SARL_v6a3s0rnkd","5b9b422307c6960001614c35","fixation","","","img/fixation.png","null","","","test","","","","","","","","","","","","","","","","","","","",""
"329.30000019073486","431416","SARL_v6","SARL_v6a3s0rnkd","5b9b422307c6960001614c35","freq","","","img/orange_2bandit_a2.png","70","","70","test","1","","75","","","","square","circle","72","9","4","0.9722222222222222","","","","","","","",""
"null","431899","SARL_v6","SARL_v6a3s0rnkd","5b9b422307c6960001614c35","freq_resp","","","img/orange_2bandit_a.png","70","img/orange_2bandit_a.png","70","test","","","","","","","","","","","4","","","","","","","","",""
"null","432054","SARL_v6","SARL_v6a3s0rnkd","5b9b422307c6960001614c35","fixation","","","img/fixation.png","null","","","test","","","","","","","","","","","","","","","","","","","",""
"317.30000019073486","432374","SARL_v6","SARL_v6a3s0rnkd","5b9b422307c6960001614c35","freq","","","img/orange_2bandit_a2.png","70","","70","test","1","","76","","","","square","circle","73","10","4","0.9726027397260274","","","","","","","",""
"null","432866","SARL_v6","SARL_v6a3s0rnkd","5b9b422307c6960001614c35","freq_resp","","","img/orange_2bandit_a.png","70","img/orange_2bandit_a.png","70","test","","","","","","","","","","","4","","","","","","","","",""
"null","433025","SARL_v6","SARL_v6a3s0rnkd","5b9b422307c6960001614c35","fixation","","","img/fixation.png","null","","","test","","","","","","","","","","","","","","","","","","","",""
"314.1000003814697","433340","SARL_v6","SARL_v6a3s0rnkd","5b9b422307c6960001614c35","freq","","","img/orange_2bandit_a2.png","70","","70","test","1","","77","","","","square","circle","74","11","4","0.972972972972973","","","","","","","",""
"null","433836","SARL_v6","SARL_v6a3s0rnkd","5b9b422307c6960001614c35","freq_resp","","","img/orange_2bandit_a.png","70","img/orange_2bandit_a.png","70","test","","","","","","","","","","","4","","","","","","","","",""
"null","433991","SARL_v6","SARL_v6a3s0rnkd","5b9b422307c6960001614c35","fixation","","","img/fixation.png","null","","","test","","","","","","","","","","","","","","","","","","","",""
"331.6000003814697","434324","SARL_v6","SARL_v6a3s0rnkd","5b9b422307c6960001614c35","freq","","","img/orange_2bandit_a2.png","70","","70","test","1","","78","","","","square","circle","75","12","4","0.9733333333333334","","","","","","","",""
"null","434801","SARL_v6","SARL_v6a3s0rnkd","5b9b422307c6960001614c35","freq_resp","","","img/orange_2bandit_a.png","70","img/orange_2bandit_a.png","70","test","","","","","","","","","","","4","","","","","","","","",""
"null","434963","SARL_v6","SARL_v6a3s0rnkd","5b9b422307c6960001614c35","fixation","","","img/fixation.png","null","","","test","","","","","","","","","","","","","","","","","","","",""
"321.1000003814697","435286","SARL_v6","SARL_v6a3s0rnkd","5b9b422307c6960001614c35","freq","","","img/orange_2bandit_a2.png","70","","70","test","1","","79","","","","square","circle","76","13","4","0.9736842105263158","","","","","","","",""
"null","435780","SARL_v6","SARL_v6a3s0rnkd","5b9b422307c6960001614c35","freq_resp","","","img/orange_2bandit_a.png","70","img/orange_2bandit_a.png","70","test","","","","","","","","","","","4","","","","","","","","",""
"null","435948","SARL_v6","SARL_v6a3s0rnkd","5b9b422307c6960001614c35","fixation","","","img/fixation.png","null","","","test","","","","","","","","","","","","","","","","","","","",""
"324.09999990463257","436275","SARL_v6","SARL_v6a3s0rnkd","5b9b422307c6960001614c35","freq","","","img/orange_2bandit_a2.png","70","","70","test","1","","80","","","","square","circle","77","14","4","0.974025974025974","","","","","","","",""
"null","436763","SARL_v6","SARL_v6a3s0rnkd","5b9b422307c6960001614c35","freq_resp","","","img/orange_2bandit_a.png","70","img/orange_2bandit_a.png","70","test","","","","","","","","","","","4","","","","","","","","",""
"null","436924","SARL_v6","SARL_v6a3s0rnkd","5b9b422307c6960001614c35","fixation","","","img/fixation.png","null","","","test","","","","","","","","","","","","","","","","","","","",""
"309.09999990463257","437236","SARL_v6","SARL_v6a3s0rnkd","5b9b422307c6960001614c35","freq","","","img/orange_2bandit_a2.png","70","","70","test","1","","81","","","","square","circle","78","15","4","0.9743589743589743","","","","","","","",""
"null","437740","SARL_v6","SARL_v6a3s0rnkd","5b9b422307c6960001614c35","freq_resp","","","img/orange_2bandit_a.png","70","img/orange_2bandit_a.png","70","test","","","","","","","","","","","4","","","","","","","","",""
"null","437907","SARL_v6","SARL_v6a3s0rnkd","5b9b422307c6960001614c35","fixation","","","img/fixation.png","null","","","test","","","","","","","","","","","","","","","","","","","",""
"407.69999980926514","438318","SARL_v6","SARL_v6a3s0rnkd","5b9b422307c6960001614c35","infreq","","","img/blue_2bandit_a2.png","68","","68","test","1","","82","","","","square","circle","79","16","4","0.9746835443037974","","","","","","","",""
"null","438722","SARL_v6","SARL_v6a3s0rnkd","5b9b422307c6960001614c35","infreq_resp","","","img/blue_2bandit_a.png","68","img/blue_2bandit_a.png","68","test","","","","","","","","","","","4","","","","","","","","",""
"null","438881","SARL_v6","SARL_v6a3s0rnkd","5b9b422307c6960001614c35","fixation","","","img/fixation.png","null","","","test","","","","","","","","","","","","","","","","","","","",""
"422.8999996185303","439306","SARL_v6","SARL_v6a3s0rnkd","5b9b422307c6960001614c35","freq","","","img/orange_2bandit_a2.png","70","","70","test","1","","83","","","","square","circle","80","17","4","0.975","","","","","","","",""
"null","439698","SARL_v6","SARL_v6a3s0rnkd","5b9b422307c6960001614c35","freq_resp","","","img/orange_2bandit_a.png","70","img/orange_2bandit_a.png","70","test","","","","","","","","","","","4","","","","","","","","",""
"null","439859","SARL_v6","SARL_v6a3s0rnkd","5b9b422307c6960001614c35","fixation","","","img/fixation.png","null","","","test","","","","","","","","","","","","","","","","","","","",""
"496.30000019073486","440360","SARL_v6","SARL_v6a3s0rnkd","5b9b422307c6960001614c35","infreq","","","img/blue_2bandit_a2.png","68","","68","test","1","","84","","","","square","circle","81","18","4","0.9753086419753086","","","","","","","",""
"null","440677","SARL_v6","SARL_v6a3s0rnkd","5b9b422307c6960001614c35","infreq_resp","","","img/blue_2bandit_a.png","68","img/blue_2bandit_a.png","68","test","","","","","","","","","","","4","","","","","","","","",""
"null","440843","SARL_v6","SARL_v6a3s0rnkd","5b9b422307c6960001614c35","fixation","","","img/fixation.png","null","","","test","","","","","","","","","","","","","","","","","","","",""
"380.19999980926514","441226","SARL_v6","SARL_v6a3s0rnkd","5b9b422307c6960001614c35","freq","","","img/orange_2bandit_a2.png","70","","70","test","1","","85","","","","square","circle","82","19","4","0.975609756097561","","","","","","","",""
"null","441660","SARL_v6","SARL_v6a3s0rnkd","5b9b422307c6960001614c35","freq_resp","","","img/orange_2bandit_a.png","70","img/orange_2bandit_a.png","70","test","","","","","","","","","","","4","","","","","","","","",""
"null","441828","SARL_v6","SARL_v6a3s0rnkd","5b9b422307c6960001614c35","fixation","","","img/fixation.png","null","","","test","","","","","","","","","","","","","","","","","","","",""
"325","442157","SARL_v6","SARL_v6a3s0rnkd","5b9b422307c6960001614c35","freq","","","img/orange_2bandit_a2.png","70","","70","test","1","","86","","","","square","circle","83","20","4","0.9759036144578314","","","","","","","",""
"null","442640","SARL_v6","SARL_v6a3s0rnkd","5b9b422307c6960001614c35","freq_resp","","","img/orange_2bandit_a.png","70","img/orange_2bandit_a.png","70","test","","","","","","","","","","","4","","","","","","","","",""
"null","442801","SARL_v6","SARL_v6a3s0rnkd","5b9b422307c6960001614c35","fixation","","","img/fixation.png","null","","","test","","","","","","","","","","","","","","","","","","","",""
"315.1000003814697","443120","SARL_v6","SARL_v6a3s0rnkd","5b9b422307c6960001614c35","freq","","","img/orange_2bandit_a2.png","70","","70","test","1","","87","","","","square","circle","84","21","4","0.9761904761904762","","","","","","","",""
"null","443620","SARL_v6","SARL_v6a3s0rnkd","5b9b422307c6960001614c35","freq_resp","","","img/orange_2bandit_a.png","70","img/orange_2bandit_a.png","70","test","","","","","","","","","","","4","","","","","","","","",""
"null","443788","SARL_v6","SARL_v6a3s0rnkd","5b9b422307c6960001614c35","fixation","","","img/fixation.png","null","","","test","","","","","","","","","","","","","","","","","","","",""
"723.9000000953674","444514","SARL_v6","SARL_v6a3s0rnkd","5b9b422307c6960001614c35","rl","","","img/black_2bandit_a2.png","74","","0","test","","","88","","","-12","square","circle","","0","4","","74","0","-12","-12","0","square","4","0"
"null","445275","SARL_v6","SARL_v6a3s0rnkd","5b9b422307c6960001614c35","feedback","","","<div class=""verylowPoints_sq""> -12 </div>","null","","na","test","","","NaN","","","","","","","","4","","74","","","","","","4",""
"630.1000003814697","445909","SARL_v6","SARL_v6a3s0rnkd","5b9b422307c6960001614c35","freq","","","img/orange_2bandit_a2.png","70","","70","test","1","","89","","","","square","circle","85","1","5","0.9764705882352941","","","","","","","",""
"null","446083","SARL_v6","SARL_v6a3s0rnkd","5b9b422307c6960001614c35","freq_resp","","","img/orange_2bandit_a.png","70","img/orange_2bandit_a.png","70","test","","","","","","","","","","","5","","","","","","","","",""
"null","446242","SARL_v6","SARL_v6a3s0rnkd","5b9b422307c6960001614c35","fixation","","","img/fixation.png","null","","","test","","","","","","","","","","","","","","","","","","","",""
"477.7000002861023","446722","SARL_v6","SARL_v6a3s0rnkd","5b9b422307c6960001614c35","freq","","","img/orange_2bandit_a2.png","70","","70","test","1","","90","","","","square","circle","86","2","5","0.9767441860465116","","","","","","","",""
"null","447058","SARL_v6","SARL_v6a3s0rnkd","5b9b422307c6960001614c35","freq_resp","","","img/orange_2bandit_a.png","70","img/orange_2bandit_a.png","70","test","","","","","","","","","","","5","","","","","","","","",""
"null","447218","SARL_v6","SARL_v6a3s0rnkd","5b9b422307c6960001614c35","fixation","","","img/fixation.png","null","","","test","","","","","","","","","","","","","","","","","","","",""
"365","447584","SARL_v6","SARL_v6a3s0rnkd","5b9b422307c6960001614c35","freq","","","img/orange_2bandit_a2.png","70","","70","test","1","","91","","","","square","circle","87","3","5","0.9770114942528736","","","","","","","",""
"null","448037","SARL_v6","SARL_v6a3s0rnkd","5b9b422307c6960001614c35","freq_resp","","","img/orange_2bandit_a.png","70","img/orange_2bandit_a.png","70","test","","","","","","","","","","","5","","","","","","","","",""
"null","448201","SARL_v6","SARL_v6a3s0rnkd","5b9b422307c6960001614c35","fixation","","","img/fixation.png","null","","","test","","","","","","","","","","","","","","","","","","","",""
"282.5","448486","SARL_v6","SARL_v6a3s0rnkd","5b9b422307c6960001614c35","freq","","","img/orange_2bandit_a2.png","70","","70","test","1","","92","","","","square","circle","88","4","5","0.9772727272727273","","","","","","","",""
"null","449017","SARL_v6","SARL_v6a3s0rnkd","5b9b422307c6960001614c35","freq_resp","","","img/orange_2bandit_a.png","70","img/orange_2bandit_a.png","70","test","","","","","","","","","","","5","","","","","","","","",""
"null","449180","SARL_v6","SARL_v6a3s0rnkd","5b9b422307c6960001614c35","fixation","","","img/fixation.png","null","","","test","","","","","","","","","","","","","","","","","","","",""
"324.19999980926514","449506","SARL_v6","SARL_v6a3s0rnkd","5b9b422307c6960001614c35","freq","","","img/orange_2bandit_a2.png","70","","70","test","1","","93","","","","square","circle","89","5","5","0.9775280898876404","","","","","","","",""
"null","449990","SARL_v6","SARL_v6a3s0rnkd","5b9b422307c6960001614c35","freq_resp","","","img/orange_2bandit_a.png","70","img/orange_2bandit_a.png","70","test","","","","","","","","","","","5","","","","","","","","",""
"null","450149","SARL_v6","SARL_v6a3s0rnkd","5b9b422307c6960001614c35","fixation","","","img/fixation.png","null","","","test","","","","","","","","","","","","","","","","","","","",""
"482.09999990463257","450637","SARL_v6","SARL_v6a3s0rnkd","5b9b422307c6960001614c35","infreq","","","img/blue_2bandit_a2.png","68","","68","test","1","","94","","","","square","circle","90","6","5","0.9777777777777777","","","","","","","",""
"null","450967","SARL_v6","SARL_v6a3s0rnkd","5b9b422307c6960001614c35","infreq_resp","","","img/blue_2bandit_a.png","68","img/blue_2bandit_a.png","68","test","","","","","","","","","","","5","","","","","","","","",""
"null","451131","SARL_v6","SARL_v6a3s0rnkd","5b9b422307c6960001614c35","fixation","","","img/fixation.png","null","","","test","","","","","","","","","","","","","","","","","","","",""
"331.69999980926514","451467","SARL_v6","SARL_v6a3s0rnkd","5b9b422307c6960001614c35","freq","","","img/orange_2bandit_a2.png","70","","70","test","1","","95","","","","square","circle","91","7","5","0.978021978021978","","","","","","","",""
"null","451949","SARL_v6","SARL_v6a3s0rnkd","5b9b422307c6960001614c35","freq_resp","","","img/orange_2bandit_a.png","70","img/orange_2bandit_a.png","70","test","","","","","","","","","","","5","","","","","","","","",""
"null","452117","SARL_v6","SARL_v6a3s0rnkd","5b9b422307c6960001614c35","fixation","","","img/fixation.png","null","","","test","","","","","","","","","","","","","","","","","","","",""
"328","452449","SARL_v6","SARL_v6a3s0rnkd","5b9b422307c6960001614c35","freq","","","img/orange_2bandit_a2.png","70","","70","test","1","","96","","","","square","circle","92","8","5","0.9782608695652174","","","","","","","",""
"null","452933","SARL_v6","SARL_v6a3s0rnkd","5b9b422307c6960001614c35","freq_resp","","","img/orange_2bandit_a.png","70","img/orange_2bandit_a.png","70","test","","","","","","","","","","","5","","","","","","","","",""
"null","453101","SARL_v6","SARL_v6a3s0rnkd","5b9b422307c6960001614c35","fixation","","","img/fixation.png","null","","","test","","","","","","","","","","","","","","","","","","","",""
"302.3999996185303","453407","SARL_v6","SARL_v6a3s0rnkd","5b9b422307c6960001614c35","freq","","","img/orange_2bandit_a2.png","70","","70","test","1","","97","","","","square","circle","93","9","5","0.978494623655914","","","","","","","",""
"null","453915","SARL_v6","SARL_v6a3s0rnkd","5b9b422307c6960001614c35","freq_resp","","","img/orange_2bandit_a.png","70","img/orange_2bandit_a.png","70","test","","","","","","","","","","","5","","","","","","","","",""
"null","454080","SARL_v6","SARL_v6a3s0rnkd","5b9b422307c6960001614c35","fixation","","","img/fixation.png","null","","","test","","","","","","","","","","","","","","","","","","","",""
"380.6000003814697","454463","SARL_v6","SARL_v6a3s0rnkd","5b9b422307c6960001614c35","freq","","","img/orange_2bandit_a2.png","70","","70","test","1","","98","","","","square","circle","94","10","5","0.9787234042553191","","","","","","","",""
"null","454898","SARL_v6","SARL_v6a3s0rnkd","5b9b422307c6960001614c35","freq_resp","","","img/orange_2bandit_a.png","70","img/orange_2bandit_a.png","70","test","","","","","","","","","","","5","","","","","","","","",""
"null","455058","SARL_v6","SARL_v6a3s0rnkd","5b9b422307c6960001614c35","fixation","","","img/fixation.png","null","","","test","","","","","","","","","","","","","","","","","","","",""
"323.5","455385","SARL_v6","SARL_v6a3s0rnkd","5b9b422307c6960001614c35","freq","","","img/orange_2bandit_a2.png","70","","70","test","1","","99","","","","square","circle","95","11","5","0.9789473684210527","","","","","","","",""
"null","455877","SARL_v6","SARL_v6a3s0rnkd","5b9b422307c6960001614c35","freq_resp","","","img/orange_2bandit_a.png","70","img/orange_2bandit_a.png","70","test","","","","","","","","","","","5","","","","","","","","",""
"null","456048","SARL_v6","SARL_v6a3s0rnkd","5b9b422307c6960001614c35","fixation","","","img/fixation.png","null","","","test","","","","","","","","","","","","","","","","","","","",""
"293.19999980926514","456347","SARL_v6","SARL_v6a3s0rnkd","5b9b422307c6960001614c35","freq","","","img/orange_2bandit_a2.png","70","","70","test","1","","100","","","","square","circle","96","12","5","0.9791666666666666","","","","","","","",""
"null","456859","SARL_v6","SARL_v6a3s0rnkd","5b9b422307c6960001614c35","freq_resp","","","img/orange_2bandit_a.png","70","img/orange_2bandit_a.png","70","test","","","","","","","","","","","5","","","","","","","","",""
"null","457019","SARL_v6","SARL_v6a3s0rnkd","5b9b422307c6960001614c35","fixation","","","img/fixation.png","null","","","test","","","","","","","","","","","","","","","","","","","",""
"345.80000019073486","457371","SARL_v6","SARL_v6a3s0rnkd","5b9b422307c6960001614c35","freq","","","img/orange_2bandit_a2.png","70","","70","test","1","","101","","","","square","circle","97","13","5","0.979381443298969","","","","","","","",""
"null","457836","SARL_v6","SARL_v6a3s0rnkd","5b9b422307c6960001614c35","freq_resp","","","img/orange_2bandit_a.png","70","img/orange_2bandit_a.png","70","test","","","","","","","","","","","5","","","","","","","","",""
"null","458002","SARL_v6","SARL_v6a3s0rnkd","5b9b422307c6960001614c35","fixation","","","img/fixation.png","null","","","test","","","","","","","","","","","","","","","","","","","",""
"351.5","458358","SARL_v6","SARL_v6a3s0rnkd","5b9b422307c6960001614c35","freq","","","img/orange_2bandit_a2.png","70","","70","test","1","","102","","","","square","circle","98","14","5","0.9795918367346939","","","","","","","",""
"null","458818","SARL_v6","SARL_v6a3s0rnkd","5b9b422307c6960001614c35","freq_resp","","","img/orange_2bandit_a.png","70","img/orange_2bandit_a.png","70","test","","","","","","","","","","","5","","","","","","","","",""
"null","458978","SARL_v6","SARL_v6a3s0rnkd","5b9b422307c6960001614c35","fixation","","","img/fixation.png","null","","","test","","","","","","","","","","","","","","","","","","","",""
"606","459588","SARL_v6","SARL_v6a3s0rnkd","5b9b422307c6960001614c35","infreq","","","img/blue_2bandit_a2.png","68","","68","test","1","","103","","","","square","circle","99","15","5","0.9797979797979798","","","","","","","",""
"null","459793","SARL_v6","SARL_v6a3s0rnkd","5b9b422307c6960001614c35","infreq_resp","","","img/blue_2bandit_a.png","68","img/blue_2bandit_a.png","68","test","","","","","","","","","","","5","","","","","","","","",""
"null","459953","SARL_v6","SARL_v6a3s0rnkd","5b9b422307c6960001614c35","fixation","","","img/fixation.png","null","","","test","","","","","","","","","","","","","","","","","","","",""
"444","460400","SARL_v6","SARL_v6a3s0rnkd","5b9b422307c6960001614c35","freq","","","img/orange_2bandit_a2.png","70","","70","test","1","","104","","","","square","circle","100","16","5","0.98","","","","","","","",""
"null","460770","SARL_v6","SARL_v6a3s0rnkd","5b9b422307c6960001614c35","freq_resp","","","img/orange_2bandit_a.png","70","img/orange_2bandit_a.png","70","test","","","","","","","","","","","5","","","","","","","","",""
"null","460927","SARL_v6","SARL_v6a3s0rnkd","5b9b422307c6960001614c35","fixation","","","img/fixation.png","null","","","test","","","","","","","","","","","","","","","","","","","",""
"396","461326","SARL_v6","SARL_v6a3s0rnkd","5b9b422307c6960001614c35","freq","","","img/orange_2bandit_a2.png","70","","70","test","1","","105","","","","square","circle","101","17","5","0.9801980198019802","","","","","","","",""
"null","461748","SARL_v6","SARL_v6a3s0rnkd","5b9b422307c6960001614c35","freq_resp","","","img/orange_2bandit_a.png","70","img/orange_2bandit_a.png","70","test","","","","","","","","","","","5","","","","","","","","",""
"null","461915","SARL_v6","SARL_v6a3s0rnkd","5b9b422307c6960001614c35","fixation","","","img/fixation.png","null","","","test","","","","","","","","","","","","","","","","","","","",""
"309","462225","SARL_v6","SARL_v6a3s0rnkd","5b9b422307c6960001614c35","freq","","","img/orange_2bandit_a2.png","70","","70","test","1","","106","","","","square","circle","102","18","5","0.9803921568627451","","","","","","","",""
"null","462725","SARL_v6","SARL_v6a3s0rnkd","5b9b422307c6960001614c35","freq_resp","","","img/orange_2bandit_a.png","70","img/orange_2bandit_a.png","70","test","","","","","","","","","","","5","","","","","","","","",""
"null","462889","SARL_v6","SARL_v6a3s0rnkd","5b9b422307c6960001614c35","fixation","","","img/fixation.png","null","","","test","","","","","","","","","","","","","","","","","","","",""
"293","463184","SARL_v6","SARL_v6a3s0rnkd","5b9b422307c6960001614c35","freq","","","img/orange_2bandit_a2.png","70","","70","test","1","","107","","","","square","circle","103","19","5","0.9805825242718447","","","","","","","",""
"null","463695","SARL_v6","SARL_v6a3s0rnkd","5b9b422307c6960001614c35","freq_resp","","","img/orange_2bandit_a.png","70","img/orange_2bandit_a.png","70","test","","","","","","","","","","","5","","","","","","","","",""
"null","463860","SARL_v6","SARL_v6a3s0rnkd","5b9b422307c6960001614c35","fixation","","","img/fixation.png","null","","","test","","","","","","","","","","","","","","","","","","","",""
"313.69999980926514","464177","SARL_v6","SARL_v6a3s0rnkd","5b9b422307c6960001614c35","freq","","","img/orange_2bandit_a2.png","70","","70","test","1","","108","","","","square","circle","104","20","5","0.9807692307692307","","","","","","","",""
"null","464676","SARL_v6","SARL_v6a3s0rnkd","5b9b422307c6960001614c35","freq_resp","","","img/orange_2bandit_a.png","70","img/orange_2bandit_a.png","70","test","","","","","","","","","","","5","","","","","","","","",""
"null","464840","SARL_v6","SARL_v6a3s0rnkd","5b9b422307c6960001614c35","fixation","","","img/fixation.png","null","","","test","","","","","","","","","","","","","","","","","","","",""
"776.4000000953674","465619","SARL_v6","SARL_v6a3s0rnkd","5b9b422307c6960001614c35","rl","","","img/black_2bandit_a2.png","75","","0","test","","","109","","","4","square","circle","","0","5","","75","4","-7","-7","4","circle","5","0"
"null","466378","SARL_v6","SARL_v6a3s0rnkd","5b9b422307c6960001614c35","feedback","","","<div class=""veryhighPoints""> 4 </div>","null","","na","test","","","NaN","","","","","","","","5","","75","","","","","","5",""
"405","466786","SARL_v6","SARL_v6a3s0rnkd","5b9b422307c6960001614c35","freq","","","img/orange_2bandit_a2.png","70","","70","test","1","","110","","","","square","circle","105","1","6","0.9809523809523809","","","","","","","",""
"null","467193","SARL_v6","SARL_v6a3s0rnkd","5b9b422307c6960001614c35","freq_resp","","","img/orange_2bandit_a.png","70","img/orange_2bandit_a.png","70","test","","","","","","","","","","","6","","","","","","","","",""
"null","467356","SARL_v6","SARL_v6a3s0rnkd","5b9b422307c6960001614c35","fixation","","","img/fixation.png","null","","","test","","","","","","","","","","","","","","","","","","","",""
"629","467988","SARL_v6","SARL_v6a3s0rnkd","5b9b422307c6960001614c35","infreq","","","img/blue_2bandit_a2.png","68","","68","test","1","","111","","","","square","circle","106","2","6","0.9811320754716981","","","","","","","",""
"null","468167","SARL_v6","SARL_v6a3s0rnkd","5b9b422307c6960001614c35","infreq_resp","","","img/blue_2bandit_a.png","68","img/blue_2bandit_a.png","68","test","","","","","","","","","","","6","","","","","","","","",""
"null","468329","SARL_v6","SARL_v6a3s0rnkd","5b9b422307c6960001614c35","fixation","","","img/fixation.png","null","","","test","","","","","","","","","","","","","","","","","","","",""
"375.59999990463257","468710","SARL_v6","SARL_v6a3s0rnkd","5b9b422307c6960001614c35","freq","","","img/orange_2bandit_a2.png","70","","70","test","1","","112","","","","square","circle","107","3","6","0.9813084112149533","","","","","","","",""
"null","469140","SARL_v6","SARL_v6a3s0rnkd","5b9b422307c6960001614c35","freq_resp","","","img/orange_2bandit_a.png","70","img/orange_2bandit_a.png","70","test","","","","","","","","","","","6","","","","","","","","",""
"null","469305","SARL_v6","SARL_v6a3s0rnkd","5b9b422307c6960001614c35","fixation","","","img/fixation.png","null","","","test","","","","","","","","","","","","","","","","","","","",""
"393.90000009536743","469703","SARL_v6","SARL_v6a3s0rnkd","5b9b422307c6960001614c35","freq","","","img/orange_2bandit_a2.png","70","","70","test","1","","113","","","","square","circle","108","4","6","0.9814814814814815","","","","","","","",""
"null","470123","SARL_v6","SARL_v6a3s0rnkd","5b9b422307c6960001614c35","freq_resp","","","img/orange_2bandit_a.png","70","img/orange_2bandit_a.png","70","test","","","","","","","","","","","6","","","","","","","","",""
"null","470281","SARL_v6","SARL_v6a3s0rnkd","5b9b422307c6960001614c35","fixation","","","img/fixation.png","null","","","test","","","","","","","","","","","","","","","","","","","",""
"316.59999990463257","470602","SARL_v6","SARL_v6a3s0rnkd","5b9b422307c6960001614c35","freq","","","img/orange_2bandit_a2.png","70","","70","test","1","","114","","","","square","circle","109","5","6","0.981651376146789","","","","","","","",""
"null","471101","SARL_v6","SARL_v6a3s0rnkd","5b9b422307c6960001614c35","freq_resp","","","img/orange_2bandit_a.png","70","img/orange_2bandit_a.png","70","test","","","","","","","","","","","6","","","","","","","","",""
"null","471265","SARL_v6","SARL_v6a3s0rnkd","5b9b422307c6960001614c35","fixation","","","img/fixation.png","null","","","test","","","","","","","","","","","","","","","","","","","",""
"378.69999980926514","471646","SARL_v6","SARL_v6a3s0rnkd","5b9b422307c6960001614c35","freq","","","img/orange_2bandit_a2.png","70","","70","test","1","","115","","","","square","circle","110","6","6","0.9818181818181818","","","","","","","",""
"null","472078","SARL_v6","SARL_v6a3s0rnkd","5b9b422307c6960001614c35","freq_resp","","","img/orange_2bandit_a.png","70","img/orange_2bandit_a.png","70","test","","","","","","","","","","","6","","","","","","","","",""
"null","472241","SARL_v6","SARL_v6a3s0rnkd","5b9b422307c6960001614c35","fixation","","","img/fixation.png","null","","","test","","","","","","","","","","","","","","","","","","","",""
"339.69999980926514","472583","SARL_v6","SARL_v6a3s0rnkd","5b9b422307c6960001614c35","freq","","","img/orange_2bandit_a2.png","70","","70","test","1","","116","","","","square","circle","111","7","6","0.9819819819819819","","","","","","","",""
"null","473057","SARL_v6","SARL_v6a3s0rnkd","5b9b422307c6960001614c35","freq_resp","","","img/orange_2bandit_a.png","70","img/orange_2bandit_a.png","70","test","","","","","","","","","","","6","","","","","","","","",""
"null","473217","SARL_v6","SARL_v6a3s0rnkd","5b9b422307c6960001614c35","fixation","","","img/fixation.png","null","","","test","","","","","","","","","","","","","","","","","","","",""
"288.2999997138977","473507","SARL_v6","SARL_v6a3s0rnkd","5b9b422307c6960001614c35","freq","","","img/orange_2bandit_a2.png","70","","70","test","1","","117","","","","square","circle","112","8","6","0.9821428571428571","","","","","","","",""
"null","474030","SARL_v6","SARL_v6a3s0rnkd","5b9b422307c6960001614c35","freq_resp","","","img/orange_2bandit_a.png","70","img/orange_2bandit_a.png","70","test","","","","","","","","","","","6","","","","","","","","",""
"null","474194","SARL_v6","SARL_v6a3s0rnkd","5b9b422307c6960001614c35","fixation","","","img/fixation.png","null","","","test","","","","","","","","","","","","","","","","","","","",""
"298.09999990463257","474496","SARL_v6","SARL_v6a3s0rnkd","5b9b422307c6960001614c35","freq","","","img/orange_2bandit_a2.png","70","","70","test","1","","118","","","","square","circle","113","9","6","0.9823008849557522","","","","","","","",""
"null","475008","SARL_v6","SARL_v6a3s0rnkd","5b9b422307c6960001614c35","freq_resp","","","img/orange_2bandit_a.png","70","img/orange_2bandit_a.png","70","test","","","","","","","","","","","6","","","","","","","","",""
"null","475165","SARL_v6","SARL_v6a3s0rnkd","5b9b422307c6960001614c35","fixation","","","img/fixation.png","null","","","test","","","","","","","","","","","","","","","","","","","",""
"317.90000009536743","475485","SARL_v6","SARL_v6a3s0rnkd","5b9b422307c6960001614c35","freq","","","img/orange_2bandit_a2.png","70","","70","test","1","","119","","","","square","circle","114","10","6","0.9824561403508771","","","","","","","",""
"null","475975","SARL_v6","SARL_v6a3s0rnkd","5b9b422307c6960001614c35","freq_resp","","","img/orange_2bandit_a.png","70","img/orange_2bandit_a.png","70","test","","","","","","","","","","","6","","","","","","","","",""
"null","476137","SARL_v6","SARL_v6a3s0rnkd","5b9b422307c6960001614c35","fixation","","","img/fixation.png","null","","","test","","","","","","","","","","","","","","","","","","","",""
"306.90000009536743","476446","SARL_v6","SARL_v6a3s0rnkd","5b9b422307c6960001614c35","freq","","","img/orange_2bandit_a2.png","70","","70","test","1","","120","","","","square","circle","115","11","6","0.9826086956521739","","","","","","","",""
"null","476953","SARL_v6","SARL_v6a3s0rnkd","5b9b422307c6960001614c35","freq_resp","","","img/orange_2bandit_a.png","70","img/orange_2bandit_a.png","70","test","","","","","","","","","","","6","","","","","","","","",""
"null","477111","SARL_v6","SARL_v6a3s0rnkd","5b9b422307c6960001614c35","fixation","","","img/fixation.png","null","","","test","","","","","","","","","","","","","","","","","","","",""
"351.5","477465","SARL_v6","SARL_v6a3s0rnkd","5b9b422307c6960001614c35","freq","","","img/orange_2bandit_a2.png","70","","70","test","1","","121","","","","square","circle","116","12","6","0.9827586206896551","","","","","","","",""
"null","477922","SARL_v6","SARL_v6a3s0rnkd","5b9b422307c6960001614c35","freq_resp","","","img/orange_2bandit_a.png","70","img/orange_2bandit_a.png","70","test","","","","","","","","","","","6","","","","","","","","",""
"null","478080","SARL_v6","SARL_v6a3s0rnkd","5b9b422307c6960001614c35","fixation","","","img/fixation.png","null","","","test","","","","","","","","","","","","","","","","","","","",""
"286.3999996185303","478369","SARL_v6","SARL_v6a3s0rnkd","5b9b422307c6960001614c35","freq","","","img/orange_2bandit_a2.png","70","","70","test","1","","122","","","","square","circle","117","13","6","0.9829059829059829","","","","","","","",""
"null","478896","SARL_v6","SARL_v6a3s0rnkd","5b9b422307c6960001614c35","freq_resp","","","img/orange_2bandit_a.png","70","img/orange_2bandit_a.png","70","test","","","","","","","","","","","6","","","","","","","","",""
"null","479061","SARL_v6","SARL_v6a3s0rnkd","5b9b422307c6960001614c35","fixation","","","img/fixation.png","null","","","test","","","","","","","","","","","","","","","","","","","",""
"358.40000009536743","479422","SARL_v6","SARL_v6a3s0rnkd","5b9b422307c6960001614c35","freq","","","img/orange_2bandit_a2.png","70","","70","test","1","","123","","","","square","circle","118","14","6","0.9830508474576272","","","","","","","",""
"null","479875","SARL_v6","SARL_v6a3s0rnkd","5b9b422307c6960001614c35","freq_resp","","","img/orange_2bandit_a.png","70","img/orange_2bandit_a.png","70","test","","","","","","","","","","","6","","","","","","","","",""
"null","480040","SARL_v6","SARL_v6a3s0rnkd","5b9b422307c6960001614c35","fixation","","","img/fixation.png","null","","","test","","","","","","","","","","","","","","","","","","","",""
"339.59999990463257","480383","SARL_v6","SARL_v6a3s0rnkd","5b9b422307c6960001614c35","freq","","","img/orange_2bandit_a2.png","70","","70","test","1","","124","","","","square","circle","119","15","6","0.9831932773109243","","","","","","","",""
"null","480861","SARL_v6","SARL_v6a3s0rnkd","5b9b422307c6960001614c35","freq_resp","","","img/orange_2bandit_a.png","70","img/orange_2bandit_a.png","70","test","","","","","","","","","","","6","","","","","","","","",""
"null","481023","SARL_v6","SARL_v6a3s0rnkd","5b9b422307c6960001614c35","fixation","","","img/fixation.png","null","","","test","","","","","","","","","","","","","","","","","","","",""
"311.2000002861023","481341","SARL_v6","SARL_v6a3s0rnkd","5b9b422307c6960001614c35","freq","","","img/orange_2bandit_a2.png","70","","70","test","1","","125","","","","square","circle","120","16","6","0.9833333333333333","","","","","","","",""
"null","481842","SARL_v6","SARL_v6a3s0rnkd","5b9b422307c6960001614c35","freq_resp","","","img/orange_2bandit_a.png","70","img/orange_2bandit_a.png","70","test","","","","","","","","","","","6","","","","","","","","",""
"null","482002","SARL_v6","SARL_v6a3s0rnkd","5b9b422307c6960001614c35","fixation","","","img/fixation.png","null","","","test","","","","","","","","","","","","","","","","","","","",""
"322.80000019073486","482329","SARL_v6","SARL_v6a3s0rnkd","5b9b422307c6960001614c35","freq","","","img/orange_2bandit_a2.png","70","","70","test","1","","126","","","","square","circle","121","17","6","0.9834710743801653","","","","","","","",""
"null","482820","SARL_v6","SARL_v6a3s0rnkd","5b9b422307c6960001614c35","freq_resp","","","img/orange_2bandit_a.png","70","img/orange_2bandit_a.png","70","test","","","","","","","","","","","6","","","","","","","","",""
"null","482980","SARL_v6","SARL_v6a3s0rnkd","5b9b422307c6960001614c35","fixation","","","img/fixation.png","null","","","test","","","","","","","","","","","","","","","","","","","",""
"305.2999997138977","483289","SARL_v6","SARL_v6a3s0rnkd","5b9b422307c6960001614c35","freq","","","img/orange_2bandit_a2.png","70","","70","test","1","","127","","","","square","circle","122","18","6","0.9836065573770492","","","","","","","",""
"null","483796","SARL_v6","SARL_v6a3s0rnkd","5b9b422307c6960001614c35","freq_resp","","","img/orange_2bandit_a.png","70","img/orange_2bandit_a.png","70","test","","","","","","","","","","","6","","","","","","","","",""
"null","483962","SARL_v6","SARL_v6a3s0rnkd","5b9b422307c6960001614c35","fixation","","","img/fixation.png","null","","","test","","","","","","","","","","","","","","","","","","","",""
"319.69999980926514","484284","SARL_v6","SARL_v6a3s0rnkd","5b9b422307c6960001614c35","freq","","","img/orange_2bandit_a2.png","70","","70","test","1","","128","","","","square","circle","123","19","6","0.983739837398374","","","","","","","",""
"null","484778","SARL_v6","SARL_v6a3s0rnkd","5b9b422307c6960001614c35","freq_resp","","","img/orange_2bandit_a.png","70","img/orange_2bandit_a.png","70","test","","","","","","","","","","","6","","","","","","","","",""
"null","484936","SARL_v6","SARL_v6a3s0rnkd","5b9b422307c6960001614c35","fixation","","","img/fixation.png","null","","","test","","","","","","","","","","","","","","","","","","","",""
