"rt","time_elapsed","expId","subject","prolificID","trialType","rlType","attType","stimulus","key_press","stim","corrresp","phase","corr","pracCounter","trialNum","rewardOne","rewardTwo","reward","bandOne","bandTwo","attentionNum","attentionRunNum","blockNum","performance","bandChosen","circleVal","squareVal","bandOneVal","bandTwoVal","shapeChosen","rlNum","badFlag"
"77264.39999997616","77267","SARL_v6","SARL_v6vmf4wfk0","5a3bdd2c8d005a0001829f3e","","","","","","","","","","","","","","","","","","","","","","","","","","","",""
"","80377","SARL_v6","SARL_v6vmf4wfk0","5a3bdd2c8d005a0001829f3e","fullscreen","fullscreen","fullscreen","","","","","","","","","","","","","","","","","","","","","","","","",""
"162165.5","242545","SARL_v6","SARL_v6vmf4wfk0","5a3bdd2c8d005a0001829f3e","","","","","","","","","","","","","","","","","","","","","","","","","","","",""
"796","243344","SARL_v6","SARL_v6vmf4wfk0","5a3bdd2c8d005a0001829f3e","freqPrac","","","img/blue_2bandit_b2.png","70","img/blue_2bandit_b2.png","70","prac","1","0","","","","","","","","","","","","","","","","","",""
"796","243351","SARL_v6","SARL_v6vmf4wfk0","5a3bdd2c8d005a0001829f3e","freqPrac_resp","","","img/blue_2bandit_b.png","70","img/blue_2bandit_b.png","70","prac","","","","","","","","","","","","","","","","","","","",""
"null","243505","SARL_v6","SARL_v6vmf4wfk0","5a3bdd2c8d005a0001829f3e","fixation","","","img/fixation.png","null","","","prac","","","","","","","","","","","","","","","","","","","",""
"581.0999999940395","244088","SARL_v6","SARL_v6vmf4wfk0","5a3bdd2c8d005a0001829f3e","infreqPrac","","","img/orange_2bandit_b2.png","68","img/orange_2bandit_b2.png","68","prac","1","0","","","","","","","","","","","","","","","","","",""
"581.0999999940395","244321","SARL_v6","SARL_v6vmf4wfk0","5a3bdd2c8d005a0001829f3e","infreqPrac_resp","","","img/orange_2bandit_b.png","68","img/orange_2bandit_b.png","68","prac","","","","","","","","","","","","","","","","","","","",""
"null","244476","SARL_v6","SARL_v6vmf4wfk0","5a3bdd2c8d005a0001829f3e","fixation","","","img/fixation.png","null","","","prac","","","","","","","","","","","","","","","","","","","",""
"449.5","244927","SARL_v6","SARL_v6vmf4wfk0","5a3bdd2c8d005a0001829f3e","freqPrac","","","img/blue_2bandit_b2.png","70","img/blue_2bandit_b2.png","70","prac","1","0","","","","","","","","","","","","","","","","","",""
"449.5","245292","SARL_v6","SARL_v6vmf4wfk0","5a3bdd2c8d005a0001829f3e","freqPrac_resp","","","img/blue_2bandit_b.png","70","img/blue_2bandit_b.png","70","prac","","","","","","","","","","","","","","","","","","","",""
"null","245450","SARL_v6","SARL_v6vmf4wfk0","5a3bdd2c8d005a0001829f3e","fixation","","","img/fixation.png","null","","","prac","","","","","","","","","","","","","","","","","","","",""
"475.59999999403954","245928","SARL_v6","SARL_v6vmf4wfk0","5a3bdd2c8d005a0001829f3e","infreqPrac","","","img/orange_2bandit_b2.png","68","img/orange_2bandit_b2.png","68","prac","1","0","","","","","","","","","","","","","","","","","",""
"475.59999999403954","246265","SARL_v6","SARL_v6vmf4wfk0","5a3bdd2c8d005a0001829f3e","infreqPrac_resp","","","img/orange_2bandit_b.png","68","img/orange_2bandit_b.png","68","prac","","","","","","","","","","","","","","","","","","","",""
"null","246422","SARL_v6","SARL_v6vmf4wfk0","5a3bdd2c8d005a0001829f3e","fixation","","","img/fixation.png","null","","","prac","","","","","","","","","","","","","","","","","","","",""
"351.80000001192093","246776","SARL_v6","SARL_v6vmf4wfk0","5a3bdd2c8d005a0001829f3e","infreqPrac","","","img/orange_2bandit_b2.png","68","img/orange_2bandit_b2.png","68","prac","1","0","","","","","","","","","","","","","","","","","",""
"351.80000001192093","247241","SARL_v6","SARL_v6vmf4wfk0","5a3bdd2c8d005a0001829f3e","infreqPrac_resp","","","img/orange_2bandit_b.png","68","img/orange_2bandit_b.png","68","prac","","","","","","","","","","","","","","","","","","","",""
"null","247400","SARL_v6","SARL_v6vmf4wfk0","5a3bdd2c8d005a0001829f3e","fixation","","","img/fixation.png","null","","","prac","","","","","","","","","","","","","","","","","","","",""
"301.19999998807907","247703","SARL_v6","SARL_v6vmf4wfk0","5a3bdd2c8d005a0001829f3e","infreqPrac","","","img/orange_2bandit_b2.png","68","img/orange_2bandit_b2.png","68","prac","1","0","","","","","","","","","","","","","","","","","",""
"301.19999998807907","248219","SARL_v6","SARL_v6vmf4wfk0","5a3bdd2c8d005a0001829f3e","infreqPrac_resp","","","img/orange_2bandit_b.png","68","img/orange_2bandit_b.png","68","prac","","","","","","","","","","","","","","","","","","","",""
"null","248373","SARL_v6","SARL_v6vmf4wfk0","5a3bdd2c8d005a0001829f3e","fixation","","","img/fixation.png","null","","","prac","","","","","","","","","","","","","","","","","","","",""
"432.90000000596046","248808","SARL_v6","SARL_v6vmf4wfk0","5a3bdd2c8d005a0001829f3e","freqPrac","","","img/blue_2bandit_b2.png","70","img/blue_2bandit_b2.png","70","prac","1","0","","","","","","","","","","","","","","","","","",""
"432.90000000596046","249190","SARL_v6","SARL_v6vmf4wfk0","5a3bdd2c8d005a0001829f3e","freqPrac_resp","","","img/blue_2bandit_b.png","70","img/blue_2bandit_b.png","70","prac","","","","","","","","","","","","","","","","","","","",""
"null","249345","SARL_v6","SARL_v6vmf4wfk0","5a3bdd2c8d005a0001829f3e","fixation","","","img/fixation.png","null","","","prac","","","","","","","","","","","","","","","","","","","",""
"460.09999999403954","249807","SARL_v6","SARL_v6vmf4wfk0","5a3bdd2c8d005a0001829f3e","infreqPrac","","","img/orange_2bandit_b2.png","68","img/orange_2bandit_b2.png","68","prac","1","0","","","","","","","","","","","","","","","","","",""
"460.09999999403954","250161","SARL_v6","SARL_v6vmf4wfk0","5a3bdd2c8d005a0001829f3e","infreqPrac_resp","","","img/orange_2bandit_b.png","68","img/orange_2bandit_b.png","68","prac","","","","","","","","","","","","","","","","","","","",""
"null","250316","SARL_v6","SARL_v6vmf4wfk0","5a3bdd2c8d005a0001829f3e","fixation","","","img/fixation.png","null","","","prac","","","","","","","","","","","","","","","","","","","",""
"409.80000001192093","250728","SARL_v6","SARL_v6vmf4wfk0","5a3bdd2c8d005a0001829f3e","freqPrac","","","img/blue_2bandit_b2.png","70","img/blue_2bandit_b2.png","70","prac","1","0","","","","","","","","","","","","","","","","","",""
"409.80000001192093","251134","SARL_v6","SARL_v6vmf4wfk0","5a3bdd2c8d005a0001829f3e","freqPrac_resp","","","img/blue_2bandit_b.png","70","img/blue_2bandit_b.png","70","prac","","","","","","","","","","","","","","","","","","","",""
"null","251290","SARL_v6","SARL_v6vmf4wfk0","5a3bdd2c8d005a0001829f3e","fixation","","","img/fixation.png","null","","","prac","","","","","","","","","","","","","","","","","","","",""
"372.19999998807907","251664","SARL_v6","SARL_v6vmf4wfk0","5a3bdd2c8d005a0001829f3e","freqPrac","","","img/blue_2bandit_b2.png","70","img/blue_2bandit_b2.png","70","prac","1","0","","","","","","","","","","","","","","","","","",""
"372.19999998807907","252094","SARL_v6","SARL_v6vmf4wfk0","5a3bdd2c8d005a0001829f3e","freqPrac_resp","","","img/blue_2bandit_b.png","70","img/blue_2bandit_b.png","70","prac","","","","","","","","","","","","","","","","","","","",""
"null","252254","SARL_v6","SARL_v6vmf4wfk0","5a3bdd2c8d005a0001829f3e","fixation","","","img/fixation.png","null","","","prac","","","","","","","","","","","","","","","","","","","",""
"40768.40000000596","293024","SARL_v6","SARL_v6vmf4wfk0","5a3bdd2c8d005a0001829f3e","","","","","","","","prac","","","","","","","","","","","","","","","","","","","",""
"557.6999999880791","293584","SARL_v6","SARL_v6vmf4wfk0","5a3bdd2c8d005a0001829f3e","rlPractice","","","img/black_2bandit_b2.png","74","img/black_2bandit_b2.png","","prac","","","0","","","","","","","","","","","","","","","","",""
"null","294341","SARL_v6","SARL_v6vmf4wfk0","5a3bdd2c8d005a0001829f3e","feedback","","","<div class=""veryhighPoints""> 10 </div>","null","","na","prac","","","1","10","-14","10","","","","","","","","","","","","","",""
"null","294500","SARL_v6","SARL_v6vmf4wfk0","5a3bdd2c8d005a0001829f3e","fixation","","","img/fixation.png","null","","","prac","","","","","","","","","","","","","","","","","","","",""
"569.4000000059605","295072","SARL_v6","SARL_v6vmf4wfk0","5a3bdd2c8d005a0001829f3e","rlPractice","","","img/black_2bandit_b2.png","75","img/black_2bandit_b2.png","","prac","","","1","","","","","","","","","","","","","","","","",""
"null","295840","SARL_v6","SARL_v6vmf4wfk0","5a3bdd2c8d005a0001829f3e","feedback","","","<div class=""verylowPoints_sq""> -5 </div>","null","","na","prac","","","2","5","-5","5","","","","","","","","","","","","","",""
"null","296000","SARL_v6","SARL_v6vmf4wfk0","5a3bdd2c8d005a0001829f3e","fixation","","","img/fixation.png","null","","","prac","","","","","","","","","","","","","","","","","","","",""
"373.7999999821186","296376","SARL_v6","SARL_v6vmf4wfk0","5a3bdd2c8d005a0001829f3e","rlPractice","","","img/black_2bandit_b2.png","74","img/black_2bandit_b2.png","","prac","","","2","","","","","","","","","","","","","","","","",""
"null","297135","SARL_v6","SARL_v6vmf4wfk0","5a3bdd2c8d005a0001829f3e","feedback","","","<div class=""veryhighPoints""> 30 </div>","null","","na","prac","","","3","30","2","30","","","","","","","","","","","","","",""
"null","297292","SARL_v6","SARL_v6vmf4wfk0","5a3bdd2c8d005a0001829f3e","fixation","","","img/fixation.png","null","","","prac","","","","","","","","","","","","","","","","","","","",""
"402.09999999403954","297696","SARL_v6","SARL_v6vmf4wfk0","5a3bdd2c8d005a0001829f3e","rlPractice","","","img/black_2bandit_b2.png","74","img/black_2bandit_b2.png","","prac","","","3","","","","","","","","","","","","","","","","",""
"null","298457","SARL_v6","SARL_v6vmf4wfk0","5a3bdd2c8d005a0001829f3e","feedback","","","<div class=""verylowPoints""> -2 </div>","null","","na","prac","","","4","-2","20","-2","","","","","","","","","","","","","",""
"null","298609","SARL_v6","SARL_v6vmf4wfk0","5a3bdd2c8d005a0001829f3e","fixation","","","img/fixation.png","null","","","prac","","","","","","","","","","","","","","","","","","","",""
"18509.69999998808","317121","SARL_v6","SARL_v6vmf4wfk0","5a3bdd2c8d005a0001829f3e","","","","","","","","prac","","","","","","","","","","","","","","","","","","","",""
"null","317936","SARL_v6","SARL_v6vmf4wfk0","5a3bdd2c8d005a0001829f3e","mixAttFreqPrac","","","img/blue_2bandit_b2.png","null","img/blue_2bandit_b2.png","70","prac","","","1","","","","","","","","","","","","","","","","",""
"null","318096","SARL_v6","SARL_v6vmf4wfk0","5a3bdd2c8d005a0001829f3e","fixation","","","img/fixation.png","null","","","prac","","","","","","","","","","","","","","","","","","","",""
"678.1999999880791","318776","SARL_v6","SARL_v6vmf4wfk0","5a3bdd2c8d005a0001829f3e","mixAttInfreqPrac","","","img/orange_2bandit_b2.png","70","img/orange_2bandit_b2.png","68","prac","","","2","","","","","","","","","","","","","","","","",""
"678.1999999880791","318908","SARL_v6","SARL_v6vmf4wfk0","5a3bdd2c8d005a0001829f3e","infreqPrac_resp","","","img/orange_2bandit_b.png","70","img/blue_2bandit_b.png","68","prac","","","2","","","","","","","","","","","","","","","","",""
"null","319061","SARL_v6","SARL_v6vmf4wfk0","5a3bdd2c8d005a0001829f3e","fixation","","","img/fixation.png","null","","","prac","","","","","","","","","","","","","","","","","","","",""
"689.9000000059605","319752","SARL_v6","SARL_v6vmf4wfk0","5a3bdd2c8d005a0001829f3e","mixAttInfreqPrac","","","img/orange_2bandit_b2.png","68","img/orange_2bandit_b2.png","68","prac","","","3","","","","","","","","","","","","","","","","",""
"689.9000000059605","319866","SARL_v6","SARL_v6vmf4wfk0","5a3bdd2c8d005a0001829f3e","infreqPrac_resp","","","img/orange_2bandit_b.png","68","img/blue_2bandit_b.png","68","prac","","","3","","","","","","","","","","","","","","","","",""
"null","320022","SARL_v6","SARL_v6vmf4wfk0","5a3bdd2c8d005a0001829f3e","fixation","","","img/fixation.png","null","","","prac","","","","","","","","","","","","","","","","","","","",""
"496.30000001192093","320520","SARL_v6","SARL_v6vmf4wfk0","5a3bdd2c8d005a0001829f3e","mixAttInfreqPrac","","","img/orange_2bandit_b2.png","68","img/orange_2bandit_b2.png","68","prac","","","4","","","","","","","","","","","","","","","","",""
"496.30000001192093","320840","SARL_v6","SARL_v6vmf4wfk0","5a3bdd2c8d005a0001829f3e","infreqPrac_resp","","","img/orange_2bandit_b.png","68","img/blue_2bandit_b.png","68","prac","","","4","","","","","","","","","","","","","","","","",""
"null","320993","SARL_v6","SARL_v6vmf4wfk0","5a3bdd2c8d005a0001829f3e","fixation","","","img/fixation.png","null","","","prac","","","","","","","","","","","","","","","","","","","",""
"541.7999999821186","321536","SARL_v6","SARL_v6vmf4wfk0","5a3bdd2c8d005a0001829f3e","mixAttFreqPrac","","","img/blue_2bandit_b2.png","70","img/blue_2bandit_b2.png","70","prac","","","5","","","","","","","","","","","","","","","","",""
"541.7999999821186","321801","SARL_v6","SARL_v6vmf4wfk0","5a3bdd2c8d005a0001829f3e","freqPrac_resp","","","img/blue_2bandit_b.png","70","img/blue_2bandit_b.png","70","prac","","","5","","","","","","","","","","","","","","","","",""
"null","321955","SARL_v6","SARL_v6vmf4wfk0","5a3bdd2c8d005a0001829f3e","fixation","","","img/fixation.png","null","","","prac","","","","","","","","","","","","","","","","","","","",""
"939.3000000119209","322896","SARL_v6","SARL_v6vmf4wfk0","5a3bdd2c8d005a0001829f3e","mixRLPractice","","","img/black_2bandit_b2.png","74","img/black_2bandit_b2.png","","prac","","","5","","","","","","","","","","","","","","","","",""
"null","323654","SARL_v6","SARL_v6vmf4wfk0","5a3bdd2c8d005a0001829f3e","feedback","","","<div class=""verylowPoints""> -14 </div>","null","","na","prac","","","6","-14","10","-14","","","","","","","","","","","","","",""
"null","323809","SARL_v6","SARL_v6vmf4wfk0","5a3bdd2c8d005a0001829f3e","fixation","","","img/fixation.png","null","","","prac","","","","","","","","","","","","","","","","","","","",""
"677.7000000178814","324489","SARL_v6","SARL_v6vmf4wfk0","5a3bdd2c8d005a0001829f3e","mixAttFreqPrac","","","img/blue_2bandit_b2.png","70","img/blue_2bandit_b2.png","70","prac","","","7","","","","","","","","","","","","","","","","",""
"677.7000000178814","324615","SARL_v6","SARL_v6vmf4wfk0","5a3bdd2c8d005a0001829f3e","freqPrac_resp","","","img/blue_2bandit_b.png","70","img/blue_2bandit_b.png","70","prac","","","7","","","","","","","","","","","","","","","","",""
"null","324768","SARL_v6","SARL_v6vmf4wfk0","5a3bdd2c8d005a0001829f3e","fixation","","","img/fixation.png","null","","","prac","","","","","","","","","","","","","","","","","","","",""
"486.2999999821186","325256","SARL_v6","SARL_v6vmf4wfk0","5a3bdd2c8d005a0001829f3e","mixAttInfreqPrac","","","img/orange_2bandit_b2.png","68","img/orange_2bandit_b2.png","68","prac","","","8","","","","","","","","","","","","","","","","",""
"486.2999999821186","325582","SARL_v6","SARL_v6vmf4wfk0","5a3bdd2c8d005a0001829f3e","infreqPrac_resp","","","img/orange_2bandit_b.png","68","img/blue_2bandit_b.png","68","prac","","","8","","","","","","","","","","","","","","","","",""
"null","325738","SARL_v6","SARL_v6vmf4wfk0","5a3bdd2c8d005a0001829f3e","fixation","","","img/fixation.png","null","","","prac","","","","","","","","","","","","","","","","","","","",""
"524.5999999940395","326265","SARL_v6","SARL_v6vmf4wfk0","5a3bdd2c8d005a0001829f3e","mixAttFreqPrac","","","img/blue_2bandit_b2.png","70","img/blue_2bandit_b2.png","70","prac","","","9","","","","","","","","","","","","","","","","",""
"524.5999999940395","326556","SARL_v6","SARL_v6vmf4wfk0","5a3bdd2c8d005a0001829f3e","freqPrac_resp","","","img/blue_2bandit_b.png","70","img/blue_2bandit_b.png","70","prac","","","9","","","","","","","","","","","","","","","","",""
"null","326711","SARL_v6","SARL_v6vmf4wfk0","5a3bdd2c8d005a0001829f3e","fixation","","","img/fixation.png","null","","","prac","","","","","","","","","","","","","","","","","","","",""
"543.0999999940395","327256","SARL_v6","SARL_v6vmf4wfk0","5a3bdd2c8d005a0001829f3e","mixAttFreqPrac","","","img/blue_2bandit_b2.png","70","img/blue_2bandit_b2.png","70","prac","","","10","","","","","","","","","","","","","","","","",""
"543.0999999940395","327540","SARL_v6","SARL_v6vmf4wfk0","5a3bdd2c8d005a0001829f3e","freqPrac_resp","","","img/blue_2bandit_b.png","70","img/blue_2bandit_b.png","70","prac","","","10","","","","","","","","","","","","","","","","",""
"null","327692","SARL_v6","SARL_v6vmf4wfk0","5a3bdd2c8d005a0001829f3e","fixation","","","img/fixation.png","null","","","prac","","","","","","","","","","","","","","","","","","","",""
"641.5","328336","SARL_v6","SARL_v6vmf4wfk0","5a3bdd2c8d005a0001829f3e","mixAttInfreqPrac","","","img/orange_2bandit_b2.png","68","img/orange_2bandit_b2.png","68","prac","","","11","","","","","","","","","","","","","","","","",""
"641.5","328506","SARL_v6","SARL_v6vmf4wfk0","5a3bdd2c8d005a0001829f3e","infreqPrac_resp","","","img/orange_2bandit_b.png","68","img/blue_2bandit_b.png","68","prac","","","11","","","","","","","","","","","","","","","","",""
"null","328658","SARL_v6","SARL_v6vmf4wfk0","5a3bdd2c8d005a0001829f3e","fixation","","","img/fixation.png","null","","","prac","","","","","","","","","","","","","","","","","","","",""
"659.5999999940395","329320","SARL_v6","SARL_v6vmf4wfk0","5a3bdd2c8d005a0001829f3e","mixRLPractice","","","img/black_2bandit_b2.png","75","img/black_2bandit_b2.png","","prac","","","11","","","","","","","","","","","","","","","","",""
"null","330079","SARL_v6","SARL_v6vmf4wfk0","5a3bdd2c8d005a0001829f3e","feedback","","","<div class=""verylowPoints_sq""> -5 </div>","null","","na","prac","","","12","5","-5","5","","","","","","","","","","","","","",""
"null","330238","SARL_v6","SARL_v6vmf4wfk0","5a3bdd2c8d005a0001829f3e","fixation","","","img/fixation.png","null","","","prac","","","","","","","","","","","","","","","","","","","",""
"24889.5","355129","SARL_v6","SARL_v6vmf4wfk0","5a3bdd2c8d005a0001829f3e","","","","","","","","prac","","","","","","","","","","","","","","","","","","","",""
"669.3000000119209","355801","SARL_v6","SARL_v6vmf4wfk0","5a3bdd2c8d005a0001829f3e","freq","","","img/blue_2bandit_b2.png","70","","70","test","1","","1","","","","circle","square","1","1","1","1","","","","","","","",""
"null","355941","SARL_v6","SARL_v6vmf4wfk0","5a3bdd2c8d005a0001829f3e","freq_resp","","","img/blue_2bandit_b.png","70","img/blue_2bandit_b.png","70","test","","","","","","","","","","","1","","","","","","","","",""
"null","356094","SARL_v6","SARL_v6vmf4wfk0","5a3bdd2c8d005a0001829f3e","fixation","","","img/fixation.png","null","","","test","","","","","","","","","","","","","","","","","","","",""
"641.6999999880791","356737","SARL_v6","SARL_v6vmf4wfk0","5a3bdd2c8d005a0001829f3e","freq","","","img/blue_2bandit_b2.png","70","","70","test","1","","2","","","","circle","square","2","2","1","1","","","","","","","",""
"null","356905","SARL_v6","SARL_v6vmf4wfk0","5a3bdd2c8d005a0001829f3e","freq_resp","","","img/blue_2bandit_b.png","70","img/blue_2bandit_b.png","70","test","","","","","","","","","","","1","","","","","","","","",""
"null","357062","SARL_v6","SARL_v6vmf4wfk0","5a3bdd2c8d005a0001829f3e","fixation","","","img/fixation.png","null","","","test","","","","","","","","","","","","","","","","","","","",""
"504.59999999403954","357569","SARL_v6","SARL_v6vmf4wfk0","5a3bdd2c8d005a0001829f3e","freq","","","img/blue_2bandit_b2.png","70","","70","test","1","","3","","","","circle","square","3","3","1","1","","","","","","","",""
"null","357882","SARL_v6","SARL_v6vmf4wfk0","5a3bdd2c8d005a0001829f3e","freq_resp","","","img/blue_2bandit_b.png","70","img/blue_2bandit_b.png","70","test","","","","","","","","","","","1","","","","","","","","",""
"null","358039","SARL_v6","SARL_v6vmf4wfk0","5a3bdd2c8d005a0001829f3e","fixation","","","img/fixation.png","null","","","test","","","","","","","","","","","","","","","","","","","",""
"399.09999999403954","358440","SARL_v6","SARL_v6vmf4wfk0","5a3bdd2c8d005a0001829f3e","freq","","","img/blue_2bandit_b2.png","70","","70","test","1","","4","","","","circle","square","4","4","1","1","","","","","","","",""
"null","358844","SARL_v6","SARL_v6vmf4wfk0","5a3bdd2c8d005a0001829f3e","freq_resp","","","img/blue_2bandit_b.png","70","img/blue_2bandit_b.png","70","test","","","","","","","","","","","1","","","","","","","","",""
"null","359001","SARL_v6","SARL_v6vmf4wfk0","5a3bdd2c8d005a0001829f3e","fixation","","","img/fixation.png","null","","","test","","","","","","","","","","","","","","","","","","","",""
"381.59999999403954","359384","SARL_v6","SARL_v6vmf4wfk0","5a3bdd2c8d005a0001829f3e","infreq","","","img/orange_2bandit_b2.png","68","","68","test","1","","5","","","","circle","square","5","5","1","1","","","","","","","",""
"null","359810","SARL_v6","SARL_v6vmf4wfk0","5a3bdd2c8d005a0001829f3e","infreq_resp","","","img/orange_2bandit_b.png","68","img/orange_2bandit_b.png","68","test","","","","","","","","","","","1","","","","","","","","",""
"null","359968","SARL_v6","SARL_v6vmf4wfk0","5a3bdd2c8d005a0001829f3e","fixation","","","img/fixation.png","null","","","test","","","","","","","","","","","","","","","","","","","",""
"678.5999999940395","360649","SARL_v6","SARL_v6vmf4wfk0","5a3bdd2c8d005a0001829f3e","freq","","","img/blue_2bandit_b2.png","70","","70","test","1","","6","","","","circle","square","6","6","1","1","","","","","","","",""
"null","360786","SARL_v6","SARL_v6vmf4wfk0","5a3bdd2c8d005a0001829f3e","freq_resp","","","img/blue_2bandit_b.png","70","img/blue_2bandit_b.png","70","test","","","","","","","","","","","1","","","","","","","","",""
"null","360941","SARL_v6","SARL_v6vmf4wfk0","5a3bdd2c8d005a0001829f3e","fixation","","","img/fixation.png","null","","","test","","","","","","","","","","","","","","","","","","","",""
"521.4000000059605","361465","SARL_v6","SARL_v6vmf4wfk0","5a3bdd2c8d005a0001829f3e","freq","","","img/blue_2bandit_b2.png","70","","70","test","1","","7","","","","circle","square","7","7","1","1","","","","","","","",""
"null","361757","SARL_v6","SARL_v6vmf4wfk0","5a3bdd2c8d005a0001829f3e","freq_resp","","","img/blue_2bandit_b.png","70","img/blue_2bandit_b.png","70","test","","","","","","","","","","","1","","","","","","","","",""
"null","361910","SARL_v6","SARL_v6vmf4wfk0","5a3bdd2c8d005a0001829f3e","fixation","","","img/fixation.png","null","","","test","","","","","","","","","","","","","","","","","","","",""
"417.19999998807907","362329","SARL_v6","SARL_v6vmf4wfk0","5a3bdd2c8d005a0001829f3e","freq","","","img/blue_2bandit_b2.png","70","","70","test","1","","8","","","","circle","square","8","8","1","1","","","","","","","",""
"null","362728","SARL_v6","SARL_v6vmf4wfk0","5a3bdd2c8d005a0001829f3e","freq_resp","","","img/blue_2bandit_b.png","70","img/blue_2bandit_b.png","70","test","","","","","","","","","","","1","","","","","","","","",""
"null","362884","SARL_v6","SARL_v6vmf4wfk0","5a3bdd2c8d005a0001829f3e","fixation","","","img/fixation.png","null","","","test","","","","","","","","","","","","","","","","","","","",""
"472","363358","SARL_v6","SARL_v6vmf4wfk0","5a3bdd2c8d005a0001829f3e","freq","","","img/blue_2bandit_b2.png","70","","70","test","1","","9","","","","circle","square","9","9","1","1","","","","","","","",""
"null","363689","SARL_v6","SARL_v6vmf4wfk0","5a3bdd2c8d005a0001829f3e","freq_resp","","","img/blue_2bandit_b.png","70","img/blue_2bandit_b.png","70","test","","","","","","","","","","","1","","","","","","","","",""
"null","363841","SARL_v6","SARL_v6vmf4wfk0","5a3bdd2c8d005a0001829f3e","fixation","","","img/fixation.png","null","","","test","","","","","","","","","","","","","","","","","","","",""
"365.90000000596046","364209","SARL_v6","SARL_v6vmf4wfk0","5a3bdd2c8d005a0001829f3e","freq","","","img/blue_2bandit_b2.png","70","","70","test","1","","10","","","","circle","square","10","10","1","1","","","","","","","",""
"null","364647","SARL_v6","SARL_v6vmf4wfk0","5a3bdd2c8d005a0001829f3e","freq_resp","","","img/blue_2bandit_b.png","70","img/blue_2bandit_b.png","70","test","","","","","","","","","","","1","","","","","","","","",""
"null","364803","SARL_v6","SARL_v6vmf4wfk0","5a3bdd2c8d005a0001829f3e","fixation","","","img/fixation.png","null","","","test","","","","","","","","","","","","","","","","","","","",""
"548.6000000238419","365354","SARL_v6","SARL_v6vmf4wfk0","5a3bdd2c8d005a0001829f3e","freq","","","img/blue_2bandit_b2.png","70","","70","test","1","","11","","","","circle","square","11","11","1","1","","","","","","","",""
"null","365621","SARL_v6","SARL_v6vmf4wfk0","5a3bdd2c8d005a0001829f3e","freq_resp","","","img/blue_2bandit_b.png","70","img/blue_2bandit_b.png","70","test","","","","","","","","","","","1","","","","","","","","",""
"null","365777","SARL_v6","SARL_v6vmf4wfk0","5a3bdd2c8d005a0001829f3e","fixation","","","img/fixation.png","null","","","test","","","","","","","","","","","","","","","","","","","",""
"501.59999999403954","366281","SARL_v6","SARL_v6vmf4wfk0","5a3bdd2c8d005a0001829f3e","freq","","","img/blue_2bandit_b2.png","70","","70","test","1","","12","","","","circle","square","12","12","1","1","","","","","","","",""
"null","366581","SARL_v6","SARL_v6vmf4wfk0","5a3bdd2c8d005a0001829f3e","freq_resp","","","img/blue_2bandit_b.png","70","img/blue_2bandit_b.png","70","test","","","","","","","","","","","1","","","","","","","","",""
"null","366741","SARL_v6","SARL_v6vmf4wfk0","5a3bdd2c8d005a0001829f3e","fixation","","","img/fixation.png","null","","","test","","","","","","","","","","","","","","","","","","","",""
"369.69999998807907","367113","SARL_v6","SARL_v6vmf4wfk0","5a3bdd2c8d005a0001829f3e","freq","","","img/blue_2bandit_b2.png","70","","70","test","1","","13","","","","circle","square","13","13","1","1","","","","","","","",""
"null","367549","SARL_v6","SARL_v6vmf4wfk0","5a3bdd2c8d005a0001829f3e","freq_resp","","","img/blue_2bandit_b.png","70","img/blue_2bandit_b.png","70","test","","","","","","","","","","","1","","","","","","","","",""
"null","367705","SARL_v6","SARL_v6vmf4wfk0","5a3bdd2c8d005a0001829f3e","fixation","","","img/fixation.png","null","","","test","","","","","","","","","","","","","","","","","","","",""
"366.5","368073","SARL_v6","SARL_v6vmf4wfk0","5a3bdd2c8d005a0001829f3e","freq","","","img/blue_2bandit_b2.png","70","","70","test","1","","14","","","","circle","square","14","14","1","1","","","","","","","",""
"null","368522","SARL_v6","SARL_v6vmf4wfk0","5a3bdd2c8d005a0001829f3e","freq_resp","","","img/blue_2bandit_b.png","70","img/blue_2bandit_b.png","70","test","","","","","","","","","","","1","","","","","","","","",""
"null","368679","SARL_v6","SARL_v6vmf4wfk0","5a3bdd2c8d005a0001829f3e","fixation","","","img/fixation.png","null","","","test","","","","","","","","","","","","","","","","","","","",""
"311.59999999403954","368993","SARL_v6","SARL_v6vmf4wfk0","5a3bdd2c8d005a0001829f3e","freq","","","img/blue_2bandit_b2.png","70","","70","test","1","","15","","","","circle","square","15","15","1","1","","","","","","","",""
"null","369494","SARL_v6","SARL_v6vmf4wfk0","5a3bdd2c8d005a0001829f3e","freq_resp","","","img/blue_2bandit_b.png","70","img/blue_2bandit_b.png","70","test","","","","","","","","","","","1","","","","","","","","",""
"null","369646","SARL_v6","SARL_v6vmf4wfk0","5a3bdd2c8d005a0001829f3e","fixation","","","img/fixation.png","null","","","test","","","","","","","","","","","","","","","","","","","",""
"513","370161","SARL_v6","SARL_v6vmf4wfk0","5a3bdd2c8d005a0001829f3e","freq","","","img/blue_2bandit_b2.png","70","","70","test","1","","16","","","","circle","square","16","16","1","1","","","","","","","",""
"null","370455","SARL_v6","SARL_v6vmf4wfk0","5a3bdd2c8d005a0001829f3e","freq_resp","","","img/blue_2bandit_b.png","70","img/blue_2bandit_b.png","70","test","","","","","","","","","","","1","","","","","","","","",""
"null","370611","SARL_v6","SARL_v6vmf4wfk0","5a3bdd2c8d005a0001829f3e","fixation","","","img/fixation.png","null","","","test","","","","","","","","","","","","","","","","","","","",""
"483.90000000596046","371097","SARL_v6","SARL_v6vmf4wfk0","5a3bdd2c8d005a0001829f3e","infreq","","","img/orange_2bandit_b2.png","68","","68","test","1","","17","","","","circle","square","17","17","1","1","","","","","","","",""
"null","371424","SARL_v6","SARL_v6vmf4wfk0","5a3bdd2c8d005a0001829f3e","infreq_resp","","","img/orange_2bandit_b.png","68","img/orange_2bandit_b.png","68","test","","","","","","","","","","","1","","","","","","","","",""
"null","371582","SARL_v6","SARL_v6vmf4wfk0","5a3bdd2c8d005a0001829f3e","fixation","","","img/fixation.png","null","","","test","","","","","","","","","","","","","","","","","","","",""
"505","372089","SARL_v6","SARL_v6vmf4wfk0","5a3bdd2c8d005a0001829f3e","freq","","","img/blue_2bandit_b2.png","70","","70","test","1","","18","","","","circle","square","18","18","1","1","","","","","","","",""
"null","372391","SARL_v6","SARL_v6vmf4wfk0","5a3bdd2c8d005a0001829f3e","freq_resp","","","img/blue_2bandit_b.png","70","img/blue_2bandit_b.png","70","test","","","","","","","","","","","1","","","","","","","","",""
"null","372543","SARL_v6","SARL_v6vmf4wfk0","5a3bdd2c8d005a0001829f3e","fixation","","","img/fixation.png","null","","","test","","","","","","","","","","","","","","","","","","","",""
"408.09999999403954","372953","SARL_v6","SARL_v6vmf4wfk0","5a3bdd2c8d005a0001829f3e","freq","","","img/blue_2bandit_b2.png","70","","70","test","1","","19","","","","circle","square","19","19","1","1","","","","","","","",""
"null","373352","SARL_v6","SARL_v6vmf4wfk0","5a3bdd2c8d005a0001829f3e","freq_resp","","","img/blue_2bandit_b.png","70","img/blue_2bandit_b.png","70","test","","","","","","","","","","","1","","","","","","","","",""
"null","373508","SARL_v6","SARL_v6vmf4wfk0","5a3bdd2c8d005a0001829f3e","fixation","","","img/fixation.png","null","","","test","","","","","","","","","","","","","","","","","","","",""
"1051.0999999940395","374561","SARL_v6","SARL_v6vmf4wfk0","5a3bdd2c8d005a0001829f3e","rl","","","img/black_2bandit_b2.png","75","","0","test","","","20","","","-3","circle","square","","0","1","","75","-3","-3","-3","-3","square","1","0"
"null","375322","SARL_v6","SARL_v6vmf4wfk0","5a3bdd2c8d005a0001829f3e","feedback","","","<div class=""verylowPoints_sq""> -3 </div>","null","","na","test","","","NaN","","","","","","","","1","","75","","","","","","1",""
"null","376139","SARL_v6","SARL_v6vmf4wfk0","5a3bdd2c8d005a0001829f3e","freq","","","img/blue_2bandit_b2.png","null","","70","test","0","","21","","","","circle","square","20","1","2","0.95","","","","","","","",""
"null","376299","SARL_v6","SARL_v6vmf4wfk0","5a3bdd2c8d005a0001829f3e","fixation","","","img/fixation.png","null","","","test","","","","","","","","","","","","","","","","","","","",""
"75.80000001192093","376377","SARL_v6","SARL_v6vmf4wfk0","5a3bdd2c8d005a0001829f3e","freq","","","img/blue_2bandit_b2.png","70","","70","test","1","","22","","","","circle","square","21","2","2","0.9523809523809523","","","","","","","",""
"null","377112","SARL_v6","SARL_v6vmf4wfk0","5a3bdd2c8d005a0001829f3e","freq_resp","","","img/blue_2bandit_b.png","70","img/blue_2bandit_b.png","70","test","","","","","","","","","","","2","","","","","","","","",""
"null","377285","SARL_v6","SARL_v6vmf4wfk0","5a3bdd2c8d005a0001829f3e","fixation","","","img/fixation.png","null","","","test","","","","","","","","","","","","","","","","","","","",""
"14.900000005960464","377305","SARL_v6","SARL_v6vmf4wfk0","5a3bdd2c8d005a0001829f3e","freq","","","img/blue_2bandit_b2.png","70","","70","test","1","","23","","","","circle","square","22","3","2","0.9545454545454546","","","","","","","",""
"null","378098","SARL_v6","SARL_v6vmf4wfk0","5a3bdd2c8d005a0001829f3e","freq_resp","","","img/blue_2bandit_b.png","70","img/blue_2bandit_b.png","70","test","","","","","","","","","","","2","","","","","","","","",""
"null","378259","SARL_v6","SARL_v6vmf4wfk0","5a3bdd2c8d005a0001829f3e","fixation","","","img/fixation.png","null","","","test","","","","","","","","","","","","","","","","","","","",""
"460.40000000596046","378721","SARL_v6","SARL_v6vmf4wfk0","5a3bdd2c8d005a0001829f3e","freq","","","img/blue_2bandit_b2.png","70","","70","test","1","","24","","","","circle","square","23","4","2","0.9565217391304348","","","","","","","",""
"null","379073","SARL_v6","SARL_v6vmf4wfk0","5a3bdd2c8d005a0001829f3e","freq_resp","","","img/blue_2bandit_b.png","70","img/blue_2bandit_b.png","70","test","","","","","","","","","","","2","","","","","","","","",""
"null","379232","SARL_v6","SARL_v6vmf4wfk0","5a3bdd2c8d005a0001829f3e","fixation","","","img/fixation.png","null","","","test","","","","","","","","","","","","","","","","","","","",""
"479.59999999403954","379713","SARL_v6","SARL_v6vmf4wfk0","5a3bdd2c8d005a0001829f3e","freq","","","img/blue_2bandit_b2.png","70","","70","test","1","","25","","","","circle","square","24","5","2","0.9583333333333334","","","","","","","",""
"null","380045","SARL_v6","SARL_v6vmf4wfk0","5a3bdd2c8d005a0001829f3e","freq_resp","","","img/blue_2bandit_b.png","70","img/blue_2bandit_b.png","70","test","","","","","","","","","","","2","","","","","","","","",""
"null","380205","SARL_v6","SARL_v6vmf4wfk0","5a3bdd2c8d005a0001829f3e","fixation","","","img/fixation.png","null","","","test","","","","","","","","","","","","","","","","","","","",""
"402.40000000596046","380609","SARL_v6","SARL_v6vmf4wfk0","5a3bdd2c8d005a0001829f3e","freq","","","img/blue_2bandit_b2.png","70","","70","test","1","","26","","","","circle","square","25","6","2","0.96","","","","","","","",""
"null","381019","SARL_v6","SARL_v6vmf4wfk0","5a3bdd2c8d005a0001829f3e","freq_resp","","","img/blue_2bandit_b.png","70","img/blue_2bandit_b.png","70","test","","","","","","","","","","","2","","","","","","","","",""
"null","381175","SARL_v6","SARL_v6vmf4wfk0","5a3bdd2c8d005a0001829f3e","fixation","","","img/fixation.png","null","","","test","","","","","","","","","","","","","","","","","","","",""
"343.69999998807907","381522","SARL_v6","SARL_v6vmf4wfk0","5a3bdd2c8d005a0001829f3e","freq","","","img/blue_2bandit_b2.png","70","","70","test","1","","27","","","","circle","square","26","7","2","0.9615384615384616","","","","","","","",""
"null","381993","SARL_v6","SARL_v6vmf4wfk0","5a3bdd2c8d005a0001829f3e","freq_resp","","","img/blue_2bandit_b.png","70","img/blue_2bandit_b.png","70","test","","","","","","","","","","","2","","","","","","","","",""
"null","382149","SARL_v6","SARL_v6vmf4wfk0","5a3bdd2c8d005a0001829f3e","fixation","","","img/fixation.png","null","","","test","","","","","","","","","","","","","","","","","","","",""
"378.09999999403954","382529","SARL_v6","SARL_v6vmf4wfk0","5a3bdd2c8d005a0001829f3e","freq","","","img/blue_2bandit_b2.png","70","","70","test","1","","28","","","","circle","square","27","8","2","0.9629629629629629","","","","","","","",""
"null","382961","SARL_v6","SARL_v6vmf4wfk0","5a3bdd2c8d005a0001829f3e","freq_resp","","","img/blue_2bandit_b.png","70","img/blue_2bandit_b.png","70","test","","","","","","","","","","","2","","","","","","","","",""
"null","383119","SARL_v6","SARL_v6vmf4wfk0","5a3bdd2c8d005a0001829f3e","fixation","","","img/fixation.png","null","","","test","","","","","","","","","","","","","","","","","","","",""
"744.5999999940395","383865","SARL_v6","SARL_v6vmf4wfk0","5a3bdd2c8d005a0001829f3e","freq","","","img/blue_2bandit_b2.png","70","","70","test","1","","29","","","","circle","square","28","9","2","0.9642857142857143","","","","","","","",""
"null","383937","SARL_v6","SARL_v6vmf4wfk0","5a3bdd2c8d005a0001829f3e","freq_resp","","","img/blue_2bandit_b.png","70","img/blue_2bandit_b.png","70","test","","","","","","","","","","","2","","","","","","","","",""
"null","384093","SARL_v6","SARL_v6vmf4wfk0","5a3bdd2c8d005a0001829f3e","fixation","","","img/fixation.png","null","","","test","","","","","","","","","","","","","","","","","","","",""
"410.2000000178814","384505","SARL_v6","SARL_v6vmf4wfk0","5a3bdd2c8d005a0001829f3e","freq","","","img/blue_2bandit_b2.png","70","","70","test","1","","30","","","","circle","square","29","10","2","0.9655172413793104","","","","","","","",""
"null","384906","SARL_v6","SARL_v6vmf4wfk0","5a3bdd2c8d005a0001829f3e","freq_resp","","","img/blue_2bandit_b.png","70","img/blue_2bandit_b.png","70","test","","","","","","","","","","","2","","","","","","","","",""
"null","385061","SARL_v6","SARL_v6vmf4wfk0","5a3bdd2c8d005a0001829f3e","fixation","","","img/fixation.png","null","","","test","","","","","","","","","","","","","","","","","","","",""
"353.30000001192093","385417","SARL_v6","SARL_v6vmf4wfk0","5a3bdd2c8d005a0001829f3e","freq","","","img/blue_2bandit_b2.png","70","","70","test","1","","31","","","","circle","square","30","11","2","0.9666666666666667","","","","","","","",""
"null","385880","SARL_v6","SARL_v6vmf4wfk0","5a3bdd2c8d005a0001829f3e","freq_resp","","","img/blue_2bandit_b.png","70","img/blue_2bandit_b.png","70","test","","","","","","","","","","","2","","","","","","","","",""
"null","386037","SARL_v6","SARL_v6vmf4wfk0","5a3bdd2c8d005a0001829f3e","fixation","","","img/fixation.png","null","","","test","","","","","","","","","","","","","","","","","","","",""
"378.2000000178814","386417","SARL_v6","SARL_v6vmf4wfk0","5a3bdd2c8d005a0001829f3e","freq","","","img/blue_2bandit_b2.png","70","","70","test","1","","32","","","","circle","square","31","12","2","0.967741935483871","","","","","","","",""
"null","386841","SARL_v6","SARL_v6vmf4wfk0","5a3bdd2c8d005a0001829f3e","freq_resp","","","img/blue_2bandit_b.png","70","img/blue_2bandit_b.png","70","test","","","","","","","","","","","2","","","","","","","","",""
"null","386997","SARL_v6","SARL_v6vmf4wfk0","5a3bdd2c8d005a0001829f3e","fixation","","","img/fixation.png","null","","","test","","","","","","","","","","","","","","","","","","","",""
"370.5","387370","SARL_v6","SARL_v6vmf4wfk0","5a3bdd2c8d005a0001829f3e","freq","","","img/blue_2bandit_b2.png","70","","70","test","1","","33","","","","circle","square","32","13","2","0.96875","","","","","","","",""
"null","387808","SARL_v6","SARL_v6vmf4wfk0","5a3bdd2c8d005a0001829f3e","freq_resp","","","img/blue_2bandit_b.png","70","img/blue_2bandit_b.png","70","test","","","","","","","","","","","2","","","","","","","","",""
"null","387965","SARL_v6","SARL_v6vmf4wfk0","5a3bdd2c8d005a0001829f3e","fixation","","","img/fixation.png","null","","","test","","","","","","","","","","","","","","","","","","","",""
"329.5","388297","SARL_v6","SARL_v6vmf4wfk0","5a3bdd2c8d005a0001829f3e","freq","","","img/blue_2bandit_b2.png","70","","70","test","1","","34","","","","circle","square","33","14","2","0.9696969696969697","","","","","","","",""
"null","388785","SARL_v6","SARL_v6vmf4wfk0","5a3bdd2c8d005a0001829f3e","freq_resp","","","img/blue_2bandit_b.png","70","img/blue_2bandit_b.png","70","test","","","","","","","","","","","2","","","","","","","","",""
"null","388939","SARL_v6","SARL_v6vmf4wfk0","5a3bdd2c8d005a0001829f3e","fixation","","","img/fixation.png","null","","","test","","","","","","","","","","","","","","","","","","","",""
"492.2000000178814","389433","SARL_v6","SARL_v6vmf4wfk0","5a3bdd2c8d005a0001829f3e","infreq","","","img/orange_2bandit_b2.png","68","","68","test","1","","35","","","","circle","square","34","15","2","0.9705882352941176","","","","","","","",""
"null","389756","SARL_v6","SARL_v6vmf4wfk0","5a3bdd2c8d005a0001829f3e","infreq_resp","","","img/orange_2bandit_b.png","68","img/orange_2bandit_b.png","68","test","","","","","","","","","","","2","","","","","","","","",""
"null","389911","SARL_v6","SARL_v6vmf4wfk0","5a3bdd2c8d005a0001829f3e","fixation","","","img/fixation.png","null","","","test","","","","","","","","","","","","","","","","","","","",""
"399.5","390313","SARL_v6","SARL_v6vmf4wfk0","5a3bdd2c8d005a0001829f3e","freq","","","img/blue_2bandit_b2.png","70","","70","test","1","","36","","","","circle","square","35","16","2","0.9714285714285714","","","","","","","",""
"null","390730","SARL_v6","SARL_v6vmf4wfk0","5a3bdd2c8d005a0001829f3e","freq_resp","","","img/blue_2bandit_b.png","70","img/blue_2bandit_b.png","70","test","","","","","","","","","","","2","","","","","","","","",""
"null","390887","SARL_v6","SARL_v6vmf4wfk0","5a3bdd2c8d005a0001829f3e","fixation","","","img/fixation.png","null","","","test","","","","","","","","","","","","","","","","","","","",""
"312.40000000596046","391201","SARL_v6","SARL_v6vmf4wfk0","5a3bdd2c8d005a0001829f3e","freq","","","img/blue_2bandit_b2.png","70","","70","test","1","","37","","","","circle","square","36","17","2","0.9722222222222222","","","","","","","",""
"null","391702","SARL_v6","SARL_v6vmf4wfk0","5a3bdd2c8d005a0001829f3e","freq_resp","","","img/blue_2bandit_b.png","70","img/blue_2bandit_b.png","70","test","","","","","","","","","","","2","","","","","","","","",""
"null","391857","SARL_v6","SARL_v6vmf4wfk0","5a3bdd2c8d005a0001829f3e","fixation","","","img/fixation.png","null","","","test","","","","","","","","","","","","","","","","","","","",""
"309.90000000596046","392169","SARL_v6","SARL_v6vmf4wfk0","5a3bdd2c8d005a0001829f3e","freq","","","img/blue_2bandit_b2.png","70","","70","test","1","","38","","","","circle","square","37","18","2","0.972972972972973","","","","","","","",""
"null","392678","SARL_v6","SARL_v6vmf4wfk0","5a3bdd2c8d005a0001829f3e","freq_resp","","","img/blue_2bandit_b.png","70","img/blue_2bandit_b.png","70","test","","","","","","","","","","","2","","","","","","","","",""
"null","392836","SARL_v6","SARL_v6vmf4wfk0","5a3bdd2c8d005a0001829f3e","fixation","","","img/fixation.png","null","","","test","","","","","","","","","","","","","","","","","","","",""
"474.5","393313","SARL_v6","SARL_v6vmf4wfk0","5a3bdd2c8d005a0001829f3e","infreq","","","img/orange_2bandit_b2.png","68","","68","test","1","","39","","","","circle","square","38","19","2","0.9736842105263158","","","","","","","",""
"null","393643","SARL_v6","SARL_v6vmf4wfk0","5a3bdd2c8d005a0001829f3e","infreq_resp","","","img/orange_2bandit_b.png","68","img/orange_2bandit_b.png","68","test","","","","","","","","","","","2","","","","","","","","",""
"null","393796","SARL_v6","SARL_v6vmf4wfk0","5a3bdd2c8d005a0001829f3e","fixation","","","img/fixation.png","null","","","test","","","","","","","","","","","","","","","","","","","",""
"683.5999999940395","394481","SARL_v6","SARL_v6vmf4wfk0","5a3bdd2c8d005a0001829f3e","freq","","","img/blue_2bandit_b2.png","70","","70","test","1","","40","","","","circle","square","39","20","2","0.9743589743589743","","","","","","","",""
"null","394614","SARL_v6","SARL_v6vmf4wfk0","5a3bdd2c8d005a0001829f3e","freq_resp","","","img/blue_2bandit_b.png","70","img/blue_2bandit_b.png","70","test","","","","","","","","","","","2","","","","","","","","",""
"null","394770","SARL_v6","SARL_v6vmf4wfk0","5a3bdd2c8d005a0001829f3e","fixation","","","img/fixation.png","null","","","test","","","","","","","","","","","","","","","","","","","",""
"413.7999999821186","395185","SARL_v6","SARL_v6vmf4wfk0","5a3bdd2c8d005a0001829f3e","freq","","","img/blue_2bandit_b2.png","70","","70","test","1","","41","","","","circle","square","40","21","2","0.975","","","","","","","",""
"null","395588","SARL_v6","SARL_v6vmf4wfk0","5a3bdd2c8d005a0001829f3e","freq_resp","","","img/blue_2bandit_b.png","70","img/blue_2bandit_b.png","70","test","","","","","","","","","","","2","","","","","","","","",""
"null","395743","SARL_v6","SARL_v6vmf4wfk0","5a3bdd2c8d005a0001829f3e","fixation","","","img/fixation.png","null","","","test","","","","","","","","","","","","","","","","","","","",""
"343.90000000596046","396089","SARL_v6","SARL_v6vmf4wfk0","5a3bdd2c8d005a0001829f3e","freq","","","img/blue_2bandit_b2.png","70","","70","test","1","","42","","","","circle","square","41","22","2","0.975609756097561","","","","","","","",""
"null","396560","SARL_v6","SARL_v6vmf4wfk0","5a3bdd2c8d005a0001829f3e","freq_resp","","","img/blue_2bandit_b.png","70","img/blue_2bandit_b.png","70","test","","","","","","","","","","","2","","","","","","","","",""
"null","396718","SARL_v6","SARL_v6vmf4wfk0","5a3bdd2c8d005a0001829f3e","fixation","","","img/fixation.png","null","","","test","","","","","","","","","","","","","","","","","","","",""
"1145","397865","SARL_v6","SARL_v6vmf4wfk0","5a3bdd2c8d005a0001829f3e","rl","","","img/black_2bandit_b2.png","74","","0","test","","","43","","","-5","circle","square","","0","2","","74","-5","-8","-5","-8","circle","2","0"
"null","398619","SARL_v6","SARL_v6vmf4wfk0","5a3bdd2c8d005a0001829f3e","feedback","","","<div class=""verylowPoints""> -5 </div>","null","","na","test","","","NaN","","","","","","","","2","","74","","","","","","2",""
"null","399434","SARL_v6","SARL_v6vmf4wfk0","5a3bdd2c8d005a0001829f3e","freq","","","img/blue_2bandit_b2.png","null","","70","test","0","","44","","","","circle","square","42","1","3","0.9523809523809523","","","","","","","",""
"null","399589","SARL_v6","SARL_v6vmf4wfk0","5a3bdd2c8d005a0001829f3e","fixation","","","img/fixation.png","null","","","test","","","","","","","","","","","","","","","","","","","",""
"442","400034","SARL_v6","SARL_v6vmf4wfk0","5a3bdd2c8d005a0001829f3e","freq","","","img/blue_2bandit_b2.png","70","","70","test","1","","45","","","","circle","square","43","2","3","0.9534883720930233","","","","","","","",""
"null","400394","SARL_v6","SARL_v6vmf4wfk0","5a3bdd2c8d005a0001829f3e","freq_resp","","","img/blue_2bandit_b.png","70","img/blue_2bandit_b.png","70","test","","","","","","","","","","","3","","","","","","","","",""
"null","400551","SARL_v6","SARL_v6vmf4wfk0","5a3bdd2c8d005a0001829f3e","fixation","","","img/fixation.png","null","","","test","","","","","","","","","","","","","","","","","","","",""
"384.40000000596046","400937","SARL_v6","SARL_v6vmf4wfk0","5a3bdd2c8d005a0001829f3e","freq","","","img/blue_2bandit_b2.png","70","","70","test","1","","46","","","","circle","square","44","3","3","0.9545454545454546","","","","","","","",""
"null","401363","SARL_v6","SARL_v6vmf4wfk0","5a3bdd2c8d005a0001829f3e","freq_resp","","","img/blue_2bandit_b.png","70","img/blue_2bandit_b.png","70","test","","","","","","","","","","","3","","","","","","","","",""
"null","401521","SARL_v6","SARL_v6vmf4wfk0","5a3bdd2c8d005a0001829f3e","fixation","","","img/fixation.png","null","","","test","","","","","","","","","","","","","","","","","","","",""
"342.2999999821186","401865","SARL_v6","SARL_v6vmf4wfk0","5a3bdd2c8d005a0001829f3e","freq","","","img/blue_2bandit_b2.png","70","","70","test","1","","47","","","","circle","square","45","4","3","0.9555555555555556","","","","","","","",""
"null","402334","SARL_v6","SARL_v6vmf4wfk0","5a3bdd2c8d005a0001829f3e","freq_resp","","","img/blue_2bandit_b.png","70","img/blue_2bandit_b.png","70","test","","","","","","","","","","","3","","","","","","","","",""
"null","402488","SARL_v6","SARL_v6vmf4wfk0","5a3bdd2c8d005a0001829f3e","fixation","","","img/fixation.png","null","","","test","","","","","","","","","","","","","","","","","","","",""
"327","402818","SARL_v6","SARL_v6vmf4wfk0","5a3bdd2c8d005a0001829f3e","freq","","","img/blue_2bandit_b2.png","70","","70","test","1","","48","","","","circle","square","46","5","3","0.9565217391304348","","","","","","","",""
"null","403301","SARL_v6","SARL_v6vmf4wfk0","5a3bdd2c8d005a0001829f3e","freq_resp","","","img/blue_2bandit_b.png","70","img/blue_2bandit_b.png","70","test","","","","","","","","","","","3","","","","","","","","",""
"null","403453","SARL_v6","SARL_v6vmf4wfk0","5a3bdd2c8d005a0001829f3e","fixation","","","img/fixation.png","null","","","test","","","","","","","","","","","","","","","","","","","",""
"586.0999999940395","404041","SARL_v6","SARL_v6vmf4wfk0","5a3bdd2c8d005a0001829f3e","infreq","","","img/orange_2bandit_b2.png","70","","68","test","0","","49","","","","circle","square","47","6","3","0.9361702127659575","","","","","","","",""
"null","404272","SARL_v6","SARL_v6vmf4wfk0","5a3bdd2c8d005a0001829f3e","infreq_resp","","","img/orange_2bandit_b.png","70","img/orange_2bandit_b.png","68","test","","","","","","","","","","","3","","","","","","","","",""
"null","404433","SARL_v6","SARL_v6vmf4wfk0","5a3bdd2c8d005a0001829f3e","fixation","","","img/fixation.png","null","","","test","","","","","","","","","","","","","","","","","","","",""
"542.5999999940395","404977","SARL_v6","SARL_v6vmf4wfk0","5a3bdd2c8d005a0001829f3e","freq","","","img/blue_2bandit_b2.png","70","","70","test","1","","50","","","","circle","square","48","7","3","0.9375","","","","","","","",""
"null","405243","SARL_v6","SARL_v6vmf4wfk0","5a3bdd2c8d005a0001829f3e","freq_resp","","","img/blue_2bandit_b.png","70","img/blue_2bandit_b.png","70","test","","","","","","","","","","","3","","","","","","","","",""
"null","405403","SARL_v6","SARL_v6vmf4wfk0","5a3bdd2c8d005a0001829f3e","fixation","","","img/fixation.png","null","","","test","","","","","","","","","","","","","","","","","","","",""
"556.7999999821186","405962","SARL_v6","SARL_v6vmf4wfk0","5a3bdd2c8d005a0001829f3e","freq","","","img/blue_2bandit_b2.png","70","","70","test","1","","51","","","","circle","square","49","8","3","0.9387755102040817","","","","","","","",""
"null","406216","SARL_v6","SARL_v6vmf4wfk0","5a3bdd2c8d005a0001829f3e","freq_resp","","","img/blue_2bandit_b.png","70","img/blue_2bandit_b.png","70","test","","","","","","","","","","","3","","","","","","","","",""
"null","406368","SARL_v6","SARL_v6vmf4wfk0","5a3bdd2c8d005a0001829f3e","fixation","","","img/fixation.png","null","","","test","","","","","","","","","","","","","","","","","","","",""
"358.69999998807907","406729","SARL_v6","SARL_v6vmf4wfk0","5a3bdd2c8d005a0001829f3e","freq","","","img/blue_2bandit_b2.png","70","","70","test","1","","52","","","","circle","square","50","9","3","0.94","","","","","","","",""
"null","407173","SARL_v6","SARL_v6vmf4wfk0","5a3bdd2c8d005a0001829f3e","freq_resp","","","img/blue_2bandit_b.png","70","img/blue_2bandit_b.png","70","test","","","","","","","","","","","3","","","","","","","","",""
"null","407331","SARL_v6","SARL_v6vmf4wfk0","5a3bdd2c8d005a0001829f3e","fixation","","","img/fixation.png","null","","","test","","","","","","","","","","","","","","","","","","","",""
"356.69999998807907","407690","SARL_v6","SARL_v6vmf4wfk0","5a3bdd2c8d005a0001829f3e","freq","","","img/blue_2bandit_b2.png","70","","70","test","1","","53","","","","circle","square","51","10","3","0.9411764705882353","","","","","","","",""
"null","408147","SARL_v6","SARL_v6vmf4wfk0","5a3bdd2c8d005a0001829f3e","freq_resp","","","img/blue_2bandit_b.png","70","img/blue_2bandit_b.png","70","test","","","","","","","","","","","3","","","","","","","","",""
"null","408303","SARL_v6","SARL_v6vmf4wfk0","5a3bdd2c8d005a0001829f3e","fixation","","","img/fixation.png","null","","","test","","","","","","","","","","","","","","","","","","","",""
"359.69999998807907","408666","SARL_v6","SARL_v6vmf4wfk0","5a3bdd2c8d005a0001829f3e","freq","","","img/blue_2bandit_b2.png","70","","70","test","1","","54","","","","circle","square","52","11","3","0.9423076923076923","","","","","","","",""
"null","409111","SARL_v6","SARL_v6vmf4wfk0","5a3bdd2c8d005a0001829f3e","freq_resp","","","img/blue_2bandit_b.png","70","img/blue_2bandit_b.png","70","test","","","","","","","","","","","3","","","","","","","","",""
"null","409305","SARL_v6","SARL_v6vmf4wfk0","5a3bdd2c8d005a0001829f3e","fixation","","","img/fixation.png","null","","","test","","","","","","","","","","","","","","","","","","","",""
"358","409665","SARL_v6","SARL_v6vmf4wfk0","5a3bdd2c8d005a0001829f3e","freq","","","img/blue_2bandit_b2.png","70","","70","test","1","","55","","","","circle","square","53","12","3","0.9433962264150944","","","","","","","",""
"null","410123","SARL_v6","SARL_v6vmf4wfk0","5a3bdd2c8d005a0001829f3e","freq_resp","","","img/blue_2bandit_b.png","70","img/blue_2bandit_b.png","70","test","","","","","","","","","","","3","","","","","","","","",""
"null","410278","SARL_v6","SARL_v6vmf4wfk0","5a3bdd2c8d005a0001829f3e","fixation","","","img/fixation.png","null","","","test","","","","","","","","","","","","","","","","","","","",""
"504.89999997615814","410785","SARL_v6","SARL_v6vmf4wfk0","5a3bdd2c8d005a0001829f3e","freq","","","img/blue_2bandit_b2.png","70","","70","test","1","","56","","","","circle","square","54","13","3","0.9444444444444444","","","","","","","",""
"null","411096","SARL_v6","SARL_v6vmf4wfk0","5a3bdd2c8d005a0001829f3e","freq_resp","","","img/blue_2bandit_b.png","70","img/blue_2bandit_b.png","70","test","","","","","","","","","","","3","","","","","","","","",""
"null","411250","SARL_v6","SARL_v6vmf4wfk0","5a3bdd2c8d005a0001829f3e","fixation","","","img/fixation.png","null","","","test","","","","","","","","","","","","","","","","","","","",""
"388.80000001192093","411642","SARL_v6","SARL_v6vmf4wfk0","5a3bdd2c8d005a0001829f3e","freq","","","img/blue_2bandit_b2.png","70","","70","test","1","","57","","","","circle","square","55","14","3","0.9454545454545454","","","","","","","",""
"null","412065","SARL_v6","SARL_v6vmf4wfk0","5a3bdd2c8d005a0001829f3e","freq_resp","","","img/blue_2bandit_b.png","70","img/blue_2bandit_b.png","70","test","","","","","","","","","","","3","","","","","","","","",""
"null","412221","SARL_v6","SARL_v6vmf4wfk0","5a3bdd2c8d005a0001829f3e","fixation","","","img/fixation.png","null","","","test","","","","","","","","","","","","","","","","","","","",""
"378.5","412601","SARL_v6","SARL_v6vmf4wfk0","5a3bdd2c8d005a0001829f3e","freq","","","img/blue_2bandit_b2.png","70","","70","test","1","","58","","","","circle","square","56","15","3","0.9464285714285714","","","","","","","",""
"null","413038","SARL_v6","SARL_v6vmf4wfk0","5a3bdd2c8d005a0001829f3e","freq_resp","","","img/blue_2bandit_b.png","70","img/blue_2bandit_b.png","70","test","","","","","","","","","","","3","","","","","","","","",""
"null","413193","SARL_v6","SARL_v6vmf4wfk0","5a3bdd2c8d005a0001829f3e","fixation","","","img/fixation.png","null","","","test","","","","","","","","","","","","","","","","","","","",""
"358.7000000178814","413553","SARL_v6","SARL_v6vmf4wfk0","5a3bdd2c8d005a0001829f3e","freq","","","img/blue_2bandit_b2.png","70","","70","test","1","","59","","","","circle","square","57","16","3","0.9473684210526315","","","","","","","",""
"null","414006","SARL_v6","SARL_v6vmf4wfk0","5a3bdd2c8d005a0001829f3e","freq_resp","","","img/blue_2bandit_b.png","70","img/blue_2bandit_b.png","70","test","","","","","","","","","","","3","","","","","","","","",""
"null","414165","SARL_v6","SARL_v6vmf4wfk0","5a3bdd2c8d005a0001829f3e","fixation","","","img/fixation.png","null","","","test","","","","","","","","","","","","","","","","","","","",""
"370.19999998807907","414537","SARL_v6","SARL_v6vmf4wfk0","5a3bdd2c8d005a0001829f3e","freq","","","img/blue_2bandit_b2.png","70","","70","test","1","","60","","","","circle","square","58","17","3","0.9482758620689655","","","","","","","",""
"null","414973","SARL_v6","SARL_v6vmf4wfk0","5a3bdd2c8d005a0001829f3e","freq_resp","","","img/blue_2bandit_b.png","70","img/blue_2bandit_b.png","70","test","","","","","","","","","","","3","","","","","","","","",""
"null","415130","SARL_v6","SARL_v6vmf4wfk0","5a3bdd2c8d005a0001829f3e","fixation","","","img/fixation.png","null","","","test","","","","","","","","","","","","","","","","","","","",""
"452.89999997615814","415585","SARL_v6","SARL_v6vmf4wfk0","5a3bdd2c8d005a0001829f3e","freq","","","img/blue_2bandit_b2.png","70","","70","test","1","","61","","","","circle","square","59","18","3","0.9491525423728814","","","","","","","",""
"null","415950","SARL_v6","SARL_v6vmf4wfk0","5a3bdd2c8d005a0001829f3e","freq_resp","","","img/blue_2bandit_b.png","70","img/blue_2bandit_b.png","70","test","","","","","","","","","","","3","","","","","","","","",""
"null","416106","SARL_v6","SARL_v6vmf4wfk0","5a3bdd2c8d005a0001829f3e","fixation","","","img/fixation.png","null","","","test","","","","","","","","","","","","","","","","","","","",""
"533","416641","SARL_v6","SARL_v6vmf4wfk0","5a3bdd2c8d005a0001829f3e","freq","","","img/blue_2bandit_b2.png","70","","70","test","1","","62","","","","circle","square","60","19","3","0.95","","","","","","","",""
"null","416924","SARL_v6","SARL_v6vmf4wfk0","5a3bdd2c8d005a0001829f3e","freq_resp","","","img/blue_2bandit_b.png","70","img/blue_2bandit_b.png","70","test","","","","","","","","","","","3","","","","","","","","",""
"null","417081","SARL_v6","SARL_v6vmf4wfk0","5a3bdd2c8d005a0001829f3e","fixation","","","img/fixation.png","null","","","test","","","","","","","","","","","","","","","","","","","",""
"485.69999998807907","417568","SARL_v6","SARL_v6vmf4wfk0","5a3bdd2c8d005a0001829f3e","infreq","","","img/orange_2bandit_b2.png","68","","68","test","1","","63","","","","circle","square","61","20","3","0.9508196721311475","","","","","","","",""
"null","417888","SARL_v6","SARL_v6vmf4wfk0","5a3bdd2c8d005a0001829f3e","infreq_resp","","","img/orange_2bandit_b.png","68","img/orange_2bandit_b.png","68","test","","","","","","","","","","","3","","","","","","","","",""
"null","418047","SARL_v6","SARL_v6vmf4wfk0","5a3bdd2c8d005a0001829f3e","fixation","","","img/fixation.png","null","","","test","","","","","","","","","","","","","","","","","","","",""
"431.5","418481","SARL_v6","SARL_v6vmf4wfk0","5a3bdd2c8d005a0001829f3e","freq","","","img/blue_2bandit_b2.png","70","","70","test","1","","64","","","","circle","square","62","21","3","0.9516129032258065","","","","","","","",""
"null","418857","SARL_v6","SARL_v6vmf4wfk0","5a3bdd2c8d005a0001829f3e","freq_resp","","","img/blue_2bandit_b.png","70","img/blue_2bandit_b.png","70","test","","","","","","","","","","","3","","","","","","","","",""
"null","419017","SARL_v6","SARL_v6vmf4wfk0","5a3bdd2c8d005a0001829f3e","fixation","","","img/fixation.png","null","","","test","","","","","","","","","","","","","","","","","","","",""
"485.7000000178814","419506","SARL_v6","SARL_v6vmf4wfk0","5a3bdd2c8d005a0001829f3e","freq","","","img/blue_2bandit_b2.png","70","","70","test","1","","65","","","","circle","square","63","22","3","0.9523809523809523","","","","","","","",""
"null","419835","SARL_v6","SARL_v6vmf4wfk0","5a3bdd2c8d005a0001829f3e","freq_resp","","","img/blue_2bandit_b.png","70","img/blue_2bandit_b.png","70","test","","","","","","","","","","","3","","","","","","","","",""
"null","419991","SARL_v6","SARL_v6vmf4wfk0","5a3bdd2c8d005a0001829f3e","fixation","","","img/fixation.png","null","","","test","","","","","","","","","","","","","","","","","","","",""
"791.5","420785","SARL_v6","SARL_v6vmf4wfk0","5a3bdd2c8d005a0001829f3e","rl","","","img/black_2bandit_b2.png","75","","0","test","","","66","","","-8","circle","square","","0","3","","75","-4","-8","-4","-8","square","3","0"
"null","421543","SARL_v6","SARL_v6vmf4wfk0","5a3bdd2c8d005a0001829f3e","feedback","","","<div class=""verylowPoints_sq""> -8 </div>","null","","na","test","","","NaN","","","","","","","","3","","75","","","","","","3",""
"null","422358","SARL_v6","SARL_v6vmf4wfk0","5a3bdd2c8d005a0001829f3e","freq","","","img/blue_2bandit_b2.png","null","","70","test","0","","67","","","","circle","square","64","1","4","0.9375","","","","","","","",""
"null","422512","SARL_v6","SARL_v6vmf4wfk0","5a3bdd2c8d005a0001829f3e","fixation","","","img/fixation.png","null","","","test","","","","","","","","","","","","","","","","","","","",""
"390.7999999821186","422905","SARL_v6","SARL_v6vmf4wfk0","5a3bdd2c8d005a0001829f3e","freq","","","img/blue_2bandit_b2.png","70","","70","test","1","","68","","","","circle","square","65","2","4","0.9384615384615385","","","","","","","",""
"null","423330","SARL_v6","SARL_v6vmf4wfk0","5a3bdd2c8d005a0001829f3e","freq_resp","","","img/blue_2bandit_b.png","70","img/blue_2bandit_b.png","70","test","","","","","","","","","","","4","","","","","","","","",""
"null","423490","SARL_v6","SARL_v6vmf4wfk0","5a3bdd2c8d005a0001829f3e","fixation","","","img/fixation.png","null","","","test","","","","","","","","","","","","","","","","","","","",""
"637.5999999940395","424129","SARL_v6","SARL_v6vmf4wfk0","5a3bdd2c8d005a0001829f3e","freq","","","img/blue_2bandit_b2.png","70","","70","test","1","","69","","","","circle","square","66","3","4","0.9393939393939394","","","","","","","",""
"null","424304","SARL_v6","SARL_v6vmf4wfk0","5a3bdd2c8d005a0001829f3e","freq_resp","","","img/blue_2bandit_b.png","70","img/blue_2bandit_b.png","70","test","","","","","","","","","","","4","","","","","","","","",""
"null","424462","SARL_v6","SARL_v6vmf4wfk0","5a3bdd2c8d005a0001829f3e","fixation","","","img/fixation.png","null","","","test","","","","","","","","","","","","","","","","","","","",""
"465.5","424929","SARL_v6","SARL_v6vmf4wfk0","5a3bdd2c8d005a0001829f3e","freq","","","img/blue_2bandit_b2.png","70","","70","test","1","","70","","","","circle","square","67","4","4","0.9402985074626866","","","","","","","",""
"null","425276","SARL_v6","SARL_v6vmf4wfk0","5a3bdd2c8d005a0001829f3e","freq_resp","","","img/blue_2bandit_b.png","70","img/blue_2bandit_b.png","70","test","","","","","","","","","","","4","","","","","","","","",""
"null","425433","SARL_v6","SARL_v6vmf4wfk0","5a3bdd2c8d005a0001829f3e","fixation","","","img/fixation.png","null","","","test","","","","","","","","","","","","","","","","","","","",""
"502.5","425937","SARL_v6","SARL_v6vmf4wfk0","5a3bdd2c8d005a0001829f3e","freq","","","img/blue_2bandit_b2.png","70","","70","test","1","","71","","","","circle","square","68","5","4","0.9411764705882353","","","","","","","",""
"null","426243","SARL_v6","SARL_v6vmf4wfk0","5a3bdd2c8d005a0001829f3e","freq_resp","","","img/blue_2bandit_b.png","70","img/blue_2bandit_b.png","70","test","","","","","","","","","","","4","","","","","","","","",""
"null","426399","SARL_v6","SARL_v6vmf4wfk0","5a3bdd2c8d005a0001829f3e","fixation","","","img/fixation.png","null","","","test","","","","","","","","","","","","","","","","","","","",""
"567.5999999940395","426969","SARL_v6","SARL_v6vmf4wfk0","5a3bdd2c8d005a0001829f3e","freq","","","img/blue_2bandit_b2.png","70","","70","test","1","","72","","","","circle","square","69","6","4","0.9420289855072463","","","","","","","",""
"null","427222","SARL_v6","SARL_v6vmf4wfk0","5a3bdd2c8d005a0001829f3e","freq_resp","","","img/blue_2bandit_b.png","70","img/blue_2bandit_b.png","70","test","","","","","","","","","","","4","","","","","","","","",""
"null","427379","SARL_v6","SARL_v6vmf4wfk0","5a3bdd2c8d005a0001829f3e","fixation","","","img/fixation.png","null","","","test","","","","","","","","","","","","","","","","","","","",""
"336.2999999821186","427721","SARL_v6","SARL_v6vmf4wfk0","5a3bdd2c8d005a0001829f3e","freq","","","img/blue_2bandit_b2.png","70","","70","test","1","","73","","","","circle","square","70","7","4","0.9428571428571428","","","","","","","",""
"null","428196","SARL_v6","SARL_v6vmf4wfk0","5a3bdd2c8d005a0001829f3e","freq_resp","","","img/blue_2bandit_b.png","70","img/blue_2bandit_b.png","70","test","","","","","","","","","","","4","","","","","","","","",""
"null","428356","SARL_v6","SARL_v6vmf4wfk0","5a3bdd2c8d005a0001829f3e","fixation","","","img/fixation.png","null","","","test","","","","","","","","","","","","","","","","","","","",""
"323.30000001192093","428682","SARL_v6","SARL_v6vmf4wfk0","5a3bdd2c8d005a0001829f3e","freq","","","img/blue_2bandit_b2.png","70","","70","test","1","","74","","","","circle","square","71","8","4","0.9436619718309859","","","","","","","",""
"null","429172","SARL_v6","SARL_v6vmf4wfk0","5a3bdd2c8d005a0001829f3e","freq_resp","","","img/blue_2bandit_b.png","70","img/blue_2bandit_b.png","70","test","","","","","","","","","","","4","","","","","","","","",""
"null","429324","SARL_v6","SARL_v6vmf4wfk0","5a3bdd2c8d005a0001829f3e","fixation","","","img/fixation.png","null","","","test","","","","","","","","","","","","","","","","","","","",""
"292.69999998807907","429619","SARL_v6","SARL_v6vmf4wfk0","5a3bdd2c8d005a0001829f3e","freq","","","img/blue_2bandit_b2.png","70","","70","test","1","","75","","","","circle","square","72","9","4","0.9444444444444444","","","","","","","",""
"null","430138","SARL_v6","SARL_v6vmf4wfk0","5a3bdd2c8d005a0001829f3e","freq_resp","","","img/blue_2bandit_b.png","70","img/blue_2bandit_b.png","70","test","","","","","","","","","","","4","","","","","","","","",""
"null","430291","SARL_v6","SARL_v6vmf4wfk0","5a3bdd2c8d005a0001829f3e","fixation","","","img/fixation.png","null","","","test","","","","","","","","","","","","","","","","","","","",""
"291.7000000178814","430584","SARL_v6","SARL_v6vmf4wfk0","5a3bdd2c8d005a0001829f3e","freq","","","img/blue_2bandit_b2.png","70","","70","test","1","","76","","","","circle","square","73","10","4","0.9452054794520548","","","","","","","",""
"null","431099","SARL_v6","SARL_v6vmf4wfk0","5a3bdd2c8d005a0001829f3e","freq_resp","","","img/blue_2bandit_b.png","70","img/blue_2bandit_b.png","70","test","","","","","","","","","","","4","","","","","","","","",""
"null","431253","SARL_v6","SARL_v6vmf4wfk0","5a3bdd2c8d005a0001829f3e","fixation","","","img/fixation.png","null","","","test","","","","","","","","","","","","","","","","","","","",""
"289.59999999403954","431545","SARL_v6","SARL_v6vmf4wfk0","5a3bdd2c8d005a0001829f3e","freq","","","img/blue_2bandit_b2.png","70","","70","test","1","","77","","","","circle","square","74","11","4","0.9459459459459459","","","","","","","",""
"null","432069","SARL_v6","SARL_v6vmf4wfk0","5a3bdd2c8d005a0001829f3e","freq_resp","","","img/blue_2bandit_b.png","70","img/blue_2bandit_b.png","70","test","","","","","","","","","","","4","","","","","","","","",""
"null","432222","SARL_v6","SARL_v6vmf4wfk0","5a3bdd2c8d005a0001829f3e","fixation","","","img/fixation.png","null","","","test","","","","","","","","","","","","","","","","","","","",""
"312.80000001192093","432537","SARL_v6","SARL_v6vmf4wfk0","5a3bdd2c8d005a0001829f3e","freq","","","img/blue_2bandit_b2.png","70","","70","test","1","","78","","","","circle","square","75","12","4","0.9466666666666667","","","","","","","",""
"null","433030","SARL_v6","SARL_v6vmf4wfk0","5a3bdd2c8d005a0001829f3e","freq_resp","","","img/blue_2bandit_b.png","70","img/blue_2bandit_b.png","70","test","","","","","","","","","","","4","","","","","","","","",""
"null","433187","SARL_v6","SARL_v6vmf4wfk0","5a3bdd2c8d005a0001829f3e","fixation","","","img/fixation.png","null","","","test","","","","","","","","","","","","","","","","","","","",""
"316.39999997615814","433505","SARL_v6","SARL_v6vmf4wfk0","5a3bdd2c8d005a0001829f3e","freq","","","img/blue_2bandit_b2.png","70","","70","test","1","","79","","","","circle","square","76","13","4","0.9473684210526315","","","","","","","",""
"null","434003","SARL_v6","SARL_v6vmf4wfk0","5a3bdd2c8d005a0001829f3e","freq_resp","","","img/blue_2bandit_b.png","70","img/blue_2bandit_b.png","70","test","","","","","","","","","","","4","","","","","","","","",""
"null","434159","SARL_v6","SARL_v6vmf4wfk0","5a3bdd2c8d005a0001829f3e","fixation","","","img/fixation.png","null","","","test","","","","","","","","","","","","","","","","","","","",""
"304.09999999403954","434465","SARL_v6","SARL_v6vmf4wfk0","5a3bdd2c8d005a0001829f3e","freq","","","img/blue_2bandit_b2.png","70","","70","test","1","","80","","","","circle","square","77","14","4","0.948051948051948","","","","","","","",""
"null","434969","SARL_v6","SARL_v6vmf4wfk0","5a3bdd2c8d005a0001829f3e","freq_resp","","","img/blue_2bandit_b.png","70","img/blue_2bandit_b.png","70","test","","","","","","","","","","","4","","","","","","","","",""
"null","435121","SARL_v6","SARL_v6vmf4wfk0","5a3bdd2c8d005a0001829f3e","fixation","","","img/fixation.png","null","","","test","","","","","","","","","","","","","","","","","","","",""
"302","435425","SARL_v6","SARL_v6vmf4wfk0","5a3bdd2c8d005a0001829f3e","freq","","","img/blue_2bandit_b2.png","70","","70","test","1","","81","","","","circle","square","78","15","4","0.9487179487179487","","","","","","","",""
"null","435931","SARL_v6","SARL_v6vmf4wfk0","5a3bdd2c8d005a0001829f3e","freq_resp","","","img/blue_2bandit_b.png","70","img/blue_2bandit_b.png","70","test","","","","","","","","","","","4","","","","","","","","",""
"null","436084","SARL_v6","SARL_v6vmf4wfk0","5a3bdd2c8d005a0001829f3e","fixation","","","img/fixation.png","null","","","test","","","","","","","","","","","","","","","","","","","",""
"275.30000001192093","436361","SARL_v6","SARL_v6vmf4wfk0","5a3bdd2c8d005a0001829f3e","infreq","","","img/orange_2bandit_b2.png","70","","68","test","0","","82","","","","circle","square","79","16","4","0.9367088607594937","","","","","","","",""
"null","436889","SARL_v6","SARL_v6vmf4wfk0","5a3bdd2c8d005a0001829f3e","infreq_resp","","","img/orange_2bandit_b.png","70","img/orange_2bandit_b.png","68","test","","","","","","","","","","","4","","","","","","","","",""
"null","437041","SARL_v6","SARL_v6vmf4wfk0","5a3bdd2c8d005a0001829f3e","fixation","","","img/fixation.png","null","","","test","","","","","","","","","","","","","","","","","","","",""
"523.4000000059605","437567","SARL_v6","SARL_v6vmf4wfk0","5a3bdd2c8d005a0001829f3e","freq","","","img/blue_2bandit_b2.png","70","","70","test","1","","83","","","","circle","square","80","17","4","0.9375","","","","","","","",""
"null","437847","SARL_v6","SARL_v6vmf4wfk0","5a3bdd2c8d005a0001829f3e","freq_resp","","","img/blue_2bandit_b.png","70","img/blue_2bandit_b.png","70","test","","","","","","","","","","","4","","","","","","","","",""
"null","438002","SARL_v6","SARL_v6vmf4wfk0","5a3bdd2c8d005a0001829f3e","fixation","","","img/fixation.png","null","","","test","","","","","","","","","","","","","","","","","","","",""
"445","438449","SARL_v6","SARL_v6vmf4wfk0","5a3bdd2c8d005a0001829f3e","infreq","","","img/orange_2bandit_b2.png","68","","68","test","1","","84","","","","circle","square","81","18","4","0.9382716049382716","","","","","","","",""
"null","438822","SARL_v6","SARL_v6vmf4wfk0","5a3bdd2c8d005a0001829f3e","infreq_resp","","","img/orange_2bandit_b.png","68","img/orange_2bandit_b.png","68","test","","","","","","","","","","","4","","","","","","","","",""
"null","438977","SARL_v6","SARL_v6vmf4wfk0","5a3bdd2c8d005a0001829f3e","fixation","","","img/fixation.png","null","","","test","","","","","","","","","","","","","","","","","","","",""
"389.90000000596046","439369","SARL_v6","SARL_v6vmf4wfk0","5a3bdd2c8d005a0001829f3e","freq","","","img/blue_2bandit_b2.png","70","","70","test","1","","85","","","","circle","square","82","19","4","0.9390243902439024","","","","","","","",""
"null","439797","SARL_v6","SARL_v6vmf4wfk0","5a3bdd2c8d005a0001829f3e","freq_resp","","","img/blue_2bandit_b.png","70","img/blue_2bandit_b.png","70","test","","","","","","","","","","","4","","","","","","","","",""
"null","439956","SARL_v6","SARL_v6vmf4wfk0","5a3bdd2c8d005a0001829f3e","fixation","","","img/fixation.png","null","","","test","","","","","","","","","","","","","","","","","","","",""
"338.69999998807907","440297","SARL_v6","SARL_v6vmf4wfk0","5a3bdd2c8d005a0001829f3e","freq","","","img/blue_2bandit_b2.png","70","","70","test","1","","86","","","","circle","square","83","20","4","0.9397590361445783","","","","","","","",""
"null","440768","SARL_v6","SARL_v6vmf4wfk0","5a3bdd2c8d005a0001829f3e","freq_resp","","","img/blue_2bandit_b.png","70","img/blue_2bandit_b.png","70","test","","","","","","","","","","","4","","","","","","","","",""
"null","440920","SARL_v6","SARL_v6vmf4wfk0","5a3bdd2c8d005a0001829f3e","fixation","","","img/fixation.png","null","","","test","","","","","","","","","","","","","","","","","","","",""
"439.19999998807907","441361","SARL_v6","SARL_v6vmf4wfk0","5a3bdd2c8d005a0001829f3e","freq","","","img/blue_2bandit_b2.png","70","","70","test","1","","87","","","","circle","square","84","21","4","0.9404761904761905","","","","","","","",""
"null","441730","SARL_v6","SARL_v6vmf4wfk0","5a3bdd2c8d005a0001829f3e","freq_resp","","","img/blue_2bandit_b.png","70","img/blue_2bandit_b.png","70","test","","","","","","","","","","","4","","","","","","","","",""
"null","441887","SARL_v6","SARL_v6vmf4wfk0","5a3bdd2c8d005a0001829f3e","fixation","","","img/fixation.png","null","","","test","","","","","","","","","","","","","","","","","","","",""
"504.2000000178814","442393","SARL_v6","SARL_v6vmf4wfk0","5a3bdd2c8d005a0001829f3e","rl","","","img/black_2bandit_b2.png","74","","0","test","","","88","","","0","circle","square","","0","4","","74","0","-12","0","-12","circle","4","0"
"null","443157","SARL_v6","SARL_v6vmf4wfk0","5a3bdd2c8d005a0001829f3e","feedback","","","<div class=""verylowPoints""> 0 </div>","null","","na","test","","","NaN","","","","","","","","4","","74","","","","","","4",""
"569.9000000059605","443729","SARL_v6","SARL_v6vmf4wfk0","5a3bdd2c8d005a0001829f3e","freq","","","img/blue_2bandit_b2.png","70","","70","test","1","","89","","","","circle","square","85","1","5","0.9411764705882353","","","","","","","",""
"null","443969","SARL_v6","SARL_v6vmf4wfk0","5a3bdd2c8d005a0001829f3e","freq_resp","","","img/blue_2bandit_b.png","70","img/blue_2bandit_b.png","70","test","","","","","","","","","","","5","","","","","","","","",""
"null","444121","SARL_v6","SARL_v6vmf4wfk0","5a3bdd2c8d005a0001829f3e","fixation","","","img/fixation.png","null","","","test","","","","","","","","","","","","","","","","","","","",""
"413.40000000596046","444537","SARL_v6","SARL_v6vmf4wfk0","5a3bdd2c8d005a0001829f3e","freq","","","img/blue_2bandit_b2.png","70","","70","test","1","","90","","","","circle","square","86","2","5","0.9418604651162791","","","","","","","",""
"null","444935","SARL_v6","SARL_v6vmf4wfk0","5a3bdd2c8d005a0001829f3e","freq_resp","","","img/blue_2bandit_b.png","70","img/blue_2bandit_b.png","70","test","","","","","","","","","","","5","","","","","","","","",""
"null","445092","SARL_v6","SARL_v6vmf4wfk0","5a3bdd2c8d005a0001829f3e","fixation","","","img/fixation.png","null","","","test","","","","","","","","","","","","","","","","","","","",""
"251","445345","SARL_v6","SARL_v6vmf4wfk0","5a3bdd2c8d005a0001829f3e","freq","","","img/blue_2bandit_b2.png","70","","70","test","1","","91","","","","circle","square","87","3","5","0.9425287356321839","","","","","","","",""
"null","445912","SARL_v6","SARL_v6vmf4wfk0","5a3bdd2c8d005a0001829f3e","freq_resp","","","img/blue_2bandit_b.png","70","img/blue_2bandit_b.png","70","test","","","","","","","","","","","5","","","","","","","","",""
"null","446065","SARL_v6","SARL_v6vmf4wfk0","5a3bdd2c8d005a0001829f3e","fixation","","","img/fixation.png","null","","","test","","","","","","","","","","","","","","","","","","","",""
"286.30000001192093","446353","SARL_v6","SARL_v6vmf4wfk0","5a3bdd2c8d005a0001829f3e","freq","","","img/blue_2bandit_b2.png","70","","70","test","1","","92","","","","circle","square","88","4","5","0.9431818181818182","","","","","","","",""
"null","446873","SARL_v6","SARL_v6vmf4wfk0","5a3bdd2c8d005a0001829f3e","freq_resp","","","img/blue_2bandit_b.png","70","img/blue_2bandit_b.png","70","test","","","","","","","","","","","5","","","","","","","","",""
"null","447030","SARL_v6","SARL_v6vmf4wfk0","5a3bdd2c8d005a0001829f3e","fixation","","","img/fixation.png","null","","","test","","","","","","","","","","","","","","","","","","","",""
"352.69999998807907","447385","SARL_v6","SARL_v6vmf4wfk0","5a3bdd2c8d005a0001829f3e","freq","","","img/blue_2bandit_b2.png","70","","70","test","1","","93","","","","circle","square","89","5","5","0.9438202247191011","","","","","","","",""
"null","447848","SARL_v6","SARL_v6vmf4wfk0","5a3bdd2c8d005a0001829f3e","freq_resp","","","img/blue_2bandit_b.png","70","img/blue_2bandit_b.png","70","test","","","","","","","","","","","5","","","","","","","","",""
"null","448003","SARL_v6","SARL_v6vmf4wfk0","5a3bdd2c8d005a0001829f3e","fixation","","","img/fixation.png","null","","","test","","","","","","","","","","","","","","","","","","","",""
"451.7999999821186","448458","SARL_v6","SARL_v6vmf4wfk0","5a3bdd2c8d005a0001829f3e","infreq","","","img/orange_2bandit_b2.png","68","","68","test","1","","94","","","","circle","square","90","6","5","0.9444444444444444","","","","","","","",""
"null","448813","SARL_v6","SARL_v6vmf4wfk0","5a3bdd2c8d005a0001829f3e","infreq_resp","","","img/orange_2bandit_b.png","68","img/orange_2bandit_b.png","68","test","","","","","","","","","","","5","","","","","","","","",""
"null","448968","SARL_v6","SARL_v6vmf4wfk0","5a3bdd2c8d005a0001829f3e","fixation","","","img/fixation.png","null","","","test","","","","","","","","","","","","","","","","","","","",""
"374.69999998807907","449345","SARL_v6","SARL_v6vmf4wfk0","5a3bdd2c8d005a0001829f3e","freq","","","img/blue_2bandit_b2.png","70","","70","test","1","","95","","","","circle","square","91","7","5","0.945054945054945","","","","","","","",""
"null","449787","SARL_v6","SARL_v6vmf4wfk0","5a3bdd2c8d005a0001829f3e","freq_resp","","","img/blue_2bandit_b.png","70","img/blue_2bandit_b.png","70","test","","","","","","","","","","","5","","","","","","","","",""
"null","449945","SARL_v6","SARL_v6vmf4wfk0","5a3bdd2c8d005a0001829f3e","fixation","","","img/fixation.png","null","","","test","","","","","","","","","","","","","","","","","","","",""
"390","450337","SARL_v6","SARL_v6vmf4wfk0","5a3bdd2c8d005a0001829f3e","freq","","","img/blue_2bandit_b2.png","70","","70","test","1","","96","","","","circle","square","92","8","5","0.9456521739130435","","","","","","","",""
"null","450754","SARL_v6","SARL_v6vmf4wfk0","5a3bdd2c8d005a0001829f3e","freq_resp","","","img/blue_2bandit_b.png","70","img/blue_2bandit_b.png","70","test","","","","","","","","","","","5","","","","","","","","",""
"null","450921","SARL_v6","SARL_v6vmf4wfk0","5a3bdd2c8d005a0001829f3e","fixation","","","img/fixation.png","null","","","test","","","","","","","","","","","","","","","","","","","",""
"406.2000000178814","451329","SARL_v6","SARL_v6vmf4wfk0","5a3bdd2c8d005a0001829f3e","freq","","","img/blue_2bandit_b2.png","70","","70","test","1","","97","","","","circle","square","93","9","5","0.946236559139785","","","","","","","",""
"null","451728","SARL_v6","SARL_v6vmf4wfk0","5a3bdd2c8d005a0001829f3e","freq_resp","","","img/blue_2bandit_b.png","70","img/blue_2bandit_b.png","70","test","","","","","","","","","","","5","","","","","","","","",""
"null","451885","SARL_v6","SARL_v6vmf4wfk0","5a3bdd2c8d005a0001829f3e","fixation","","","img/fixation.png","null","","","test","","","","","","","","","","","","","","","","","","","",""
"490.19999998807907","452378","SARL_v6","SARL_v6vmf4wfk0","5a3bdd2c8d005a0001829f3e","freq","","","img/blue_2bandit_b2.png","70","","70","test","1","","98","","","","circle","square","94","10","5","0.9468085106382979","","","","","","","",""
"null","452689","SARL_v6","SARL_v6vmf4wfk0","5a3bdd2c8d005a0001829f3e","freq_resp","","","img/blue_2bandit_b.png","70","img/blue_2bandit_b.png","70","test","","","","","","","","","","","5","","","","","","","","",""
"null","452848","SARL_v6","SARL_v6vmf4wfk0","5a3bdd2c8d005a0001829f3e","fixation","","","img/fixation.png","null","","","test","","","","","","","","","","","","","","","","","","","",""
"510.80000001192093","453361","SARL_v6","SARL_v6vmf4wfk0","5a3bdd2c8d005a0001829f3e","freq","","","img/blue_2bandit_b2.png","70","","70","test","1","","99","","","","circle","square","95","11","5","0.9473684210526315","","","","","","","",""
"null","453661","SARL_v6","SARL_v6vmf4wfk0","5a3bdd2c8d005a0001829f3e","freq_resp","","","img/blue_2bandit_b.png","70","img/blue_2bandit_b.png","70","test","","","","","","","","","","","5","","","","","","","","",""
"null","453817","SARL_v6","SARL_v6vmf4wfk0","5a3bdd2c8d005a0001829f3e","fixation","","","img/fixation.png","null","","","test","","","","","","","","","","","","","","","","","","","",""
"398.19999998807907","454217","SARL_v6","SARL_v6vmf4wfk0","5a3bdd2c8d005a0001829f3e","freq","","","img/blue_2bandit_b2.png","70","","70","test","1","","100","","","","circle","square","96","12","5","0.9479166666666666","","","","","","","",""
"null","454632","SARL_v6","SARL_v6vmf4wfk0","5a3bdd2c8d005a0001829f3e","freq_resp","","","img/blue_2bandit_b.png","70","img/blue_2bandit_b.png","70","test","","","","","","","","","","","5","","","","","","","","",""
"null","454793","SARL_v6","SARL_v6vmf4wfk0","5a3bdd2c8d005a0001829f3e","fixation","","","img/fixation.png","null","","","test","","","","","","","","","","","","","","","","","","","",""
"430.19999998807907","455225","SARL_v6","SARL_v6vmf4wfk0","5a3bdd2c8d005a0001829f3e","freq","","","img/blue_2bandit_b2.png","70","","70","test","1","","101","","","","circle","square","97","13","5","0.9484536082474226","","","","","","","",""
"null","455603","SARL_v6","SARL_v6vmf4wfk0","5a3bdd2c8d005a0001829f3e","freq_resp","","","img/blue_2bandit_b.png","70","img/blue_2bandit_b.png","70","test","","","","","","","","","","","5","","","","","","","","",""
"null","455760","SARL_v6","SARL_v6vmf4wfk0","5a3bdd2c8d005a0001829f3e","fixation","","","img/fixation.png","null","","","test","","","","","","","","","","","","","","","","","","","",""
"399.69999998807907","456161","SARL_v6","SARL_v6vmf4wfk0","5a3bdd2c8d005a0001829f3e","freq","","","img/blue_2bandit_b2.png","70","","70","test","1","","102","","","","circle","square","98","14","5","0.9489795918367347","","","","","","","",""
"null","456573","SARL_v6","SARL_v6vmf4wfk0","5a3bdd2c8d005a0001829f3e","freq_resp","","","img/blue_2bandit_b.png","70","img/blue_2bandit_b.png","70","test","","","","","","","","","","","5","","","","","","","","",""
"null","456730","SARL_v6","SARL_v6vmf4wfk0","5a3bdd2c8d005a0001829f3e","fixation","","","img/fixation.png","null","","","test","","","","","","","","","","","","","","","","","","","",""
"389.59999999403954","457121","SARL_v6","SARL_v6vmf4wfk0","5a3bdd2c8d005a0001829f3e","infreq","","","img/orange_2bandit_b2.png","68","","68","test","1","","103","","","","circle","square","99","15","5","0.9494949494949495","","","","","","","",""
"null","457545","SARL_v6","SARL_v6vmf4wfk0","5a3bdd2c8d005a0001829f3e","infreq_resp","","","img/orange_2bandit_b.png","68","img/orange_2bandit_b.png","68","test","","","","","","","","","","","5","","","","","","","","",""
"null","457703","SARL_v6","SARL_v6vmf4wfk0","5a3bdd2c8d005a0001829f3e","fixation","","","img/fixation.png","null","","","test","","","","","","","","","","","","","","","","","","","",""
"328.2000000178814","458033","SARL_v6","SARL_v6vmf4wfk0","5a3bdd2c8d005a0001829f3e","freq","","","img/blue_2bandit_b2.png","70","","70","test","1","","104","","","","circle","square","100","16","5","0.95","","","","","","","",""
"null","458519","SARL_v6","SARL_v6vmf4wfk0","5a3bdd2c8d005a0001829f3e","freq_resp","","","img/blue_2bandit_b.png","70","img/blue_2bandit_b.png","70","test","","","","","","","","","","","5","","","","","","","","",""
"null","458672","SARL_v6","SARL_v6vmf4wfk0","5a3bdd2c8d005a0001829f3e","fixation","","","img/fixation.png","null","","","test","","","","","","","","","","","","","","","","","","","",""
"367.19999998807907","459041","SARL_v6","SARL_v6vmf4wfk0","5a3bdd2c8d005a0001829f3e","freq","","","img/blue_2bandit_b2.png","70","","70","test","1","","105","","","","circle","square","101","17","5","0.9504950495049505","","","","","","","",""
"null","459491","SARL_v6","SARL_v6vmf4wfk0","5a3bdd2c8d005a0001829f3e","freq_resp","","","img/blue_2bandit_b.png","70","img/blue_2bandit_b.png","70","test","","","","","","","","","","","5","","","","","","","","",""
"null","459651","SARL_v6","SARL_v6vmf4wfk0","5a3bdd2c8d005a0001829f3e","fixation","","","img/fixation.png","null","","","test","","","","","","","","","","","","","","","","","","","",""
"372.69999998807907","460025","SARL_v6","SARL_v6vmf4wfk0","5a3bdd2c8d005a0001829f3e","freq","","","img/blue_2bandit_b2.png","70","","70","test","1","","106","","","","circle","square","102","18","5","0.9509803921568627","","","","","","","",""
"null","460470","SARL_v6","SARL_v6vmf4wfk0","5a3bdd2c8d005a0001829f3e","freq_resp","","","img/blue_2bandit_b.png","70","img/blue_2bandit_b.png","70","test","","","","","","","","","","","5","","","","","","","","",""
"null","460630","SARL_v6","SARL_v6vmf4wfk0","5a3bdd2c8d005a0001829f3e","fixation","","","img/fixation.png","null","","","test","","","","","","","","","","","","","","","","","","","",""
"368.80000001192093","461001","SARL_v6","SARL_v6vmf4wfk0","5a3bdd2c8d005a0001829f3e","freq","","","img/blue_2bandit_b2.png","70","","70","test","1","","107","","","","circle","square","103","19","5","0.9514563106796117","","","","","","","",""
"null","461443","SARL_v6","SARL_v6vmf4wfk0","5a3bdd2c8d005a0001829f3e","freq_resp","","","img/blue_2bandit_b.png","70","img/blue_2bandit_b.png","70","test","","","","","","","","","","","5","","","","","","","","",""
"null","461603","SARL_v6","SARL_v6vmf4wfk0","5a3bdd2c8d005a0001829f3e","fixation","","","img/fixation.png","null","","","test","","","","","","","","","","","","","","","","","","","",""
"388.7999999821186","461993","SARL_v6","SARL_v6vmf4wfk0","5a3bdd2c8d005a0001829f3e","freq","","","img/blue_2bandit_b2.png","70","","70","test","1","","108","","","","circle","square","104","20","5","0.9519230769230769","","","","","","","",""
"null","462416","SARL_v6","SARL_v6vmf4wfk0","5a3bdd2c8d005a0001829f3e","freq_resp","","","img/blue_2bandit_b.png","70","img/blue_2bandit_b.png","70","test","","","","","","","","","","","5","","","","","","","","",""
"null","462595","SARL_v6","SARL_v6vmf4wfk0","5a3bdd2c8d005a0001829f3e","fixation","","","img/fixation.png","null","","","test","","","","","","","","","","","","","","","","","","","",""
"764.6999999880791","463362","SARL_v6","SARL_v6vmf4wfk0","5a3bdd2c8d005a0001829f3e","rl","","","img/black_2bandit_b2.png","74","","0","test","","","109","","","4","circle","square","","0","5","","74","4","-7","4","-7","circle","5","0"
"null","464124","SARL_v6","SARL_v6vmf4wfk0","5a3bdd2c8d005a0001829f3e","feedback","","","<div class=""veryhighPoints""> 4 </div>","null","","na","test","","","NaN","","","","","","","","5","","74","","","","","","5",""
"531.0999999940395","464657","SARL_v6","SARL_v6vmf4wfk0","5a3bdd2c8d005a0001829f3e","freq","","","img/blue_2bandit_b2.png","70","","70","test","1","","110","","","","circle","square","105","1","6","0.9523809523809523","","","","","","","",""
"null","464935","SARL_v6","SARL_v6vmf4wfk0","5a3bdd2c8d005a0001829f3e","freq_resp","","","img/blue_2bandit_b.png","70","img/blue_2bandit_b.png","70","test","","","","","","","","","","","6","","","","","","","","",""
"null","465101","SARL_v6","SARL_v6vmf4wfk0","5a3bdd2c8d005a0001829f3e","fixation","","","img/fixation.png","null","","","test","","","","","","","","","","","","","","","","","","","",""
"618.2999999821186","465721","SARL_v6","SARL_v6vmf4wfk0","5a3bdd2c8d005a0001829f3e","infreq","","","img/orange_2bandit_b2.png","68","","68","test","1","","111","","","","circle","square","106","2","6","0.9528301886792453","","","","","","","",""
"null","465906","SARL_v6","SARL_v6vmf4wfk0","5a3bdd2c8d005a0001829f3e","infreq_resp","","","img/orange_2bandit_b.png","68","img/orange_2bandit_b.png","68","test","","","","","","","","","","","6","","","","","","","","",""
"null","466064","SARL_v6","SARL_v6vmf4wfk0","5a3bdd2c8d005a0001829f3e","fixation","","","img/fixation.png","null","","","test","","","","","","","","","","","","","","","","","","","",""
"null","466878","SARL_v6","SARL_v6vmf4wfk0","5a3bdd2c8d005a0001829f3e","freq","","","img/blue_2bandit_b2.png","null","","70","test","0","","112","","","","circle","square","107","3","6","0.9439252336448598","","","","","","","",""
"null","467035","SARL_v6","SARL_v6vmf4wfk0","5a3bdd2c8d005a0001829f3e","fixation","","","img/fixation.png","null","","","test","","","","","","","","","","","","","","","","","","","",""
"451.69999998807907","467489","SARL_v6","SARL_v6vmf4wfk0","5a3bdd2c8d005a0001829f3e","freq","","","img/blue_2bandit_b2.png","70","","70","test","1","","113","","","","circle","square","108","4","6","0.9444444444444444","","","","","","","",""
"null","467853","SARL_v6","SARL_v6vmf4wfk0","5a3bdd2c8d005a0001829f3e","freq_resp","","","img/blue_2bandit_b.png","70","img/blue_2bandit_b.png","70","test","","","","","","","","","","","6","","","","","","","","",""
"null","468009","SARL_v6","SARL_v6vmf4wfk0","5a3bdd2c8d005a0001829f3e","fixation","","","img/fixation.png","null","","","test","","","","","","","","","","","","","","","","","","","",""
"435.19999998807907","468447","SARL_v6","SARL_v6vmf4wfk0","5a3bdd2c8d005a0001829f3e","freq","","","img/blue_2bandit_b2.png","70","","70","test","1","","114","","","","circle","square","109","5","6","0.944954128440367","","","","","","","",""
"null","468830","SARL_v6","SARL_v6vmf4wfk0","5a3bdd2c8d005a0001829f3e","freq_resp","","","img/blue_2bandit_b.png","70","img/blue_2bandit_b.png","70","test","","","","","","","","","","","6","","","","","","","","",""
"null","468986","SARL_v6","SARL_v6vmf4wfk0","5a3bdd2c8d005a0001829f3e","fixation","","","img/fixation.png","null","","","test","","","","","","","","","","","","","","","","","","","",""
"269.69999998807907","469257","SARL_v6","SARL_v6vmf4wfk0","5a3bdd2c8d005a0001829f3e","freq","","","img/blue_2bandit_b2.png","70","","70","test","1","","115","","","","circle","square","110","6","6","0.9454545454545454","","","","","","","",""
"null","469791","SARL_v6","SARL_v6vmf4wfk0","5a3bdd2c8d005a0001829f3e","freq_resp","","","img/blue_2bandit_b.png","70","img/blue_2bandit_b.png","70","test","","","","","","","","","","","6","","","","","","","","",""
"null","469947","SARL_v6","SARL_v6vmf4wfk0","5a3bdd2c8d005a0001829f3e","fixation","","","img/fixation.png","null","","","test","","","","","","","","","","","","","","","","","","","",""
"300.09999999403954","470249","SARL_v6","SARL_v6vmf4wfk0","5a3bdd2c8d005a0001829f3e","freq","","","img/blue_2bandit_b2.png","70","","70","test","1","","116","","","","circle","square","111","7","6","0.9459459459459459","","","","","","","",""
"null","470756","SARL_v6","SARL_v6vmf4wfk0","5a3bdd2c8d005a0001829f3e","freq_resp","","","img/blue_2bandit_b.png","70","img/blue_2bandit_b.png","70","test","","","","","","","","","","","6","","","","","","","","",""
"null","470914","SARL_v6","SARL_v6vmf4wfk0","5a3bdd2c8d005a0001829f3e","fixation","","","img/fixation.png","null","","","test","","","","","","","","","","","","","","","","","","","",""
"316.90000000596046","471233","SARL_v6","SARL_v6vmf4wfk0","5a3bdd2c8d005a0001829f3e","freq","","","img/blue_2bandit_b2.png","70","","70","test","1","","117","","","","circle","square","112","8","6","0.9464285714285714","","","","","","","",""
"null","471720","SARL_v6","SARL_v6vmf4wfk0","5a3bdd2c8d005a0001829f3e","freq_resp","","","img/blue_2bandit_b.png","70","img/blue_2bandit_b.png","70","test","","","","","","","","","","","6","","","","","","","","",""
"null","471876","SARL_v6","SARL_v6vmf4wfk0","5a3bdd2c8d005a0001829f3e","fixation","","","img/fixation.png","null","","","test","","","","","","","","","","","","","","","","","","","",""
"379.40000000596046","472258","SARL_v6","SARL_v6vmf4wfk0","5a3bdd2c8d005a0001829f3e","freq","","","img/blue_2bandit_b2.png","70","","70","test","1","","118","","","","circle","square","113","9","6","0.9469026548672567","","","","","","","",""
"null","472690","SARL_v6","SARL_v6vmf4wfk0","5a3bdd2c8d005a0001829f3e","freq_resp","","","img/blue_2bandit_b.png","70","img/blue_2bandit_b.png","70","test","","","","","","","","","","","6","","","","","","","","",""
"null","472845","SARL_v6","SARL_v6vmf4wfk0","5a3bdd2c8d005a0001829f3e","fixation","","","img/fixation.png","null","","","test","","","","","","","","","","","","","","","","","","","",""
"370","473217","SARL_v6","SARL_v6vmf4wfk0","5a3bdd2c8d005a0001829f3e","freq","","","img/blue_2bandit_b2.png","70","","70","test","1","","119","","","","circle","square","114","10","6","0.9473684210526315","","","","","","","",""
"null","473654","SARL_v6","SARL_v6vmf4wfk0","5a3bdd2c8d005a0001829f3e","freq_resp","","","img/blue_2bandit_b.png","70","img/blue_2bandit_b.png","70","test","","","","","","","","","","","6","","","","","","","","",""
"null","473813","SARL_v6","SARL_v6vmf4wfk0","5a3bdd2c8d005a0001829f3e","fixation","","","img/fixation.png","null","","","test","","","","","","","","","","","","","","","","","","","",""
"378.30000001192093","474194","SARL_v6","SARL_v6vmf4wfk0","5a3bdd2c8d005a0001829f3e","freq","","","img/blue_2bandit_b2.png","70","","70","test","1","","120","","","","circle","square","115","11","6","0.9478260869565217","","","","","","","",""
"null","474632","SARL_v6","SARL_v6vmf4wfk0","5a3bdd2c8d005a0001829f3e","freq_resp","","","img/blue_2bandit_b.png","70","img/blue_2bandit_b.png","70","test","","","","","","","","","","","6","","","","","","","","",""
"null","474787","SARL_v6","SARL_v6vmf4wfk0","5a3bdd2c8d005a0001829f3e","fixation","","","img/fixation.png","null","","","test","","","","","","","","","","","","","","","","","","","",""
"420.30000001192093","475210","SARL_v6","SARL_v6vmf4wfk0","5a3bdd2c8d005a0001829f3e","freq","","","img/blue_2bandit_b2.png","70","","70","test","1","","121","","","","circle","square","116","12","6","0.9482758620689655","","","","","","","",""
"null","475605","SARL_v6","SARL_v6vmf4wfk0","5a3bdd2c8d005a0001829f3e","freq_resp","","","img/blue_2bandit_b.png","70","img/blue_2bandit_b.png","70","test","","","","","","","","","","","6","","","","","","","","",""
"null","475765","SARL_v6","SARL_v6vmf4wfk0","5a3bdd2c8d005a0001829f3e","fixation","","","img/fixation.png","null","","","test","","","","","","","","","","","","","","","","","","","",""
"402.5","476170","SARL_v6","SARL_v6vmf4wfk0","5a3bdd2c8d005a0001829f3e","freq","","","img/blue_2bandit_b2.png","70","","70","test","1","","122","","","","circle","square","117","13","6","0.9487179487179487","","","","","","","",""
"null","476578","SARL_v6","SARL_v6vmf4wfk0","5a3bdd2c8d005a0001829f3e","freq_resp","","","img/blue_2bandit_b.png","70","img/blue_2bandit_b.png","70","test","","","","","","","","","","","6","","","","","","","","",""
"null","476736","SARL_v6","SARL_v6vmf4wfk0","5a3bdd2c8d005a0001829f3e","fixation","","","img/fixation.png","null","","","test","","","","","","","","","","","","","","","","","","","",""
"440","477178","SARL_v6","SARL_v6vmf4wfk0","5a3bdd2c8d005a0001829f3e","freq","","","img/blue_2bandit_b2.png","70","","70","test","1","","123","","","","circle","square","118","14","6","0.9491525423728814","","","","","","","",""
"null","477549","SARL_v6","SARL_v6vmf4wfk0","5a3bdd2c8d005a0001829f3e","freq_resp","","","img/blue_2bandit_b.png","70","img/blue_2bandit_b.png","70","test","","","","","","","","","","","6","","","","","","","","",""
"null","477707","SARL_v6","SARL_v6vmf4wfk0","5a3bdd2c8d005a0001829f3e","fixation","","","img/fixation.png","null","","","test","","","","","","","","","","","","","","","","","","","",""
"436.90000000596046","478146","SARL_v6","SARL_v6vmf4wfk0","5a3bdd2c8d005a0001829f3e","freq","","","img/blue_2bandit_b2.png","70","","70","test","1","","124","","","","circle","square","119","15","6","0.9495798319327731","","","","","","","",""
"null","478525","SARL_v6","SARL_v6vmf4wfk0","5a3bdd2c8d005a0001829f3e","freq_resp","","","img/blue_2bandit_b.png","70","img/blue_2bandit_b.png","70","test","","","","","","","","","","","6","","","","","","","","",""
"null","478684","SARL_v6","SARL_v6vmf4wfk0","5a3bdd2c8d005a0001829f3e","fixation","","","img/fixation.png","null","","","test","","","","","","","","","","","","","","","","","","","",""
"363.69999998807907","479050","SARL_v6","SARL_v6vmf4wfk0","5a3bdd2c8d005a0001829f3e","freq","","","img/blue_2bandit_b2.png","70","","70","test","1","","125","","","","circle","square","120","16","6","0.95","","","","","","","",""
"null","479499","SARL_v6","SARL_v6vmf4wfk0","5a3bdd2c8d005a0001829f3e","freq_resp","","","img/blue_2bandit_b.png","70","img/blue_2bandit_b.png","70","test","","","","","","","","","","","6","","","","","","","","",""
"null","479658","SARL_v6","SARL_v6vmf4wfk0","5a3bdd2c8d005a0001829f3e","fixation","","","img/fixation.png","null","","","test","","","","","","","","","","","","","","","","","","","",""
"310.2000000178814","479971","SARL_v6","SARL_v6vmf4wfk0","5a3bdd2c8d005a0001829f3e","freq","","","img/blue_2bandit_b2.png","70","","70","test","1","","126","","","","circle","square","121","17","6","0.9504132231404959","","","","","","","",""
"null","480468","SARL_v6","SARL_v6vmf4wfk0","5a3bdd2c8d005a0001829f3e","freq_resp","","","img/blue_2bandit_b.png","70","img/blue_2bandit_b.png","70","test","","","","","","","","","","","6","","","","","","","","",""
"null","480625","SARL_v6","SARL_v6vmf4wfk0","5a3bdd2c8d005a0001829f3e","fixation","","","img/fixation.png","null","","","test","","","","","","","","","","","","","","","","","","","",""
"311.2000000178814","480938","SARL_v6","SARL_v6vmf4wfk0","5a3bdd2c8d005a0001829f3e","freq","","","img/blue_2bandit_b2.png","70","","70","test","1","","127","","","","circle","square","122","18","6","0.9508196721311475","","","","","","","",""
"null","481436","SARL_v6","SARL_v6vmf4wfk0","5a3bdd2c8d005a0001829f3e","freq_resp","","","img/blue_2bandit_b.png","70","img/blue_2bandit_b.png","70","test","","","","","","","","","","","6","","","","","","","","",""
"null","481601","SARL_v6","SARL_v6vmf4wfk0","5a3bdd2c8d005a0001829f3e","fixation","","","img/fixation.png","null","","","test","","","","","","","","","","","","","","","","","","","",""
"326.5","481931","SARL_v6","SARL_v6vmf4wfk0","5a3bdd2c8d005a0001829f3e","freq","","","img/blue_2bandit_b2.png","70","","70","test","1","","128","","","","circle","square","123","19","6","0.9512195121951219","","","","","","","",""
"null","482418","SARL_v6","SARL_v6vmf4wfk0","5a3bdd2c8d005a0001829f3e","freq_resp","","","img/blue_2bandit_b.png","70","img/blue_2bandit_b.png","70","test","","","","","","","","","","","6","","","","","","","","",""
"null","482575","SARL_v6","SARL_v6vmf4wfk0","5a3bdd2c8d005a0001829f3e","fixation","","","img/fixation.png","null","","","test","","","","","","","","","","","","","","","","","","","",""
"376.69999998807907","482954","SARL_v6","SARL_v6vmf4wfk0","5a3bdd2c8d005a0001829f3e","infreq","","","img/orange_2bandit_b2.png","68","","68","test","1","","129","","","","circle","square","124","20","6","0.9516129032258065","","","","","","","",""
"null","483391","SARL_v6","SARL_v6vmf4wfk0","5a3bdd2c8d005a0001829f3e","infreq_resp","","","img/orange_2bandit_b.png","68","img/orange_2bandit_b.png","68","test","","","","","","","","","","","6","","","","","","","","",""
"null","483550","SARL_v6","SARL_v6vmf4wfk0","5a3bdd2c8d005a0001829f3e","fixation","","","img/fixation.png","null","","","test","","","","","","","","","","","","","","","","","","","",""
"466.10000002384186","484018","SARL_v6","SARL_v6vmf4wfk0","5a3bdd2c8d005a0001829f3e","freq","","","img/blue_2bandit_b2.png","70","","70","test","1","","130","","","","circle","square","125","21","6","0.952","","","","","","","",""
"null","484366","SARL_v6","SARL_v6vmf4wfk0","5a3bdd2c8d005a0001829f3e","freq_resp","","","img/blue_2bandit_b.png","70","img/blue_2bandit_b.png","70","test","","","","","","","","","","","6","","","","","","","","",""
"null","484524","SARL_v6","SARL_v6vmf4wfk0","5a3bdd2c8d005a0001829f3e","fixation","","","img/fixation.png","null","","","test","","","","","","","","","","","","","","","","","","","",""
"532.2000000178814","485058","SARL_v6","SARL_v6vmf4wfk0","5a3bdd2c8d005a0001829f3e","rl","","","img/black_2bandit_b2.png","74","","0","test","","","131","","","-4","circle","square","","0","6","","74","-4","-1","-4","-1","circle","6","0"
"null","485823","SARL_v6","SARL_v6vmf4wfk0","5a3bdd2c8d005a0001829f3e","feedback","","","<div class=""verylowPoints""> -4 </div>","null","","na","test","","","NaN","","","","","","","","6","","74","","","","","","6",""
