"rt","time_elapsed","expId","subject","prolificID","trialType","rlType","attType","stimulus","key_press","stim","corrresp","phase","corr","pracCounter","trialNum","rewardOne","rewardTwo","reward","bandOne","bandTwo","attentionNum","attentionRunNum","blockNum","performance","bandChosen","circleVal","squareVal","bandOneVal","bandTwoVal","shapeChosen","rlNum","badFlag"
"12125","12135","SARL_v6","SARL_v6629g2w2j","636261a282f90a4b0998fe5c","","","","","","","","","","","","","","","","","","","","","","","","","","","",""
"","16863","SARL_v6","SARL_v6629g2w2j","636261a282f90a4b0998fe5c","fullscreen","fullscreen","fullscreen","","","","","","","","","","","","","","","","","","","","","","","","",""
"320326","337195","SARL_v6","SARL_v6629g2w2j","636261a282f90a4b0998fe5c","","","","","","","","","","","","","","","","","","","","","","","","","","","",""
"null","338012","SARL_v6","SARL_v6629g2w2j","636261a282f90a4b0998fe5c","freqPrac","","","img/orange_2bandit_a2.png","null","img/orange_2bandit_a2.png","70","prac","0","1","","","","","","","","","","","","","","","","","",""
"null","339031","SARL_v6","SARL_v6629g2w2j","636261a282f90a4b0998fe5c","feedback","","","img/tooSlow.png","null","","na","prac","","","","","","","","","","","","","","","","","","","",""
"null","339187","SARL_v6","SARL_v6629g2w2j","636261a282f90a4b0998fe5c","fixation","","","img/fixation.png","null","","","prac","","","","","","","","","","","","","","","","","","","",""
"745","339935","SARL_v6","SARL_v6629g2w2j","636261a282f90a4b0998fe5c","infreqPrac","","","img/blue_2bandit_a2.png","68","img/blue_2bandit_a2.png","68","prac","1","1","","","","","","","","","","","","","","","","","",""
"745","339997","SARL_v6","SARL_v6629g2w2j","636261a282f90a4b0998fe5c","infreqPrac_resp","","","img/blue_2bandit_a.png","68","img/blue_2bandit_a.png","68","prac","","","","","","","","","","","","","","","","","","","",""
"null","340154","SARL_v6","SARL_v6629g2w2j","636261a282f90a4b0998fe5c","fixation","","","img/fixation.png","null","","","prac","","","","","","","","","","","","","","","","","","","",""
"null","340963","SARL_v6","SARL_v6629g2w2j","636261a282f90a4b0998fe5c","freqPrac","","","img/orange_2bandit_a2.png","null","img/orange_2bandit_a2.png","70","prac","0","2","","","","","","","","","","","","","","","","","",""
"null","341965","SARL_v6","SARL_v6629g2w2j","636261a282f90a4b0998fe5c","feedback","","","img/tooSlow.png","null","","na","prac","","","","","","","","","","","","","","","","","","","",""
"null","342123","SARL_v6","SARL_v6629g2w2j","636261a282f90a4b0998fe5c","fixation","","","img/fixation.png","null","","","prac","","","","","","","","","","","","","","","","","","","",""
"580","342704","SARL_v6","SARL_v6629g2w2j","636261a282f90a4b0998fe5c","infreqPrac","","","img/blue_2bandit_a2.png","68","img/blue_2bandit_a2.png","68","prac","1","2","","","","","","","","","","","","","","","","","",""
"580","342936","SARL_v6","SARL_v6629g2w2j","636261a282f90a4b0998fe5c","infreqPrac_resp","","","img/blue_2bandit_a.png","68","img/blue_2bandit_a.png","68","prac","","","","","","","","","","","","","","","","","","","",""
"null","343089","SARL_v6","SARL_v6629g2w2j","636261a282f90a4b0998fe5c","fixation","","","img/fixation.png","null","","","prac","","","","","","","","","","","","","","","","","","","",""
"null","343905","SARL_v6","SARL_v6629g2w2j","636261a282f90a4b0998fe5c","infreqPrac","","","img/blue_2bandit_a2.png","null","img/blue_2bandit_a2.png","68","prac","0","3","","","","","","","","","","","","","","","","","",""
"null","344913","SARL_v6","SARL_v6629g2w2j","636261a282f90a4b0998fe5c","feedback","","","img/tooSlow.png","null","","na","prac","","","","","","","","","","","","","","","","","","","",""
"null","345068","SARL_v6","SARL_v6629g2w2j","636261a282f90a4b0998fe5c","fixation","","","img/fixation.png","null","","","prac","","","","","","","","","","","","","","","","","","","",""
"null","345886","SARL_v6","SARL_v6629g2w2j","636261a282f90a4b0998fe5c","infreqPrac","","","img/blue_2bandit_a2.png","null","img/blue_2bandit_a2.png","68","prac","0","4","","","","","","","","","","","","","","","","","",""
"null","346901","SARL_v6","SARL_v6629g2w2j","636261a282f90a4b0998fe5c","feedback","","","img/tooSlow.png","null","","na","prac","","","","","","","","","","","","","","","","","","","",""
"null","347061","SARL_v6","SARL_v6629g2w2j","636261a282f90a4b0998fe5c","fixation","","","img/fixation.png","null","","","prac","","","","","","","","","","","","","","","","","","","",""
"620","347686","SARL_v6","SARL_v6629g2w2j","636261a282f90a4b0998fe5c","freqPrac","","","img/orange_2bandit_a2.png","68","img/orange_2bandit_a2.png","70","prac","0","5","","","","","","","","","","","","","","","","","",""
"620","347873","SARL_v6","SARL_v6629g2w2j","636261a282f90a4b0998fe5c","freqPrac_resp","","","img/orange_2bandit_a.png","68","img/orange_2bandit_a.png","70","prac","","","","","","","","","","","","","","","","","","","",""
"null","348887","SARL_v6","SARL_v6629g2w2j","636261a282f90a4b0998fe5c","feedback","","","img/wrongKey.png","null","","na","prac","","","","","","","","","","","","","","","","","","","",""
"null","349041","SARL_v6","SARL_v6629g2w2j","636261a282f90a4b0998fe5c","fixation","","","img/fixation.png","null","","","prac","","","","","","","","","","","","","","","","","","","",""
"483","349530","SARL_v6","SARL_v6629g2w2j","636261a282f90a4b0998fe5c","infreqPrac","","","img/blue_2bandit_a2.png","70","img/blue_2bandit_a2.png","68","prac","0","6","","","","","","","","","","","","","","","","","",""
"483","349854","SARL_v6","SARL_v6629g2w2j","636261a282f90a4b0998fe5c","infreqPrac_resp","","","img/blue_2bandit_a.png","70","img/blue_2bandit_a.png","68","prac","","","","","","","","","","","","","","","","","","","",""
"null","350869","SARL_v6","SARL_v6629g2w2j","636261a282f90a4b0998fe5c","feedback","","","img/wrongKey.png","null","","na","prac","","","","","","","","","","","","","","","","","","","",""
"null","351027","SARL_v6","SARL_v6629g2w2j","636261a282f90a4b0998fe5c","fixation","","","img/fixation.png","null","","","prac","","","","","","","","","","","","","","","","","","","",""
"425","351455","SARL_v6","SARL_v6629g2w2j","636261a282f90a4b0998fe5c","freqPrac","","","img/orange_2bandit_a2.png","68","img/orange_2bandit_a2.png","70","prac","0","7","","","","","","","","","","","","","","","","","",""
"425","351839","SARL_v6","SARL_v6629g2w2j","636261a282f90a4b0998fe5c","freqPrac_resp","","","img/orange_2bandit_a.png","68","img/orange_2bandit_a.png","70","prac","","","","","","","","","","","","","","","","","","","",""
"null","352841","SARL_v6","SARL_v6629g2w2j","636261a282f90a4b0998fe5c","feedback","","","img/wrongKey.png","null","","na","prac","","","","","","","","","","","","","","","","","","","",""
"null","352997","SARL_v6","SARL_v6629g2w2j","636261a282f90a4b0998fe5c","fixation","","","img/fixation.png","null","","","prac","","","","","","","","","","","","","","","","","","","",""
"601","353600","SARL_v6","SARL_v6629g2w2j","636261a282f90a4b0998fe5c","freqPrac","","","img/orange_2bandit_a2.png","70","img/orange_2bandit_a2.png","70","prac","1","7","","","","","","","","","","","","","","","","","",""
"601","353806","SARL_v6","SARL_v6629g2w2j","636261a282f90a4b0998fe5c","freqPrac_resp","","","img/orange_2bandit_a.png","70","img/orange_2bandit_a.png","70","prac","","","","","","","","","","","","","","","","","","","",""
"null","353965","SARL_v6","SARL_v6629g2w2j","636261a282f90a4b0998fe5c","fixation","","","img/fixation.png","null","","","prac","","","","","","","","","","","","","","","","","","","",""
"51730","405697","SARL_v6","SARL_v6629g2w2j","636261a282f90a4b0998fe5c","","","","","","","","prac","","","","","","","","","","","","","","","","","","","",""
"null","407206","SARL_v6","SARL_v6629g2w2j","636261a282f90a4b0998fe5c","rlPractice","","","img/black_2bandit_a2.png","null","img/black_2bandit_a2.png","","prac","","","0","","","","","","","","","","","","","","","","",""
"null","407971","SARL_v6","SARL_v6629g2w2j","636261a282f90a4b0998fe5c","feedback","","","<div font size = 80> TOO SLOW  </div>","null","","na","prac","","","1","10","-14","10","","","","","","","","","","","","","",""
"null","408128","SARL_v6","SARL_v6629g2w2j","636261a282f90a4b0998fe5c","fixation","","","img/fixation.png","null","","","prac","","","","","","","","","","","","","","","","","","","",""
"894","409027","SARL_v6","SARL_v6629g2w2j","636261a282f90a4b0998fe5c","rlPractice","","","img/black_2bandit_a2.png","74","img/black_2bandit_a2.png","","prac","","","1","","","","","","","","","","","","","","","","",""
"null","409785","SARL_v6","SARL_v6629g2w2j","636261a282f90a4b0998fe5c","feedback","","","<div class=""verylowPoints_sq""> -5 </div>","null","","na","prac","","","2","5","-5","5","","","","","","","","","","","","","",""
"null","409942","SARL_v6","SARL_v6629g2w2j","636261a282f90a4b0998fe5c","fixation","","","img/fixation.png","null","","","prac","","","","","","","","","","","","","","","","","","","",""
"524","410468","SARL_v6","SARL_v6629g2w2j","636261a282f90a4b0998fe5c","rlPractice","","","img/black_2bandit_a2.png","75","img/black_2bandit_a2.png","","prac","","","2","","","","","","","","","","","","","","","","",""
"null","411225","SARL_v6","SARL_v6629g2w2j","636261a282f90a4b0998fe5c","feedback","","","<div class=""veryhighPoints""> 30 </div>","null","","na","prac","","","3","30","2","30","","","","","","","","","","","","","",""
"null","411379","SARL_v6","SARL_v6629g2w2j","636261a282f90a4b0998fe5c","fixation","","","img/fixation.png","null","","","prac","","","","","","","","","","","","","","","","","","","",""
"561","411945","SARL_v6","SARL_v6629g2w2j","636261a282f90a4b0998fe5c","rlPractice","","","img/black_2bandit_a2.png","75","img/black_2bandit_a2.png","","prac","","","3","","","","","","","","","","","","","","","","",""
"null","412710","SARL_v6","SARL_v6629g2w2j","636261a282f90a4b0998fe5c","feedback","","","<div class=""verylowPoints""> -2 </div>","null","","na","prac","","","4","-2","20","-2","","","","","","","","","","","","","",""
"null","412865","SARL_v6","SARL_v6629g2w2j","636261a282f90a4b0998fe5c","fixation","","","img/fixation.png","null","","","prac","","","","","","","","","","","","","","","","","","","",""
"38959","451826","SARL_v6","SARL_v6629g2w2j","636261a282f90a4b0998fe5c","","","","","","","","prac","","","","","","","","","","","","","","","","","","","",""
"749","452579","SARL_v6","SARL_v6629g2w2j","636261a282f90a4b0998fe5c","mixAttFreqPrac","","","img/orange_2bandit_a2.png","70","img/orange_2bandit_a2.png","70","prac","","","1","","","","","","","","","","","","","","","","",""
"749","452643","SARL_v6","SARL_v6629g2w2j","636261a282f90a4b0998fe5c","freqPrac_resp","","","img/orange_2bandit_a.png","70","img/orange_2bandit_a.png","70","prac","","","1","","","","","","","","","","","","","","","","",""
"null","452798","SARL_v6","SARL_v6629g2w2j","636261a282f90a4b0998fe5c","fixation","","","img/fixation.png","null","","","prac","","","","","","","","","","","","","","","","","","","",""
"444","453247","SARL_v6","SARL_v6629g2w2j","636261a282f90a4b0998fe5c","mixAttInfreqPrac","","","img/blue_2bandit_a2.png","68","img/blue_2bandit_a2.png","68","prac","","","2","","","","","","","","","","","","","","","","",""
"444","453610","SARL_v6","SARL_v6629g2w2j","636261a282f90a4b0998fe5c","infreqPrac_resp","","","img/blue_2bandit_a.png","68","img/orange_2bandit_a.png","68","prac","","","2","","","","","","","","","","","","","","","","",""
"null","453764","SARL_v6","SARL_v6629g2w2j","636261a282f90a4b0998fe5c","fixation","","","img/fixation.png","null","","","prac","","","","","","","","","","","","","","","","","","","",""
"472","454239","SARL_v6","SARL_v6629g2w2j","636261a282f90a4b0998fe5c","mixAttInfreqPrac","","","img/blue_2bandit_a2.png","68","img/blue_2bandit_a2.png","68","prac","","","3","","","","","","","","","","","","","","","","",""
"472","454582","SARL_v6","SARL_v6629g2w2j","636261a282f90a4b0998fe5c","infreqPrac_resp","","","img/blue_2bandit_a.png","68","img/orange_2bandit_a.png","68","prac","","","3","","","","","","","","","","","","","","","","",""
"null","454735","SARL_v6","SARL_v6629g2w2j","636261a282f90a4b0998fe5c","fixation","","","img/fixation.png","null","","","prac","","","","","","","","","","","","","","","","","","","",""
"446","455186","SARL_v6","SARL_v6629g2w2j","636261a282f90a4b0998fe5c","mixAttInfreqPrac","","","img/blue_2bandit_a2.png","68","img/blue_2bandit_a2.png","68","prac","","","4","","","","","","","","","","","","","","","","",""
"446","455548","SARL_v6","SARL_v6629g2w2j","636261a282f90a4b0998fe5c","infreqPrac_resp","","","img/blue_2bandit_a.png","68","img/orange_2bandit_a.png","68","prac","","","4","","","","","","","","","","","","","","","","",""
"null","455705","SARL_v6","SARL_v6629g2w2j","636261a282f90a4b0998fe5c","fixation","","","img/fixation.png","null","","","prac","","","","","","","","","","","","","","","","","","","",""
"574","456284","SARL_v6","SARL_v6629g2w2j","636261a282f90a4b0998fe5c","mixAttFreqPrac","","","img/orange_2bandit_a2.png","70","img/orange_2bandit_a2.png","70","prac","","","5","","","","","","","","","","","","","","","","",""
"574","456514","SARL_v6","SARL_v6629g2w2j","636261a282f90a4b0998fe5c","freqPrac_resp","","","img/orange_2bandit_a.png","70","img/orange_2bandit_a.png","70","prac","","","5","","","","","","","","","","","","","","","","",""
"null","456675","SARL_v6","SARL_v6629g2w2j","636261a282f90a4b0998fe5c","fixation","","","img/fixation.png","null","","","prac","","","","","","","","","","","","","","","","","","","",""
"1308","457986","SARL_v6","SARL_v6629g2w2j","636261a282f90a4b0998fe5c","mixRLPractice","","","img/black_2bandit_a2.png","74","img/black_2bandit_a2.png","","prac","","","5","","","","","","","","","","","","","","","","",""
"null","458744","SARL_v6","SARL_v6629g2w2j","636261a282f90a4b0998fe5c","feedback","","","<div class=""veryhighPoints_sq""> 10 </div>","null","","na","prac","","","6","-14","10","-14","","","","","","","","","","","","","",""
"null","458900","SARL_v6","SARL_v6629g2w2j","636261a282f90a4b0998fe5c","fixation","","","img/fixation.png","null","","","prac","","","","","","","","","","","","","","","","","","","",""
"null","459713","SARL_v6","SARL_v6629g2w2j","636261a282f90a4b0998fe5c","mixAttFreqPrac","","","img/orange_2bandit_a2.png","null","img/orange_2bandit_a2.png","70","prac","","","7","","","","","","","","","","","","","","","","",""
"15","459873","SARL_v6","SARL_v6629g2w2j","636261a282f90a4b0998fe5c","fixation","","","img/fixation.png","70","","","prac","","","","","","","","","","","","","","","","","","","",""
"null","460686","SARL_v6","SARL_v6629g2w2j","636261a282f90a4b0998fe5c","mixAttInfreqPrac","","","img/blue_2bandit_a2.png","null","img/blue_2bandit_a2.png","68","prac","","","8","","","","","","","","","","","","","","","","",""
"34","460841","SARL_v6","SARL_v6629g2w2j","636261a282f90a4b0998fe5c","fixation","","","img/fixation.png","68","","","prac","","","","","","","","","","","","","","","","","","","",""
"721","461567","SARL_v6","SARL_v6629g2w2j","636261a282f90a4b0998fe5c","mixAttFreqPrac","","","img/orange_2bandit_a2.png","70","img/orange_2bandit_a2.png","70","prac","","","9","","","","","","","","","","","","","","","","",""
"721","461652","SARL_v6","SARL_v6629g2w2j","636261a282f90a4b0998fe5c","freqPrac_resp","","","img/orange_2bandit_a.png","70","img/orange_2bandit_a.png","70","prac","","","9","","","","","","","","","","","","","","","","",""
"null","461810","SARL_v6","SARL_v6629g2w2j","636261a282f90a4b0998fe5c","fixation","","","img/fixation.png","null","","","prac","","","","","","","","","","","","","","","","","","","",""
"null","462614","SARL_v6","SARL_v6629g2w2j","636261a282f90a4b0998fe5c","mixAttFreqPrac","","","img/orange_2bandit_a2.png","null","img/orange_2bandit_a2.png","70","prac","","","10","","","","","","","","","","","","","","","","",""
"125","462769","SARL_v6","SARL_v6629g2w2j","636261a282f90a4b0998fe5c","fixation","","","img/fixation.png","70","","","prac","","","","","","","","","","","","","","","","","","","",""
"598","463370","SARL_v6","SARL_v6629g2w2j","636261a282f90a4b0998fe5c","mixAttInfreqPrac","","","img/blue_2bandit_a2.png","68","img/blue_2bandit_a2.png","68","prac","","","11","","","","","","","","","","","","","","","","",""
"598","463579","SARL_v6","SARL_v6629g2w2j","636261a282f90a4b0998fe5c","infreqPrac_resp","","","img/blue_2bandit_a.png","68","img/orange_2bandit_a.png","68","prac","","","11","","","","","","","","","","","","","","","","",""
"null","463735","SARL_v6","SARL_v6629g2w2j","636261a282f90a4b0998fe5c","fixation","","","img/fixation.png","null","","","prac","","","","","","","","","","","","","","","","","","","",""
"742","464480","SARL_v6","SARL_v6629g2w2j","636261a282f90a4b0998fe5c","mixRLPractice","","","img/black_2bandit_a2.png","74","img/black_2bandit_a2.png","","prac","","","11","","","","","","","","","","","","","","","","",""
"null","465238","SARL_v6","SARL_v6629g2w2j","636261a282f90a4b0998fe5c","feedback","","","<div class=""verylowPoints_sq""> -5 </div>","null","","na","prac","","","12","5","-5","5","","","","","","","","","","","","","",""
"null","465392","SARL_v6","SARL_v6629g2w2j","636261a282f90a4b0998fe5c","fixation","","","img/fixation.png","null","","","prac","","","","","","","","","","","","","","","","","","","",""
"17758","483152","SARL_v6","SARL_v6629g2w2j","636261a282f90a4b0998fe5c","","","","","","","","prac","","","","","","","","","","","","","","","","","","","",""
"595","483750","SARL_v6","SARL_v6629g2w2j","636261a282f90a4b0998fe5c","freq","","","img/orange_2bandit_a2.png","68","","70","test","0","","1","","","","square","circle","1","1","1","0","","","","","","","",""
"null","483967","SARL_v6","SARL_v6629g2w2j","636261a282f90a4b0998fe5c","freq_resp","","","img/orange_2bandit_a.png","68","img/orange_2bandit_a.png","70","test","","","","","","","","","","","1","","","","","","","","",""
"null","484121","SARL_v6","SARL_v6629g2w2j","636261a282f90a4b0998fe5c","fixation","","","img/fixation.png","null","","","test","","","","","","","","","","","","","","","","","","","",""
"null","484940","SARL_v6","SARL_v6629g2w2j","636261a282f90a4b0998fe5c","freq","","","img/orange_2bandit_a2.png","null","","70","test","0","","2","","","","square","circle","2","2","1","0","","","","","","","",""
"null","485094","SARL_v6","SARL_v6629g2w2j","636261a282f90a4b0998fe5c","fixation","","","img/fixation.png","null","","","test","","","","","","","","","","","","","","","","","","","",""
"407","485505","SARL_v6","SARL_v6629g2w2j","636261a282f90a4b0998fe5c","freq","","","img/orange_2bandit_a2.png","70","","70","test","1","","3","","","","square","circle","3","3","1","0.3333333333333333","","","","","","","",""
"null","485906","SARL_v6","SARL_v6629g2w2j","636261a282f90a4b0998fe5c","freq_resp","","","img/orange_2bandit_a.png","70","img/orange_2bandit_a.png","70","test","","","","","","","","","","","1","","","","","","","","",""
"null","486062","SARL_v6","SARL_v6629g2w2j","636261a282f90a4b0998fe5c","fixation","","","img/fixation.png","null","","","test","","","","","","","","","","","","","","","","","","","",""
"533","486597","SARL_v6","SARL_v6629g2w2j","636261a282f90a4b0998fe5c","freq","","","img/orange_2bandit_a2.png","70","","70","test","1","","4","","","","square","circle","4","4","1","0.5","","","","","","","",""
"null","486877","SARL_v6","SARL_v6629g2w2j","636261a282f90a4b0998fe5c","freq_resp","","","img/orange_2bandit_a.png","70","img/orange_2bandit_a.png","70","test","","","","","","","","","","","1","","","","","","","","",""
"null","487034","SARL_v6","SARL_v6629g2w2j","636261a282f90a4b0998fe5c","fixation","","","img/fixation.png","null","","","test","","","","","","","","","","","","","","","","","","","",""
"521","487559","SARL_v6","SARL_v6629g2w2j","636261a282f90a4b0998fe5c","freq","","","img/orange_2bandit_a2.png","70","","70","test","1","","5","","","","square","circle","5","5","1","0.6","","","","","","","",""
"null","487842","SARL_v6","SARL_v6629g2w2j","636261a282f90a4b0998fe5c","freq_resp","","","img/orange_2bandit_a.png","70","img/orange_2bandit_a.png","70","test","","","","","","","","","","","1","","","","","","","","",""
"null","488002","SARL_v6","SARL_v6629g2w2j","636261a282f90a4b0998fe5c","fixation","","","img/fixation.png","null","","","test","","","","","","","","","","","","","","","","","","","",""
"402","488408","SARL_v6","SARL_v6629g2w2j","636261a282f90a4b0998fe5c","freq","","","img/orange_2bandit_a2.png","70","","70","test","1","","6","","","","square","circle","6","6","1","0.6666666666666666","","","","","","","",""
"null","488810","SARL_v6","SARL_v6629g2w2j","636261a282f90a4b0998fe5c","freq_resp","","","img/orange_2bandit_a.png","70","img/orange_2bandit_a.png","70","test","","","","","","","","","","","1","","","","","","","","",""
"null","488967","SARL_v6","SARL_v6629g2w2j","636261a282f90a4b0998fe5c","fixation","","","img/fixation.png","null","","","test","","","","","","","","","","","","","","","","","","","",""
"381","489354","SARL_v6","SARL_v6629g2w2j","636261a282f90a4b0998fe5c","freq","","","img/orange_2bandit_a2.png","70","","70","test","1","","7","","","","square","circle","7","7","1","0.7142857142857143","","","","","","","",""
"null","489781","SARL_v6","SARL_v6629g2w2j","636261a282f90a4b0998fe5c","freq_resp","","","img/orange_2bandit_a.png","70","img/orange_2bandit_a.png","70","test","","","","","","","","","","","1","","","","","","","","",""
"null","489937","SARL_v6","SARL_v6629g2w2j","636261a282f90a4b0998fe5c","fixation","","","img/fixation.png","null","","","test","","","","","","","","","","","","","","","","","","","",""
"370","490310","SARL_v6","SARL_v6629g2w2j","636261a282f90a4b0998fe5c","freq","","","img/orange_2bandit_a2.png","70","","70","test","1","","8","","","","square","circle","8","8","1","0.75","","","","","","","",""
"null","490746","SARL_v6","SARL_v6629g2w2j","636261a282f90a4b0998fe5c","freq_resp","","","img/orange_2bandit_a.png","70","img/orange_2bandit_a.png","70","test","","","","","","","","","","","1","","","","","","","","",""
"null","490904","SARL_v6","SARL_v6629g2w2j","636261a282f90a4b0998fe5c","fixation","","","img/fixation.png","null","","","test","","","","","","","","","","","","","","","","","","","",""
"377","491285","SARL_v6","SARL_v6629g2w2j","636261a282f90a4b0998fe5c","freq","","","img/orange_2bandit_a2.png","70","","70","test","1","","9","","","","square","circle","9","9","1","0.7777777777777778","","","","","","","",""
"null","491716","SARL_v6","SARL_v6629g2w2j","636261a282f90a4b0998fe5c","freq_resp","","","img/orange_2bandit_a.png","70","img/orange_2bandit_a.png","70","test","","","","","","","","","","","1","","","","","","","","",""
"null","491871","SARL_v6","SARL_v6629g2w2j","636261a282f90a4b0998fe5c","fixation","","","img/fixation.png","null","","","test","","","","","","","","","","","","","","","","","","","",""
"393","492266","SARL_v6","SARL_v6629g2w2j","636261a282f90a4b0998fe5c","infreq","","","img/blue_2bandit_a2.png","68","","68","test","1","","10","","","","square","circle","10","10","1","0.8","","","","","","","",""
"null","492685","SARL_v6","SARL_v6629g2w2j","636261a282f90a4b0998fe5c","infreq_resp","","","img/blue_2bandit_a.png","68","img/blue_2bandit_a.png","68","test","","","","","","","","","","","1","","","","","","","","",""
"null","492843","SARL_v6","SARL_v6629g2w2j","636261a282f90a4b0998fe5c","fixation","","","img/fixation.png","null","","","test","","","","","","","","","","","","","","","","","","","",""
"395","493244","SARL_v6","SARL_v6629g2w2j","636261a282f90a4b0998fe5c","freq","","","img/orange_2bandit_a2.png","68","","70","test","0","","11","","","","square","circle","11","11","1","0.7272727272727273","","","","","","","",""
"null","493666","SARL_v6","SARL_v6629g2w2j","636261a282f90a4b0998fe5c","freq_resp","","","img/orange_2bandit_a.png","68","img/orange_2bandit_a.png","70","test","","","","","","","","","","","1","","","","","","","","",""
"null","493824","SARL_v6","SARL_v6629g2w2j","636261a282f90a4b0998fe5c","fixation","","","img/fixation.png","null","","","test","","","","","","","","","","","","","","","","","","","",""
"573","494403","SARL_v6","SARL_v6629g2w2j","636261a282f90a4b0998fe5c","freq","","","img/orange_2bandit_a2.png","70","","70","test","1","","12","","","","square","circle","12","12","1","0.75","","","","","","","",""
"null","494640","SARL_v6","SARL_v6629g2w2j","636261a282f90a4b0998fe5c","freq_resp","","","img/orange_2bandit_a.png","70","img/orange_2bandit_a.png","70","test","","","","","","","","","","","1","","","","","","","","",""
"null","494809","SARL_v6","SARL_v6629g2w2j","636261a282f90a4b0998fe5c","fixation","","","img/fixation.png","null","","","test","","","","","","","","","","","","","","","","","","","",""
"561","495373","SARL_v6","SARL_v6629g2w2j","636261a282f90a4b0998fe5c","freq","","","img/orange_2bandit_a2.png","70","","70","test","1","","13","","","","square","circle","13","13","1","0.7692307692307693","","","","","","","",""
"null","495626","SARL_v6","SARL_v6629g2w2j","636261a282f90a4b0998fe5c","freq_resp","","","img/orange_2bandit_a.png","70","img/orange_2bandit_a.png","70","test","","","","","","","","","","","1","","","","","","","","",""
"null","495781","SARL_v6","SARL_v6629g2w2j","636261a282f90a4b0998fe5c","fixation","","","img/fixation.png","null","","","test","","","","","","","","","","","","","","","","","","","",""
"438","496223","SARL_v6","SARL_v6629g2w2j","636261a282f90a4b0998fe5c","infreq","","","img/blue_2bandit_a2.png","68","","68","test","1","","14","","","","square","circle","14","14","1","0.7857142857142857","","","","","","","",""
"null","496596","SARL_v6","SARL_v6629g2w2j","636261a282f90a4b0998fe5c","infreq_resp","","","img/blue_2bandit_a.png","68","img/blue_2bandit_a.png","68","test","","","","","","","","","","","1","","","","","","","","",""
"null","496751","SARL_v6","SARL_v6629g2w2j","636261a282f90a4b0998fe5c","fixation","","","img/fixation.png","null","","","test","","","","","","","","","","","","","","","","","","","",""
"411","497164","SARL_v6","SARL_v6629g2w2j","636261a282f90a4b0998fe5c","freq","","","img/orange_2bandit_a2.png","70","","70","test","1","","15","","","","square","circle","15","15","1","0.8","","","","","","","",""
"null","497571","SARL_v6","SARL_v6629g2w2j","636261a282f90a4b0998fe5c","freq_resp","","","img/orange_2bandit_a.png","70","img/orange_2bandit_a.png","70","test","","","","","","","","","","","1","","","","","","","","",""
"null","497723","SARL_v6","SARL_v6629g2w2j","636261a282f90a4b0998fe5c","fixation","","","img/fixation.png","null","","","test","","","","","","","","","","","","","","","","","","","",""
"534","498261","SARL_v6","SARL_v6629g2w2j","636261a282f90a4b0998fe5c","freq","","","img/orange_2bandit_a2.png","70","","70","test","1","","16","","","","square","circle","16","16","1","0.8125","","","","","","","",""
"null","498535","SARL_v6","SARL_v6629g2w2j","636261a282f90a4b0998fe5c","freq_resp","","","img/orange_2bandit_a.png","70","img/orange_2bandit_a.png","70","test","","","","","","","","","","","1","","","","","","","","",""
"null","498693","SARL_v6","SARL_v6629g2w2j","636261a282f90a4b0998fe5c","fixation","","","img/fixation.png","null","","","test","","","","","","","","","","","","","","","","","","","",""
"436","499130","SARL_v6","SARL_v6629g2w2j","636261a282f90a4b0998fe5c","freq","","","img/orange_2bandit_a2.png","70","","70","test","1","","17","","","","square","circle","17","17","1","0.8235294117647058","","","","","","","",""
"null","499505","SARL_v6","SARL_v6629g2w2j","636261a282f90a4b0998fe5c","freq_resp","","","img/orange_2bandit_a.png","70","img/orange_2bandit_a.png","70","test","","","","","","","","","","","1","","","","","","","","",""
"null","499663","SARL_v6","SARL_v6629g2w2j","636261a282f90a4b0998fe5c","fixation","","","img/fixation.png","null","","","test","","","","","","","","","","","","","","","","","","","",""
"458","500123","SARL_v6","SARL_v6629g2w2j","636261a282f90a4b0998fe5c","freq","","","img/orange_2bandit_a2.png","70","","70","test","1","","18","","","","square","circle","18","18","1","0.8333333333333334","","","","","","","",""
"null","500478","SARL_v6","SARL_v6629g2w2j","636261a282f90a4b0998fe5c","freq_resp","","","img/orange_2bandit_a.png","70","img/orange_2bandit_a.png","70","test","","","","","","","","","","","1","","","","","","","","",""
"null","500631","SARL_v6","SARL_v6629g2w2j","636261a282f90a4b0998fe5c","fixation","","","img/fixation.png","null","","","test","","","","","","","","","","","","","","","","","","","",""
"375","501009","SARL_v6","SARL_v6629g2w2j","636261a282f90a4b0998fe5c","freq","","","img/orange_2bandit_a2.png","70","","70","test","1","","19","","","","square","circle","19","19","1","0.8421052631578947","","","","","","","",""
"null","501446","SARL_v6","SARL_v6629g2w2j","636261a282f90a4b0998fe5c","freq_resp","","","img/orange_2bandit_a.png","70","img/orange_2bandit_a.png","70","test","","","","","","","","","","","1","","","","","","","","",""
"null","501603","SARL_v6","SARL_v6629g2w2j","636261a282f90a4b0998fe5c","fixation","","","img/fixation.png","null","","","test","","","","","","","","","","","","","","","","","","","",""
"420","502030","SARL_v6","SARL_v6629g2w2j","636261a282f90a4b0998fe5c","freq","","","img/orange_2bandit_a2.png","70","","70","test","1","","20","","","","square","circle","20","20","1","0.85","","","","","","","",""
"null","502426","SARL_v6","SARL_v6629g2w2j","636261a282f90a4b0998fe5c","freq_resp","","","img/orange_2bandit_a.png","70","img/orange_2bandit_a.png","70","test","","","","","","","","","","","1","","","","","","","","",""
"null","502582","SARL_v6","SARL_v6629g2w2j","636261a282f90a4b0998fe5c","fixation","","","img/fixation.png","null","","","test","","","","","","","","","","","","","","","","","","","",""
"401","502986","SARL_v6","SARL_v6629g2w2j","636261a282f90a4b0998fe5c","freq","","","img/orange_2bandit_a2.png","70","","70","test","1","","21","","","","square","circle","21","21","1","0.8571428571428571","","","","","","","",""
"null","503404","SARL_v6","SARL_v6629g2w2j","636261a282f90a4b0998fe5c","freq_resp","","","img/orange_2bandit_a.png","70","img/orange_2bandit_a.png","70","test","","","","","","","","","","","1","","","","","","","","",""
"null","503559","SARL_v6","SARL_v6629g2w2j","636261a282f90a4b0998fe5c","fixation","","","img/fixation.png","null","","","test","","","","","","","","","","","","","","","","","","","",""
"394","503957","SARL_v6","SARL_v6629g2w2j","636261a282f90a4b0998fe5c","freq","","","img/orange_2bandit_a2.png","70","","70","test","1","","22","","","","square","circle","22","22","1","0.8636363636363636","","","","","","","",""
"null","504373","SARL_v6","SARL_v6629g2w2j","636261a282f90a4b0998fe5c","freq_resp","","","img/orange_2bandit_a.png","70","img/orange_2bandit_a.png","70","test","","","","","","","","","","","1","","","","","","","","",""
"null","504529","SARL_v6","SARL_v6629g2w2j","636261a282f90a4b0998fe5c","fixation","","","img/fixation.png","null","","","test","","","","","","","","","","","","","","","","","","","",""
"838","505371","SARL_v6","SARL_v6629g2w2j","636261a282f90a4b0998fe5c","rl","","","img/black_2bandit_a2.png","74","","0","test","","","23","","","-3","square","circle","","0","1","","74","-3","-3","-3","-3","square","1","0"
"null","506136","SARL_v6","SARL_v6629g2w2j","636261a282f90a4b0998fe5c","feedback","","","<div class=""verylowPoints_sq""> -3 </div>","null","","na","test","","","NaN","","","","","","","","1","","74","","","","","","1",""
"665","506804","SARL_v6","SARL_v6629g2w2j","636261a282f90a4b0998fe5c","freq","","","img/orange_2bandit_a2.png","70","","70","test","1","","24","","","","square","circle","23","1","2","0.8695652173913043","","","","","","","",""
"null","506948","SARL_v6","SARL_v6629g2w2j","636261a282f90a4b0998fe5c","freq_resp","","","img/orange_2bandit_a.png","70","img/orange_2bandit_a.png","70","test","","","","","","","","","","","2","","","","","","","","",""
"null","507104","SARL_v6","SARL_v6629g2w2j","636261a282f90a4b0998fe5c","fixation","","","img/fixation.png","null","","","test","","","","","","","","","","","","","","","","","","","",""
"485","507594","SARL_v6","SARL_v6629g2w2j","636261a282f90a4b0998fe5c","freq","","","img/orange_2bandit_a2.png","70","","70","test","1","","25","","","","square","circle","24","2","2","0.875","","","","","","","",""
"null","507921","SARL_v6","SARL_v6629g2w2j","636261a282f90a4b0998fe5c","freq_resp","","","img/orange_2bandit_a.png","70","img/orange_2bandit_a.png","70","test","","","","","","","","","","","2","","","","","","","","",""
"null","508077","SARL_v6","SARL_v6629g2w2j","636261a282f90a4b0998fe5c","fixation","","","img/fixation.png","null","","","test","","","","","","","","","","","","","","","","","","","",""
"697","508779","SARL_v6","SARL_v6629g2w2j","636261a282f90a4b0998fe5c","infreq","","","img/blue_2bandit_a2.png","70","","68","test","0","","26","","","","square","circle","25","3","2","0.84","","","","","","","",""
"null","508886","SARL_v6","SARL_v6629g2w2j","636261a282f90a4b0998fe5c","infreq_resp","","","img/blue_2bandit_a.png","70","img/blue_2bandit_a.png","68","test","","","","","","","","","","","2","","","","","","","","",""
"null","509044","SARL_v6","SARL_v6629g2w2j","636261a282f90a4b0998fe5c","fixation","","","img/fixation.png","null","","","test","","","","","","","","","","","","","","","","","","","",""
"712","509762","SARL_v6","SARL_v6629g2w2j","636261a282f90a4b0998fe5c","freq","","","img/orange_2bandit_a2.png","70","","70","test","1","","27","","","","square","circle","26","4","2","0.8461538461538461","","","","","","","",""
"null","509870","SARL_v6","SARL_v6629g2w2j","636261a282f90a4b0998fe5c","freq_resp","","","img/orange_2bandit_a.png","70","img/orange_2bandit_a.png","70","test","","","","","","","","","","","2","","","","","","","","",""
"null","510022","SARL_v6","SARL_v6629g2w2j","636261a282f90a4b0998fe5c","fixation","","","img/fixation.png","null","","","test","","","","","","","","","","","","","","","","","","","",""
"596","510620","SARL_v6","SARL_v6629g2w2j","636261a282f90a4b0998fe5c","freq","","","img/orange_2bandit_a2.png","70","","70","test","1","","28","","","","square","circle","27","5","2","0.8518518518518519","","","","","","","",""
"null","510834","SARL_v6","SARL_v6629g2w2j","636261a282f90a4b0998fe5c","freq_resp","","","img/orange_2bandit_a.png","70","img/orange_2bandit_a.png","70","test","","","","","","","","","","","2","","","","","","","","",""
"null","510989","SARL_v6","SARL_v6629g2w2j","636261a282f90a4b0998fe5c","fixation","","","img/fixation.png","null","","","test","","","","","","","","","","","","","","","","","","","",""
"550","511542","SARL_v6","SARL_v6629g2w2j","636261a282f90a4b0998fe5c","freq","","","img/orange_2bandit_a2.png","70","","70","test","1","","29","","","","square","circle","28","6","2","0.8571428571428571","","","","","","","",""
"null","511803","SARL_v6","SARL_v6629g2w2j","636261a282f90a4b0998fe5c","freq_resp","","","img/orange_2bandit_a.png","70","img/orange_2bandit_a.png","70","test","","","","","","","","","","","2","","","","","","","","",""
"null","511957","SARL_v6","SARL_v6629g2w2j","636261a282f90a4b0998fe5c","fixation","","","img/fixation.png","null","","","test","","","","","","","","","","","","","","","","","","","",""
"444","512405","SARL_v6","SARL_v6629g2w2j","636261a282f90a4b0998fe5c","freq","","","img/orange_2bandit_a2.png","70","","70","test","1","","30","","","","square","circle","29","7","2","0.8620689655172413","","","","","","","",""
"null","512772","SARL_v6","SARL_v6629g2w2j","636261a282f90a4b0998fe5c","freq_resp","","","img/orange_2bandit_a.png","70","img/orange_2bandit_a.png","70","test","","","","","","","","","","","2","","","","","","","","",""
"null","512928","SARL_v6","SARL_v6629g2w2j","636261a282f90a4b0998fe5c","fixation","","","img/fixation.png","null","","","test","","","","","","","","","","","","","","","","","","","",""
"457","513387","SARL_v6","SARL_v6629g2w2j","636261a282f90a4b0998fe5c","infreq","","","img/blue_2bandit_a2.png","68","","68","test","1","","31","","","","square","circle","30","8","2","0.8666666666666667","","","","","","","",""
"null","513740","SARL_v6","SARL_v6629g2w2j","636261a282f90a4b0998fe5c","infreq_resp","","","img/blue_2bandit_a.png","68","img/blue_2bandit_a.png","68","test","","","","","","","","","","","2","","","","","","","","",""
"null","513892","SARL_v6","SARL_v6629g2w2j","636261a282f90a4b0998fe5c","fixation","","","img/fixation.png","null","","","test","","","","","","","","","","","","","","","","","","","",""
"446","514340","SARL_v6","SARL_v6629g2w2j","636261a282f90a4b0998fe5c","freq","","","img/orange_2bandit_a2.png","70","","70","test","1","","32","","","","square","circle","31","9","2","0.8709677419354839","","","","","","","",""
"null","514704","SARL_v6","SARL_v6629g2w2j","636261a282f90a4b0998fe5c","freq_resp","","","img/orange_2bandit_a.png","70","img/orange_2bandit_a.png","70","test","","","","","","","","","","","2","","","","","","","","",""
"null","514861","SARL_v6","SARL_v6629g2w2j","636261a282f90a4b0998fe5c","fixation","","","img/fixation.png","null","","","test","","","","","","","","","","","","","","","","","","","",""
"482","515347","SARL_v6","SARL_v6629g2w2j","636261a282f90a4b0998fe5c","freq","","","img/orange_2bandit_a2.png","70","","70","test","1","","33","","","","square","circle","32","10","2","0.875","","","","","","","",""
"null","515677","SARL_v6","SARL_v6629g2w2j","636261a282f90a4b0998fe5c","freq_resp","","","img/orange_2bandit_a.png","70","img/orange_2bandit_a.png","70","test","","","","","","","","","","","2","","","","","","","","",""
"null","515833","SARL_v6","SARL_v6629g2w2j","636261a282f90a4b0998fe5c","fixation","","","img/fixation.png","null","","","test","","","","","","","","","","","","","","","","","","","",""
"394","516231","SARL_v6","SARL_v6629g2w2j","636261a282f90a4b0998fe5c","freq","","","img/orange_2bandit_a2.png","70","","70","test","1","","34","","","","square","circle","33","11","2","0.8787878787878788","","","","","","","",""
"null","516639","SARL_v6","SARL_v6629g2w2j","636261a282f90a4b0998fe5c","freq_resp","","","img/orange_2bandit_a.png","70","img/orange_2bandit_a.png","70","test","","","","","","","","","","","2","","","","","","","","",""
"null","516795","SARL_v6","SARL_v6629g2w2j","636261a282f90a4b0998fe5c","fixation","","","img/fixation.png","null","","","test","","","","","","","","","","","","","","","","","","","",""
"453","517253","SARL_v6","SARL_v6629g2w2j","636261a282f90a4b0998fe5c","freq","","","img/orange_2bandit_a2.png","70","","70","test","1","","35","","","","square","circle","34","12","2","0.8823529411764706","","","","","","","",""
"null","517610","SARL_v6","SARL_v6629g2w2j","636261a282f90a4b0998fe5c","freq_resp","","","img/orange_2bandit_a.png","70","img/orange_2bandit_a.png","70","test","","","","","","","","","","","2","","","","","","","","",""
"null","517764","SARL_v6","SARL_v6629g2w2j","636261a282f90a4b0998fe5c","fixation","","","img/fixation.png","null","","","test","","","","","","","","","","","","","","","","","","","",""
"429","518196","SARL_v6","SARL_v6629g2w2j","636261a282f90a4b0998fe5c","freq","","","img/orange_2bandit_a2.png","70","","70","test","1","","36","","","","square","circle","35","13","2","0.8857142857142857","","","","","","","",""
"null","518574","SARL_v6","SARL_v6629g2w2j","636261a282f90a4b0998fe5c","freq_resp","","","img/orange_2bandit_a.png","70","img/orange_2bandit_a.png","70","test","","","","","","","","","","","2","","","","","","","","",""
"null","518735","SARL_v6","SARL_v6629g2w2j","636261a282f90a4b0998fe5c","fixation","","","img/fixation.png","null","","","test","","","","","","","","","","","","","","","","","","","",""
"429","519168","SARL_v6","SARL_v6629g2w2j","636261a282f90a4b0998fe5c","freq","","","img/orange_2bandit_a2.png","70","","70","test","1","","37","","","","square","circle","36","14","2","0.8888888888888888","","","","","","","",""
"null","519546","SARL_v6","SARL_v6629g2w2j","636261a282f90a4b0998fe5c","freq_resp","","","img/orange_2bandit_a.png","70","img/orange_2bandit_a.png","70","test","","","","","","","","","","","2","","","","","","","","",""
"null","519702","SARL_v6","SARL_v6629g2w2j","636261a282f90a4b0998fe5c","fixation","","","img/fixation.png","null","","","test","","","","","","","","","","","","","","","","","","","",""
"411","520116","SARL_v6","SARL_v6629g2w2j","636261a282f90a4b0998fe5c","freq","","","img/orange_2bandit_a2.png","70","","70","test","1","","38","","","","square","circle","37","15","2","0.8918918918918919","","","","","","","",""
"null","520512","SARL_v6","SARL_v6629g2w2j","636261a282f90a4b0998fe5c","freq_resp","","","img/orange_2bandit_a.png","70","img/orange_2bandit_a.png","70","test","","","","","","","","","","","2","","","","","","","","",""
"null","520667","SARL_v6","SARL_v6629g2w2j","636261a282f90a4b0998fe5c","fixation","","","img/fixation.png","null","","","test","","","","","","","","","","","","","","","","","","","",""
"375","521046","SARL_v6","SARL_v6629g2w2j","636261a282f90a4b0998fe5c","freq","","","img/orange_2bandit_a2.png","70","","70","test","1","","39","","","","square","circle","38","16","2","0.8947368421052632","","","","","","","",""
"null","521484","SARL_v6","SARL_v6629g2w2j","636261a282f90a4b0998fe5c","freq_resp","","","img/orange_2bandit_a.png","70","img/orange_2bandit_a.png","70","test","","","","","","","","","","","2","","","","","","","","",""
"null","521638","SARL_v6","SARL_v6629g2w2j","636261a282f90a4b0998fe5c","fixation","","","img/fixation.png","null","","","test","","","","","","","","","","","","","","","","","","","",""
"360","522000","SARL_v6","SARL_v6629g2w2j","636261a282f90a4b0998fe5c","freq","","","img/orange_2bandit_a2.png","70","","70","test","1","","40","","","","square","circle","39","17","2","0.8974358974358975","","","","","","","",""
"null","522455","SARL_v6","SARL_v6629g2w2j","636261a282f90a4b0998fe5c","freq_resp","","","img/orange_2bandit_a.png","70","img/orange_2bandit_a.png","70","test","","","","","","","","","","","2","","","","","","","","",""
"null","522610","SARL_v6","SARL_v6629g2w2j","636261a282f90a4b0998fe5c","fixation","","","img/fixation.png","null","","","test","","","","","","","","","","","","","","","","","","","",""
"333","522946","SARL_v6","SARL_v6629g2w2j","636261a282f90a4b0998fe5c","freq","","","img/orange_2bandit_a2.png","70","","70","test","1","","41","","","","square","circle","40","18","2","0.9","","","","","","","",""
"null","523423","SARL_v6","SARL_v6629g2w2j","636261a282f90a4b0998fe5c","freq_resp","","","img/orange_2bandit_a.png","70","img/orange_2bandit_a.png","70","test","","","","","","","","","","","2","","","","","","","","",""
"null","523583","SARL_v6","SARL_v6629g2w2j","636261a282f90a4b0998fe5c","fixation","","","img/fixation.png","null","","","test","","","","","","","","","","","","","","","","","","","",""
"333","523919","SARL_v6","SARL_v6629g2w2j","636261a282f90a4b0998fe5c","freq","","","img/orange_2bandit_a2.png","70","","70","test","1","","42","","","","square","circle","41","19","2","0.9024390243902439","","","","","","","",""
"null","524392","SARL_v6","SARL_v6629g2w2j","636261a282f90a4b0998fe5c","freq_resp","","","img/orange_2bandit_a.png","70","img/orange_2bandit_a.png","70","test","","","","","","","","","","","2","","","","","","","","",""
"null","524549","SARL_v6","SARL_v6629g2w2j","636261a282f90a4b0998fe5c","fixation","","","img/fixation.png","null","","","test","","","","","","","","","","","","","","","","","","","",""
"326","524878","SARL_v6","SARL_v6629g2w2j","636261a282f90a4b0998fe5c","freq","","","img/orange_2bandit_a2.png","70","","70","test","1","","43","","","","square","circle","42","20","2","0.9047619047619048","","","","","","","",""
"null","525368","SARL_v6","SARL_v6629g2w2j","636261a282f90a4b0998fe5c","freq_resp","","","img/orange_2bandit_a.png","70","img/orange_2bandit_a.png","70","test","","","","","","","","","","","2","","","","","","","","",""
"null","525524","SARL_v6","SARL_v6629g2w2j","636261a282f90a4b0998fe5c","fixation","","","img/fixation.png","null","","","test","","","","","","","","","","","","","","","","","","","",""
"299","525827","SARL_v6","SARL_v6629g2w2j","636261a282f90a4b0998fe5c","freq","","","img/orange_2bandit_a2.png","70","","70","test","1","","44","","","","square","circle","43","21","2","0.9069767441860465","","","","","","","",""
"null","526335","SARL_v6","SARL_v6629g2w2j","636261a282f90a4b0998fe5c","freq_resp","","","img/orange_2bandit_a.png","70","img/orange_2bandit_a.png","70","test","","","","","","","","","","","2","","","","","","","","",""
"null","526489","SARL_v6","SARL_v6629g2w2j","636261a282f90a4b0998fe5c","fixation","","","img/fixation.png","null","","","test","","","","","","","","","","","","","","","","","","","",""
"681","527173","SARL_v6","SARL_v6629g2w2j","636261a282f90a4b0998fe5c","rl","","","img/black_2bandit_a2.png","74","","0","test","","","45","","","-8","square","circle","","0","2","","74","-5","-8","-8","-5","square","2","0"
"null","527936","SARL_v6","SARL_v6629g2w2j","636261a282f90a4b0998fe5c","feedback","","","<div class=""verylowPoints_sq""> -8 </div>","null","","na","test","","","NaN","","","","","","","","2","","74","","","","","","2",""
"419","528362","SARL_v6","SARL_v6629g2w2j","636261a282f90a4b0998fe5c","freq","","","img/orange_2bandit_a2.png","70","","70","test","1","","46","","","","square","circle","44","1","3","0.9090909090909091","","","","","","","",""
"null","528749","SARL_v6","SARL_v6629g2w2j","636261a282f90a4b0998fe5c","freq_resp","","","img/orange_2bandit_a.png","70","img/orange_2bandit_a.png","70","test","","","","","","","","","","","3","","","","","","","","",""
"null","528905","SARL_v6","SARL_v6629g2w2j","636261a282f90a4b0998fe5c","fixation","","","img/fixation.png","null","","","test","","","","","","","","","","","","","","","","","","","",""
"466","529375","SARL_v6","SARL_v6629g2w2j","636261a282f90a4b0998fe5c","freq","","","img/orange_2bandit_a2.png","70","","70","test","1","","47","","","","square","circle","45","2","3","0.9111111111111111","","","","","","","",""
"null","529723","SARL_v6","SARL_v6629g2w2j","636261a282f90a4b0998fe5c","freq_resp","","","img/orange_2bandit_a.png","70","img/orange_2bandit_a.png","70","test","","","","","","","","","","","3","","","","","","","","",""
"null","529877","SARL_v6","SARL_v6629g2w2j","636261a282f90a4b0998fe5c","fixation","","","img/fixation.png","null","","","test","","","","","","","","","","","","","","","","","","","",""
"483","530364","SARL_v6","SARL_v6629g2w2j","636261a282f90a4b0998fe5c","freq","","","img/orange_2bandit_a2.png","70","","70","test","1","","48","","","","square","circle","46","3","3","0.9130434782608695","","","","","","","",""
"null","530693","SARL_v6","SARL_v6629g2w2j","636261a282f90a4b0998fe5c","freq_resp","","","img/orange_2bandit_a.png","70","img/orange_2bandit_a.png","70","test","","","","","","","","","","","3","","","","","","","","",""
"null","530851","SARL_v6","SARL_v6629g2w2j","636261a282f90a4b0998fe5c","fixation","","","img/fixation.png","null","","","test","","","","","","","","","","","","","","","","","","","",""
"378","531235","SARL_v6","SARL_v6629g2w2j","636261a282f90a4b0998fe5c","freq","","","img/orange_2bandit_a2.png","70","","70","test","1","","49","","","","square","circle","47","4","3","0.9148936170212766","","","","","","","",""
"null","531664","SARL_v6","SARL_v6629g2w2j","636261a282f90a4b0998fe5c","freq_resp","","","img/orange_2bandit_a.png","70","img/orange_2bandit_a.png","70","test","","","","","","","","","","","3","","","","","","","","",""
"null","531820","SARL_v6","SARL_v6629g2w2j","636261a282f90a4b0998fe5c","fixation","","","img/fixation.png","null","","","test","","","","","","","","","","","","","","","","","","","",""
"502","532326","SARL_v6","SARL_v6629g2w2j","636261a282f90a4b0998fe5c","freq","","","img/orange_2bandit_a2.png","70","","70","test","1","","50","","","","square","circle","48","5","3","0.9166666666666666","","","","","","","",""
"null","532642","SARL_v6","SARL_v6629g2w2j","636261a282f90a4b0998fe5c","freq_resp","","","img/orange_2bandit_a.png","70","img/orange_2bandit_a.png","70","test","","","","","","","","","","","3","","","","","","","","",""
"null","532795","SARL_v6","SARL_v6629g2w2j","636261a282f90a4b0998fe5c","fixation","","","img/fixation.png","null","","","test","","","","","","","","","","","","","","","","","","","",""
"457","533256","SARL_v6","SARL_v6629g2w2j","636261a282f90a4b0998fe5c","freq","","","img/orange_2bandit_a2.png","70","","70","test","1","","51","","","","square","circle","49","6","3","0.9183673469387755","","","","","","","",""
"null","533612","SARL_v6","SARL_v6629g2w2j","636261a282f90a4b0998fe5c","freq_resp","","","img/orange_2bandit_a.png","70","img/orange_2bandit_a.png","70","test","","","","","","","","","","","3","","","","","","","","",""
"null","533765","SARL_v6","SARL_v6629g2w2j","636261a282f90a4b0998fe5c","fixation","","","img/fixation.png","null","","","test","","","","","","","","","","","","","","","","","","","",""
"465","534236","SARL_v6","SARL_v6629g2w2j","636261a282f90a4b0998fe5c","freq","","","img/orange_2bandit_a2.png","70","","70","test","1","","52","","","","square","circle","50","7","3","0.92","","","","","","","",""
"null","534574","SARL_v6","SARL_v6629g2w2j","636261a282f90a4b0998fe5c","freq_resp","","","img/orange_2bandit_a.png","70","img/orange_2bandit_a.png","70","test","","","","","","","","","","","3","","","","","","","","",""
"null","534734","SARL_v6","SARL_v6629g2w2j","636261a282f90a4b0998fe5c","fixation","","","img/fixation.png","null","","","test","","","","","","","","","","","","","","","","","","","",""
"436","535174","SARL_v6","SARL_v6629g2w2j","636261a282f90a4b0998fe5c","freq","","","img/orange_2bandit_a2.png","70","","70","test","1","","53","","","","square","circle","51","8","3","0.9215686274509803","","","","","","","",""
"null","535543","SARL_v6","SARL_v6629g2w2j","636261a282f90a4b0998fe5c","freq_resp","","","img/orange_2bandit_a.png","70","img/orange_2bandit_a.png","70","test","","","","","","","","","","","3","","","","","","","","",""
"null","535698","SARL_v6","SARL_v6629g2w2j","636261a282f90a4b0998fe5c","fixation","","","img/fixation.png","null","","","test","","","","","","","","","","","","","","","","","","","",""
"405","536109","SARL_v6","SARL_v6629g2w2j","636261a282f90a4b0998fe5c","freq","","","img/orange_2bandit_a2.png","70","","70","test","1","","54","","","","square","circle","52","9","3","0.9230769230769231","","","","","","","",""
"null","536513","SARL_v6","SARL_v6629g2w2j","636261a282f90a4b0998fe5c","freq_resp","","","img/orange_2bandit_a.png","70","img/orange_2bandit_a.png","70","test","","","","","","","","","","","3","","","","","","","","",""
"null","536671","SARL_v6","SARL_v6629g2w2j","636261a282f90a4b0998fe5c","fixation","","","img/fixation.png","null","","","test","","","","","","","","","","","","","","","","","","","",""
"451","537125","SARL_v6","SARL_v6629g2w2j","636261a282f90a4b0998fe5c","freq","","","img/orange_2bandit_a2.png","70","","70","test","1","","55","","","","square","circle","53","10","3","0.9245283018867925","","","","","","","",""
"null","537486","SARL_v6","SARL_v6629g2w2j","636261a282f90a4b0998fe5c","freq_resp","","","img/orange_2bandit_a.png","70","img/orange_2bandit_a.png","70","test","","","","","","","","","","","3","","","","","","","","",""
"null","537640","SARL_v6","SARL_v6629g2w2j","636261a282f90a4b0998fe5c","fixation","","","img/fixation.png","null","","","test","","","","","","","","","","","","","","","","","","","",""
"397","538040","SARL_v6","SARL_v6629g2w2j","636261a282f90a4b0998fe5c","freq","","","img/orange_2bandit_a2.png","70","","70","test","1","","56","","","","square","circle","54","11","3","0.9259259259259259","","","","","","","",""
"null","538458","SARL_v6","SARL_v6629g2w2j","636261a282f90a4b0998fe5c","freq_resp","","","img/orange_2bandit_a.png","70","img/orange_2bandit_a.png","70","test","","","","","","","","","","","3","","","","","","","","",""
"null","538613","SARL_v6","SARL_v6629g2w2j","636261a282f90a4b0998fe5c","fixation","","","img/fixation.png","null","","","test","","","","","","","","","","","","","","","","","","","",""
"355","538972","SARL_v6","SARL_v6629g2w2j","636261a282f90a4b0998fe5c","freq","","","img/orange_2bandit_a2.png","70","","70","test","1","","57","","","","square","circle","55","12","3","0.9272727272727272","","","","","","","",""
"null","539430","SARL_v6","SARL_v6629g2w2j","636261a282f90a4b0998fe5c","freq_resp","","","img/orange_2bandit_a.png","70","img/orange_2bandit_a.png","70","test","","","","","","","","","","","3","","","","","","","","",""
"null","539588","SARL_v6","SARL_v6629g2w2j","636261a282f90a4b0998fe5c","fixation","","","img/fixation.png","null","","","test","","","","","","","","","","","","","","","","","","","",""
"349","539941","SARL_v6","SARL_v6629g2w2j","636261a282f90a4b0998fe5c","freq","","","img/orange_2bandit_a2.png","70","","70","test","1","","58","","","","square","circle","56","13","3","0.9285714285714286","","","","","","","",""
"null","540406","SARL_v6","SARL_v6629g2w2j","636261a282f90a4b0998fe5c","freq_resp","","","img/orange_2bandit_a.png","70","img/orange_2bandit_a.png","70","test","","","","","","","","","","","3","","","","","","","","",""
"null","540560","SARL_v6","SARL_v6629g2w2j","636261a282f90a4b0998fe5c","fixation","","","img/fixation.png","null","","","test","","","","","","","","","","","","","","","","","","","",""
"646","541212","SARL_v6","SARL_v6629g2w2j","636261a282f90a4b0998fe5c","infreq","","","img/blue_2bandit_a2.png","68","","68","test","1","","59","","","","square","circle","57","14","3","0.9298245614035088","","","","","","","",""
"null","541372","SARL_v6","SARL_v6629g2w2j","636261a282f90a4b0998fe5c","infreq_resp","","","img/blue_2bandit_a.png","68","img/blue_2bandit_a.png","68","test","","","","","","","","","","","3","","","","","","","","",""
"null","541527","SARL_v6","SARL_v6629g2w2j","636261a282f90a4b0998fe5c","fixation","","","img/fixation.png","null","","","test","","","","","","","","","","","","","","","","","","","",""
"624","542156","SARL_v6","SARL_v6629g2w2j","636261a282f90a4b0998fe5c","freq","","","img/orange_2bandit_a2.png","70","","70","test","1","","60","","","","square","circle","58","15","3","0.9310344827586207","","","","","","","",""
"null","542335","SARL_v6","SARL_v6629g2w2j","636261a282f90a4b0998fe5c","freq_resp","","","img/orange_2bandit_a.png","70","img/orange_2bandit_a.png","70","test","","","","","","","","","","","3","","","","","","","","",""
"null","542492","SARL_v6","SARL_v6629g2w2j","636261a282f90a4b0998fe5c","fixation","","","img/fixation.png","null","","","test","","","","","","","","","","","","","","","","","","","",""
"700","543195","SARL_v6","SARL_v6629g2w2j","636261a282f90a4b0998fe5c","freq","","","img/orange_2bandit_a2.png","70","","70","test","1","","61","","","","square","circle","59","16","3","0.9322033898305084","","","","","","","",""
"null","543307","SARL_v6","SARL_v6629g2w2j","636261a282f90a4b0998fe5c","freq_resp","","","img/orange_2bandit_a.png","70","img/orange_2bandit_a.png","70","test","","","","","","","","","","","3","","","","","","","","",""
"null","543462","SARL_v6","SARL_v6629g2w2j","636261a282f90a4b0998fe5c","fixation","","","img/fixation.png","null","","","test","","","","","","","","","","","","","","","","","","","",""
"652","544118","SARL_v6","SARL_v6629g2w2j","636261a282f90a4b0998fe5c","freq","","","img/orange_2bandit_a2.png","70","","70","test","1","","62","","","","square","circle","60","17","3","0.9333333333333333","","","","","","","",""
"null","544277","SARL_v6","SARL_v6629g2w2j","636261a282f90a4b0998fe5c","freq_resp","","","img/orange_2bandit_a.png","70","img/orange_2bandit_a.png","70","test","","","","","","","","","","","3","","","","","","","","",""
"null","544433","SARL_v6","SARL_v6629g2w2j","636261a282f90a4b0998fe5c","fixation","","","img/fixation.png","null","","","test","","","","","","","","","","","","","","","","","","","",""
"672","545111","SARL_v6","SARL_v6629g2w2j","636261a282f90a4b0998fe5c","freq","","","img/orange_2bandit_a2.png","70","","70","test","1","","63","","","","square","circle","61","18","3","0.9344262295081968","","","","","","","",""
"null","545246","SARL_v6","SARL_v6629g2w2j","636261a282f90a4b0998fe5c","freq_resp","","","img/orange_2bandit_a.png","70","img/orange_2bandit_a.png","70","test","","","","","","","","","","","3","","","","","","","","",""
"null","545402","SARL_v6","SARL_v6629g2w2j","636261a282f90a4b0998fe5c","fixation","","","img/fixation.png","null","","","test","","","","","","","","","","","","","","","","","","","",""
"475","545879","SARL_v6","SARL_v6629g2w2j","636261a282f90a4b0998fe5c","freq","","","img/orange_2bandit_a2.png","70","","70","test","1","","64","","","","square","circle","62","19","3","0.9354838709677419","","","","","","","",""
"null","546214","SARL_v6","SARL_v6629g2w2j","636261a282f90a4b0998fe5c","freq_resp","","","img/orange_2bandit_a.png","70","img/orange_2bandit_a.png","70","test","","","","","","","","","","","3","","","","","","","","",""
"null","546369","SARL_v6","SARL_v6629g2w2j","636261a282f90a4b0998fe5c","fixation","","","img/fixation.png","null","","","test","","","","","","","","","","","","","","","","","","","",""
"436","546812","SARL_v6","SARL_v6629g2w2j","636261a282f90a4b0998fe5c","freq","","","img/orange_2bandit_a2.png","70","","70","test","1","","65","","","","square","circle","63","20","3","0.9365079365079365","","","","","","","",""
"null","547181","SARL_v6","SARL_v6629g2w2j","636261a282f90a4b0998fe5c","freq_resp","","","img/orange_2bandit_a.png","70","img/orange_2bandit_a.png","70","test","","","","","","","","","","","3","","","","","","","","",""
"null","547339","SARL_v6","SARL_v6629g2w2j","636261a282f90a4b0998fe5c","fixation","","","img/fixation.png","null","","","test","","","","","","","","","","","","","","","","","","","",""
"508","547850","SARL_v6","SARL_v6629g2w2j","636261a282f90a4b0998fe5c","infreq","","","img/blue_2bandit_a2.png","68","","68","test","1","","66","","","","square","circle","64","21","3","0.9375","","","","","","","",""
"null","548153","SARL_v6","SARL_v6629g2w2j","636261a282f90a4b0998fe5c","infreq_resp","","","img/blue_2bandit_a.png","68","img/blue_2bandit_a.png","68","test","","","","","","","","","","","3","","","","","","","","",""
"null","548308","SARL_v6","SARL_v6629g2w2j","636261a282f90a4b0998fe5c","fixation","","","img/fixation.png","null","","","test","","","","","","","","","","","","","","","","","","","",""
"729","549040","SARL_v6","SARL_v6629g2w2j","636261a282f90a4b0998fe5c","freq","","","img/orange_2bandit_a2.png","70","","70","test","1","","67","","","","square","circle","65","22","3","0.9384615384615385","","","","","","","",""
"null","549126","SARL_v6","SARL_v6629g2w2j","636261a282f90a4b0998fe5c","freq_resp","","","img/orange_2bandit_a.png","70","img/orange_2bandit_a.png","70","test","","","","","","","","","","","3","","","","","","","","",""
"null","549282","SARL_v6","SARL_v6629g2w2j","636261a282f90a4b0998fe5c","fixation","","","img/fixation.png","null","","","test","","","","","","","","","","","","","","","","","","","",""
"720","550004","SARL_v6","SARL_v6629g2w2j","636261a282f90a4b0998fe5c","rl","","","img/black_2bandit_a2.png","75","","0","test","","","68","","","-4","square","circle","","0","3","","75","-4","-8","-8","-4","circle","3","0"
"null","550769","SARL_v6","SARL_v6629g2w2j","636261a282f90a4b0998fe5c","feedback","","","<div class=""verylowPoints""> -4 </div>","null","","na","test","","","NaN","","","","","","","","3","","75","","","","","","3",""
"null","551582","SARL_v6","SARL_v6629g2w2j","636261a282f90a4b0998fe5c","freq","","","img/orange_2bandit_a2.png","null","","70","test","0","","69","","","","square","circle","66","1","4","0.9242424242424242","","","","","","","",""
"null","551736","SARL_v6","SARL_v6629g2w2j","636261a282f90a4b0998fe5c","fixation","","","img/fixation.png","null","","","test","","","","","","","","","","","","","","","","","","","",""
"null","552548","SARL_v6","SARL_v6629g2w2j","636261a282f90a4b0998fe5c","freq","","","img/orange_2bandit_a2.png","null","","70","test","0","","70","","","","square","circle","67","2","4","0.9104477611940298","","","","","","","",""
"null","552705","SARL_v6","SARL_v6629g2w2j","636261a282f90a4b0998fe5c","fixation","","","img/fixation.png","null","","","test","","","","","","","","","","","","","","","","","","","",""
"364","553074","SARL_v6","SARL_v6629g2w2j","636261a282f90a4b0998fe5c","freq","","","img/orange_2bandit_a2.png","70","","70","test","1","","71","","","","square","circle","68","3","4","0.9117647058823529","","","","","","","",""
"null","553515","SARL_v6","SARL_v6629g2w2j","636261a282f90a4b0998fe5c","freq_resp","","","img/orange_2bandit_a.png","70","img/orange_2bandit_a.png","70","test","","","","","","","","","","","4","","","","","","","","",""
"null","553675","SARL_v6","SARL_v6629g2w2j","636261a282f90a4b0998fe5c","fixation","","","img/fixation.png","null","","","test","","","","","","","","","","","","","","","","","","","",""
"331","554010","SARL_v6","SARL_v6629g2w2j","636261a282f90a4b0998fe5c","freq","","","img/orange_2bandit_a2.png","70","","70","test","1","","72","","","","square","circle","69","4","4","0.9130434782608695","","","","","","","",""
"null","554488","SARL_v6","SARL_v6629g2w2j","636261a282f90a4b0998fe5c","freq_resp","","","img/orange_2bandit_a.png","70","img/orange_2bandit_a.png","70","test","","","","","","","","","","","4","","","","","","","","",""
"null","554645","SARL_v6","SARL_v6629g2w2j","636261a282f90a4b0998fe5c","fixation","","","img/fixation.png","null","","","test","","","","","","","","","","","","","","","","","","","",""
"358","555007","SARL_v6","SARL_v6629g2w2j","636261a282f90a4b0998fe5c","freq","","","img/orange_2bandit_a2.png","70","","70","test","1","","73","","","","square","circle","70","5","4","0.9142857142857143","","","","","","","",""
"null","555458","SARL_v6","SARL_v6629g2w2j","636261a282f90a4b0998fe5c","freq_resp","","","img/orange_2bandit_a.png","70","img/orange_2bandit_a.png","70","test","","","","","","","","","","","4","","","","","","","","",""
"null","555612","SARL_v6","SARL_v6629g2w2j","636261a282f90a4b0998fe5c","fixation","","","img/fixation.png","null","","","test","","","","","","","","","","","","","","","","","","","",""
"381","555998","SARL_v6","SARL_v6629g2w2j","636261a282f90a4b0998fe5c","freq","","","img/orange_2bandit_a2.png","70","","70","test","1","","74","","","","square","circle","71","6","4","0.9154929577464789","","","","","","","",""
"null","556426","SARL_v6","SARL_v6629g2w2j","636261a282f90a4b0998fe5c","freq_resp","","","img/orange_2bandit_a.png","70","img/orange_2bandit_a.png","70","test","","","","","","","","","","","4","","","","","","","","",""
"null","556584","SARL_v6","SARL_v6629g2w2j","636261a282f90a4b0998fe5c","fixation","","","img/fixation.png","null","","","test","","","","","","","","","","","","","","","","","","","",""
"360","556948","SARL_v6","SARL_v6629g2w2j","636261a282f90a4b0998fe5c","freq","","","img/orange_2bandit_a2.png","70","","70","test","1","","75","","","","square","circle","72","7","4","0.9166666666666666","","","","","","","",""
"null","557400","SARL_v6","SARL_v6629g2w2j","636261a282f90a4b0998fe5c","freq_resp","","","img/orange_2bandit_a.png","70","img/orange_2bandit_a.png","70","test","","","","","","","","","","","4","","","","","","","","",""
"null","557551","SARL_v6","SARL_v6629g2w2j","636261a282f90a4b0998fe5c","fixation","","","img/fixation.png","null","","","test","","","","","","","","","","","","","","","","","","","",""
"403","557958","SARL_v6","SARL_v6629g2w2j","636261a282f90a4b0998fe5c","freq","","","img/orange_2bandit_a2.png","70","","70","test","1","","76","","","","square","circle","73","8","4","0.9178082191780822","","","","","","","",""
"null","558366","SARL_v6","SARL_v6629g2w2j","636261a282f90a4b0998fe5c","freq_resp","","","img/orange_2bandit_a.png","70","img/orange_2bandit_a.png","70","test","","","","","","","","","","","4","","","","","","","","",""
"null","558521","SARL_v6","SARL_v6629g2w2j","636261a282f90a4b0998fe5c","fixation","","","img/fixation.png","null","","","test","","","","","","","","","","","","","","","","","","","",""
"473","558995","SARL_v6","SARL_v6629g2w2j","636261a282f90a4b0998fe5c","freq","","","img/orange_2bandit_a2.png","70","","70","test","1","","77","","","","square","circle","74","9","4","0.918918918918919","","","","","","","",""
"null","559338","SARL_v6","SARL_v6629g2w2j","636261a282f90a4b0998fe5c","freq_resp","","","img/orange_2bandit_a.png","70","img/orange_2bandit_a.png","70","test","","","","","","","","","","","4","","","","","","","","",""
"null","559492","SARL_v6","SARL_v6629g2w2j","636261a282f90a4b0998fe5c","fixation","","","img/fixation.png","null","","","test","","","","","","","","","","","","","","","","","","","",""
"390","559888","SARL_v6","SARL_v6629g2w2j","636261a282f90a4b0998fe5c","freq","","","img/orange_2bandit_a2.png","70","","70","test","1","","78","","","","square","circle","75","10","4","0.92","","","","","","","",""
"null","560309","SARL_v6","SARL_v6629g2w2j","636261a282f90a4b0998fe5c","freq_resp","","","img/orange_2bandit_a.png","70","img/orange_2bandit_a.png","70","test","","","","","","","","","","","4","","","","","","","","",""
"null","560468","SARL_v6","SARL_v6629g2w2j","636261a282f90a4b0998fe5c","fixation","","","img/fixation.png","null","","","test","","","","","","","","","","","","","","","","","","","",""
"392","560865","SARL_v6","SARL_v6629g2w2j","636261a282f90a4b0998fe5c","freq","","","img/orange_2bandit_a2.png","70","","70","test","1","","79","","","","square","circle","76","11","4","0.9210526315789473","","","","","","","",""
"null","561280","SARL_v6","SARL_v6629g2w2j","636261a282f90a4b0998fe5c","freq_resp","","","img/orange_2bandit_a.png","70","img/orange_2bandit_a.png","70","test","","","","","","","","","","","4","","","","","","","","",""
"null","561449","SARL_v6","SARL_v6629g2w2j","636261a282f90a4b0998fe5c","fixation","","","img/fixation.png","null","","","test","","","","","","","","","","","","","","","","","","","",""
"363","561818","SARL_v6","SARL_v6629g2w2j","636261a282f90a4b0998fe5c","freq","","","img/orange_2bandit_a2.png","70","","70","test","1","","80","","","","square","circle","77","12","4","0.922077922077922","","","","","","","",""
"null","562264","SARL_v6","SARL_v6629g2w2j","636261a282f90a4b0998fe5c","freq_resp","","","img/orange_2bandit_a.png","70","img/orange_2bandit_a.png","70","test","","","","","","","","","","","4","","","","","","","","",""
"null","562420","SARL_v6","SARL_v6629g2w2j","636261a282f90a4b0998fe5c","fixation","","","img/fixation.png","null","","","test","","","","","","","","","","","","","","","","","","","",""
"398","562820","SARL_v6","SARL_v6629g2w2j","636261a282f90a4b0998fe5c","freq","","","img/orange_2bandit_a2.png","70","","70","test","1","","81","","","","square","circle","78","13","4","0.9230769230769231","","","","","","","",""
"null","563234","SARL_v6","SARL_v6629g2w2j","636261a282f90a4b0998fe5c","freq_resp","","","img/orange_2bandit_a.png","70","img/orange_2bandit_a.png","70","test","","","","","","","","","","","4","","","","","","","","",""
"null","563404","SARL_v6","SARL_v6629g2w2j","636261a282f90a4b0998fe5c","fixation","","","img/fixation.png","null","","","test","","","","","","","","","","","","","","","","","","","",""
"367","563776","SARL_v6","SARL_v6629g2w2j","636261a282f90a4b0998fe5c","freq","","","img/orange_2bandit_a2.png","70","","70","test","1","","82","","","","square","circle","79","14","4","0.9240506329113924","","","","","","","",""
"null","564218","SARL_v6","SARL_v6629g2w2j","636261a282f90a4b0998fe5c","freq_resp","","","img/orange_2bandit_a.png","70","img/orange_2bandit_a.png","70","test","","","","","","","","","","","4","","","","","","","","",""
"null","564373","SARL_v6","SARL_v6629g2w2j","636261a282f90a4b0998fe5c","fixation","","","img/fixation.png","null","","","test","","","","","","","","","","","","","","","","","","","",""
"417","564794","SARL_v6","SARL_v6629g2w2j","636261a282f90a4b0998fe5c","freq","","","img/orange_2bandit_a2.png","70","","70","test","1","","83","","","","square","circle","80","15","4","0.925","","","","","","","",""
"null","565192","SARL_v6","SARL_v6629g2w2j","636261a282f90a4b0998fe5c","freq_resp","","","img/orange_2bandit_a.png","70","img/orange_2bandit_a.png","70","test","","","","","","","","","","","4","","","","","","","","",""
"null","565348","SARL_v6","SARL_v6629g2w2j","636261a282f90a4b0998fe5c","fixation","","","img/fixation.png","null","","","test","","","","","","","","","","","","","","","","","","","",""
"582","565934","SARL_v6","SARL_v6629g2w2j","636261a282f90a4b0998fe5c","freq","","","img/orange_2bandit_a2.png","70","","70","test","1","","84","","","","square","circle","81","16","4","0.9259259259259259","","","","","","","",""
"null","566156","SARL_v6","SARL_v6629g2w2j","636261a282f90a4b0998fe5c","freq_resp","","","img/orange_2bandit_a.png","70","img/orange_2bandit_a.png","70","test","","","","","","","","","","","4","","","","","","","","",""
"null","566314","SARL_v6","SARL_v6629g2w2j","636261a282f90a4b0998fe5c","fixation","","","img/fixation.png","null","","","test","","","","","","","","","","","","","","","","","","","",""
"585","566903","SARL_v6","SARL_v6629g2w2j","636261a282f90a4b0998fe5c","freq","","","img/orange_2bandit_a2.png","70","","70","test","1","","85","","","","square","circle","82","17","4","0.926829268292683","","","","","","","",""
"null","567124","SARL_v6","SARL_v6629g2w2j","636261a282f90a4b0998fe5c","freq_resp","","","img/orange_2bandit_a.png","70","img/orange_2bandit_a.png","70","test","","","","","","","","","","","4","","","","","","","","",""
"null","567283","SARL_v6","SARL_v6629g2w2j","636261a282f90a4b0998fe5c","fixation","","","img/fixation.png","null","","","test","","","","","","","","","","","","","","","","","","","",""
"567","567855","SARL_v6","SARL_v6629g2w2j","636261a282f90a4b0998fe5c","freq","","","img/orange_2bandit_a2.png","70","","70","test","1","","86","","","","square","circle","83","18","4","0.927710843373494","","","","","","","",""
"null","568098","SARL_v6","SARL_v6629g2w2j","636261a282f90a4b0998fe5c","freq_resp","","","img/orange_2bandit_a.png","70","img/orange_2bandit_a.png","70","test","","","","","","","","","","","4","","","","","","","","",""
"null","568253","SARL_v6","SARL_v6629g2w2j","636261a282f90a4b0998fe5c","fixation","","","img/fixation.png","null","","","test","","","","","","","","","","","","","","","","","","","",""
"470","568724","SARL_v6","SARL_v6629g2w2j","636261a282f90a4b0998fe5c","freq","","","img/orange_2bandit_a2.png","70","","70","test","1","","87","","","","square","circle","84","19","4","0.9285714285714286","","","","","","","",""
"null","569068","SARL_v6","SARL_v6629g2w2j","636261a282f90a4b0998fe5c","freq_resp","","","img/orange_2bandit_a.png","70","img/orange_2bandit_a.png","70","test","","","","","","","","","","","4","","","","","","","","",""
"null","569223","SARL_v6","SARL_v6629g2w2j","636261a282f90a4b0998fe5c","fixation","","","img/fixation.png","null","","","test","","","","","","","","","","","","","","","","","","","",""
"null","570037","SARL_v6","SARL_v6629g2w2j","636261a282f90a4b0998fe5c","freq","","","img/orange_2bandit_a2.png","null","","70","test","0","","88","","","","square","circle","85","20","4","0.9176470588235294","","","","","","","",""
"null","570199","SARL_v6","SARL_v6629g2w2j","636261a282f90a4b0998fe5c","fixation","","","img/fixation.png","null","","","test","","","","","","","","","","","","","","","","","","","",""
"4","570207","SARL_v6","SARL_v6629g2w2j","636261a282f90a4b0998fe5c","infreq","","","img/blue_2bandit_a2.png","70","","68","test","0","","89","","","","square","circle","86","21","4","0.9069767441860465","","","","","","","",""
"null","571005","SARL_v6","SARL_v6629g2w2j","636261a282f90a4b0998fe5c","infreq_resp","","","img/blue_2bandit_a.png","70","img/blue_2bandit_a.png","68","test","","","","","","","","","","","4","","","","","","","","",""
"null","571161","SARL_v6","SARL_v6629g2w2j","636261a282f90a4b0998fe5c","fixation","","","img/fixation.png","null","","","test","","","","","","","","","","","","","","","","","","","",""
"418","571584","SARL_v6","SARL_v6629g2w2j","636261a282f90a4b0998fe5c","freq","","","img/orange_2bandit_a2.png","70","","70","test","1","","90","","","","square","circle","87","22","4","0.9080459770114943","","","","","","","",""
"null","571977","SARL_v6","SARL_v6629g2w2j","636261a282f90a4b0998fe5c","freq_resp","","","img/orange_2bandit_a.png","70","img/orange_2bandit_a.png","70","test","","","","","","","","","","","4","","","","","","","","",""
"null","572130","SARL_v6","SARL_v6629g2w2j","636261a282f90a4b0998fe5c","fixation","","","img/fixation.png","null","","","test","","","","","","","","","","","","","","","","","","","",""
"null","572934","SARL_v6","SARL_v6629g2w2j","636261a282f90a4b0998fe5c","infreq","","","img/blue_2bandit_a2.png","null","","68","test","0","","91","","","","square","circle","88","23","4","0.8977272727272727","","","","","","","",""
"null","573089","SARL_v6","SARL_v6629g2w2j","636261a282f90a4b0998fe5c","fixation","","","img/fixation.png","null","","","test","","","","","","","","","","","","","","","","","","","",""
"null","573901","SARL_v6","SARL_v6629g2w2j","636261a282f90a4b0998fe5c","freq","","","img/orange_2bandit_a2.png","null","","70","test","0","","92","","","","square","circle","89","24","4","0.8876404494382022","","","","","","","",""
"null","574056","SARL_v6","SARL_v6629g2w2j","636261a282f90a4b0998fe5c","fixation","","","img/fixation.png","null","","","test","","","","","","","","","","","","","","","","","","","",""
"null","574867","SARL_v6","SARL_v6629g2w2j","636261a282f90a4b0998fe5c","freq","","","img/orange_2bandit_a2.png","null","","70","test","0","","93","","","","square","circle","90","25","4","0.8777777777777778","","","","","","","",""
"null","575023","SARL_v6","SARL_v6629g2w2j","636261a282f90a4b0998fe5c","fixation","","","img/fixation.png","null","","","test","","","","","","","","","","","","","","","","","","","",""
"null","576539","SARL_v6","SARL_v6629g2w2j","636261a282f90a4b0998fe5c","rl","","","img/black_2bandit_a2.png","null","","0","test","","","94","","","0","square","circle","","0","4","","null","0","-12","-12","0","too slow","4","0"
"null","577304","SARL_v6","SARL_v6629g2w2j","636261a282f90a4b0998fe5c","feedback","","","<div font size = 80> TOO SLOW  </div>","null","","na","test","","","NaN","","","","","","","","4","","null","","","","","","4",""
"null","578117","SARL_v6","SARL_v6629g2w2j","636261a282f90a4b0998fe5c","freq","","","img/orange_2bandit_a2.png","null","","70","test","0","","95","","","","square","circle","91","1","5","0.8681318681318682","","","","","","","",""
"null","578275","SARL_v6","SARL_v6629g2w2j","636261a282f90a4b0998fe5c","fixation","","","img/fixation.png","null","","","test","","","","","","","","","","","","","","","","","","","",""
"604","578882","SARL_v6","SARL_v6629g2w2j","636261a282f90a4b0998fe5c","freq","","","img/orange_2bandit_a2.png","68","","70","test","0","","96","","","","square","circle","92","2","5","0.8586956521739131","","","","","","","",""
"null","579090","SARL_v6","SARL_v6629g2w2j","636261a282f90a4b0998fe5c","freq_resp","","","img/orange_2bandit_a.png","68","img/orange_2bandit_a.png","70","test","","","","","","","","","","","5","","","","","","","","",""
"null","579245","SARL_v6","SARL_v6629g2w2j","636261a282f90a4b0998fe5c","fixation","","","img/fixation.png","null","","","test","","","","","","","","","","","","","","","","","","","",""
"470","579719","SARL_v6","SARL_v6629g2w2j","636261a282f90a4b0998fe5c","freq","","","img/orange_2bandit_a2.png","70","","70","test","1","","97","","","","square","circle","93","3","5","0.8602150537634409","","","","","","","",""
"null","580060","SARL_v6","SARL_v6629g2w2j","636261a282f90a4b0998fe5c","freq_resp","","","img/orange_2bandit_a.png","70","img/orange_2bandit_a.png","70","test","","","","","","","","","","","5","","","","","","","","",""
"null","580215","SARL_v6","SARL_v6629g2w2j","636261a282f90a4b0998fe5c","fixation","","","img/fixation.png","null","","","test","","","","","","","","","","","","","","","","","","","",""
"327","580545","SARL_v6","SARL_v6629g2w2j","636261a282f90a4b0998fe5c","freq","","","img/orange_2bandit_a2.png","70","","70","test","1","","98","","","","square","circle","94","4","5","0.8617021276595744","","","","","","","",""
"null","581029","SARL_v6","SARL_v6629g2w2j","636261a282f90a4b0998fe5c","freq_resp","","","img/orange_2bandit_a.png","70","img/orange_2bandit_a.png","70","test","","","","","","","","","","","5","","","","","","","","",""
"null","581185","SARL_v6","SARL_v6629g2w2j","636261a282f90a4b0998fe5c","fixation","","","img/fixation.png","null","","","test","","","","","","","","","","","","","","","","","","","",""
"367","581556","SARL_v6","SARL_v6629g2w2j","636261a282f90a4b0998fe5c","freq","","","img/orange_2bandit_a2.png","70","","70","test","1","","99","","","","square","circle","95","5","5","0.8631578947368421","","","","","","","",""
"null","581999","SARL_v6","SARL_v6629g2w2j","636261a282f90a4b0998fe5c","freq_resp","","","img/orange_2bandit_a.png","70","img/orange_2bandit_a.png","70","test","","","","","","","","","","","5","","","","","","","","",""
"null","582156","SARL_v6","SARL_v6629g2w2j","636261a282f90a4b0998fe5c","fixation","","","img/fixation.png","null","","","test","","","","","","","","","","","","","","","","","","","",""
"305","582463","SARL_v6","SARL_v6629g2w2j","636261a282f90a4b0998fe5c","freq","","","img/orange_2bandit_a2.png","70","","70","test","1","","100","","","","square","circle","96","6","5","0.8645833333333334","","","","","","","",""
"null","582967","SARL_v6","SARL_v6629g2w2j","636261a282f90a4b0998fe5c","freq_resp","","","img/orange_2bandit_a.png","70","img/orange_2bandit_a.png","70","test","","","","","","","","","","","5","","","","","","","","",""
"null","583124","SARL_v6","SARL_v6629g2w2j","636261a282f90a4b0998fe5c","fixation","","","img/fixation.png","null","","","test","","","","","","","","","","","","","","","","","","","",""
"222","583347","SARL_v6","SARL_v6629g2w2j","636261a282f90a4b0998fe5c","freq","","","img/orange_2bandit_a2.png","70","","70","test","1","","101","","","","square","circle","97","7","5","0.865979381443299","","","","","","","",""
"null","583941","SARL_v6","SARL_v6629g2w2j","636261a282f90a4b0998fe5c","freq_resp","","","img/orange_2bandit_a.png","70","img/orange_2bandit_a.png","70","test","","","","","","","","","","","5","","","","","","","","",""
"null","584097","SARL_v6","SARL_v6629g2w2j","636261a282f90a4b0998fe5c","fixation","","","img/fixation.png","null","","","test","","","","","","","","","","","","","","","","","","","",""
"21","584121","SARL_v6","SARL_v6629g2w2j","636261a282f90a4b0998fe5c","freq","","","img/orange_2bandit_a2.png","70","","70","test","1","","102","","","","square","circle","98","8","5","0.8673469387755102","","","","","","","",""
"null","584911","SARL_v6","SARL_v6629g2w2j","636261a282f90a4b0998fe5c","freq_resp","","","img/orange_2bandit_a.png","70","img/orange_2bandit_a.png","70","test","","","","","","","","","","","5","","","","","","","","",""
"null","585068","SARL_v6","SARL_v6629g2w2j","636261a282f90a4b0998fe5c","fixation","","","img/fixation.png","null","","","test","","","","","","","","","","","","","","","","","","","",""
"441","585512","SARL_v6","SARL_v6629g2w2j","636261a282f90a4b0998fe5c","freq","","","img/orange_2bandit_a2.png","70","","70","test","1","","103","","","","square","circle","99","9","5","0.8686868686868687","","","","","","","",""
"null","585887","SARL_v6","SARL_v6629g2w2j","636261a282f90a4b0998fe5c","freq_resp","","","img/orange_2bandit_a.png","70","img/orange_2bandit_a.png","70","test","","","","","","","","","","","5","","","","","","","","",""
"null","586045","SARL_v6","SARL_v6629g2w2j","636261a282f90a4b0998fe5c","fixation","","","img/fixation.png","null","","","test","","","","","","","","","","","","","","","","","","","",""
"null","586856","SARL_v6","SARL_v6629g2w2j","636261a282f90a4b0998fe5c","freq","","","img/orange_2bandit_a2.png","null","","70","test","0","","104","","","","square","circle","100","10","5","0.86","","","","","","","",""
"null","587011","SARL_v6","SARL_v6629g2w2j","636261a282f90a4b0998fe5c","fixation","","","img/fixation.png","null","","","test","","","","","","","","","","","","","","","","","","","",""
"null","587819","SARL_v6","SARL_v6629g2w2j","636261a282f90a4b0998fe5c","freq","","","img/orange_2bandit_a2.png","null","","70","test","0","","105","","","","square","circle","101","11","5","0.8514851485148515","","","","","","","",""
"null","587973","SARL_v6","SARL_v6629g2w2j","636261a282f90a4b0998fe5c","fixation","","","img/fixation.png","null","","","test","","","","","","","","","","","","","","","","","","","",""
"504","588481","SARL_v6","SARL_v6629g2w2j","636261a282f90a4b0998fe5c","freq","","","img/orange_2bandit_a2.png","70","","70","test","1","","106","","","","square","circle","102","12","5","0.8529411764705882","","","","","","","",""
"null","588781","SARL_v6","SARL_v6629g2w2j","636261a282f90a4b0998fe5c","freq_resp","","","img/orange_2bandit_a.png","70","img/orange_2bandit_a.png","70","test","","","","","","","","","","","5","","","","","","","","",""
"null","588943","SARL_v6","SARL_v6629g2w2j","636261a282f90a4b0998fe5c","fixation","","","img/fixation.png","null","","","test","","","","","","","","","","","","","","","","","","","",""
"787","589734","SARL_v6","SARL_v6629g2w2j","636261a282f90a4b0998fe5c","freq","","","img/orange_2bandit_a2.png","70","","70","test","1","","107","","","","square","circle","103","13","5","0.8543689320388349","","","","","","","",""
"null","589757","SARL_v6","SARL_v6629g2w2j","636261a282f90a4b0998fe5c","freq_resp","","","img/orange_2bandit_a.png","70","img/orange_2bandit_a.png","70","test","","","","","","","","","","","5","","","","","","","","",""
"null","589911","SARL_v6","SARL_v6629g2w2j","636261a282f90a4b0998fe5c","fixation","","","img/fixation.png","null","","","test","","","","","","","","","","","","","","","","","","","",""
"null","590729","SARL_v6","SARL_v6629g2w2j","636261a282f90a4b0998fe5c","freq","","","img/orange_2bandit_a2.png","null","","70","test","0","","108","","","","square","circle","104","14","5","0.8461538461538461","","","","","","","",""
"null","590885","SARL_v6","SARL_v6629g2w2j","636261a282f90a4b0998fe5c","fixation","","","img/fixation.png","null","","","test","","","","","","","","","","","","","","","","","","","",""
"780","591666","SARL_v6","SARL_v6629g2w2j","636261a282f90a4b0998fe5c","freq","","","img/orange_2bandit_a2.png","70","","70","test","1","","109","","","","square","circle","105","15","5","0.8476190476190476","","","","","","","",""
"null","591697","SARL_v6","SARL_v6629g2w2j","636261a282f90a4b0998fe5c","freq_resp","","","img/orange_2bandit_a.png","70","img/orange_2bandit_a.png","70","test","","","","","","","","","","","5","","","","","","","","",""
"null","591852","SARL_v6","SARL_v6629g2w2j","636261a282f90a4b0998fe5c","fixation","","","img/fixation.png","null","","","test","","","","","","","","","","","","","","","","","","","",""
"null","592665","SARL_v6","SARL_v6629g2w2j","636261a282f90a4b0998fe5c","freq","","","img/orange_2bandit_a2.png","null","","70","test","0","","110","","","","square","circle","106","16","5","0.839622641509434","","","","","","","",""
"null","592822","SARL_v6","SARL_v6629g2w2j","636261a282f90a4b0998fe5c","fixation","","","img/fixation.png","null","","","test","","","","","","","","","","","","","","","","","","","",""
"null","593637","SARL_v6","SARL_v6629g2w2j","636261a282f90a4b0998fe5c","freq","","","img/orange_2bandit_a2.png","null","","70","test","0","","111","","","","square","circle","107","17","5","0.8317757009345794","","","","","","","",""
"null","593794","SARL_v6","SARL_v6629g2w2j","636261a282f90a4b0998fe5c","fixation","","","img/fixation.png","null","","","test","","","","","","","","","","","","","","","","","","","",""
"null","594613","SARL_v6","SARL_v6629g2w2j","636261a282f90a4b0998fe5c","freq","","","img/orange_2bandit_a2.png","null","","70","test","0","","112","","","","square","circle","108","18","5","0.8240740740740741","","","","","","","",""
"null","594779","SARL_v6","SARL_v6629g2w2j","636261a282f90a4b0998fe5c","fixation","","","img/fixation.png","null","","","test","","","","","","","","","","","","","","","","","","","",""
"null","595593","SARL_v6","SARL_v6629g2w2j","636261a282f90a4b0998fe5c","freq","","","img/orange_2bandit_a2.png","null","","70","test","0","","113","","","","square","circle","109","19","5","0.8165137614678899","","","","","","","",""
"null","595763","SARL_v6","SARL_v6629g2w2j","636261a282f90a4b0998fe5c","fixation","","","img/fixation.png","null","","","test","","","","","","","","","","","","","","","","","","","",""
"null","596578","SARL_v6","SARL_v6629g2w2j","636261a282f90a4b0998fe5c","freq","","","img/orange_2bandit_a2.png","null","","70","test","0","","114","","","","square","circle","110","20","5","0.8090909090909091","","","","","","","",""
"null","596734","SARL_v6","SARL_v6629g2w2j","636261a282f90a4b0998fe5c","fixation","","","img/fixation.png","null","","","test","","","","","","","","","","","","","","","","","","","",""
"747","597488","SARL_v6","SARL_v6629g2w2j","636261a282f90a4b0998fe5c","infreq","","","img/blue_2bandit_a2.png","68","","68","test","1","","115","","","","square","circle","111","21","5","0.8108108108108109","","","","","","","",""
"null","597546","SARL_v6","SARL_v6629g2w2j","636261a282f90a4b0998fe5c","infreq_resp","","","img/blue_2bandit_a.png","68","img/blue_2bandit_a.png","68","test","","","","","","","","","","","5","","","","","","","","",""
"null","597700","SARL_v6","SARL_v6629g2w2j","636261a282f90a4b0998fe5c","fixation","","","img/fixation.png","null","","","test","","","","","","","","","","","","","","","","","","","",""
"553","598256","SARL_v6","SARL_v6629g2w2j","636261a282f90a4b0998fe5c","infreq","","","img/blue_2bandit_a2.png","68","","68","test","1","","116","","","","square","circle","112","22","5","0.8125","","","","","","","",""
"null","598514","SARL_v6","SARL_v6629g2w2j","636261a282f90a4b0998fe5c","infreq_resp","","","img/blue_2bandit_a.png","68","img/blue_2bandit_a.png","68","test","","","","","","","","","","","5","","","","","","","","",""
"null","598668","SARL_v6","SARL_v6629g2w2j","636261a282f90a4b0998fe5c","fixation","","","img/fixation.png","null","","","test","","","","","","","","","","","","","","","","","","","",""
"782","599454","SARL_v6","SARL_v6629g2w2j","636261a282f90a4b0998fe5c","freq","","","img/orange_2bandit_a2.png","70","","70","test","1","","117","","","","square","circle","113","23","5","0.8141592920353983","","","","","","","",""
"null","599481","SARL_v6","SARL_v6629g2w2j","636261a282f90a4b0998fe5c","freq_resp","","","img/orange_2bandit_a.png","70","img/orange_2bandit_a.png","70","test","","","","","","","","","","","5","","","","","","","","",""
"null","599635","SARL_v6","SARL_v6629g2w2j","636261a282f90a4b0998fe5c","fixation","","","img/fixation.png","null","","","test","","","","","","","","","","","","","","","","","","","",""
"662","600302","SARL_v6","SARL_v6629g2w2j","636261a282f90a4b0998fe5c","freq","","","img/orange_2bandit_a2.png","70","","70","test","1","","118","","","","square","circle","114","24","5","0.8157894736842105","","","","","","","",""
"null","600453","SARL_v6","SARL_v6629g2w2j","636261a282f90a4b0998fe5c","freq_resp","","","img/orange_2bandit_a.png","70","img/orange_2bandit_a.png","70","test","","","","","","","","","","","5","","","","","","","","",""
"null","600611","SARL_v6","SARL_v6629g2w2j","636261a282f90a4b0998fe5c","fixation","","","img/fixation.png","null","","","test","","","","","","","","","","","","","","","","","","","",""
"668","601284","SARL_v6","SARL_v6629g2w2j","636261a282f90a4b0998fe5c","rl","","","img/black_2bandit_a2.png","75","","0","test","","","119","","","4","square","circle","","0","5","","75","4","-7","-7","4","circle","5","0"
"null","602045","SARL_v6","SARL_v6629g2w2j","636261a282f90a4b0998fe5c","feedback","","","<div class=""veryhighPoints""> 4 </div>","null","","na","test","","","NaN","","","","","","","","5","","75","","","","","","5",""
"542","602590","SARL_v6","SARL_v6629g2w2j","636261a282f90a4b0998fe5c","freq","","","img/orange_2bandit_a2.png","70","","70","test","1","","120","","","","square","circle","115","1","6","0.8173913043478261","","","","","","","",""
"null","602862","SARL_v6","SARL_v6629g2w2j","636261a282f90a4b0998fe5c","freq_resp","","","img/orange_2bandit_a.png","70","img/orange_2bandit_a.png","70","test","","","","","","","","","","","6","","","","","","","","",""
"null","603031","SARL_v6","SARL_v6629g2w2j","636261a282f90a4b0998fe5c","fixation","","","img/fixation.png","null","","","test","","","","","","","","","","","","","","","","","","","",""
"542","603579","SARL_v6","SARL_v6629g2w2j","636261a282f90a4b0998fe5c","freq","","","img/orange_2bandit_a2.png","70","","70","test","1","","121","","","","square","circle","116","2","6","0.8189655172413793","","","","","","","",""
"null","603852","SARL_v6","SARL_v6629g2w2j","636261a282f90a4b0998fe5c","freq_resp","","","img/orange_2bandit_a.png","70","img/orange_2bandit_a.png","70","test","","","","","","","","","","","6","","","","","","","","",""
"null","604009","SARL_v6","SARL_v6629g2w2j","636261a282f90a4b0998fe5c","fixation","","","img/fixation.png","null","","","test","","","","","","","","","","","","","","","","","","","",""
"614","604625","SARL_v6","SARL_v6629g2w2j","636261a282f90a4b0998fe5c","freq","","","img/orange_2bandit_a2.png","70","","70","test","1","","122","","","","square","circle","117","3","6","0.8205128205128205","","","","","","","",""
"null","604823","SARL_v6","SARL_v6629g2w2j","636261a282f90a4b0998fe5c","freq_resp","","","img/orange_2bandit_a.png","70","img/orange_2bandit_a.png","70","test","","","","","","","","","","","6","","","","","","","","",""
"null","604979","SARL_v6","SARL_v6629g2w2j","636261a282f90a4b0998fe5c","fixation","","","img/fixation.png","null","","","test","","","","","","","","","","","","","","","","","","","",""
"717","605700","SARL_v6","SARL_v6629g2w2j","636261a282f90a4b0998fe5c","infreq","","","img/blue_2bandit_a2.png","68","","68","test","1","","123","","","","square","circle","118","4","6","0.8220338983050848","","","","","","","",""
"null","605803","SARL_v6","SARL_v6629g2w2j","636261a282f90a4b0998fe5c","infreq_resp","","","img/blue_2bandit_a.png","68","img/blue_2bandit_a.png","68","test","","","","","","","","","","","6","","","","","","","","",""
"null","605957","SARL_v6","SARL_v6629g2w2j","636261a282f90a4b0998fe5c","fixation","","","img/fixation.png","null","","","test","","","","","","","","","","","","","","","","","","","",""
"626","606588","SARL_v6","SARL_v6629g2w2j","636261a282f90a4b0998fe5c","freq","","","img/orange_2bandit_a2.png","70","","70","test","1","","124","","","","square","circle","119","5","6","0.8235294117647058","","","","","","","",""
"null","606771","SARL_v6","SARL_v6629g2w2j","636261a282f90a4b0998fe5c","freq_resp","","","img/orange_2bandit_a.png","70","img/orange_2bandit_a.png","70","test","","","","","","","","","","","6","","","","","","","","",""
"null","606927","SARL_v6","SARL_v6629g2w2j","636261a282f90a4b0998fe5c","fixation","","","img/fixation.png","null","","","test","","","","","","","","","","","","","","","","","","","",""
"538","607470","SARL_v6","SARL_v6629g2w2j","636261a282f90a4b0998fe5c","freq","","","img/orange_2bandit_a2.png","70","","70","test","1","","125","","","","square","circle","120","6","6","0.825","","","","","","","",""
"null","607742","SARL_v6","SARL_v6629g2w2j","636261a282f90a4b0998fe5c","freq_resp","","","img/orange_2bandit_a.png","70","img/orange_2bandit_a.png","70","test","","","","","","","","","","","6","","","","","","","","",""
"null","607897","SARL_v6","SARL_v6629g2w2j","636261a282f90a4b0998fe5c","fixation","","","img/fixation.png","null","","","test","","","","","","","","","","","","","","","","","","","",""
"564","608464","SARL_v6","SARL_v6629g2w2j","636261a282f90a4b0998fe5c","freq","","","img/orange_2bandit_a2.png","70","","70","test","1","","126","","","","square","circle","121","7","6","0.8264462809917356","","","","","","","",""
"null","608709","SARL_v6","SARL_v6629g2w2j","636261a282f90a4b0998fe5c","freq_resp","","","img/orange_2bandit_a.png","70","img/orange_2bandit_a.png","70","test","","","","","","","","","","","6","","","","","","","","",""
"null","608864","SARL_v6","SARL_v6629g2w2j","636261a282f90a4b0998fe5c","fixation","","","img/fixation.png","null","","","test","","","","","","","","","","","","","","","","","","","",""
"null","609677","SARL_v6","SARL_v6629g2w2j","636261a282f90a4b0998fe5c","freq","","","img/orange_2bandit_a2.png","null","","70","test","0","","127","","","","square","circle","122","8","6","0.819672131147541","","","","","","","",""
"null","609831","SARL_v6","SARL_v6629g2w2j","636261a282f90a4b0998fe5c","fixation","","","img/fixation.png","null","","","test","","","","","","","","","","","","","","","","","","","",""
"587","610421","SARL_v6","SARL_v6629g2w2j","636261a282f90a4b0998fe5c","infreq","","","img/blue_2bandit_a2.png","68","","68","test","1","","128","","","","square","circle","123","9","6","0.8211382113821138","","","","","","","",""
"null","610644","SARL_v6","SARL_v6629g2w2j","636261a282f90a4b0998fe5c","infreq_resp","","","img/blue_2bandit_a.png","68","img/blue_2bandit_a.png","68","test","","","","","","","","","","","6","","","","","","","","",""
"null","610800","SARL_v6","SARL_v6629g2w2j","636261a282f90a4b0998fe5c","fixation","","","img/fixation.png","null","","","test","","","","","","","","","","","","","","","","","","","",""
"522","611325","SARL_v6","SARL_v6629g2w2j","636261a282f90a4b0998fe5c","freq","","","img/orange_2bandit_a2.png","70","","70","test","1","","129","","","","square","circle","124","10","6","0.8225806451612904","","","","","","","",""
"null","611611","SARL_v6","SARL_v6629g2w2j","636261a282f90a4b0998fe5c","freq_resp","","","img/orange_2bandit_a.png","70","img/orange_2bandit_a.png","70","test","","","","","","","","","","","6","","","","","","","","",""
"null","611766","SARL_v6","SARL_v6629g2w2j","636261a282f90a4b0998fe5c","fixation","","","img/fixation.png","null","","","test","","","","","","","","","","","","","","","","","","","",""
"558","612328","SARL_v6","SARL_v6629g2w2j","636261a282f90a4b0998fe5c","freq","","","img/orange_2bandit_a2.png","70","","70","test","1","","130","","","","square","circle","125","11","6","0.824","","","","","","","",""
"null","612586","SARL_v6","SARL_v6629g2w2j","636261a282f90a4b0998fe5c","freq_resp","","","img/orange_2bandit_a.png","70","img/orange_2bandit_a.png","70","test","","","","","","","","","","","6","","","","","","","","",""
"null","612743","SARL_v6","SARL_v6629g2w2j","636261a282f90a4b0998fe5c","fixation","","","img/fixation.png","null","","","test","","","","","","","","","","","","","","","","","","","",""
"544","613290","SARL_v6","SARL_v6629g2w2j","636261a282f90a4b0998fe5c","freq","","","img/orange_2bandit_a2.png","70","","70","test","1","","131","","","","square","circle","126","12","6","0.8253968253968254","","","","","","","",""
"null","613567","SARL_v6","SARL_v6629g2w2j","636261a282f90a4b0998fe5c","freq_resp","","","img/orange_2bandit_a.png","70","img/orange_2bandit_a.png","70","test","","","","","","","","","","","6","","","","","","","","",""
"null","613720","SARL_v6","SARL_v6629g2w2j","636261a282f90a4b0998fe5c","fixation","","","img/fixation.png","null","","","test","","","","","","","","","","","","","","","","","","","",""
"486","614209","SARL_v6","SARL_v6629g2w2j","636261a282f90a4b0998fe5c","freq","","","img/orange_2bandit_a2.png","70","","70","test","1","","132","","","","square","circle","127","13","6","0.8267716535433071","","","","","","","",""
"null","614538","SARL_v6","SARL_v6629g2w2j","636261a282f90a4b0998fe5c","freq_resp","","","img/orange_2bandit_a.png","70","img/orange_2bandit_a.png","70","test","","","","","","","","","","","6","","","","","","","","",""
"null","614696","SARL_v6","SARL_v6629g2w2j","636261a282f90a4b0998fe5c","fixation","","","img/fixation.png","null","","","test","","","","","","","","","","","","","","","","","","","",""
"501","615200","SARL_v6","SARL_v6629g2w2j","636261a282f90a4b0998fe5c","freq","","","img/orange_2bandit_a2.png","70","","70","test","1","","133","","","","square","circle","128","14","6","0.828125","","","","","","","",""
"null","615508","SARL_v6","SARL_v6629g2w2j","636261a282f90a4b0998fe5c","freq_resp","","","img/orange_2bandit_a.png","70","img/orange_2bandit_a.png","70","test","","","","","","","","","","","6","","","","","","","","",""
"null","615665","SARL_v6","SARL_v6629g2w2j","636261a282f90a4b0998fe5c","fixation","","","img/fixation.png","null","","","test","","","","","","","","","","","","","","","","","","","",""
"463","616133","SARL_v6","SARL_v6629g2w2j","636261a282f90a4b0998fe5c","freq","","","img/orange_2bandit_a2.png","70","","70","test","1","","134","","","","square","circle","129","15","6","0.8294573643410853","","","","","","","",""
"null","616479","SARL_v6","SARL_v6629g2w2j","636261a282f90a4b0998fe5c","freq_resp","","","img/orange_2bandit_a.png","70","img/orange_2bandit_a.png","70","test","","","","","","","","","","","6","","","","","","","","",""
"null","616633","SARL_v6","SARL_v6629g2w2j","636261a282f90a4b0998fe5c","fixation","","","img/fixation.png","null","","","test","","","","","","","","","","","","","","","","","","","",""
"591","617229","SARL_v6","SARL_v6629g2w2j","636261a282f90a4b0998fe5c","freq","","","img/orange_2bandit_a2.png","70","","70","test","1","","135","","","","square","circle","130","16","6","0.8307692307692308","","","","","","","",""
"null","617446","SARL_v6","SARL_v6629g2w2j","636261a282f90a4b0998fe5c","freq_resp","","","img/orange_2bandit_a.png","70","img/orange_2bandit_a.png","70","test","","","","","","","","","","","6","","","","","","","","",""
"null","617608","SARL_v6","SARL_v6629g2w2j","636261a282f90a4b0998fe5c","fixation","","","img/fixation.png","null","","","test","","","","","","","","","","","","","","","","","","","",""
"500","618111","SARL_v6","SARL_v6629g2w2j","636261a282f90a4b0998fe5c","freq","","","img/orange_2bandit_a2.png","70","","70","test","1","","136","","","","square","circle","131","17","6","0.8320610687022901","","","","","","","",""
"null","618418","SARL_v6","SARL_v6629g2w2j","636261a282f90a4b0998fe5c","freq_resp","","","img/orange_2bandit_a.png","70","img/orange_2bandit_a.png","70","test","","","","","","","","","","","6","","","","","","","","",""
"null","618574","SARL_v6","SARL_v6629g2w2j","636261a282f90a4b0998fe5c","fixation","","","img/fixation.png","null","","","test","","","","","","","","","","","","","","","","","","","",""
"422","618999","SARL_v6","SARL_v6629g2w2j","636261a282f90a4b0998fe5c","freq","","","img/orange_2bandit_a2.png","70","","70","test","1","","137","","","","square","circle","132","18","6","0.8333333333333334","","","","","","","",""
"null","619381","SARL_v6","SARL_v6629g2w2j","636261a282f90a4b0998fe5c","freq_resp","","","img/orange_2bandit_a.png","70","img/orange_2bandit_a.png","70","test","","","","","","","","","","","6","","","","","","","","",""
"null","619537","SARL_v6","SARL_v6629g2w2j","636261a282f90a4b0998fe5c","fixation","","","img/fixation.png","null","","","test","","","","","","","","","","","","","","","","","","","",""
