"rt","time_elapsed","expId","subject","prolificID","trialType","rlType","attType","stimulus","key_press","stim","corrresp","phase","corr","pracCounter","trialNum","rewardOne","rewardTwo","reward","bandOne","bandTwo","attentionNum","attentionRunNum","blockNum","performance","bandChosen","circleVal","squareVal","bandOneVal","bandTwoVal","shapeChosen","rlNum","badFlag"
"113285.5","113289","SARL_v6","SARL_v6o5s523ln","62adcf439ff48317ff72e773","","","","","","","","","","","","","","","","","","","","","","","","","","","",""
"","115258","SARL_v6","SARL_v6o5s523ln","62adcf439ff48317ff72e773","fullscreen","fullscreen","fullscreen","","","","","","","","","","","","","","","","","","","","","","","","",""
"489444.2000000477","604708","SARL_v6","SARL_v6o5s523ln","62adcf439ff48317ff72e773","","","","","","","","","","","","","","","","","","","","","","","","","","","",""
"null","605516","SARL_v6","SARL_v6o5s523ln","62adcf439ff48317ff72e773","freqPrac","","","img/orange_2bandit_b2.png","null","img/orange_2bandit_b2.png","70","prac","0","1","","","","","","","","","","","","","","","","","",""
"null","606523","SARL_v6","SARL_v6o5s523ln","62adcf439ff48317ff72e773","feedback","","","img/tooSlow.png","null","","na","prac","","","","","","","","","","","","","","","","","","","",""
"null","606692","SARL_v6","SARL_v6o5s523ln","62adcf439ff48317ff72e773","fixation","","","img/fixation.png","null","","","prac","","","","","","","","","","","","","","","","","","","",""
"null","607498","SARL_v6","SARL_v6o5s523ln","62adcf439ff48317ff72e773","infreqPrac","","","img/blue_2bandit_b2.png","null","img/blue_2bandit_b2.png","68","prac","0","2","","","","","","","","","","","","","","","","","",""
"null","608505","SARL_v6","SARL_v6o5s523ln","62adcf439ff48317ff72e773","feedback","","","img/tooSlow.png","null","","na","prac","","","","","","","","","","","","","","","","","","","",""
"null","608661","SARL_v6","SARL_v6o5s523ln","62adcf439ff48317ff72e773","fixation","","","img/fixation.png","null","","","prac","","","","","","","","","","","","","","","","","","","",""
"null","609478","SARL_v6","SARL_v6o5s523ln","62adcf439ff48317ff72e773","freqPrac","","","img/orange_2bandit_b2.png","null","img/orange_2bandit_b2.png","70","prac","0","3","","","","","","","","","","","","","","","","","",""
"null","610485","SARL_v6","SARL_v6o5s523ln","62adcf439ff48317ff72e773","feedback","","","img/tooSlow.png","null","","na","prac","","","","","","","","","","","","","","","","","","","",""
"null","610642","SARL_v6","SARL_v6o5s523ln","62adcf439ff48317ff72e773","fixation","","","img/fixation.png","null","","","prac","","","","","","","","","","","","","","","","","","","",""
"null","611447","SARL_v6","SARL_v6o5s523ln","62adcf439ff48317ff72e773","infreqPrac","","","img/blue_2bandit_b2.png","null","img/blue_2bandit_b2.png","68","prac","0","4","","","","","","","","","","","","","","","","","",""
"null","612454","SARL_v6","SARL_v6o5s523ln","62adcf439ff48317ff72e773","feedback","","","img/tooSlow.png","null","","na","prac","","","","","","","","","","","","","","","","","","","",""
"null","612608","SARL_v6","SARL_v6o5s523ln","62adcf439ff48317ff72e773","fixation","","","img/fixation.png","null","","","prac","","","","","","","","","","","","","","","","","","","",""
"670.8000000715256","613285","SARL_v6","SARL_v6o5s523ln","62adcf439ff48317ff72e773","infreqPrac","","","img/blue_2bandit_b2.png","68","img/blue_2bandit_b2.png","68","prac","1","4","","","","","","","","","","","","","","","","","",""
"670.8000000715256","613421","SARL_v6","SARL_v6o5s523ln","62adcf439ff48317ff72e773","infreqPrac_resp","","","img/blue_2bandit_b.png","68","img/blue_2bandit_b.png","68","prac","","","","","","","","","","","","","","","","","","","",""
"null","613577","SARL_v6","SARL_v6o5s523ln","62adcf439ff48317ff72e773","fixation","","","img/fixation.png","null","","","prac","","","","","","","","","","","","","","","","","","","",""
"null","614389","SARL_v6","SARL_v6o5s523ln","62adcf439ff48317ff72e773","infreqPrac","","","img/blue_2bandit_b2.png","null","img/blue_2bandit_b2.png","68","prac","0","5","","","","","","","","","","","","","","","","","",""
"null","615404","SARL_v6","SARL_v6o5s523ln","62adcf439ff48317ff72e773","feedback","","","img/tooSlow.png","null","","na","prac","","","","","","","","","","","","","","","","","","","",""
"null","615558","SARL_v6","SARL_v6o5s523ln","62adcf439ff48317ff72e773","fixation","","","img/fixation.png","null","","","prac","","","","","","","","","","","","","","","","","","","",""
"312.89999997615814","615876","SARL_v6","SARL_v6o5s523ln","62adcf439ff48317ff72e773","freqPrac","","","img/orange_2bandit_b2.png","68","img/orange_2bandit_b2.png","70","prac","0","6","","","","","","","","","","","","","","","","","",""
"312.89999997615814","616373","SARL_v6","SARL_v6o5s523ln","62adcf439ff48317ff72e773","freqPrac_resp","","","img/orange_2bandit_b.png","68","img/orange_2bandit_b.png","70","prac","","","","","","","","","","","","","","","","","","","",""
"null","617390","SARL_v6","SARL_v6o5s523ln","62adcf439ff48317ff72e773","feedback","","","img/wrongKey.png","null","","na","prac","","","","","","","","","","","","","","","","","","","",""
"null","617546","SARL_v6","SARL_v6o5s523ln","62adcf439ff48317ff72e773","fixation","","","img/fixation.png","null","","","prac","","","","","","","","","","","","","","","","","","","",""
"574","618124","SARL_v6","SARL_v6o5s523ln","62adcf439ff48317ff72e773","infreqPrac","","","img/blue_2bandit_b2.png","70","img/blue_2bandit_b2.png","68","prac","0","7","","","","","","","","","","","","","","","","","",""
"574","618366","SARL_v6","SARL_v6o5s523ln","62adcf439ff48317ff72e773","infreqPrac_resp","","","img/blue_2bandit_b.png","70","img/blue_2bandit_b.png","68","prac","","","","","","","","","","","","","","","","","","","",""
"null","619372","SARL_v6","SARL_v6o5s523ln","62adcf439ff48317ff72e773","feedback","","","img/wrongKey.png","null","","na","prac","","","","","","","","","","","","","","","","","","","",""
"null","619527","SARL_v6","SARL_v6o5s523ln","62adcf439ff48317ff72e773","fixation","","","img/fixation.png","null","","","prac","","","","","","","","","","","","","","","","","","","",""
"null","620345","SARL_v6","SARL_v6o5s523ln","62adcf439ff48317ff72e773","freqPrac","","","img/orange_2bandit_b2.png","null","img/orange_2bandit_b2.png","70","prac","0","8","","","","","","","","","","","","","","","","","",""
"null","621350","SARL_v6","SARL_v6o5s523ln","62adcf439ff48317ff72e773","feedback","","","img/tooSlow.png","null","","na","prac","","","","","","","","","","","","","","","","","","","",""
"null","621521","SARL_v6","SARL_v6o5s523ln","62adcf439ff48317ff72e773","fixation","","","img/fixation.png","null","","","prac","","","","","","","","","","","","","","","","","","","",""
"398.39999997615814","621925","SARL_v6","SARL_v6o5s523ln","62adcf439ff48317ff72e773","freqPrac","","","img/orange_2bandit_b2.png","70","img/orange_2bandit_b2.png","70","prac","1","8","","","","","","","","","","","","","","","","","",""
"398.39999997615814","622338","SARL_v6","SARL_v6o5s523ln","62adcf439ff48317ff72e773","freqPrac_resp","","","img/orange_2bandit_b.png","70","img/orange_2bandit_b.png","70","prac","","","","","","","","","","","","","","","","","","","",""
"null","622494","SARL_v6","SARL_v6o5s523ln","62adcf439ff48317ff72e773","fixation","","","img/fixation.png","null","","","prac","","","","","","","","","","","","","","","","","","","",""
"298675.10000002384","921173","SARL_v6","SARL_v6o5s523ln","62adcf439ff48317ff72e773","","","","","","","","prac","","","","","","","","","","","","","","","","","","","",""
"832.3000000715256","922012","SARL_v6","SARL_v6o5s523ln","62adcf439ff48317ff72e773","rlPractice","","","img/black_2bandit_b2.png","74","img/black_2bandit_b2.png","","prac","","","0","","","","","","","","","","","","","","","","",""
"null","922777","SARL_v6","SARL_v6o5s523ln","62adcf439ff48317ff72e773","feedback","","","<div class=""veryhighPoints""> 10 </div>","null","","na","prac","","","1","10","-14","10","","","","","","","","","","","","","",""
"null","922948","SARL_v6","SARL_v6o5s523ln","62adcf439ff48317ff72e773","fixation","","","img/fixation.png","null","","","prac","","","","","","","","","","","","","","","","","","","",""
"467.60000002384186","923422","SARL_v6","SARL_v6o5s523ln","62adcf439ff48317ff72e773","rlPractice","","","img/black_2bandit_b2.png","74","img/black_2bandit_b2.png","","prac","","","1","","","","","","","","","","","","","","","","",""
"null","924192","SARL_v6","SARL_v6o5s523ln","62adcf439ff48317ff72e773","feedback","","","<div class=""veryhighPoints""> 5 </div>","null","","na","prac","","","2","5","-5","5","","","","","","","","","","","","","",""
"null","924366","SARL_v6","SARL_v6o5s523ln","62adcf439ff48317ff72e773","fixation","","","img/fixation.png","null","","","prac","","","","","","","","","","","","","","","","","","","",""
"76.80000007152557","924449","SARL_v6","SARL_v6o5s523ln","62adcf439ff48317ff72e773","rlPractice","","","img/black_2bandit_b2.png","74","img/black_2bandit_b2.png","","prac","","","2","","","","","","","","","","","","","","","","",""
"null","925219","SARL_v6","SARL_v6o5s523ln","62adcf439ff48317ff72e773","feedback","","","<div class=""veryhighPoints""> 30 </div>","null","","na","prac","","","3","30","2","30","","","","","","","","","","","","","",""
"null","925389","SARL_v6","SARL_v6o5s523ln","62adcf439ff48317ff72e773","fixation","","","img/fixation.png","null","","","prac","","","","","","","","","","","","","","","","","","","",""
"74.79999995231628","925471","SARL_v6","SARL_v6o5s523ln","62adcf439ff48317ff72e773","rlPractice","","","img/black_2bandit_b2.png","74","img/black_2bandit_b2.png","","prac","","","3","","","","","","","","","","","","","","","","",""
"null","926227","SARL_v6","SARL_v6o5s523ln","62adcf439ff48317ff72e773","feedback","","","<div class=""verylowPoints""> -2 </div>","null","","na","prac","","","4","-2","20","-2","","","","","","","","","","","","","",""
"null","926384","SARL_v6","SARL_v6o5s523ln","62adcf439ff48317ff72e773","fixation","","","img/fixation.png","null","","","prac","","","","","","","","","","","","","","","","","","","",""
"79799","1006185","SARL_v6","SARL_v6o5s523ln","62adcf439ff48317ff72e773","","","","","","","","prac","","","","","","","","","","","","","","","","","","","",""
"null","1006990","SARL_v6","SARL_v6o5s523ln","62adcf439ff48317ff72e773","mixAttFreqPrac","","","img/orange_2bandit_b2.png","null","img/orange_2bandit_b2.png","70","prac","","","1","","","","","","","","","","","","","","","","",""
"null","1007146","SARL_v6","SARL_v6o5s523ln","62adcf439ff48317ff72e773","fixation","","","img/fixation.png","null","","","prac","","","","","","","","","","","","","","","","","","","",""
"45","1007196","SARL_v6","SARL_v6o5s523ln","62adcf439ff48317ff72e773","mixAttInfreqPrac","","","img/blue_2bandit_b2.png","68","img/blue_2bandit_b2.png","68","prac","","","2","","","","","","","","","","","","","","","","",""
"45","1007968","SARL_v6","SARL_v6o5s523ln","62adcf439ff48317ff72e773","infreqPrac_resp","","","img/blue_2bandit_b.png","68","img/orange_2bandit_b.png","68","prac","","","2","","","","","","","","","","","","","","","","",""
"null","1008123","SARL_v6","SARL_v6o5s523ln","62adcf439ff48317ff72e773","fixation","","","img/fixation.png","null","","","prac","","","","","","","","","","","","","","","","","","","",""
"764.3999999761581","1008892","SARL_v6","SARL_v6o5s523ln","62adcf439ff48317ff72e773","mixAttInfreqPrac","","","img/blue_2bandit_b2.png","68","img/blue_2bandit_b2.png","68","prac","","","3","","","","","","","","","","","","","","","","",""
"764.3999999761581","1008943","SARL_v6","SARL_v6o5s523ln","62adcf439ff48317ff72e773","infreqPrac_resp","","","img/blue_2bandit_b.png","68","img/orange_2bandit_b.png","68","prac","","","3","","","","","","","","","","","","","","","","",""
"null","1009098","SARL_v6","SARL_v6o5s523ln","62adcf439ff48317ff72e773","fixation","","","img/fixation.png","null","","","prac","","","","","","","","","","","","","","","","","","","",""
"525","1009628","SARL_v6","SARL_v6o5s523ln","62adcf439ff48317ff72e773","mixAttInfreqPrac","","","img/blue_2bandit_b2.png","70","img/blue_2bandit_b2.png","68","prac","","","4","","","","","","","","","","","","","","","","",""
"525","1009915","SARL_v6","SARL_v6o5s523ln","62adcf439ff48317ff72e773","infreqPrac_resp","","","img/blue_2bandit_b.png","70","img/orange_2bandit_b.png","68","prac","","","4","","","","","","","","","","","","","","","","",""
"null","1010085","SARL_v6","SARL_v6o5s523ln","62adcf439ff48317ff72e773","fixation","","","img/fixation.png","null","","","prac","","","","","","","","","","","","","","","","","","","",""
"497.89999997615814","1010589","SARL_v6","SARL_v6o5s523ln","62adcf439ff48317ff72e773","mixAttFreqPrac","","","img/orange_2bandit_b2.png","68","img/orange_2bandit_b2.png","70","prac","","","5","","","","","","","","","","","","","","","","",""
"497.89999997615814","1010911","SARL_v6","SARL_v6o5s523ln","62adcf439ff48317ff72e773","freqPrac_resp","","","img/orange_2bandit_b.png","68","img/orange_2bandit_b.png","70","prac","","","5","","","","","","","","","","","","","","","","",""
"null","1011068","SARL_v6","SARL_v6o5s523ln","62adcf439ff48317ff72e773","fixation","","","img/fixation.png","null","","","prac","","","","","","","","","","","","","","","","","","","",""
"1299.1000000238419","1012372","SARL_v6","SARL_v6o5s523ln","62adcf439ff48317ff72e773","mixRLPractice","","","img/black_2bandit_b2.png","74","img/black_2bandit_b2.png","","prac","","","5","","","","","","","","","","","","","","","","",""
"null","1013133","SARL_v6","SARL_v6o5s523ln","62adcf439ff48317ff72e773","feedback","","","<div class=""verylowPoints""> -14 </div>","null","","na","prac","","","6","-14","10","-14","","","","","","","","","","","","","",""
"null","1013291","SARL_v6","SARL_v6o5s523ln","62adcf439ff48317ff72e773","fixation","","","img/fixation.png","null","","","prac","","","","","","","","","","","","","","","","","","","",""
"276","1013573","SARL_v6","SARL_v6o5s523ln","62adcf439ff48317ff72e773","mixAttFreqPrac","","","img/orange_2bandit_b2.png","68","img/orange_2bandit_b2.png","70","prac","","","7","","","","","","","","","","","","","","","","",""
"276","1014106","SARL_v6","SARL_v6o5s523ln","62adcf439ff48317ff72e773","freqPrac_resp","","","img/orange_2bandit_b.png","68","img/orange_2bandit_b.png","70","prac","","","7","","","","","","","","","","","","","","","","",""
"21.300000071525574","1014276","SARL_v6","SARL_v6o5s523ln","62adcf439ff48317ff72e773","fixation","","","img/fixation.png","70","","","prac","","","","","","","","","","","","","","","","","","","",""
"707.1999999284744","1014989","SARL_v6","SARL_v6o5s523ln","62adcf439ff48317ff72e773","mixAttInfreqPrac","","","img/blue_2bandit_b2.png","68","img/blue_2bandit_b2.png","68","prac","","","8","","","","","","","","","","","","","","","","",""
"707.1999999284744","1015099","SARL_v6","SARL_v6o5s523ln","62adcf439ff48317ff72e773","infreqPrac_resp","","","img/blue_2bandit_b.png","68","img/orange_2bandit_b.png","68","prac","","","8","","","","","","","","","","","","","","","","",""
"null","1015268","SARL_v6","SARL_v6o5s523ln","62adcf439ff48317ff72e773","fixation","","","img/fixation.png","null","","","prac","","","","","","","","","","","","","","","","","","","",""
"587.5","1015860","SARL_v6","SARL_v6o5s523ln","62adcf439ff48317ff72e773","mixAttFreqPrac","","","img/orange_2bandit_b2.png","70","img/orange_2bandit_b2.png","70","prac","","","9","","","","","","","","","","","","","","","","",""
"587.5","1016088","SARL_v6","SARL_v6o5s523ln","62adcf439ff48317ff72e773","freqPrac_resp","","","img/orange_2bandit_b.png","70","img/orange_2bandit_b.png","70","prac","","","9","","","","","","","","","","","","","","","","",""
"null","1016257","SARL_v6","SARL_v6o5s523ln","62adcf439ff48317ff72e773","fixation","","","img/fixation.png","null","","","prac","","","","","","","","","","","","","","","","","","","",""
"463.39999997615814","1016726","SARL_v6","SARL_v6o5s523ln","62adcf439ff48317ff72e773","mixAttFreqPrac","","","img/orange_2bandit_b2.png","68","img/orange_2bandit_b2.png","70","prac","","","10","","","","","","","","","","","","","","","","",""
"463.39999997615814","1017079","SARL_v6","SARL_v6o5s523ln","62adcf439ff48317ff72e773","freqPrac_resp","","","img/orange_2bandit_b.png","68","img/orange_2bandit_b.png","70","prac","","","10","","","","","","","","","","","","","","","","",""
"null","1017234","SARL_v6","SARL_v6o5s523ln","62adcf439ff48317ff72e773","fixation","","","img/fixation.png","null","","","prac","","","","","","","","","","","","","","","","","","","",""
"653.8999999761581","1017895","SARL_v6","SARL_v6o5s523ln","62adcf439ff48317ff72e773","mixAttInfreqPrac","","","img/blue_2bandit_b2.png","70","img/blue_2bandit_b2.png","68","prac","","","11","","","","","","","","","","","","","","","","",""
"653.8999999761581","1018058","SARL_v6","SARL_v6o5s523ln","62adcf439ff48317ff72e773","infreqPrac_resp","","","img/blue_2bandit_b.png","70","img/orange_2bandit_b.png","68","prac","","","11","","","","","","","","","","","","","","","","",""
"null","1018227","SARL_v6","SARL_v6o5s523ln","62adcf439ff48317ff72e773","fixation","","","img/fixation.png","null","","","prac","","","","","","","","","","","","","","","","","","","",""
"772.8000000715256","1019005","SARL_v6","SARL_v6o5s523ln","62adcf439ff48317ff72e773","mixRLPractice","","","img/black_2bandit_b2.png","75","img/black_2bandit_b2.png","","prac","","","11","","","","","","","","","","","","","","","","",""
"null","1019775","SARL_v6","SARL_v6o5s523ln","62adcf439ff48317ff72e773","feedback","","","<div class=""verylowPoints_sq""> -5 </div>","null","","na","prac","","","12","5","-5","5","","","","","","","","","","","","","",""
"null","1019932","SARL_v6","SARL_v6o5s523ln","62adcf439ff48317ff72e773","fixation","","","img/fixation.png","null","","","prac","","","","","","","","","","","","","","","","","","","",""
"27194.399999976158","1047129","SARL_v6","SARL_v6o5s523ln","62adcf439ff48317ff72e773","","","","","","","","prac","","","","","","","","","","","","","","","","","","","",""
"805.5","1047937","SARL_v6","SARL_v6o5s523ln","62adcf439ff48317ff72e773","freq","","","img/orange_2bandit_b2.png","70","","70","test","1","","1","","","","circle","square","1","1","1","1","","","","","","","",""
"null","1048101","SARL_v6","SARL_v6o5s523ln","62adcf439ff48317ff72e773","fixation","","","img/fixation.png","null","","","test","","","","","","","","","","","","","","","","","","","",""
"506.39999997615814","1048613","SARL_v6","SARL_v6o5s523ln","62adcf439ff48317ff72e773","freq","","","img/orange_2bandit_b2.png","70","","70","test","1","","2","","","","circle","square","2","2","1","1","","","","","","","",""
"null","1048926","SARL_v6","SARL_v6o5s523ln","62adcf439ff48317ff72e773","freq_resp","","","img/orange_2bandit_b.png","70","img/orange_2bandit_b.png","70","test","","","","","","","","","","","1","","","","","","","","",""
"null","1049082","SARL_v6","SARL_v6o5s523ln","62adcf439ff48317ff72e773","fixation","","","img/fixation.png","null","","","test","","","","","","","","","","","","","","","","","","","",""
"548.8999999761581","1049636","SARL_v6","SARL_v6o5s523ln","62adcf439ff48317ff72e773","infreq","","","img/blue_2bandit_b2.png","68","","68","test","1","","3","","","","circle","square","3","3","1","1","","","","","","","",""
"null","1049910","SARL_v6","SARL_v6o5s523ln","62adcf439ff48317ff72e773","infreq_resp","","","img/blue_2bandit_b.png","68","img/blue_2bandit_b.png","68","test","","","","","","","","","","","1","","","","","","","","",""
"null","1050078","SARL_v6","SARL_v6o5s523ln","62adcf439ff48317ff72e773","fixation","","","img/fixation.png","null","","","test","","","","","","","","","","","","","","","","","","","",""
"465.5","1050549","SARL_v6","SARL_v6o5s523ln","62adcf439ff48317ff72e773","freq","","","img/orange_2bandit_b2.png","70","","70","test","1","","4","","","","circle","square","4","4","1","1","","","","","","","",""
"null","1050902","SARL_v6","SARL_v6o5s523ln","62adcf439ff48317ff72e773","freq_resp","","","img/orange_2bandit_b.png","70","img/orange_2bandit_b.png","70","test","","","","","","","","","","","1","","","","","","","","",""
"null","1051059","SARL_v6","SARL_v6o5s523ln","62adcf439ff48317ff72e773","fixation","","","img/fixation.png","null","","","test","","","","","","","","","","","","","","","","","","","",""
"459.8000000715256","1051525","SARL_v6","SARL_v6o5s523ln","62adcf439ff48317ff72e773","freq","","","img/orange_2bandit_b2.png","70","","70","test","1","","5","","","","circle","square","5","5","1","1","","","","","","","",""
"null","1051883","SARL_v6","SARL_v6o5s523ln","62adcf439ff48317ff72e773","freq_resp","","","img/orange_2bandit_b.png","70","img/orange_2bandit_b.png","70","test","","","","","","","","","","","1","","","","","","","","",""
"null","1052038","SARL_v6","SARL_v6o5s523ln","62adcf439ff48317ff72e773","fixation","","","img/fixation.png","null","","","test","","","","","","","","","","","","","","","","","","","",""
"425.2999999523163","1052468","SARL_v6","SARL_v6o5s523ln","62adcf439ff48317ff72e773","freq","","","img/orange_2bandit_b2.png","70","","70","test","1","","6","","","","circle","square","6","6","1","1","","","","","","","",""
"null","1052856","SARL_v6","SARL_v6o5s523ln","62adcf439ff48317ff72e773","freq_resp","","","img/orange_2bandit_b.png","70","img/orange_2bandit_b.png","70","test","","","","","","","","","","","1","","","","","","","","",""
"null","1053028","SARL_v6","SARL_v6o5s523ln","62adcf439ff48317ff72e773","fixation","","","img/fixation.png","null","","","test","","","","","","","","","","","","","","","","","","","",""
"475.1999999284744","1053511","SARL_v6","SARL_v6o5s523ln","62adcf439ff48317ff72e773","freq","","","img/orange_2bandit_b2.png","70","","70","test","1","","7","","","","circle","square","7","7","1","1","","","","","","","",""
"null","1053840","SARL_v6","SARL_v6o5s523ln","62adcf439ff48317ff72e773","freq_resp","","","img/orange_2bandit_b.png","70","img/orange_2bandit_b.png","70","test","","","","","","","","","","","1","","","","","","","","",""
"null","1053995","SARL_v6","SARL_v6o5s523ln","62adcf439ff48317ff72e773","fixation","","","img/fixation.png","null","","","test","","","","","","","","","","","","","","","","","","","",""
"356.1999999284744","1054358","SARL_v6","SARL_v6o5s523ln","62adcf439ff48317ff72e773","freq","","","img/orange_2bandit_b2.png","70","","70","test","1","","8","","","","circle","square","8","8","1","1","","","","","","","",""
"null","1054807","SARL_v6","SARL_v6o5s523ln","62adcf439ff48317ff72e773","freq_resp","","","img/orange_2bandit_b.png","70","img/orange_2bandit_b.png","70","test","","","","","","","","","","","1","","","","","","","","",""
"null","1054963","SARL_v6","SARL_v6o5s523ln","62adcf439ff48317ff72e773","fixation","","","img/fixation.png","null","","","test","","","","","","","","","","","","","","","","","","","",""
"347.6999999284744","1055316","SARL_v6","SARL_v6o5s523ln","62adcf439ff48317ff72e773","freq","","","img/orange_2bandit_b2.png","70","","70","test","1","","9","","","","circle","square","9","9","1","1","","","","","","","",""
"null","1055782","SARL_v6","SARL_v6o5s523ln","62adcf439ff48317ff72e773","freq_resp","","","img/orange_2bandit_b.png","70","img/orange_2bandit_b.png","70","test","","","","","","","","","","","1","","","","","","","","",""
"null","1055951","SARL_v6","SARL_v6o5s523ln","62adcf439ff48317ff72e773","fixation","","","img/fixation.png","null","","","test","","","","","","","","","","","","","","","","","","","",""
"535.4000000953674","1056493","SARL_v6","SARL_v6o5s523ln","62adcf439ff48317ff72e773","infreq","","","img/blue_2bandit_b2.png","68","","68","test","1","","10","","","","circle","square","10","10","1","1","","","","","","","",""
"null","1056774","SARL_v6","SARL_v6o5s523ln","62adcf439ff48317ff72e773","infreq_resp","","","img/blue_2bandit_b.png","68","img/blue_2bandit_b.png","68","test","","","","","","","","","","","1","","","","","","","","",""
"null","1056933","SARL_v6","SARL_v6o5s523ln","62adcf439ff48317ff72e773","fixation","","","img/fixation.png","null","","","test","","","","","","","","","","","","","","","","","","","",""
"530.3999999761581","1057468","SARL_v6","SARL_v6o5s523ln","62adcf439ff48317ff72e773","freq","","","img/orange_2bandit_b2.png","70","","70","test","1","","11","","","","circle","square","11","11","1","1","","","","","","","",""
"null","1057748","SARL_v6","SARL_v6o5s523ln","62adcf439ff48317ff72e773","freq_resp","","","img/orange_2bandit_b.png","70","img/orange_2bandit_b.png","70","test","","","","","","","","","","","1","","","","","","","","",""
"null","1057903","SARL_v6","SARL_v6o5s523ln","62adcf439ff48317ff72e773","fixation","","","img/fixation.png","null","","","test","","","","","","","","","","","","","","","","","","","",""
"414.7999999523163","1058322","SARL_v6","SARL_v6o5s523ln","62adcf439ff48317ff72e773","freq","","","img/orange_2bandit_b2.png","70","","70","test","1","","12","","","","circle","square","12","12","1","1","","","","","","","",""
"null","1058713","SARL_v6","SARL_v6o5s523ln","62adcf439ff48317ff72e773","freq_resp","","","img/orange_2bandit_b.png","70","img/orange_2bandit_b.png","70","test","","","","","","","","","","","1","","","","","","","","",""
"null","1058870","SARL_v6","SARL_v6o5s523ln","62adcf439ff48317ff72e773","fixation","","","img/fixation.png","null","","","test","","","","","","","","","","","","","","","","","","","",""
"392.89999997615814","1059268","SARL_v6","SARL_v6o5s523ln","62adcf439ff48317ff72e773","freq","","","img/orange_2bandit_b2.png","70","","70","test","1","","13","","","","circle","square","13","13","1","1","","","","","","","",""
"null","1059694","SARL_v6","SARL_v6o5s523ln","62adcf439ff48317ff72e773","freq_resp","","","img/orange_2bandit_b.png","70","img/orange_2bandit_b.png","70","test","","","","","","","","","","","1","","","","","","","","",""
"null","1059863","SARL_v6","SARL_v6o5s523ln","62adcf439ff48317ff72e773","fixation","","","img/fixation.png","null","","","test","","","","","","","","","","","","","","","","","","","",""
"503.7000000476837","1060372","SARL_v6","SARL_v6o5s523ln","62adcf439ff48317ff72e773","infreq","","","img/blue_2bandit_b2.png","68","","68","test","1","","14","","","","circle","square","14","14","1","1","","","","","","","",""
"null","1060682","SARL_v6","SARL_v6o5s523ln","62adcf439ff48317ff72e773","infreq_resp","","","img/blue_2bandit_b.png","68","img/blue_2bandit_b.png","68","test","","","","","","","","","","","1","","","","","","","","",""
"null","1060851","SARL_v6","SARL_v6o5s523ln","62adcf439ff48317ff72e773","fixation","","","img/fixation.png","null","","","test","","","","","","","","","","","","","","","","","","","",""
"460.2000000476837","1061316","SARL_v6","SARL_v6o5s523ln","62adcf439ff48317ff72e773","freq","","","img/orange_2bandit_b2.png","70","","70","test","1","","15","","","","circle","square","15","15","1","1","","","","","","","",""
"null","1061670","SARL_v6","SARL_v6o5s523ln","62adcf439ff48317ff72e773","freq_resp","","","img/orange_2bandit_b.png","70","img/orange_2bandit_b.png","70","test","","","","","","","","","","","1","","","","","","","","",""
"null","1061840","SARL_v6","SARL_v6o5s523ln","62adcf439ff48317ff72e773","fixation","","","img/fixation.png","null","","","test","","","","","","","","","","","","","","","","","","","",""
"390.5","1062236","SARL_v6","SARL_v6o5s523ln","62adcf439ff48317ff72e773","freq","","","img/orange_2bandit_b2.png","70","","70","test","1","","16","","","","circle","square","16","16","1","1","","","","","","","",""
"null","1062665","SARL_v6","SARL_v6o5s523ln","62adcf439ff48317ff72e773","freq_resp","","","img/orange_2bandit_b.png","70","img/orange_2bandit_b.png","70","test","","","","","","","","","","","1","","","","","","","","",""
"null","1062823","SARL_v6","SARL_v6o5s523ln","62adcf439ff48317ff72e773","fixation","","","img/fixation.png","null","","","test","","","","","","","","","","","","","","","","","","","",""
"366.89999997615814","1063193","SARL_v6","SARL_v6o5s523ln","62adcf439ff48317ff72e773","freq","","","img/orange_2bandit_b2.png","70","","70","test","1","","17","","","","circle","square","17","17","1","1","","","","","","","",""
"null","1063633","SARL_v6","SARL_v6o5s523ln","62adcf439ff48317ff72e773","freq_resp","","","img/orange_2bandit_b.png","70","img/orange_2bandit_b.png","70","test","","","","","","","","","","","1","","","","","","","","",""
"null","1063790","SARL_v6","SARL_v6o5s523ln","62adcf439ff48317ff72e773","fixation","","","img/fixation.png","null","","","test","","","","","","","","","","","","","","","","","","","",""
"321.8000000715256","1064117","SARL_v6","SARL_v6o5s523ln","62adcf439ff48317ff72e773","freq","","","img/orange_2bandit_b2.png","70","","70","test","1","","18","","","","circle","square","18","18","1","1","","","","","","","",""
"null","1064611","SARL_v6","SARL_v6o5s523ln","62adcf439ff48317ff72e773","freq_resp","","","img/orange_2bandit_b.png","70","img/orange_2bandit_b.png","70","test","","","","","","","","","","","1","","","","","","","","",""
"null","1064767","SARL_v6","SARL_v6o5s523ln","62adcf439ff48317ff72e773","fixation","","","img/fixation.png","null","","","test","","","","","","","","","","","","","","","","","","","",""
"320.5","1065093","SARL_v6","SARL_v6o5s523ln","62adcf439ff48317ff72e773","freq","","","img/orange_2bandit_b2.png","70","","70","test","1","","19","","","","circle","square","19","19","1","1","","","","","","","",""
"null","1065585","SARL_v6","SARL_v6o5s523ln","62adcf439ff48317ff72e773","freq_resp","","","img/orange_2bandit_b.png","70","img/orange_2bandit_b.png","70","test","","","","","","","","","","","1","","","","","","","","",""
"null","1065756","SARL_v6","SARL_v6o5s523ln","62adcf439ff48317ff72e773","fixation","","","img/fixation.png","null","","","test","","","","","","","","","","","","","","","","","","","",""
"298.60000002384186","1066060","SARL_v6","SARL_v6o5s523ln","62adcf439ff48317ff72e773","freq","","","img/orange_2bandit_b2.png","70","","70","test","1","","20","","","","circle","square","20","20","1","1","","","","","","","",""
"null","1066578","SARL_v6","SARL_v6o5s523ln","62adcf439ff48317ff72e773","freq_resp","","","img/orange_2bandit_b.png","70","img/orange_2bandit_b.png","70","test","","","","","","","","","","","1","","","","","","","","",""
"null","1066733","SARL_v6","SARL_v6o5s523ln","62adcf439ff48317ff72e773","fixation","","","img/fixation.png","null","","","test","","","","","","","","","","","","","","","","","","","",""
"394.60000002384186","1067132","SARL_v6","SARL_v6o5s523ln","62adcf439ff48317ff72e773","freq","","","img/orange_2bandit_b2.png","70","","70","test","1","","21","","","","circle","square","21","21","1","1","","","","","","","",""
"null","1067553","SARL_v6","SARL_v6o5s523ln","62adcf439ff48317ff72e773","freq_resp","","","img/orange_2bandit_b.png","70","img/orange_2bandit_b.png","70","test","","","","","","","","","","","1","","","","","","","","",""
"null","1067709","SARL_v6","SARL_v6o5s523ln","62adcf439ff48317ff72e773","fixation","","","img/fixation.png","null","","","test","","","","","","","","","","","","","","","","","","","",""
"339.10000002384186","1068053","SARL_v6","SARL_v6o5s523ln","62adcf439ff48317ff72e773","freq","","","img/orange_2bandit_b2.png","70","","70","test","1","","22","","","","circle","square","22","22","1","1","","","","","","","",""
"null","1068529","SARL_v6","SARL_v6o5s523ln","62adcf439ff48317ff72e773","freq_resp","","","img/orange_2bandit_b.png","70","img/orange_2bandit_b.png","70","test","","","","","","","","","","","1","","","","","","","","",""
"null","1068686","SARL_v6","SARL_v6o5s523ln","62adcf439ff48317ff72e773","fixation","","","img/fixation.png","null","","","test","","","","","","","","","","","","","","","","","","","",""
"345.1999999284744","1069036","SARL_v6","SARL_v6o5s523ln","62adcf439ff48317ff72e773","freq","","","img/orange_2bandit_b2.png","70","","70","test","1","","23","","","","circle","square","23","23","1","1","","","","","","","",""
"null","1069505","SARL_v6","SARL_v6o5s523ln","62adcf439ff48317ff72e773","freq_resp","","","img/orange_2bandit_b.png","70","img/orange_2bandit_b.png","70","test","","","","","","","","","","","1","","","","","","","","",""
"null","1069661","SARL_v6","SARL_v6o5s523ln","62adcf439ff48317ff72e773","fixation","","","img/fixation.png","null","","","test","","","","","","","","","","","","","","","","","","","",""
"1193.8999999761581","1070860","SARL_v6","SARL_v6o5s523ln","62adcf439ff48317ff72e773","rl","","","img/black_2bandit_b2.png","74","","0","test","","","24","","","-3","circle","square","","0","1","","74","-3","-3","-3","-3","circle","1","0"
"null","1071629","SARL_v6","SARL_v6o5s523ln","62adcf439ff48317ff72e773","feedback","","","<div class=""verylowPoints""> -3 </div>","null","","na","test","","","NaN","","","","","","","","1","","74","","","","","","1",""
"177.59999990463257","1071812","SARL_v6","SARL_v6o5s523ln","62adcf439ff48317ff72e773","freq","","","img/orange_2bandit_b2.png","70","","70","test","1","","25","","","","circle","square","24","1","2","1","","","","","","","",""
"null","1072451","SARL_v6","SARL_v6o5s523ln","62adcf439ff48317ff72e773","freq_resp","","","img/orange_2bandit_b.png","70","img/orange_2bandit_b.png","70","test","","","","","","","","","","","2","","","","","","","","",""
"null","1072608","SARL_v6","SARL_v6o5s523ln","62adcf439ff48317ff72e773","fixation","","","img/fixation.png","null","","","test","","","","","","","","","","","","","","","","","","","",""
"311.2000000476837","1072924","SARL_v6","SARL_v6o5s523ln","62adcf439ff48317ff72e773","freq","","","img/orange_2bandit_b2.png","70","","70","test","1","","26","","","","circle","square","25","2","2","1","","","","","","","",""
"null","1073431","SARL_v6","SARL_v6o5s523ln","62adcf439ff48317ff72e773","freq_resp","","","img/orange_2bandit_b.png","70","img/orange_2bandit_b.png","70","test","","","","","","","","","","","2","","","","","","","","",""
"null","1073586","SARL_v6","SARL_v6o5s523ln","62adcf439ff48317ff72e773","fixation","","","img/fixation.png","null","","","test","","","","","","","","","","","","","","","","","","","",""
"277.2999999523163","1073868","SARL_v6","SARL_v6o5s523ln","62adcf439ff48317ff72e773","infreq","","","img/blue_2bandit_b2.png","70","","68","test","0","","27","","","","circle","square","26","3","2","0.9615384615384616","","","","","","","",""
"null","1074409","SARL_v6","SARL_v6o5s523ln","62adcf439ff48317ff72e773","infreq_resp","","","img/blue_2bandit_b.png","70","img/blue_2bandit_b.png","68","test","","","","","","","","","","","2","","","","","","","","",""
"null","1074565","SARL_v6","SARL_v6o5s523ln","62adcf439ff48317ff72e773","fixation","","","img/fixation.png","null","","","test","","","","","","","","","","","","","","","","","","","",""
"418.09999990463257","1074988","SARL_v6","SARL_v6o5s523ln","62adcf439ff48317ff72e773","freq","","","img/orange_2bandit_b2.png","70","","70","test","1","","28","","","","circle","square","27","4","2","0.9629629629629629","","","","","","","",""
"null","1075386","SARL_v6","SARL_v6o5s523ln","62adcf439ff48317ff72e773","freq_resp","","","img/orange_2bandit_b.png","70","img/orange_2bandit_b.png","70","test","","","","","","","","","","","2","","","","","","","","",""
"null","1075541","SARL_v6","SARL_v6o5s523ln","62adcf439ff48317ff72e773","fixation","","","img/fixation.png","null","","","test","","","","","","","","","","","","","","","","","","","",""
"458","1076004","SARL_v6","SARL_v6o5s523ln","62adcf439ff48317ff72e773","freq","","","img/orange_2bandit_b2.png","70","","70","test","1","","29","","","","circle","square","28","5","2","0.9642857142857143","","","","","","","",""
"null","1076358","SARL_v6","SARL_v6o5s523ln","62adcf439ff48317ff72e773","freq_resp","","","img/orange_2bandit_b.png","70","img/orange_2bandit_b.png","70","test","","","","","","","","","","","2","","","","","","","","",""
"null","1076526","SARL_v6","SARL_v6o5s523ln","62adcf439ff48317ff72e773","fixation","","","img/fixation.png","null","","","test","","","","","","","","","","","","","","","","","","","",""
"408.5","1076940","SARL_v6","SARL_v6o5s523ln","62adcf439ff48317ff72e773","freq","","","img/orange_2bandit_b2.png","70","","70","test","1","","30","","","","circle","square","29","6","2","0.9655172413793104","","","","","","","",""
"null","1077339","SARL_v6","SARL_v6o5s523ln","62adcf439ff48317ff72e773","freq_resp","","","img/orange_2bandit_b.png","70","img/orange_2bandit_b.png","70","test","","","","","","","","","","","2","","","","","","","","",""
"null","1077494","SARL_v6","SARL_v6o5s523ln","62adcf439ff48317ff72e773","fixation","","","img/fixation.png","null","","","test","","","","","","","","","","","","","","","","","","","",""
"312.8000000715256","1077812","SARL_v6","SARL_v6o5s523ln","62adcf439ff48317ff72e773","freq","","","img/orange_2bandit_b2.png","70","","70","test","1","","31","","","","circle","square","30","7","2","0.9666666666666667","","","","","","","",""
"null","1078319","SARL_v6","SARL_v6o5s523ln","62adcf439ff48317ff72e773","freq_resp","","","img/orange_2bandit_b.png","70","img/orange_2bandit_b.png","70","test","","","","","","","","","","","2","","","","","","","","",""
"null","1078476","SARL_v6","SARL_v6o5s523ln","62adcf439ff48317ff72e773","fixation","","","img/fixation.png","null","","","test","","","","","","","","","","","","","","","","","","","",""
"323.5","1078804","SARL_v6","SARL_v6o5s523ln","62adcf439ff48317ff72e773","freq","","","img/orange_2bandit_b2.png","70","","70","test","1","","32","","","","circle","square","31","8","2","0.967741935483871","","","","","","","",""
"null","1079295","SARL_v6","SARL_v6o5s523ln","62adcf439ff48317ff72e773","freq_resp","","","img/orange_2bandit_b.png","70","img/orange_2bandit_b.png","70","test","","","","","","","","","","","2","","","","","","","","",""
"null","1079451","SARL_v6","SARL_v6o5s523ln","62adcf439ff48317ff72e773","fixation","","","img/fixation.png","null","","","test","","","","","","","","","","","","","","","","","","","",""
"276","1079732","SARL_v6","SARL_v6o5s523ln","62adcf439ff48317ff72e773","freq","","","img/orange_2bandit_b2.png","70","","70","test","1","","33","","","","circle","square","32","9","2","0.96875","","","","","","","",""
"null","1080276","SARL_v6","SARL_v6o5s523ln","62adcf439ff48317ff72e773","freq_resp","","","img/orange_2bandit_b.png","70","img/orange_2bandit_b.png","70","test","","","","","","","","","","","2","","","","","","","","",""
"null","1080432","SARL_v6","SARL_v6o5s523ln","62adcf439ff48317ff72e773","fixation","","","img/fixation.png","null","","","test","","","","","","","","","","","","","","","","","","","",""
"414.8000000715256","1080851","SARL_v6","SARL_v6o5s523ln","62adcf439ff48317ff72e773","freq","","","img/orange_2bandit_b2.png","70","","70","test","1","","34","","","","circle","square","33","10","2","0.9696969696969697","","","","","","","",""
"null","1081250","SARL_v6","SARL_v6o5s523ln","62adcf439ff48317ff72e773","freq_resp","","","img/orange_2bandit_b.png","70","img/orange_2bandit_b.png","70","test","","","","","","","","","","","2","","","","","","","","",""
"null","1081421","SARL_v6","SARL_v6o5s523ln","62adcf439ff48317ff72e773","fixation","","","img/fixation.png","null","","","test","","","","","","","","","","","","","","","","","","","",""
"345.89999997615814","1081772","SARL_v6","SARL_v6o5s523ln","62adcf439ff48317ff72e773","freq","","","img/orange_2bandit_b2.png","70","","70","test","1","","35","","","","circle","square","34","11","2","0.9705882352941176","","","","","","","",""
"null","1082240","SARL_v6","SARL_v6o5s523ln","62adcf439ff48317ff72e773","freq_resp","","","img/orange_2bandit_b.png","70","img/orange_2bandit_b.png","70","test","","","","","","","","","","","2","","","","","","","","",""
"null","1082410","SARL_v6","SARL_v6o5s523ln","62adcf439ff48317ff72e773","fixation","","","img/fixation.png","null","","","test","","","","","","","","","","","","","","","","","","","",""
"308.7999999523163","1082723","SARL_v6","SARL_v6o5s523ln","62adcf439ff48317ff72e773","freq","","","img/orange_2bandit_b2.png","70","","70","test","1","","36","","","","circle","square","35","12","2","0.9714285714285714","","","","","","","",""
"null","1083226","SARL_v6","SARL_v6o5s523ln","62adcf439ff48317ff72e773","freq_resp","","","img/orange_2bandit_b.png","70","img/orange_2bandit_b.png","70","test","","","","","","","","","","","2","","","","","","","","",""
"null","1083383","SARL_v6","SARL_v6o5s523ln","62adcf439ff48317ff72e773","fixation","","","img/fixation.png","null","","","test","","","","","","","","","","","","","","","","","","","",""
"343.10000002384186","1083731","SARL_v6","SARL_v6o5s523ln","62adcf439ff48317ff72e773","freq","","","img/orange_2bandit_b2.png","70","","70","test","1","","37","","","","circle","square","36","13","2","0.9722222222222222","","","","","","","",""
"null","1084207","SARL_v6","SARL_v6o5s523ln","62adcf439ff48317ff72e773","freq_resp","","","img/orange_2bandit_b.png","70","img/orange_2bandit_b.png","70","test","","","","","","","","","","","2","","","","","","","","",""
"null","1084364","SARL_v6","SARL_v6o5s523ln","62adcf439ff48317ff72e773","fixation","","","img/fixation.png","null","","","test","","","","","","","","","","","","","","","","","","","",""
"353.5","1084721","SARL_v6","SARL_v6o5s523ln","62adcf439ff48317ff72e773","freq","","","img/orange_2bandit_b2.png","70","","70","test","1","","38","","","","circle","square","37","14","2","0.972972972972973","","","","","","","",""
"null","1085180","SARL_v6","SARL_v6o5s523ln","62adcf439ff48317ff72e773","freq_resp","","","img/orange_2bandit_b.png","70","img/orange_2bandit_b.png","70","test","","","","","","","","","","","2","","","","","","","","",""
"null","1085337","SARL_v6","SARL_v6o5s523ln","62adcf439ff48317ff72e773","fixation","","","img/fixation.png","null","","","test","","","","","","","","","","","","","","","","","","","",""
"301.5","1085644","SARL_v6","SARL_v6o5s523ln","62adcf439ff48317ff72e773","freq","","","img/orange_2bandit_b2.png","70","","70","test","1","","39","","","","circle","square","38","15","2","0.9736842105263158","","","","","","","",""
"null","1086154","SARL_v6","SARL_v6o5s523ln","62adcf439ff48317ff72e773","freq_resp","","","img/orange_2bandit_b.png","70","img/orange_2bandit_b.png","70","test","","","","","","","","","","","2","","","","","","","","",""
"null","1086324","SARL_v6","SARL_v6o5s523ln","62adcf439ff48317ff72e773","fixation","","","img/fixation.png","null","","","test","","","","","","","","","","","","","","","","","","","",""
"362","1086692","SARL_v6","SARL_v6o5s523ln","62adcf439ff48317ff72e773","freq","","","img/orange_2bandit_b2.png","70","","70","test","1","","40","","","","circle","square","39","16","2","0.9743589743589743","","","","","","","",""
"null","1087145","SARL_v6","SARL_v6o5s523ln","62adcf439ff48317ff72e773","freq_resp","","","img/orange_2bandit_b.png","70","img/orange_2bandit_b.png","70","test","","","","","","","","","","","2","","","","","","","","",""
"null","1087315","SARL_v6","SARL_v6o5s523ln","62adcf439ff48317ff72e773","fixation","","","img/fixation.png","null","","","test","","","","","","","","","","","","","","","","","","","",""
"355.39999997615814","1087676","SARL_v6","SARL_v6o5s523ln","62adcf439ff48317ff72e773","freq","","","img/orange_2bandit_b2.png","70","","70","test","1","","41","","","","circle","square","40","17","2","0.975","","","","","","","",""
"null","1088125","SARL_v6","SARL_v6o5s523ln","62adcf439ff48317ff72e773","freq_resp","","","img/orange_2bandit_b.png","70","img/orange_2bandit_b.png","70","test","","","","","","","","","","","2","","","","","","","","",""
"null","1088280","SARL_v6","SARL_v6o5s523ln","62adcf439ff48317ff72e773","fixation","","","img/fixation.png","null","","","test","","","","","","","","","","","","","","","","","","","",""
"462.6999999284744","1088748","SARL_v6","SARL_v6o5s523ln","62adcf439ff48317ff72e773","freq","","","img/orange_2bandit_b2.png","70","","70","test","1","","42","","","","circle","square","41","18","2","0.975609756097561","","","","","","","",""
"null","1089103","SARL_v6","SARL_v6o5s523ln","62adcf439ff48317ff72e773","freq_resp","","","img/orange_2bandit_b.png","70","img/orange_2bandit_b.png","70","test","","","","","","","","","","","2","","","","","","","","",""
"null","1089274","SARL_v6","SARL_v6o5s523ln","62adcf439ff48317ff72e773","fixation","","","img/fixation.png","null","","","test","","","","","","","","","","","","","","","","","","","",""
"548.2999999523163","1089828","SARL_v6","SARL_v6o5s523ln","62adcf439ff48317ff72e773","infreq","","","img/blue_2bandit_b2.png","68","","68","test","1","","43","","","","circle","square","42","19","2","0.9761904761904762","","","","","","","",""
"null","1090096","SARL_v6","SARL_v6o5s523ln","62adcf439ff48317ff72e773","infreq_resp","","","img/blue_2bandit_b.png","68","img/blue_2bandit_b.png","68","test","","","","","","","","","","","2","","","","","","","","",""
"null","1090252","SARL_v6","SARL_v6o5s523ln","62adcf439ff48317ff72e773","fixation","","","img/fixation.png","null","","","test","","","","","","","","","","","","","","","","","","","",""
"522.7999999523163","1090779","SARL_v6","SARL_v6o5s523ln","62adcf439ff48317ff72e773","freq","","","img/orange_2bandit_b2.png","70","","70","test","1","","44","","","","circle","square","43","20","2","0.9767441860465116","","","","","","","",""
"null","1091070","SARL_v6","SARL_v6o5s523ln","62adcf439ff48317ff72e773","freq_resp","","","img/orange_2bandit_b.png","70","img/orange_2bandit_b.png","70","test","","","","","","","","","","","2","","","","","","","","",""
"null","1091240","SARL_v6","SARL_v6o5s523ln","62adcf439ff48317ff72e773","fixation","","","img/fixation.png","null","","","test","","","","","","","","","","","","","","","","","","","",""
"806.7999999523163","1092052","SARL_v6","SARL_v6o5s523ln","62adcf439ff48317ff72e773","rl","","","img/black_2bandit_b2.png","74","","0","test","","","45","","","-5","circle","square","","0","2","","74","-5","-8","-5","-8","circle","2","0"
"null","1092820","SARL_v6","SARL_v6o5s523ln","62adcf439ff48317ff72e773","feedback","","","<div class=""verylowPoints""> -5 </div>","null","","na","test","","","NaN","","","","","","","","2","","74","","","","","","2",""
"650.0999999046326","1093476","SARL_v6","SARL_v6o5s523ln","62adcf439ff48317ff72e773","freq","","","img/orange_2bandit_b2.png","70","","70","test","1","","46","","","","circle","square","44","1","3","0.9772727272727273","","","","","","","",""
"null","1093641","SARL_v6","SARL_v6o5s523ln","62adcf439ff48317ff72e773","freq_resp","","","img/orange_2bandit_b.png","70","img/orange_2bandit_b.png","70","test","","","","","","","","","","","3","","","","","","","","",""
"null","1093810","SARL_v6","SARL_v6o5s523ln","62adcf439ff48317ff72e773","fixation","","","img/fixation.png","null","","","test","","","","","","","","","","","","","","","","","","","",""
"348.7000000476837","1094164","SARL_v6","SARL_v6o5s523ln","62adcf439ff48317ff72e773","freq","","","img/orange_2bandit_b2.png","70","","70","test","1","","47","","","","circle","square","45","2","3","0.9777777777777777","","","","","","","",""
"null","1094628","SARL_v6","SARL_v6o5s523ln","62adcf439ff48317ff72e773","freq_resp","","","img/orange_2bandit_b.png","70","img/orange_2bandit_b.png","70","test","","","","","","","","","","","3","","","","","","","","",""
"null","1094798","SARL_v6","SARL_v6o5s523ln","62adcf439ff48317ff72e773","fixation","","","img/fixation.png","null","","","test","","","","","","","","","","","","","","","","","","","",""
"344.2999999523163","1095147","SARL_v6","SARL_v6o5s523ln","62adcf439ff48317ff72e773","freq","","","img/orange_2bandit_b2.png","70","","70","test","1","","48","","","","circle","square","46","3","3","0.9782608695652174","","","","","","","",""
"null","1095620","SARL_v6","SARL_v6o5s523ln","62adcf439ff48317ff72e773","freq_resp","","","img/orange_2bandit_b.png","70","img/orange_2bandit_b.png","70","test","","","","","","","","","","","3","","","","","","","","",""
"null","1095789","SARL_v6","SARL_v6o5s523ln","62adcf439ff48317ff72e773","fixation","","","img/fixation.png","null","","","test","","","","","","","","","","","","","","","","","","","",""
"617.5","1096411","SARL_v6","SARL_v6o5s523ln","62adcf439ff48317ff72e773","infreq","","","img/blue_2bandit_b2.png","68","","68","test","1","","49","","","","circle","square","47","4","3","0.9787234042553191","","","","","","","",""
"null","1096607","SARL_v6","SARL_v6o5s523ln","62adcf439ff48317ff72e773","infreq_resp","","","img/blue_2bandit_b.png","68","img/blue_2bandit_b.png","68","test","","","","","","","","","","","3","","","","","","","","",""
"null","1096764","SARL_v6","SARL_v6o5s523ln","62adcf439ff48317ff72e773","fixation","","","img/fixation.png","null","","","test","","","","","","","","","","","","","","","","","","","",""
"554.5","1097323","SARL_v6","SARL_v6o5s523ln","62adcf439ff48317ff72e773","freq","","","img/orange_2bandit_b2.png","70","","70","test","1","","50","","","","circle","square","48","5","3","0.9791666666666666","","","","","","","",""
"null","1097582","SARL_v6","SARL_v6o5s523ln","62adcf439ff48317ff72e773","freq_resp","","","img/orange_2bandit_b.png","70","img/orange_2bandit_b.png","70","test","","","","","","","","","","","3","","","","","","","","",""
"null","1097739","SARL_v6","SARL_v6o5s523ln","62adcf439ff48317ff72e773","fixation","","","img/fixation.png","null","","","test","","","","","","","","","","","","","","","","","","","",""
"355.89999997615814","1098100","SARL_v6","SARL_v6o5s523ln","62adcf439ff48317ff72e773","freq","","","img/orange_2bandit_b2.png","70","","70","test","1","","51","","","","circle","square","49","6","3","0.9795918367346939","","","","","","","",""
"null","1098556","SARL_v6","SARL_v6o5s523ln","62adcf439ff48317ff72e773","freq_resp","","","img/orange_2bandit_b.png","70","img/orange_2bandit_b.png","70","test","","","","","","","","","","","3","","","","","","","","",""
"null","1098713","SARL_v6","SARL_v6o5s523ln","62adcf439ff48317ff72e773","fixation","","","img/fixation.png","null","","","test","","","","","","","","","","","","","","","","","","","",""
"382.10000002384186","1099100","SARL_v6","SARL_v6o5s523ln","62adcf439ff48317ff72e773","freq","","","img/orange_2bandit_b2.png","70","","70","test","1","","52","","","","circle","square","50","7","3","0.98","","","","","","","",""
"null","1099524","SARL_v6","SARL_v6o5s523ln","62adcf439ff48317ff72e773","freq_resp","","","img/orange_2bandit_b.png","70","img/orange_2bandit_b.png","70","test","","","","","","","","","","","3","","","","","","","","",""
"null","1099694","SARL_v6","SARL_v6o5s523ln","62adcf439ff48317ff72e773","fixation","","","img/fixation.png","null","","","test","","","","","","","","","","","","","","","","","","","",""
"336.59999990463257","1100036","SARL_v6","SARL_v6o5s523ln","62adcf439ff48317ff72e773","freq","","","img/orange_2bandit_b2.png","70","","70","test","1","","53","","","","circle","square","51","8","3","0.9803921568627451","","","","","","","",""
"null","1100514","SARL_v6","SARL_v6o5s523ln","62adcf439ff48317ff72e773","freq_resp","","","img/orange_2bandit_b.png","70","img/orange_2bandit_b.png","70","test","","","","","","","","","","","3","","","","","","","","",""
"null","1100669","SARL_v6","SARL_v6o5s523ln","62adcf439ff48317ff72e773","fixation","","","img/fixation.png","null","","","test","","","","","","","","","","","","","","","","","","","",""
"369","1101044","SARL_v6","SARL_v6o5s523ln","62adcf439ff48317ff72e773","freq","","","img/orange_2bandit_b2.png","70","","70","test","1","","54","","","","circle","square","52","9","3","0.9807692307692307","","","","","","","",""
"null","1101491","SARL_v6","SARL_v6o5s523ln","62adcf439ff48317ff72e773","freq_resp","","","img/orange_2bandit_b.png","70","img/orange_2bandit_b.png","70","test","","","","","","","","","","","3","","","","","","","","",""
"null","1101661","SARL_v6","SARL_v6o5s523ln","62adcf439ff48317ff72e773","fixation","","","img/fixation.png","null","","","test","","","","","","","","","","","","","","","","","","","",""
"385.7999999523163","1102051","SARL_v6","SARL_v6o5s523ln","62adcf439ff48317ff72e773","freq","","","img/orange_2bandit_b2.png","70","","70","test","1","","55","","","","circle","square","53","10","3","0.9811320754716981","","","","","","","",""
"null","1102480","SARL_v6","SARL_v6o5s523ln","62adcf439ff48317ff72e773","freq_resp","","","img/orange_2bandit_b.png","70","img/orange_2bandit_b.png","70","test","","","","","","","","","","","3","","","","","","","","",""
"null","1102638","SARL_v6","SARL_v6o5s523ln","62adcf439ff48317ff72e773","fixation","","","img/fixation.png","null","","","test","","","","","","","","","","","","","","","","","","","",""
"313","1102955","SARL_v6","SARL_v6o5s523ln","62adcf439ff48317ff72e773","freq","","","img/orange_2bandit_b2.png","70","","70","test","1","","56","","","","circle","square","54","11","3","0.9814814814814815","","","","","","","",""
"null","1103460","SARL_v6","SARL_v6o5s523ln","62adcf439ff48317ff72e773","freq_resp","","","img/orange_2bandit_b.png","70","img/orange_2bandit_b.png","70","test","","","","","","","","","","","3","","","","","","","","",""
"null","1103628","SARL_v6","SARL_v6o5s523ln","62adcf439ff48317ff72e773","fixation","","","img/fixation.png","null","","","test","","","","","","","","","","","","","","","","","","","",""
"338.1999999284744","1103972","SARL_v6","SARL_v6o5s523ln","62adcf439ff48317ff72e773","freq","","","img/orange_2bandit_b2.png","70","","70","test","1","","57","","","","circle","square","55","12","3","0.9818181818181818","","","","","","","",""
"null","1104445","SARL_v6","SARL_v6o5s523ln","62adcf439ff48317ff72e773","freq_resp","","","img/orange_2bandit_b.png","70","img/orange_2bandit_b.png","70","test","","","","","","","","","","","3","","","","","","","","",""
"null","1104615","SARL_v6","SARL_v6o5s523ln","62adcf439ff48317ff72e773","fixation","","","img/fixation.png","null","","","test","","","","","","","","","","","","","","","","","","","",""
"327.2000000476837","1104948","SARL_v6","SARL_v6o5s523ln","62adcf439ff48317ff72e773","freq","","","img/orange_2bandit_b2.png","70","","70","test","1","","58","","","","circle","square","56","13","3","0.9821428571428571","","","","","","","",""
"null","1105426","SARL_v6","SARL_v6o5s523ln","62adcf439ff48317ff72e773","freq_resp","","","img/orange_2bandit_b.png","70","img/orange_2bandit_b.png","70","test","","","","","","","","","","","3","","","","","","","","",""
"null","1105595","SARL_v6","SARL_v6o5s523ln","62adcf439ff48317ff72e773","fixation","","","img/fixation.png","null","","","test","","","","","","","","","","","","","","","","","","","",""
"299.09999990463257","1105899","SARL_v6","SARL_v6o5s523ln","62adcf439ff48317ff72e773","freq","","","img/orange_2bandit_b2.png","70","","70","test","1","","59","","","","circle","square","57","14","3","0.9824561403508771","","","","","","","",""
"null","1106417","SARL_v6","SARL_v6o5s523ln","62adcf439ff48317ff72e773","freq_resp","","","img/orange_2bandit_b.png","70","img/orange_2bandit_b.png","70","test","","","","","","","","","","","3","","","","","","","","",""
"null","1106572","SARL_v6","SARL_v6o5s523ln","62adcf439ff48317ff72e773","fixation","","","img/fixation.png","null","","","test","","","","","","","","","","","","","","","","","","","",""
"330.1999999284744","1106908","SARL_v6","SARL_v6o5s523ln","62adcf439ff48317ff72e773","freq","","","img/orange_2bandit_b2.png","70","","70","test","1","","60","","","","circle","square","58","15","3","0.9827586206896551","","","","","","","",""
"null","1107396","SARL_v6","SARL_v6o5s523ln","62adcf439ff48317ff72e773","freq_resp","","","img/orange_2bandit_b.png","70","img/orange_2bandit_b.png","70","test","","","","","","","","","","","3","","","","","","","","",""
"null","1107564","SARL_v6","SARL_v6o5s523ln","62adcf439ff48317ff72e773","fixation","","","img/fixation.png","null","","","test","","","","","","","","","","","","","","","","","","","",""
"339","1107908","SARL_v6","SARL_v6o5s523ln","62adcf439ff48317ff72e773","freq","","","img/orange_2bandit_b2.png","70","","70","test","1","","61","","","","circle","square","59","16","3","0.9830508474576272","","","","","","","",""
"null","1108385","SARL_v6","SARL_v6o5s523ln","62adcf439ff48317ff72e773","freq_resp","","","img/orange_2bandit_b.png","70","img/orange_2bandit_b.png","70","test","","","","","","","","","","","3","","","","","","","","",""
"null","1108541","SARL_v6","SARL_v6o5s523ln","62adcf439ff48317ff72e773","fixation","","","img/fixation.png","null","","","test","","","","","","","","","","","","","","","","","","","",""
"361.09999990463257","1108907","SARL_v6","SARL_v6o5s523ln","62adcf439ff48317ff72e773","freq","","","img/orange_2bandit_b2.png","70","","70","test","1","","62","","","","circle","square","60","17","3","0.9833333333333333","","","","","","","",""
"null","1109361","SARL_v6","SARL_v6o5s523ln","62adcf439ff48317ff72e773","freq_resp","","","img/orange_2bandit_b.png","70","img/orange_2bandit_b.png","70","test","","","","","","","","","","","3","","","","","","","","",""
"null","1109530","SARL_v6","SARL_v6o5s523ln","62adcf439ff48317ff72e773","fixation","","","img/fixation.png","null","","","test","","","","","","","","","","","","","","","","","","","",""
"340.5","1109876","SARL_v6","SARL_v6o5s523ln","62adcf439ff48317ff72e773","freq","","","img/orange_2bandit_b2.png","70","","70","test","1","","63","","","","circle","square","61","18","3","0.9836065573770492","","","","","","","",""
"null","1110348","SARL_v6","SARL_v6o5s523ln","62adcf439ff48317ff72e773","freq_resp","","","img/orange_2bandit_b.png","70","img/orange_2bandit_b.png","70","test","","","","","","","","","","","3","","","","","","","","",""
"null","1110503","SARL_v6","SARL_v6o5s523ln","62adcf439ff48317ff72e773","fixation","","","img/fixation.png","null","","","test","","","","","","","","","","","","","","","","","","","",""
"351.5","1110860","SARL_v6","SARL_v6o5s523ln","62adcf439ff48317ff72e773","freq","","","img/orange_2bandit_b2.png","70","","70","test","1","","64","","","","circle","square","62","19","3","0.9838709677419355","","","","","","","",""
"null","1111323","SARL_v6","SARL_v6o5s523ln","62adcf439ff48317ff72e773","freq_resp","","","img/orange_2bandit_b.png","70","img/orange_2bandit_b.png","70","test","","","","","","","","","","","3","","","","","","","","",""
"null","1111479","SARL_v6","SARL_v6o5s523ln","62adcf439ff48317ff72e773","fixation","","","img/fixation.png","null","","","test","","","","","","","","","","","","","","","","","","","",""
"311.6999999284744","1111796","SARL_v6","SARL_v6o5s523ln","62adcf439ff48317ff72e773","freq","","","img/orange_2bandit_b2.png","70","","70","test","1","","65","","","","circle","square","63","20","3","0.9841269841269841","","","","","","","",""
"null","1112301","SARL_v6","SARL_v6o5s523ln","62adcf439ff48317ff72e773","freq_resp","","","img/orange_2bandit_b.png","70","img/orange_2bandit_b.png","70","test","","","","","","","","","","","3","","","","","","","","",""
"null","1112457","SARL_v6","SARL_v6o5s523ln","62adcf439ff48317ff72e773","fixation","","","img/fixation.png","null","","","test","","","","","","","","","","","","","","","","","","","",""
"390","1112851","SARL_v6","SARL_v6o5s523ln","62adcf439ff48317ff72e773","freq","","","img/orange_2bandit_b2.png","70","","70","test","1","","66","","","","circle","square","64","21","3","0.984375","","","","","","","",""
"null","1113273","SARL_v6","SARL_v6o5s523ln","62adcf439ff48317ff72e773","freq_resp","","","img/orange_2bandit_b.png","70","img/orange_2bandit_b.png","70","test","","","","","","","","","","","3","","","","","","","","",""
"null","1113432","SARL_v6","SARL_v6o5s523ln","62adcf439ff48317ff72e773","fixation","","","img/fixation.png","null","","","test","","","","","","","","","","","","","","","","","","","",""
"446.6999999284744","1113886","SARL_v6","SARL_v6o5s523ln","62adcf439ff48317ff72e773","freq","","","img/orange_2bandit_b2.png","70","","70","test","1","","67","","","","circle","square","65","22","3","0.9846153846153847","","","","","","","",""
"null","1114247","SARL_v6","SARL_v6o5s523ln","62adcf439ff48317ff72e773","freq_resp","","","img/orange_2bandit_b.png","70","img/orange_2bandit_b.png","70","test","","","","","","","","","","","3","","","","","","","","",""
"null","1114415","SARL_v6","SARL_v6o5s523ln","62adcf439ff48317ff72e773","fixation","","","img/fixation.png","null","","","test","","","","","","","","","","","","","","","","","","","",""
"null","1115225","SARL_v6","SARL_v6o5s523ln","62adcf439ff48317ff72e773","freq","","","img/orange_2bandit_b2.png","null","","70","test","0","","68","","","","circle","square","66","23","3","0.9696969696969697","","","","","","","",""
"null","1115381","SARL_v6","SARL_v6o5s523ln","62adcf439ff48317ff72e773","fixation","","","img/fixation.png","null","","","test","","","","","","","","","","","","","","","","","","","",""
"null","1116196","SARL_v6","SARL_v6o5s523ln","62adcf439ff48317ff72e773","infreq","","","img/blue_2bandit_b2.png","null","","68","test","0","","69","","","","circle","square","67","24","3","0.9552238805970149","","","","","","","",""
"null","1116354","SARL_v6","SARL_v6o5s523ln","62adcf439ff48317ff72e773","fixation","","","img/fixation.png","null","","","test","","","","","","","","","","","","","","","","","","","",""
"null","1117162","SARL_v6","SARL_v6o5s523ln","62adcf439ff48317ff72e773","freq","","","img/orange_2bandit_b2.png","null","","70","test","0","","70","","","","circle","square","68","25","3","0.9411764705882353","","","","","","","",""
"null","1117316","SARL_v6","SARL_v6o5s523ln","62adcf439ff48317ff72e773","fixation","","","img/fixation.png","null","","","test","","","","","","","","","","","","","","","","","","","",""
"33.60000002384186","1117352","SARL_v6","SARL_v6o5s523ln","62adcf439ff48317ff72e773","freq","","","img/orange_2bandit_b2.png","70","","70","test","1","","71","","","","circle","square","69","26","3","0.9420289855072463","","","","","","","",""
"null","1118127","SARL_v6","SARL_v6o5s523ln","62adcf439ff48317ff72e773","freq_resp","","","img/orange_2bandit_b.png","70","img/orange_2bandit_b.png","70","test","","","","","","","","","","","3","","","","","","","","",""
"null","1118283","SARL_v6","SARL_v6o5s523ln","62adcf439ff48317ff72e773","fixation","","","img/fixation.png","null","","","test","","","","","","","","","","","","","","","","","","","",""
"659.5999999046326","1118948","SARL_v6","SARL_v6o5s523ln","62adcf439ff48317ff72e773","rl","","","img/black_2bandit_b2.png","74","","0","test","","","72","","","-4","circle","square","","0","3","","74","-4","-8","-4","-8","circle","3","0"
"null","1119710","SARL_v6","SARL_v6o5s523ln","62adcf439ff48317ff72e773","feedback","","","<div class=""verylowPoints""> -4 </div>","null","","na","test","","","NaN","","","","","","","","3","","74","","","","","","3",""
"47.89999997615814","1119763","SARL_v6","SARL_v6o5s523ln","62adcf439ff48317ff72e773","freq","","","img/orange_2bandit_b2.png","70","","70","test","1","","73","","","","circle","square","70","1","4","0.9428571428571428","","","","","","","",""
"null","1120531","SARL_v6","SARL_v6o5s523ln","62adcf439ff48317ff72e773","freq_resp","","","img/orange_2bandit_b.png","70","img/orange_2bandit_b.png","70","test","","","","","","","","","","","4","","","","","","","","",""
"null","1120689","SARL_v6","SARL_v6o5s523ln","62adcf439ff48317ff72e773","fixation","","","img/fixation.png","null","","","test","","","","","","","","","","","","","","","","","","","",""
"614.8999999761581","1121308","SARL_v6","SARL_v6o5s523ln","62adcf439ff48317ff72e773","infreq","","","img/blue_2bandit_b2.png","68","","68","test","1","","74","","","","circle","square","71","2","4","0.9436619718309859","","","","","","","",""
"null","1121510","SARL_v6","SARL_v6o5s523ln","62adcf439ff48317ff72e773","infreq_resp","","","img/blue_2bandit_b.png","68","img/blue_2bandit_b.png","68","test","","","","","","","","","","","4","","","","","","","","",""
"null","1121681","SARL_v6","SARL_v6o5s523ln","62adcf439ff48317ff72e773","fixation","","","img/fixation.png","null","","","test","","","","","","","","","","","","","","","","","","","",""
"549.8999999761581","1122236","SARL_v6","SARL_v6o5s523ln","62adcf439ff48317ff72e773","freq","","","img/orange_2bandit_b2.png","70","","70","test","1","","75","","","","circle","square","72","3","4","0.9444444444444444","","","","","","","",""
"null","1122500","SARL_v6","SARL_v6o5s523ln","62adcf439ff48317ff72e773","freq_resp","","","img/orange_2bandit_b.png","70","img/orange_2bandit_b.png","70","test","","","","","","","","","","","4","","","","","","","","",""
"null","1122670","SARL_v6","SARL_v6o5s523ln","62adcf439ff48317ff72e773","fixation","","","img/fixation.png","null","","","test","","","","","","","","","","","","","","","","","","","",""
"456.5","1123132","SARL_v6","SARL_v6o5s523ln","62adcf439ff48317ff72e773","freq","","","img/orange_2bandit_b2.png","70","","70","test","1","","76","","","","circle","square","73","4","4","0.9452054794520548","","","","","","","",""
"null","1123490","SARL_v6","SARL_v6o5s523ln","62adcf439ff48317ff72e773","freq_resp","","","img/orange_2bandit_b.png","70","img/orange_2bandit_b.png","70","test","","","","","","","","","","","4","","","","","","","","",""
"null","1123647","SARL_v6","SARL_v6o5s523ln","62adcf439ff48317ff72e773","fixation","","","img/fixation.png","null","","","test","","","","","","","","","","","","","","","","","","","",""
"328.3000000715256","1123980","SARL_v6","SARL_v6o5s523ln","62adcf439ff48317ff72e773","freq","","","img/orange_2bandit_b2.png","70","","70","test","1","","77","","","","circle","square","74","5","4","0.9459459459459459","","","","","","","",""
"null","1124468","SARL_v6","SARL_v6o5s523ln","62adcf439ff48317ff72e773","freq_resp","","","img/orange_2bandit_b.png","70","img/orange_2bandit_b.png","70","test","","","","","","","","","","","4","","","","","","","","",""
"null","1124623","SARL_v6","SARL_v6o5s523ln","62adcf439ff48317ff72e773","fixation","","","img/fixation.png","null","","","test","","","","","","","","","","","","","","","","","","","",""
"359.10000002384186","1124987","SARL_v6","SARL_v6o5s523ln","62adcf439ff48317ff72e773","freq","","","img/orange_2bandit_b2.png","70","","70","test","1","","78","","","","circle","square","75","6","4","0.9466666666666667","","","","","","","",""
"null","1125446","SARL_v6","SARL_v6o5s523ln","62adcf439ff48317ff72e773","freq_resp","","","img/orange_2bandit_b.png","70","img/orange_2bandit_b.png","70","test","","","","","","","","","","","4","","","","","","","","",""
"null","1125601","SARL_v6","SARL_v6o5s523ln","62adcf439ff48317ff72e773","fixation","","","img/fixation.png","null","","","test","","","","","","","","","","","","","","","","","","","",""
"405.09999990463257","1126012","SARL_v6","SARL_v6o5s523ln","62adcf439ff48317ff72e773","freq","","","img/orange_2bandit_b2.png","70","","70","test","1","","79","","","","circle","square","76","7","4","0.9473684210526315","","","","","","","",""
"null","1126420","SARL_v6","SARL_v6o5s523ln","62adcf439ff48317ff72e773","freq_resp","","","img/orange_2bandit_b.png","70","img/orange_2bandit_b.png","70","test","","","","","","","","","","","4","","","","","","","","",""
"null","1126590","SARL_v6","SARL_v6o5s523ln","62adcf439ff48317ff72e773","fixation","","","img/fixation.png","null","","","test","","","","","","","","","","","","","","","","","","","",""
"296.5","1126892","SARL_v6","SARL_v6o5s523ln","62adcf439ff48317ff72e773","freq","","","img/orange_2bandit_b2.png","70","","70","test","1","","80","","","","circle","square","77","8","4","0.948051948051948","","","","","","","",""
"null","1127409","SARL_v6","SARL_v6o5s523ln","62adcf439ff48317ff72e773","freq_resp","","","img/orange_2bandit_b.png","70","img/orange_2bandit_b.png","70","test","","","","","","","","","","","4","","","","","","","","",""
"null","1127578","SARL_v6","SARL_v6o5s523ln","62adcf439ff48317ff72e773","fixation","","","img/fixation.png","null","","","test","","","","","","","","","","","","","","","","","","","",""
"277.2999999523163","1127861","SARL_v6","SARL_v6o5s523ln","62adcf439ff48317ff72e773","freq","","","img/orange_2bandit_b2.png","70","","70","test","1","","81","","","","circle","square","78","9","4","0.9487179487179487","","","","","","","",""
"null","1128400","SARL_v6","SARL_v6o5s523ln","62adcf439ff48317ff72e773","freq_resp","","","img/orange_2bandit_b.png","70","img/orange_2bandit_b.png","70","test","","","","","","","","","","","4","","","","","","","","",""
"null","1128555","SARL_v6","SARL_v6o5s523ln","62adcf439ff48317ff72e773","fixation","","","img/fixation.png","null","","","test","","","","","","","","","","","","","","","","","","","",""
"331.5","1128891","SARL_v6","SARL_v6o5s523ln","62adcf439ff48317ff72e773","freq","","","img/orange_2bandit_b2.png","70","","70","test","1","","82","","","","circle","square","79","10","4","0.9493670886075949","","","","","","","",""
"null","1129378","SARL_v6","SARL_v6o5s523ln","62adcf439ff48317ff72e773","freq_resp","","","img/orange_2bandit_b.png","70","img/orange_2bandit_b.png","70","test","","","","","","","","","","","4","","","","","","","","",""
"null","1129547","SARL_v6","SARL_v6o5s523ln","62adcf439ff48317ff72e773","fixation","","","img/fixation.png","null","","","test","","","","","","","","","","","","","","","","","","","",""
"316","1129868","SARL_v6","SARL_v6o5s523ln","62adcf439ff48317ff72e773","freq","","","img/orange_2bandit_b2.png","70","","70","test","1","","83","","","","circle","square","80","11","4","0.95","","","","","","","",""
"null","1130368","SARL_v6","SARL_v6o5s523ln","62adcf439ff48317ff72e773","freq_resp","","","img/orange_2bandit_b.png","70","img/orange_2bandit_b.png","70","test","","","","","","","","","","","4","","","","","","","","",""
"null","1130525","SARL_v6","SARL_v6o5s523ln","62adcf439ff48317ff72e773","fixation","","","img/fixation.png","null","","","test","","","","","","","","","","","","","","","","","","","",""
"201.79999995231628","1130731","SARL_v6","SARL_v6o5s523ln","62adcf439ff48317ff72e773","freq","","","img/orange_2bandit_b2.png","70","","70","test","1","","84","","","","circle","square","81","12","4","0.9506172839506173","","","","","","","",""
"null","1131348","SARL_v6","SARL_v6o5s523ln","62adcf439ff48317ff72e773","freq_resp","","","img/orange_2bandit_b.png","70","img/orange_2bandit_b.png","70","test","","","","","","","","","","","4","","","","","","","","",""
"null","1131503","SARL_v6","SARL_v6o5s523ln","62adcf439ff48317ff72e773","fixation","","","img/fixation.png","null","","","test","","","","","","","","","","","","","","","","","","","",""
"328.10000002384186","1131836","SARL_v6","SARL_v6o5s523ln","62adcf439ff48317ff72e773","freq","","","img/orange_2bandit_b2.png","70","","70","test","1","","85","","","","circle","square","82","13","4","0.9512195121951219","","","","","","","",""
"null","1132323","SARL_v6","SARL_v6o5s523ln","62adcf439ff48317ff72e773","freq_resp","","","img/orange_2bandit_b.png","70","img/orange_2bandit_b.png","70","test","","","","","","","","","","","4","","","","","","","","",""
"null","1132479","SARL_v6","SARL_v6o5s523ln","62adcf439ff48317ff72e773","fixation","","","img/fixation.png","null","","","test","","","","","","","","","","","","","","","","","","","",""
"215.39999997615814","1132700","SARL_v6","SARL_v6o5s523ln","62adcf439ff48317ff72e773","infreq","","","img/blue_2bandit_b2.png","70","","68","test","0","","86","","","","circle","square","83","14","4","0.9397590361445783","","","","","","","",""
"null","1133296","SARL_v6","SARL_v6o5s523ln","62adcf439ff48317ff72e773","infreq_resp","","","img/blue_2bandit_b.png","70","img/blue_2bandit_b.png","68","test","","","","","","","","","","","4","","","","","","","","",""
"null","1133454","SARL_v6","SARL_v6o5s523ln","62adcf439ff48317ff72e773","fixation","","","img/fixation.png","null","","","test","","","","","","","","","","","","","","","","","","","",""
"457","1133917","SARL_v6","SARL_v6o5s523ln","62adcf439ff48317ff72e773","freq","","","img/orange_2bandit_b2.png","70","","70","test","1","","87","","","","circle","square","84","15","4","0.9404761904761905","","","","","","","",""
"null","1134273","SARL_v6","SARL_v6o5s523ln","62adcf439ff48317ff72e773","freq_resp","","","img/orange_2bandit_b.png","70","img/orange_2bandit_b.png","70","test","","","","","","","","","","","4","","","","","","","","",""
"null","1134429","SARL_v6","SARL_v6o5s523ln","62adcf439ff48317ff72e773","fixation","","","img/fixation.png","null","","","test","","","","","","","","","","","","","","","","","","","",""
"449.8000000715256","1134883","SARL_v6","SARL_v6o5s523ln","62adcf439ff48317ff72e773","freq","","","img/orange_2bandit_b2.png","70","","70","test","1","","88","","","","circle","square","85","16","4","0.9411764705882353","","","","","","","",""
"null","1135248","SARL_v6","SARL_v6o5s523ln","62adcf439ff48317ff72e773","freq_resp","","","img/orange_2bandit_b.png","70","img/orange_2bandit_b.png","70","test","","","","","","","","","","","4","","","","","","","","",""
"null","1135405","SARL_v6","SARL_v6o5s523ln","62adcf439ff48317ff72e773","fixation","","","img/fixation.png","null","","","test","","","","","","","","","","","","","","","","","","","",""
"433.89999997615814","1135843","SARL_v6","SARL_v6o5s523ln","62adcf439ff48317ff72e773","freq","","","img/orange_2bandit_b2.png","70","","70","test","1","","89","","","","circle","square","86","17","4","0.9418604651162791","","","","","","","",""
"null","1136224","SARL_v6","SARL_v6o5s523ln","62adcf439ff48317ff72e773","freq_resp","","","img/orange_2bandit_b.png","70","img/orange_2bandit_b.png","70","test","","","","","","","","","","","4","","","","","","","","",""
"null","1136383","SARL_v6","SARL_v6o5s523ln","62adcf439ff48317ff72e773","fixation","","","img/fixation.png","null","","","test","","","","","","","","","","","","","","","","","","","",""
"374.89999997615814","1136763","SARL_v6","SARL_v6o5s523ln","62adcf439ff48317ff72e773","freq","","","img/orange_2bandit_b2.png","70","","70","test","1","","90","","","","circle","square","87","18","4","0.9425287356321839","","","","","","","",""
"null","1137203","SARL_v6","SARL_v6o5s523ln","62adcf439ff48317ff72e773","freq_resp","","","img/orange_2bandit_b.png","70","img/orange_2bandit_b.png","70","test","","","","","","","","","","","4","","","","","","","","",""
"null","1137361","SARL_v6","SARL_v6o5s523ln","62adcf439ff48317ff72e773","fixation","","","img/fixation.png","null","","","test","","","","","","","","","","","","","","","","","","","",""
"325","1137691","SARL_v6","SARL_v6o5s523ln","62adcf439ff48317ff72e773","freq","","","img/orange_2bandit_b2.png","70","","70","test","1","","91","","","","circle","square","88","19","4","0.9431818181818182","","","","","","","",""
"null","1138183","SARL_v6","SARL_v6o5s523ln","62adcf439ff48317ff72e773","freq_resp","","","img/orange_2bandit_b.png","70","img/orange_2bandit_b.png","70","test","","","","","","","","","","","4","","","","","","","","",""
"null","1138338","SARL_v6","SARL_v6o5s523ln","62adcf439ff48317ff72e773","fixation","","","img/fixation.png","null","","","test","","","","","","","","","","","","","","","","","","","",""
"316.2999999523163","1138660","SARL_v6","SARL_v6o5s523ln","62adcf439ff48317ff72e773","freq","","","img/orange_2bandit_b2.png","70","","70","test","1","","92","","","","circle","square","89","20","4","0.9438202247191011","","","","","","","",""
"null","1139158","SARL_v6","SARL_v6o5s523ln","62adcf439ff48317ff72e773","freq_resp","","","img/orange_2bandit_b.png","70","img/orange_2bandit_b.png","70","test","","","","","","","","","","","4","","","","","","","","",""
"null","1139314","SARL_v6","SARL_v6o5s523ln","62adcf439ff48317ff72e773","fixation","","","img/fixation.png","null","","","test","","","","","","","","","","","","","","","","","","","",""
"540.5","1139859","SARL_v6","SARL_v6o5s523ln","62adcf439ff48317ff72e773","rl","","","img/black_2bandit_b2.png","74","","0","test","","","93","","","0","circle","square","","0","4","","74","0","-12","0","-12","circle","4","0"
"null","1140622","SARL_v6","SARL_v6o5s523ln","62adcf439ff48317ff72e773","feedback","","","<div class=""verylowPoints""> 0 </div>","null","","na","test","","","NaN","","","","","","","","4","","74","","","","","","4",""
"560.2999999523163","1141187","SARL_v6","SARL_v6o5s523ln","62adcf439ff48317ff72e773","freq","","","img/orange_2bandit_b2.png","70","","70","test","1","","94","","","","circle","square","90","1","5","0.9444444444444444","","","","","","","",""
"null","1141442","SARL_v6","SARL_v6o5s523ln","62adcf439ff48317ff72e773","freq_resp","","","img/orange_2bandit_b.png","70","img/orange_2bandit_b.png","70","test","","","","","","","","","","","5","","","","","","","","",""
"null","1141612","SARL_v6","SARL_v6o5s523ln","62adcf439ff48317ff72e773","fixation","","","img/fixation.png","null","","","test","","","","","","","","","","","","","","","","","","","",""
"275.09999990463257","1141894","SARL_v6","SARL_v6o5s523ln","62adcf439ff48317ff72e773","freq","","","img/orange_2bandit_b2.png","70","","70","test","1","","95","","","","circle","square","91","2","5","0.945054945054945","","","","","","","",""
"null","1142431","SARL_v6","SARL_v6o5s523ln","62adcf439ff48317ff72e773","freq_resp","","","img/orange_2bandit_b.png","70","img/orange_2bandit_b.png","70","test","","","","","","","","","","","5","","","","","","","","",""
"null","1142586","SARL_v6","SARL_v6o5s523ln","62adcf439ff48317ff72e773","fixation","","","img/fixation.png","null","","","test","","","","","","","","","","","","","","","","","","","",""
"292.7999999523163","1142886","SARL_v6","SARL_v6o5s523ln","62adcf439ff48317ff72e773","freq","","","img/orange_2bandit_b2.png","70","","70","test","1","","96","","","","circle","square","92","3","5","0.9456521739130435","","","","","","","",""
"null","1143401","SARL_v6","SARL_v6o5s523ln","62adcf439ff48317ff72e773","freq_resp","","","img/orange_2bandit_b.png","70","img/orange_2bandit_b.png","70","test","","","","","","","","","","","5","","","","","","","","",""
"null","1143556","SARL_v6","SARL_v6o5s523ln","62adcf439ff48317ff72e773","fixation","","","img/fixation.png","null","","","test","","","","","","","","","","","","","","","","","","","",""
"290.7000000476837","1143852","SARL_v6","SARL_v6o5s523ln","62adcf439ff48317ff72e773","freq","","","img/orange_2bandit_b2.png","70","","70","test","1","","97","","","","circle","square","93","4","5","0.946236559139785","","","","","","","",""
"null","1144379","SARL_v6","SARL_v6o5s523ln","62adcf439ff48317ff72e773","freq_resp","","","img/orange_2bandit_b.png","70","img/orange_2bandit_b.png","70","test","","","","","","","","","","","5","","","","","","","","",""
"null","1144533","SARL_v6","SARL_v6o5s523ln","62adcf439ff48317ff72e773","fixation","","","img/fixation.png","null","","","test","","","","","","","","","","","","","","","","","","","",""
"291","1144830","SARL_v6","SARL_v6o5s523ln","62adcf439ff48317ff72e773","freq","","","img/orange_2bandit_b2.png","70","","70","test","1","","98","","","","circle","square","94","5","5","0.9468085106382979","","","","","","","",""
"null","1145349","SARL_v6","SARL_v6o5s523ln","62adcf439ff48317ff72e773","freq_resp","","","img/orange_2bandit_b.png","70","img/orange_2bandit_b.png","70","test","","","","","","","","","","","5","","","","","","","","",""
"null","1145508","SARL_v6","SARL_v6o5s523ln","62adcf439ff48317ff72e773","fixation","","","img/fixation.png","null","","","test","","","","","","","","","","","","","","","","","","","",""
"538","1146051","SARL_v6","SARL_v6o5s523ln","62adcf439ff48317ff72e773","infreq","","","img/blue_2bandit_b2.png","68","","68","test","1","","99","","","","circle","square","95","6","5","0.9473684210526315","","","","","","","",""
"null","1146328","SARL_v6","SARL_v6o5s523ln","62adcf439ff48317ff72e773","infreq_resp","","","img/blue_2bandit_b.png","68","img/blue_2bandit_b.png","68","test","","","","","","","","","","","5","","","","","","","","",""
"null","1146484","SARL_v6","SARL_v6o5s523ln","62adcf439ff48317ff72e773","fixation","","","img/fixation.png","null","","","test","","","","","","","","","","","","","","","","","","","",""
"410.6999999284744","1146900","SARL_v6","SARL_v6o5s523ln","62adcf439ff48317ff72e773","freq","","","img/orange_2bandit_b2.png","70","","70","test","1","","100","","","","circle","square","96","7","5","0.9479166666666666","","","","","","","",""
"null","1147302","SARL_v6","SARL_v6o5s523ln","62adcf439ff48317ff72e773","freq_resp","","","img/orange_2bandit_b.png","70","img/orange_2bandit_b.png","70","test","","","","","","","","","","","5","","","","","","","","",""
"null","1147457","SARL_v6","SARL_v6o5s523ln","62adcf439ff48317ff72e773","fixation","","","img/fixation.png","null","","","test","","","","","","","","","","","","","","","","","","","",""
"317","1147780","SARL_v6","SARL_v6o5s523ln","62adcf439ff48317ff72e773","freq","","","img/orange_2bandit_b2.png","70","","70","test","1","","101","","","","circle","square","97","8","5","0.9484536082474226","","","","","","","",""
"null","1148281","SARL_v6","SARL_v6o5s523ln","62adcf439ff48317ff72e773","freq_resp","","","img/orange_2bandit_b.png","70","img/orange_2bandit_b.png","70","test","","","","","","","","","","","5","","","","","","","","",""
"null","1148451","SARL_v6","SARL_v6o5s523ln","62adcf439ff48317ff72e773","fixation","","","img/fixation.png","null","","","test","","","","","","","","","","","","","","","","","","","",""
"276.7000000476837","1148732","SARL_v6","SARL_v6o5s523ln","62adcf439ff48317ff72e773","freq","","","img/orange_2bandit_b2.png","70","","70","test","1","","102","","","","circle","square","98","9","5","0.9489795918367347","","","","","","","",""
"null","1149275","SARL_v6","SARL_v6o5s523ln","62adcf439ff48317ff72e773","freq_resp","","","img/orange_2bandit_b.png","70","img/orange_2bandit_b.png","70","test","","","","","","","","","","","5","","","","","","","","",""
"null","1149433","SARL_v6","SARL_v6o5s523ln","62adcf439ff48317ff72e773","fixation","","","img/fixation.png","null","","","test","","","","","","","","","","","","","","","","","","","",""
"518.3000000715256","1149955","SARL_v6","SARL_v6o5s523ln","62adcf439ff48317ff72e773","infreq","","","img/blue_2bandit_b2.png","68","","68","test","1","","103","","","","circle","square","99","10","5","0.9494949494949495","","","","","","","",""
"null","1150254","SARL_v6","SARL_v6o5s523ln","62adcf439ff48317ff72e773","infreq_resp","","","img/blue_2bandit_b.png","68","img/blue_2bandit_b.png","68","test","","","","","","","","","","","5","","","","","","","","",""
"null","1150409","SARL_v6","SARL_v6o5s523ln","62adcf439ff48317ff72e773","fixation","","","img/fixation.png","null","","","test","","","","","","","","","","","","","","","","","","","",""
"525.3000000715256","1150939","SARL_v6","SARL_v6o5s523ln","62adcf439ff48317ff72e773","freq","","","img/orange_2bandit_b2.png","70","","70","test","1","","104","","","","circle","square","100","11","5","0.95","","","","","","","",""
"null","1151231","SARL_v6","SARL_v6o5s523ln","62adcf439ff48317ff72e773","freq_resp","","","img/orange_2bandit_b.png","70","img/orange_2bandit_b.png","70","test","","","","","","","","","","","5","","","","","","","","",""
"null","1151386","SARL_v6","SARL_v6o5s523ln","62adcf439ff48317ff72e773","fixation","","","img/fixation.png","null","","","test","","","","","","","","","","","","","","","","","","","",""
"428.10000002384186","1151819","SARL_v6","SARL_v6o5s523ln","62adcf439ff48317ff72e773","freq","","","img/orange_2bandit_b2.png","70","","70","test","1","","105","","","","circle","square","101","12","5","0.9504950495049505","","","","","","","",""
"null","1152211","SARL_v6","SARL_v6o5s523ln","62adcf439ff48317ff72e773","freq_resp","","","img/orange_2bandit_b.png","70","img/orange_2bandit_b.png","70","test","","","","","","","","","","","5","","","","","","","","",""
"null","1152369","SARL_v6","SARL_v6o5s523ln","62adcf439ff48317ff72e773","fixation","","","img/fixation.png","null","","","test","","","","","","","","","","","","","","","","","","","",""
"326","1152700","SARL_v6","SARL_v6o5s523ln","62adcf439ff48317ff72e773","freq","","","img/orange_2bandit_b2.png","70","","70","test","1","","106","","","","circle","square","102","13","5","0.9509803921568627","","","","","","","",""
"null","1153189","SARL_v6","SARL_v6o5s523ln","62adcf439ff48317ff72e773","freq_resp","","","img/orange_2bandit_b.png","70","img/orange_2bandit_b.png","70","test","","","","","","","","","","","5","","","","","","","","",""
"null","1153358","SARL_v6","SARL_v6o5s523ln","62adcf439ff48317ff72e773","fixation","","","img/fixation.png","null","","","test","","","","","","","","","","","","","","","","","","","",""
"353.2999999523163","1153716","SARL_v6","SARL_v6o5s523ln","62adcf439ff48317ff72e773","freq","","","img/orange_2bandit_b2.png","70","","70","test","1","","107","","","","circle","square","103","14","5","0.9514563106796117","","","","","","","",""
"null","1154182","SARL_v6","SARL_v6o5s523ln","62adcf439ff48317ff72e773","freq_resp","","","img/orange_2bandit_b.png","70","img/orange_2bandit_b.png","70","test","","","","","","","","","","","5","","","","","","","","",""
"null","1154338","SARL_v6","SARL_v6o5s523ln","62adcf439ff48317ff72e773","fixation","","","img/fixation.png","null","","","test","","","","","","","","","","","","","","","","","","","",""
"316.59999990463257","1154660","SARL_v6","SARL_v6o5s523ln","62adcf439ff48317ff72e773","freq","","","img/orange_2bandit_b2.png","70","","70","test","1","","108","","","","circle","square","104","15","5","0.9519230769230769","","","","","","","",""
"null","1155155","SARL_v6","SARL_v6o5s523ln","62adcf439ff48317ff72e773","freq_resp","","","img/orange_2bandit_b.png","70","img/orange_2bandit_b.png","70","test","","","","","","","","","","","5","","","","","","","","",""
"null","1155311","SARL_v6","SARL_v6o5s523ln","62adcf439ff48317ff72e773","fixation","","","img/fixation.png","null","","","test","","","","","","","","","","","","","","","","","","","",""
"303.1999999284744","1155620","SARL_v6","SARL_v6o5s523ln","62adcf439ff48317ff72e773","freq","","","img/orange_2bandit_b2.png","70","","70","test","1","","109","","","","circle","square","105","16","5","0.9523809523809523","","","","","","","",""
"null","1156134","SARL_v6","SARL_v6o5s523ln","62adcf439ff48317ff72e773","freq_resp","","","img/orange_2bandit_b.png","70","img/orange_2bandit_b.png","70","test","","","","","","","","","","","5","","","","","","","","",""
"null","1156289","SARL_v6","SARL_v6o5s523ln","62adcf439ff48317ff72e773","fixation","","","img/fixation.png","null","","","test","","","","","","","","","","","","","","","","","","","",""
"413.59999990463257","1156708","SARL_v6","SARL_v6o5s523ln","62adcf439ff48317ff72e773","freq","","","img/orange_2bandit_b2.png","70","","70","test","1","","110","","","","circle","square","106","17","5","0.9528301886792453","","","","","","","",""
"null","1157112","SARL_v6","SARL_v6o5s523ln","62adcf439ff48317ff72e773","freq_resp","","","img/orange_2bandit_b.png","70","img/orange_2bandit_b.png","70","test","","","","","","","","","","","5","","","","","","","","",""
"null","1157282","SARL_v6","SARL_v6o5s523ln","62adcf439ff48317ff72e773","fixation","","","img/fixation.png","null","","","test","","","","","","","","","","","","","","","","","","","",""
"461.2000000476837","1157748","SARL_v6","SARL_v6o5s523ln","62adcf439ff48317ff72e773","infreq","","","img/blue_2bandit_b2.png","68","","68","test","1","","111","","","","circle","square","107","18","5","0.9532710280373832","","","","","","","",""
"null","1158101","SARL_v6","SARL_v6o5s523ln","62adcf439ff48317ff72e773","infreq_resp","","","img/blue_2bandit_b.png","68","img/blue_2bandit_b.png","68","test","","","","","","","","","","","5","","","","","","","","",""
"null","1158271","SARL_v6","SARL_v6o5s523ln","62adcf439ff48317ff72e773","fixation","","","img/fixation.png","null","","","test","","","","","","","","","","","","","","","","","","","",""
"null","1159090","SARL_v6","SARL_v6o5s523ln","62adcf439ff48317ff72e773","freq","","","img/orange_2bandit_b2.png","null","","70","test","0","","112","","","","circle","square","108","19","5","0.9444444444444444","","","","","","","",""
"null","1159260","SARL_v6","SARL_v6o5s523ln","62adcf439ff48317ff72e773","fixation","","","img/fixation.png","null","","","test","","","","","","","","","","","","","","","","","","","",""
"66.60000002384186","1159332","SARL_v6","SARL_v6o5s523ln","62adcf439ff48317ff72e773","freq","","","img/orange_2bandit_b2.png","68","","70","test","0","","113","","","","circle","square","109","20","5","0.9357798165137615","","","","","","","",""
"null","1160085","SARL_v6","SARL_v6o5s523ln","62adcf439ff48317ff72e773","freq_resp","","","img/orange_2bandit_b.png","68","img/orange_2bandit_b.png","70","test","","","","","","","","","","","5","","","","","","","","",""
"null","1160254","SARL_v6","SARL_v6o5s523ln","62adcf439ff48317ff72e773","fixation","","","img/fixation.png","null","","","test","","","","","","","","","","","","","","","","","","","",""
"272.60000002384186","1160532","SARL_v6","SARL_v6o5s523ln","62adcf439ff48317ff72e773","freq","","","img/orange_2bandit_b2.png","70","","70","test","1","","114","","","","circle","square","110","21","5","0.9363636363636364","","","","","","","",""
"null","1161076","SARL_v6","SARL_v6o5s523ln","62adcf439ff48317ff72e773","freq_resp","","","img/orange_2bandit_b.png","70","img/orange_2bandit_b.png","70","test","","","","","","","","","","","5","","","","","","","","",""
"null","1161231","SARL_v6","SARL_v6o5s523ln","62adcf439ff48317ff72e773","fixation","","","img/fixation.png","null","","","test","","","","","","","","","","","","","","","","","","","",""
"127.09999990463257","1161364","SARL_v6","SARL_v6o5s523ln","62adcf439ff48317ff72e773","freq","","","img/orange_2bandit_b2.png","70","","70","test","1","","115","","","","circle","square","111","22","5","0.9369369369369369","","","","","","","",""
"null","1162048","SARL_v6","SARL_v6o5s523ln","62adcf439ff48317ff72e773","freq_resp","","","img/orange_2bandit_b.png","70","img/orange_2bandit_b.png","70","test","","","","","","","","","","","5","","","","","","","","",""
"null","1162203","SARL_v6","SARL_v6o5s523ln","62adcf439ff48317ff72e773","fixation","","","img/fixation.png","null","","","test","","","","","","","","","","","","","","","","","","","",""
"147.79999995231628","1162355","SARL_v6","SARL_v6o5s523ln","62adcf439ff48317ff72e773","freq","","","img/orange_2bandit_b2.png","70","","70","test","1","","116","","","","circle","square","112","23","5","0.9375","","","","","","","",""
"null","1163014","SARL_v6","SARL_v6o5s523ln","62adcf439ff48317ff72e773","freq_resp","","","img/orange_2bandit_b.png","70","img/orange_2bandit_b.png","70","test","","","","","","","","","","","5","","","","","","","","",""
"null","1163182","SARL_v6","SARL_v6o5s523ln","62adcf439ff48317ff72e773","fixation","","","img/fixation.png","null","","","test","","","","","","","","","","","","","","","","","","","",""
"584.1000000238419","1163772","SARL_v6","SARL_v6o5s523ln","62adcf439ff48317ff72e773","rl","","","img/black_2bandit_b2.png","74","","0","test","","","117","","","4","circle","square","","0","5","","74","4","-7","4","-7","circle","5","0"
"null","1164529","SARL_v6","SARL_v6o5s523ln","62adcf439ff48317ff72e773","feedback","","","<div class=""veryhighPoints""> 4 </div>","null","","na","test","","","NaN","","","","","","","","5","","74","","","","","","5",""
"109.29999995231628","1164644","SARL_v6","SARL_v6o5s523ln","62adcf439ff48317ff72e773","freq","","","img/orange_2bandit_b2.png","70","","70","test","1","","118","","","","circle","square","113","1","6","0.9380530973451328","","","","","","","",""
"null","1165346","SARL_v6","SARL_v6o5s523ln","62adcf439ff48317ff72e773","freq_resp","","","img/orange_2bandit_b.png","70","img/orange_2bandit_b.png","70","test","","","","","","","","","","","6","","","","","","","","",""
"null","1165502","SARL_v6","SARL_v6o5s523ln","62adcf439ff48317ff72e773","fixation","","","img/fixation.png","null","","","test","","","","","","","","","","","","","","","","","","","",""
"377","1165884","SARL_v6","SARL_v6o5s523ln","62adcf439ff48317ff72e773","freq","","","img/orange_2bandit_b2.png","70","","70","test","1","","119","","","","circle","square","114","2","6","0.9385964912280702","","","","","","","",""
"null","1166324","SARL_v6","SARL_v6o5s523ln","62adcf439ff48317ff72e773","freq_resp","","","img/orange_2bandit_b.png","70","img/orange_2bandit_b.png","70","test","","","","","","","","","","","6","","","","","","","","",""
"null","1166479","SARL_v6","SARL_v6o5s523ln","62adcf439ff48317ff72e773","fixation","","","img/fixation.png","null","","","test","","","","","","","","","","","","","","","","","","","",""
"183.29999995231628","1166668","SARL_v6","SARL_v6o5s523ln","62adcf439ff48317ff72e773","freq","","","img/orange_2bandit_b2.png","70","","70","test","1","","120","","","","circle","square","115","3","6","0.9391304347826087","","","","","","","",""
"null","1167304","SARL_v6","SARL_v6o5s523ln","62adcf439ff48317ff72e773","freq_resp","","","img/orange_2bandit_b.png","70","img/orange_2bandit_b.png","70","test","","","","","","","","","","","6","","","","","","","","",""
"null","1167473","SARL_v6","SARL_v6o5s523ln","62adcf439ff48317ff72e773","fixation","","","img/fixation.png","null","","","test","","","","","","","","","","","","","","","","","","","",""
"334.10000002384186","1167812","SARL_v6","SARL_v6o5s523ln","62adcf439ff48317ff72e773","freq","","","img/orange_2bandit_b2.png","70","","70","test","1","","121","","","","circle","square","116","4","6","0.9396551724137931","","","","","","","",""
"null","1168291","SARL_v6","SARL_v6o5s523ln","62adcf439ff48317ff72e773","freq_resp","","","img/orange_2bandit_b.png","70","img/orange_2bandit_b.png","70","test","","","","","","","","","","","6","","","","","","","","",""
"null","1168461","SARL_v6","SARL_v6o5s523ln","62adcf439ff48317ff72e773","fixation","","","img/fixation.png","null","","","test","","","","","","","","","","","","","","","","","","","",""
"609.1999999284744","1169076","SARL_v6","SARL_v6o5s523ln","62adcf439ff48317ff72e773","infreq","","","img/blue_2bandit_b2.png","68","","68","test","1","","122","","","","circle","square","117","5","6","0.9401709401709402","","","","","","","",""
"null","1169278","SARL_v6","SARL_v6o5s523ln","62adcf439ff48317ff72e773","infreq_resp","","","img/blue_2bandit_b.png","68","img/blue_2bandit_b.png","68","test","","","","","","","","","","","6","","","","","","","","",""
"null","1169434","SARL_v6","SARL_v6o5s523ln","62adcf439ff48317ff72e773","fixation","","","img/fixation.png","null","","","test","","","","","","","","","","","","","","","","","","","",""
"476.89999997615814","1169916","SARL_v6","SARL_v6o5s523ln","62adcf439ff48317ff72e773","infreq","","","img/blue_2bandit_b2.png","68","","68","test","1","","123","","","","circle","square","118","6","6","0.940677966101695","","","","","","","",""
"null","1170249","SARL_v6","SARL_v6o5s523ln","62adcf439ff48317ff72e773","infreq_resp","","","img/blue_2bandit_b.png","68","img/blue_2bandit_b.png","68","test","","","","","","","","","","","6","","","","","","","","",""
"null","1170406","SARL_v6","SARL_v6o5s523ln","62adcf439ff48317ff72e773","fixation","","","img/fixation.png","null","","","test","","","","","","","","","","","","","","","","","","","",""
"440.7999999523163","1170852","SARL_v6","SARL_v6o5s523ln","62adcf439ff48317ff72e773","freq","","","img/orange_2bandit_b2.png","70","","70","test","1","","124","","","","circle","square","119","7","6","0.9411764705882353","","","","","","","",""
"null","1171227","SARL_v6","SARL_v6o5s523ln","62adcf439ff48317ff72e773","freq_resp","","","img/orange_2bandit_b.png","70","img/orange_2bandit_b.png","70","test","","","","","","","","","","","6","","","","","","","","",""
"null","1171399","SARL_v6","SARL_v6o5s523ln","62adcf439ff48317ff72e773","fixation","","","img/fixation.png","null","","","test","","","","","","","","","","","","","","","","","","","",""
"311.6999999284744","1171715","SARL_v6","SARL_v6o5s523ln","62adcf439ff48317ff72e773","freq","","","img/orange_2bandit_b2.png","70","","70","test","1","","125","","","","circle","square","120","8","6","0.9416666666666667","","","","","","","",""
"null","1172220","SARL_v6","SARL_v6o5s523ln","62adcf439ff48317ff72e773","freq_resp","","","img/orange_2bandit_b.png","70","img/orange_2bandit_b.png","70","test","","","","","","","","","","","6","","","","","","","","",""
"null","1172393","SARL_v6","SARL_v6o5s523ln","62adcf439ff48317ff72e773","fixation","","","img/fixation.png","null","","","test","","","","","","","","","","","","","","","","","","","",""
"485.7999999523163","1172885","SARL_v6","SARL_v6o5s523ln","62adcf439ff48317ff72e773","freq","","","img/orange_2bandit_b2.png","70","","70","test","1","","126","","","","circle","square","121","9","6","0.9421487603305785","","","","","","","",""
"null","1173210","SARL_v6","SARL_v6o5s523ln","62adcf439ff48317ff72e773","freq_resp","","","img/orange_2bandit_b.png","70","img/orange_2bandit_b.png","70","test","","","","","","","","","","","6","","","","","","","","",""
"null","1173366","SARL_v6","SARL_v6o5s523ln","62adcf439ff48317ff72e773","fixation","","","img/fixation.png","null","","","test","","","","","","","","","","","","","","","","","","","",""
"328.89999997615814","1173702","SARL_v6","SARL_v6o5s523ln","62adcf439ff48317ff72e773","freq","","","img/orange_2bandit_b2.png","70","","70","test","1","","127","","","","circle","square","122","10","6","0.9426229508196722","","","","","","","",""
"null","1174185","SARL_v6","SARL_v6o5s523ln","62adcf439ff48317ff72e773","freq_resp","","","img/orange_2bandit_b.png","70","img/orange_2bandit_b.png","70","test","","","","","","","","","","","6","","","","","","","","",""
"null","1174341","SARL_v6","SARL_v6o5s523ln","62adcf439ff48317ff72e773","fixation","","","img/fixation.png","null","","","test","","","","","","","","","","","","","","","","","","","",""
"297.7999999523163","1174643","SARL_v6","SARL_v6o5s523ln","62adcf439ff48317ff72e773","freq","","","img/orange_2bandit_b2.png","70","","70","test","1","","128","","","","circle","square","123","11","6","0.943089430894309","","","","","","","",""
"null","1175161","SARL_v6","SARL_v6o5s523ln","62adcf439ff48317ff72e773","freq_resp","","","img/orange_2bandit_b.png","70","img/orange_2bandit_b.png","70","test","","","","","","","","","","","6","","","","","","","","",""
"null","1175317","SARL_v6","SARL_v6o5s523ln","62adcf439ff48317ff72e773","fixation","","","img/fixation.png","null","","","test","","","","","","","","","","","","","","","","","","","",""
"289.89999997615814","1175612","SARL_v6","SARL_v6o5s523ln","62adcf439ff48317ff72e773","freq","","","img/orange_2bandit_b2.png","70","","70","test","1","","129","","","","circle","square","124","12","6","0.9435483870967742","","","","","","","",""
"null","1176136","SARL_v6","SARL_v6o5s523ln","62adcf439ff48317ff72e773","freq_resp","","","img/orange_2bandit_b.png","70","img/orange_2bandit_b.png","70","test","","","","","","","","","","","6","","","","","","","","",""
"null","1176305","SARL_v6","SARL_v6o5s523ln","62adcf439ff48317ff72e773","fixation","","","img/fixation.png","null","","","test","","","","","","","","","","","","","","","","","","","",""
"285.10000002384186","1176595","SARL_v6","SARL_v6o5s523ln","62adcf439ff48317ff72e773","freq","","","img/orange_2bandit_b2.png","70","","70","test","1","","130","","","","circle","square","125","13","6","0.944","","","","","","","",""
"null","1177122","SARL_v6","SARL_v6o5s523ln","62adcf439ff48317ff72e773","freq_resp","","","img/orange_2bandit_b.png","70","img/orange_2bandit_b.png","70","test","","","","","","","","","","","6","","","","","","","","",""
