"rt","time_elapsed","expId","subject","prolificID","trialType","rlType","attType","stimulus","key_press","stim","corrresp","phase","corr","pracCounter","trialNum","rewardOne","rewardTwo","reward","bandOne","bandTwo","attentionNum","attentionRunNum","blockNum","performance","bandChosen","circleVal","squareVal","bandOneVal","bandTwoVal","shapeChosen","rlNum","badFlag"
"12263.300000011921","12272","SARL_v6","SARL_v64ruu9yzc","6109b95a3954ea5afdd7add9","","","","","","","","","","","","","","","","","","","","","","","","","","","",""
"","15710","SARL_v6","SARL_v64ruu9yzc","6109b95a3954ea5afdd7add9","fullscreen","fullscreen","fullscreen","","","","","","","","","","","","","","","","","","","","","","","","",""
"82820.80000001192","98536","SARL_v6","SARL_v64ruu9yzc","6109b95a3954ea5afdd7add9","","","","","","","","","","","","","","","","","","","","","","","","","","","",""
"null","99355","SARL_v6","SARL_v64ruu9yzc","6109b95a3954ea5afdd7add9","freqPrac","","","img/orange_2bandit_b2.png","null","img/orange_2bandit_b2.png","70","prac","0","1","","","","","","","","","","","","","","","","","",""
"null","100368","SARL_v6","SARL_v64ruu9yzc","6109b95a3954ea5afdd7add9","feedback","","","img/tooSlow.png","null","","na","prac","","","","","","","","","","","","","","","","","","","",""
"null","100531","SARL_v6","SARL_v64ruu9yzc","6109b95a3954ea5afdd7add9","fixation","","","img/fixation.png","null","","","prac","","","","","","","","","","","","","","","","","","","",""
"414.30000001192093","100952","SARL_v6","SARL_v64ruu9yzc","6109b95a3954ea5afdd7add9","infreqPrac","","","img/blue_2bandit_b2.png","68","img/blue_2bandit_b2.png","68","prac","1","1","","","","","","","","","","","","","","","","","",""
"414.30000001192093","101353","SARL_v6","SARL_v64ruu9yzc","6109b95a3954ea5afdd7add9","infreqPrac_resp","","","img/blue_2bandit_b.png","68","img/blue_2bandit_b.png","68","prac","","","","","","","","","","","","","","","","","","","",""
"null","101512","SARL_v6","SARL_v64ruu9yzc","6109b95a3954ea5afdd7add9","fixation","","","img/fixation.png","null","","","prac","","","","","","","","","","","","","","","","","","","",""
"484.60000002384186","102005","SARL_v6","SARL_v64ruu9yzc","6109b95a3954ea5afdd7add9","freqPrac","","","img/orange_2bandit_b2.png","70","img/orange_2bandit_b2.png","70","prac","1","1","","","","","","","","","","","","","","","","","",""
"484.60000002384186","102332","SARL_v6","SARL_v64ruu9yzc","6109b95a3954ea5afdd7add9","freqPrac_resp","","","img/orange_2bandit_b.png","70","img/orange_2bandit_b.png","70","prac","","","","","","","","","","","","","","","","","","","",""
"null","102501","SARL_v6","SARL_v64ruu9yzc","6109b95a3954ea5afdd7add9","fixation","","","img/fixation.png","null","","","prac","","","","","","","","","","","","","","","","","","","",""
"289.30000001192093","102796","SARL_v6","SARL_v64ruu9yzc","6109b95a3954ea5afdd7add9","infreqPrac","","","img/blue_2bandit_b2.png","68","img/blue_2bandit_b2.png","68","prac","1","1","","","","","","","","","","","","","","","","","",""
"289.30000001192093","103322","SARL_v6","SARL_v64ruu9yzc","6109b95a3954ea5afdd7add9","infreqPrac_resp","","","img/blue_2bandit_b.png","68","img/blue_2bandit_b.png","68","prac","","","","","","","","","","","","","","","","","","","",""
"null","103488","SARL_v6","SARL_v64ruu9yzc","6109b95a3954ea5afdd7add9","fixation","","","img/fixation.png","null","","","prac","","","","","","","","","","","","","","","","","","","",""
"349.5","103844","SARL_v6","SARL_v64ruu9yzc","6109b95a3954ea5afdd7add9","infreqPrac","","","img/blue_2bandit_b2.png","70","img/blue_2bandit_b2.png","68","prac","0","2","","","","","","","","","","","","","","","","","",""
"349.5","104308","SARL_v6","SARL_v64ruu9yzc","6109b95a3954ea5afdd7add9","infreqPrac_resp","","","img/blue_2bandit_b.png","70","img/blue_2bandit_b.png","68","prac","","","","","","","","","","","","","","","","","","","",""
"null","105316","SARL_v6","SARL_v64ruu9yzc","6109b95a3954ea5afdd7add9","feedback","","","img/wrongKey.png","null","","na","prac","","","","","","","","","","","","","","","","","","","",""
"null","105475","SARL_v6","SARL_v64ruu9yzc","6109b95a3954ea5afdd7add9","fixation","","","img/fixation.png","null","","","prac","","","","","","","","","","","","","","","","","","","",""
"631.9000000059605","106114","SARL_v6","SARL_v64ruu9yzc","6109b95a3954ea5afdd7add9","infreqPrac","","","img/blue_2bandit_b2.png","68","img/blue_2bandit_b2.png","68","prac","1","2","","","","","","","","","","","","","","","","","",""
"631.9000000059605","106296","SARL_v6","SARL_v64ruu9yzc","6109b95a3954ea5afdd7add9","infreqPrac_resp","","","img/blue_2bandit_b.png","68","img/blue_2bandit_b.png","68","prac","","","","","","","","","","","","","","","","","","","",""
"null","106459","SARL_v6","SARL_v64ruu9yzc","6109b95a3954ea5afdd7add9","fixation","","","img/fixation.png","null","","","prac","","","","","","","","","","","","","","","","","","","",""
"543","107008","SARL_v6","SARL_v64ruu9yzc","6109b95a3954ea5afdd7add9","freqPrac","","","img/orange_2bandit_b2.png","70","img/orange_2bandit_b2.png","70","prac","1","2","","","","","","","","","","","","","","","","","",""
"543","107283","SARL_v6","SARL_v64ruu9yzc","6109b95a3954ea5afdd7add9","freqPrac_resp","","","img/orange_2bandit_b.png","70","img/orange_2bandit_b.png","70","prac","","","","","","","","","","","","","","","","","","","",""
"null","107451","SARL_v6","SARL_v64ruu9yzc","6109b95a3954ea5afdd7add9","fixation","","","img/fixation.png","null","","","prac","","","","","","","","","","","","","","","","","","","",""
"391","107849","SARL_v6","SARL_v64ruu9yzc","6109b95a3954ea5afdd7add9","infreqPrac","","","img/blue_2bandit_b2.png","68","img/blue_2bandit_b2.png","68","prac","1","2","","","","","","","","","","","","","","","","","",""
"391","108272","SARL_v6","SARL_v64ruu9yzc","6109b95a3954ea5afdd7add9","infreqPrac_resp","","","img/blue_2bandit_b.png","68","img/blue_2bandit_b.png","68","prac","","","","","","","","","","","","","","","","","","","",""
"null","108436","SARL_v6","SARL_v64ruu9yzc","6109b95a3954ea5afdd7add9","fixation","","","img/fixation.png","null","","","prac","","","","","","","","","","","","","","","","","","","",""
"367.30000001192093","108811","SARL_v6","SARL_v64ruu9yzc","6109b95a3954ea5afdd7add9","freqPrac","","","img/orange_2bandit_b2.png","70","img/orange_2bandit_b2.png","70","prac","1","2","","","","","","","","","","","","","","","","","",""
"367.30000001192093","109256","SARL_v6","SARL_v64ruu9yzc","6109b95a3954ea5afdd7add9","freqPrac_resp","","","img/orange_2bandit_b.png","70","img/orange_2bandit_b.png","70","prac","","","","","","","","","","","","","","","","","","","",""
"null","109416","SARL_v6","SARL_v64ruu9yzc","6109b95a3954ea5afdd7add9","fixation","","","img/fixation.png","null","","","prac","","","","","","","","","","","","","","","","","","","",""
"456.5","109879","SARL_v6","SARL_v64ruu9yzc","6109b95a3954ea5afdd7add9","freqPrac","","","img/orange_2bandit_b2.png","70","img/orange_2bandit_b2.png","70","prac","1","2","","","","","","","","","","","","","","","","","",""
"456.5","110233","SARL_v6","SARL_v64ruu9yzc","6109b95a3954ea5afdd7add9","freqPrac_resp","","","img/orange_2bandit_b.png","70","img/orange_2bandit_b.png","70","prac","","","","","","","","","","","","","","","","","","","",""
"null","110391","SARL_v6","SARL_v64ruu9yzc","6109b95a3954ea5afdd7add9","fixation","","","img/fixation.png","null","","","prac","","","","","","","","","","","","","","","","","","","",""
"53180","163575","SARL_v6","SARL_v64ruu9yzc","6109b95a3954ea5afdd7add9","","","","","","","","prac","","","","","","","","","","","","","","","","","","","",""
"527.3000000119209","164109","SARL_v6","SARL_v64ruu9yzc","6109b95a3954ea5afdd7add9","rlPractice","","","img/black_2bandit_b2.png","74","img/black_2bandit_b2.png","","prac","","","0","","","","","","","","","","","","","","","","",""
"null","164875","SARL_v6","SARL_v64ruu9yzc","6109b95a3954ea5afdd7add9","feedback","","","<div class=""veryhighPoints""> 10 </div>","null","","na","prac","","","1","10","-14","10","","","","","","","","","","","","","",""
"null","165037","SARL_v6","SARL_v64ruu9yzc","6109b95a3954ea5afdd7add9","fixation","","","img/fixation.png","null","","","prac","","","","","","","","","","","","","","","","","","","",""
"722.3000000119209","165766","SARL_v6","SARL_v64ruu9yzc","6109b95a3954ea5afdd7add9","rlPractice","","","img/black_2bandit_b2.png","75","img/black_2bandit_b2.png","","prac","","","1","","","","","","","","","","","","","","","","",""
"null","166530","SARL_v6","SARL_v64ruu9yzc","6109b95a3954ea5afdd7add9","feedback","","","<div class=""verylowPoints_sq""> -5 </div>","null","","na","prac","","","2","5","-5","5","","","","","","","","","","","","","",""
"null","166695","SARL_v6","SARL_v64ruu9yzc","6109b95a3954ea5afdd7add9","fixation","","","img/fixation.png","null","","","prac","","","","","","","","","","","","","","","","","","","",""
"256.30000001192093","166957","SARL_v6","SARL_v64ruu9yzc","6109b95a3954ea5afdd7add9","rlPractice","","","img/black_2bandit_b2.png","74","img/black_2bandit_b2.png","","prac","","","2","","","","","","","","","","","","","","","","",""
"null","167720","SARL_v6","SARL_v64ruu9yzc","6109b95a3954ea5afdd7add9","feedback","","","<div class=""veryhighPoints""> 30 </div>","null","","na","prac","","","3","30","2","30","","","","","","","","","","","","","",""
"null","167890","SARL_v6","SARL_v64ruu9yzc","6109b95a3954ea5afdd7add9","fixation","","","img/fixation.png","null","","","prac","","","","","","","","","","","","","","","","","","","",""
"372.09999999403954","168269","SARL_v6","SARL_v64ruu9yzc","6109b95a3954ea5afdd7add9","rlPractice","","","img/black_2bandit_b2.png","74","img/black_2bandit_b2.png","","prac","","","3","","","","","","","","","","","","","","","","",""
"null","169032","SARL_v6","SARL_v64ruu9yzc","6109b95a3954ea5afdd7add9","feedback","","","<div class=""verylowPoints""> -2 </div>","null","","na","prac","","","4","-2","20","-2","","","","","","","","","","","","","",""
"null","169200","SARL_v6","SARL_v64ruu9yzc","6109b95a3954ea5afdd7add9","fixation","","","img/fixation.png","null","","","prac","","","","","","","","","","","","","","","","","","","",""
"20228.69999998808","189435","SARL_v6","SARL_v64ruu9yzc","6109b95a3954ea5afdd7add9","","","","","","","","prac","","","","","","","","","","","","","","","","","","","",""
"624.0999999940395","190066","SARL_v6","SARL_v64ruu9yzc","6109b95a3954ea5afdd7add9","mixAttFreqPrac","","","img/orange_2bandit_b2.png","70","img/orange_2bandit_b2.png","70","prac","","","1","","","","","","","","","","","","","","","","",""
"624.0999999940395","190257","SARL_v6","SARL_v64ruu9yzc","6109b95a3954ea5afdd7add9","freqPrac_resp","","","img/orange_2bandit_b.png","70","img/orange_2bandit_b.png","70","prac","","","1","","","","","","","","","","","","","","","","",""
"null","190425","SARL_v6","SARL_v64ruu9yzc","6109b95a3954ea5afdd7add9","fixation","","","img/fixation.png","null","","","prac","","","","","","","","","","","","","","","","","","","",""
"523.8000000119209","190955","SARL_v6","SARL_v64ruu9yzc","6109b95a3954ea5afdd7add9","mixAttInfreqPrac","","","img/blue_2bandit_b2.png","68","img/blue_2bandit_b2.png","68","prac","","","2","","","","","","","","","","","","","","","","",""
"523.8000000119209","191250","SARL_v6","SARL_v64ruu9yzc","6109b95a3954ea5afdd7add9","infreqPrac_resp","","","img/blue_2bandit_b.png","68","img/orange_2bandit_b.png","68","prac","","","2","","","","","","","","","","","","","","","","",""
"null","191417","SARL_v6","SARL_v64ruu9yzc","6109b95a3954ea5afdd7add9","fixation","","","img/fixation.png","null","","","prac","","","","","","","","","","","","","","","","","","","",""
"535.7000000178814","191959","SARL_v6","SARL_v64ruu9yzc","6109b95a3954ea5afdd7add9","mixAttInfreqPrac","","","img/blue_2bandit_b2.png","68","img/blue_2bandit_b2.png","68","prac","","","3","","","","","","","","","","","","","","","","",""
"535.7000000178814","192237","SARL_v6","SARL_v64ruu9yzc","6109b95a3954ea5afdd7add9","infreqPrac_resp","","","img/blue_2bandit_b.png","68","img/orange_2bandit_b.png","68","prac","","","3","","","","","","","","","","","","","","","","",""
"null","192397","SARL_v6","SARL_v64ruu9yzc","6109b95a3954ea5afdd7add9","fixation","","","img/fixation.png","null","","","prac","","","","","","","","","","","","","","","","","","","",""
"385.40000000596046","192789","SARL_v6","SARL_v64ruu9yzc","6109b95a3954ea5afdd7add9","mixAttInfreqPrac","","","img/blue_2bandit_b2.png","68","img/blue_2bandit_b2.png","68","prac","","","4","","","","","","","","","","","","","","","","",""
"385.40000000596046","193217","SARL_v6","SARL_v64ruu9yzc","6109b95a3954ea5afdd7add9","infreqPrac_resp","","","img/blue_2bandit_b.png","68","img/orange_2bandit_b.png","68","prac","","","4","","","","","","","","","","","","","","","","",""
"null","193385","SARL_v6","SARL_v64ruu9yzc","6109b95a3954ea5afdd7add9","fixation","","","img/fixation.png","null","","","prac","","","","","","","","","","","","","","","","","","","",""
"458.40000000596046","193850","SARL_v6","SARL_v64ruu9yzc","6109b95a3954ea5afdd7add9","mixAttFreqPrac","","","img/orange_2bandit_b2.png","70","img/orange_2bandit_b2.png","70","prac","","","5","","","","","","","","","","","","","","","","",""
"458.40000000596046","194209","SARL_v6","SARL_v64ruu9yzc","6109b95a3954ea5afdd7add9","freqPrac_resp","","","img/orange_2bandit_b.png","70","img/orange_2bandit_b.png","70","prac","","","5","","","","","","","","","","","","","","","","",""
"null","194375","SARL_v6","SARL_v64ruu9yzc","6109b95a3954ea5afdd7add9","fixation","","","img/fixation.png","null","","","prac","","","","","","","","","","","","","","","","","","","",""
"669.2000000178814","195052","SARL_v6","SARL_v64ruu9yzc","6109b95a3954ea5afdd7add9","mixRLPractice","","","img/black_2bandit_b2.png","75","img/black_2bandit_b2.png","","prac","","","5","","","","","","","","","","","","","","","","",""
"null","195816","SARL_v6","SARL_v64ruu9yzc","6109b95a3954ea5afdd7add9","feedback","","","<div class=""veryhighPoints_sq""> 10 </div>","null","","na","prac","","","6","-14","10","-14","","","","","","","","","","","","","",""
"null","195982","SARL_v6","SARL_v64ruu9yzc","6109b95a3954ea5afdd7add9","fixation","","","img/fixation.png","null","","","prac","","","","","","","","","","","","","","","","","","","",""
"793.9000000059605","196782","SARL_v6","SARL_v64ruu9yzc","6109b95a3954ea5afdd7add9","mixAttFreqPrac","","","img/orange_2bandit_b2.png","70","img/orange_2bandit_b2.png","70","prac","","","7","","","","","","","","","","","","","","","","",""
"793.9000000059605","196797","SARL_v6","SARL_v64ruu9yzc","6109b95a3954ea5afdd7add9","freqPrac_resp","","","img/orange_2bandit_b.png","70","img/orange_2bandit_b.png","70","prac","","","7","","","","","","","","","","","","","","","","",""
"null","196960","SARL_v6","SARL_v64ruu9yzc","6109b95a3954ea5afdd7add9","fixation","","","img/fixation.png","null","","","prac","","","","","","","","","","","","","","","","","","","",""
"485.40000000596046","197448","SARL_v6","SARL_v64ruu9yzc","6109b95a3954ea5afdd7add9","mixAttInfreqPrac","","","img/blue_2bandit_b2.png","68","img/blue_2bandit_b2.png","68","prac","","","8","","","","","","","","","","","","","","","","",""
"485.40000000596046","197777","SARL_v6","SARL_v64ruu9yzc","6109b95a3954ea5afdd7add9","infreqPrac_resp","","","img/blue_2bandit_b.png","68","img/orange_2bandit_b.png","68","prac","","","8","","","","","","","","","","","","","","","","",""
"null","197945","SARL_v6","SARL_v64ruu9yzc","6109b95a3954ea5afdd7add9","fixation","","","img/fixation.png","null","","","prac","","","","","","","","","","","","","","","","","","","",""
"484.80000001192093","198438","SARL_v6","SARL_v64ruu9yzc","6109b95a3954ea5afdd7add9","mixAttFreqPrac","","","img/orange_2bandit_b2.png","70","img/orange_2bandit_b2.png","70","prac","","","9","","","","","","","","","","","","","","","","",""
"484.80000001192093","198769","SARL_v6","SARL_v64ruu9yzc","6109b95a3954ea5afdd7add9","freqPrac_resp","","","img/orange_2bandit_b.png","70","img/orange_2bandit_b.png","70","prac","","","9","","","","","","","","","","","","","","","","",""
"null","198937","SARL_v6","SARL_v64ruu9yzc","6109b95a3954ea5afdd7add9","fixation","","","img/fixation.png","null","","","prac","","","","","","","","","","","","","","","","","","","",""
"442.09999999403954","199386","SARL_v6","SARL_v64ruu9yzc","6109b95a3954ea5afdd7add9","mixAttFreqPrac","","","img/orange_2bandit_b2.png","70","img/orange_2bandit_b2.png","70","prac","","","10","","","","","","","","","","","","","","","","",""
"442.09999999403954","199757","SARL_v6","SARL_v64ruu9yzc","6109b95a3954ea5afdd7add9","freqPrac_resp","","","img/orange_2bandit_b.png","70","img/orange_2bandit_b.png","70","prac","","","10","","","","","","","","","","","","","","","","",""
"null","199918","SARL_v6","SARL_v64ruu9yzc","6109b95a3954ea5afdd7add9","fixation","","","img/fixation.png","null","","","prac","","","","","","","","","","","","","","","","","","","",""
"588.6999999880791","200513","SARL_v6","SARL_v64ruu9yzc","6109b95a3954ea5afdd7add9","mixAttInfreqPrac","","","img/blue_2bandit_b2.png","68","img/blue_2bandit_b2.png","68","prac","","","11","","","","","","","","","","","","","","","","",""
"588.6999999880791","200733","SARL_v6","SARL_v64ruu9yzc","6109b95a3954ea5afdd7add9","infreqPrac_resp","","","img/blue_2bandit_b.png","68","img/orange_2bandit_b.png","68","prac","","","11","","","","","","","","","","","","","","","","",""
"null","200897","SARL_v6","SARL_v64ruu9yzc","6109b95a3954ea5afdd7add9","fixation","","","img/fixation.png","null","","","prac","","","","","","","","","","","","","","","","","","","",""
"596.2999999821186","201500","SARL_v6","SARL_v64ruu9yzc","6109b95a3954ea5afdd7add9","mixRLPractice","","","img/black_2bandit_b2.png","75","img/black_2bandit_b2.png","","prac","","","11","","","","","","","","","","","","","","","","",""
"null","202266","SARL_v6","SARL_v64ruu9yzc","6109b95a3954ea5afdd7add9","feedback","","","<div class=""verylowPoints_sq""> -5 </div>","null","","na","prac","","","12","5","-5","5","","","","","","","","","","","","","",""
"null","202433","SARL_v6","SARL_v64ruu9yzc","6109b95a3954ea5afdd7add9","fixation","","","img/fixation.png","null","","","prac","","","","","","","","","","","","","","","","","","","",""
"19986.40000000596","222425","SARL_v6","SARL_v64ruu9yzc","6109b95a3954ea5afdd7add9","","","","","","","","prac","","","","","","","","","","","","","","","","","","","",""
"548.5999999940395","222981","SARL_v6","SARL_v64ruu9yzc","6109b95a3954ea5afdd7add9","freq","","","img/orange_2bandit_b2.png","70","","70","test","1","","1","","","","circle","square","1","1","1","1","","","","","","","",""
"null","223249","SARL_v6","SARL_v64ruu9yzc","6109b95a3954ea5afdd7add9","freq_resp","","","img/orange_2bandit_b.png","70","img/orange_2bandit_b.png","70","test","","","","","","","","","","","1","","","","","","","","",""
"null","223416","SARL_v6","SARL_v64ruu9yzc","6109b95a3954ea5afdd7add9","fixation","","","img/fixation.png","null","","","test","","","","","","","","","","","","","","","","","","","",""
"301.30000001192093","223724","SARL_v6","SARL_v64ruu9yzc","6109b95a3954ea5afdd7add9","freq","","","img/orange_2bandit_b2.png","70","","70","test","1","","2","","","","circle","square","2","2","1","1","","","","","","","",""
"null","224232","SARL_v6","SARL_v64ruu9yzc","6109b95a3954ea5afdd7add9","freq_resp","","","img/orange_2bandit_b.png","70","img/orange_2bandit_b.png","70","test","","","","","","","","","","","1","","","","","","","","",""
"null","224396","SARL_v6","SARL_v64ruu9yzc","6109b95a3954ea5afdd7add9","fixation","","","img/fixation.png","null","","","test","","","","","","","","","","","","","","","","","","","",""
"364.69999998807907","224768","SARL_v6","SARL_v64ruu9yzc","6109b95a3954ea5afdd7add9","freq","","","img/orange_2bandit_b2.png","70","","70","test","1","","3","","","","circle","square","3","3","1","1","","","","","","","",""
"null","225216","SARL_v6","SARL_v64ruu9yzc","6109b95a3954ea5afdd7add9","freq_resp","","","img/orange_2bandit_b.png","70","img/orange_2bandit_b.png","70","test","","","","","","","","","","","1","","","","","","","","",""
"null","225381","SARL_v6","SARL_v64ruu9yzc","6109b95a3954ea5afdd7add9","fixation","","","img/fixation.png","null","","","test","","","","","","","","","","","","","","","","","","","",""
"332","225719","SARL_v6","SARL_v64ruu9yzc","6109b95a3954ea5afdd7add9","freq","","","img/orange_2bandit_b2.png","70","","70","test","1","","4","","","","circle","square","4","4","1","1","","","","","","","",""
"null","226196","SARL_v6","SARL_v64ruu9yzc","6109b95a3954ea5afdd7add9","freq_resp","","","img/orange_2bandit_b.png","70","img/orange_2bandit_b.png","70","test","","","","","","","","","","","1","","","","","","","","",""
"null","226359","SARL_v6","SARL_v64ruu9yzc","6109b95a3954ea5afdd7add9","fixation","","","img/fixation.png","null","","","test","","","","","","","","","","","","","","","","","","","",""
"416.89999997615814","226783","SARL_v6","SARL_v64ruu9yzc","6109b95a3954ea5afdd7add9","infreq","","","img/blue_2bandit_b2.png","68","","68","test","1","","5","","","","circle","square","5","5","1","1","","","","","","","",""
"null","227184","SARL_v6","SARL_v64ruu9yzc","6109b95a3954ea5afdd7add9","infreq_resp","","","img/blue_2bandit_b.png","68","img/blue_2bandit_b.png","68","test","","","","","","","","","","","1","","","","","","","","",""
"null","227351","SARL_v6","SARL_v64ruu9yzc","6109b95a3954ea5afdd7add9","fixation","","","img/fixation.png","null","","","test","","","","","","","","","","","","","","","","","","","",""
"468.69999998807907","227826","SARL_v6","SARL_v64ruu9yzc","6109b95a3954ea5afdd7add9","freq","","","img/orange_2bandit_b2.png","70","","70","test","1","","6","","","","circle","square","6","6","1","1","","","","","","","",""
"null","228176","SARL_v6","SARL_v64ruu9yzc","6109b95a3954ea5afdd7add9","freq_resp","","","img/orange_2bandit_b.png","70","img/orange_2bandit_b.png","70","test","","","","","","","","","","","1","","","","","","","","",""
"null","228336","SARL_v6","SARL_v64ruu9yzc","6109b95a3954ea5afdd7add9","fixation","","","img/fixation.png","null","","","test","","","","","","","","","","","","","","","","","","","",""
"336.90000000596046","228679","SARL_v6","SARL_v64ruu9yzc","6109b95a3954ea5afdd7add9","freq","","","img/orange_2bandit_b2.png","70","","70","test","1","","7","","","","circle","square","7","7","1","1","","","","","","","",""
"null","229156","SARL_v6","SARL_v64ruu9yzc","6109b95a3954ea5afdd7add9","freq_resp","","","img/orange_2bandit_b.png","70","img/orange_2bandit_b.png","70","test","","","","","","","","","","","1","","","","","","","","",""
"null","229320","SARL_v6","SARL_v64ruu9yzc","6109b95a3954ea5afdd7add9","fixation","","","img/fixation.png","null","","","test","","","","","","","","","","","","","","","","","","","",""
"353.10000002384186","229681","SARL_v6","SARL_v64ruu9yzc","6109b95a3954ea5afdd7add9","freq","","","img/orange_2bandit_b2.png","70","","70","test","1","","8","","","","circle","square","8","8","1","1","","","","","","","",""
"null","230145","SARL_v6","SARL_v64ruu9yzc","6109b95a3954ea5afdd7add9","freq_resp","","","img/orange_2bandit_b.png","70","img/orange_2bandit_b.png","70","test","","","","","","","","","","","1","","","","","","","","",""
"null","230312","SARL_v6","SARL_v64ruu9yzc","6109b95a3954ea5afdd7add9","fixation","","","img/fixation.png","null","","","test","","","","","","","","","","","","","","","","","","","",""
"377.39999997615814","230698","SARL_v6","SARL_v64ruu9yzc","6109b95a3954ea5afdd7add9","freq","","","img/orange_2bandit_b2.png","70","","70","test","1","","9","","","","circle","square","9","9","1","1","","","","","","","",""
"null","231136","SARL_v6","SARL_v64ruu9yzc","6109b95a3954ea5afdd7add9","freq_resp","","","img/orange_2bandit_b.png","70","img/orange_2bandit_b.png","70","test","","","","","","","","","","","1","","","","","","","","",""
"null","231304","SARL_v6","SARL_v64ruu9yzc","6109b95a3954ea5afdd7add9","fixation","","","img/fixation.png","null","","","test","","","","","","","","","","","","","","","","","","","",""
"340.09999999403954","231650","SARL_v6","SARL_v64ruu9yzc","6109b95a3954ea5afdd7add9","freq","","","img/orange_2bandit_b2.png","70","","70","test","1","","10","","","","circle","square","10","10","1","1","","","","","","","",""
"null","232128","SARL_v6","SARL_v64ruu9yzc","6109b95a3954ea5afdd7add9","freq_resp","","","img/orange_2bandit_b.png","70","img/orange_2bandit_b.png","70","test","","","","","","","","","","","1","","","","","","","","",""
"null","232296","SARL_v6","SARL_v64ruu9yzc","6109b95a3954ea5afdd7add9","fixation","","","img/fixation.png","null","","","test","","","","","","","","","","","","","","","","","","","",""
"362.90000000596046","232665","SARL_v6","SARL_v64ruu9yzc","6109b95a3954ea5afdd7add9","freq","","","img/orange_2bandit_b2.png","70","","70","test","1","","11","","","","circle","square","11","11","1","1","","","","","","","",""
"null","233120","SARL_v6","SARL_v64ruu9yzc","6109b95a3954ea5afdd7add9","freq_resp","","","img/orange_2bandit_b.png","70","img/orange_2bandit_b.png","70","test","","","","","","","","","","","1","","","","","","","","",""
"null","233288","SARL_v6","SARL_v64ruu9yzc","6109b95a3954ea5afdd7add9","fixation","","","img/fixation.png","null","","","test","","","","","","","","","","","","","","","","","","","",""
"306.90000000596046","233602","SARL_v6","SARL_v64ruu9yzc","6109b95a3954ea5afdd7add9","freq","","","img/orange_2bandit_b2.png","70","","70","test","1","","12","","","","circle","square","12","12","1","1","","","","","","","",""
"null","234113","SARL_v6","SARL_v64ruu9yzc","6109b95a3954ea5afdd7add9","freq_resp","","","img/orange_2bandit_b.png","70","img/orange_2bandit_b.png","70","test","","","","","","","","","","","1","","","","","","","","",""
"null","234276","SARL_v6","SARL_v64ruu9yzc","6109b95a3954ea5afdd7add9","fixation","","","img/fixation.png","null","","","test","","","","","","","","","","","","","","","","","","","",""
"299.30000001192093","234582","SARL_v6","SARL_v64ruu9yzc","6109b95a3954ea5afdd7add9","freq","","","img/orange_2bandit_b2.png","70","","70","test","1","","13","","","","circle","square","13","13","1","1","","","","","","","",""
"null","235091","SARL_v6","SARL_v64ruu9yzc","6109b95a3954ea5afdd7add9","freq_resp","","","img/orange_2bandit_b.png","70","img/orange_2bandit_b.png","70","test","","","","","","","","","","","1","","","","","","","","",""
"null","235256","SARL_v6","SARL_v64ruu9yzc","6109b95a3954ea5afdd7add9","fixation","","","img/fixation.png","null","","","test","","","","","","","","","","","","","","","","","","","",""
"296.30000001192093","235559","SARL_v6","SARL_v64ruu9yzc","6109b95a3954ea5afdd7add9","freq","","","img/orange_2bandit_b2.png","70","","70","test","1","","14","","","","circle","square","14","14","1","1","","","","","","","",""
"null","236078","SARL_v6","SARL_v64ruu9yzc","6109b95a3954ea5afdd7add9","freq_resp","","","img/orange_2bandit_b.png","70","img/orange_2bandit_b.png","70","test","","","","","","","","","","","1","","","","","","","","",""
"null","236248","SARL_v6","SARL_v64ruu9yzc","6109b95a3954ea5afdd7add9","fixation","","","img/fixation.png","null","","","test","","","","","","","","","","","","","","","","","","","",""
"276.39999997615814","236530","SARL_v6","SARL_v64ruu9yzc","6109b95a3954ea5afdd7add9","freq","","","img/orange_2bandit_b2.png","70","","70","test","1","","15","","","","circle","square","15","15","1","1","","","","","","","",""
"null","237072","SARL_v6","SARL_v64ruu9yzc","6109b95a3954ea5afdd7add9","freq_resp","","","img/orange_2bandit_b.png","70","img/orange_2bandit_b.png","70","test","","","","","","","","","","","1","","","","","","","","",""
"null","237240","SARL_v6","SARL_v64ruu9yzc","6109b95a3954ea5afdd7add9","fixation","","","img/fixation.png","null","","","test","","","","","","","","","","","","","","","","","","","",""
"355.30000001192093","237603","SARL_v6","SARL_v64ruu9yzc","6109b95a3954ea5afdd7add9","freq","","","img/orange_2bandit_b2.png","70","","70","test","1","","16","","","","circle","square","16","16","1","1","","","","","","","",""
"null","238064","SARL_v6","SARL_v64ruu9yzc","6109b95a3954ea5afdd7add9","freq_resp","","","img/orange_2bandit_b.png","70","img/orange_2bandit_b.png","70","test","","","","","","","","","","","1","","","","","","","","",""
"null","238228","SARL_v6","SARL_v64ruu9yzc","6109b95a3954ea5afdd7add9","fixation","","","img/fixation.png","null","","","test","","","","","","","","","","","","","","","","","","","",""
"286.09999999403954","238520","SARL_v6","SARL_v64ruu9yzc","6109b95a3954ea5afdd7add9","infreq","","","img/blue_2bandit_b2.png","70","","68","test","0","","17","","","","circle","square","17","17","1","0.9411764705882353","","","","","","","",""
"null","239045","SARL_v6","SARL_v64ruu9yzc","6109b95a3954ea5afdd7add9","infreq_resp","","","img/blue_2bandit_b.png","70","img/blue_2bandit_b.png","68","test","","","","","","","","","","","1","","","","","","","","",""
"null","239208","SARL_v6","SARL_v64ruu9yzc","6109b95a3954ea5afdd7add9","fixation","","","img/fixation.png","null","","","test","","","","","","","","","","","","","","","","","","","",""
"438.80000001192093","239655","SARL_v6","SARL_v64ruu9yzc","6109b95a3954ea5afdd7add9","freq","","","img/orange_2bandit_b2.png","70","","70","test","1","","18","","","","circle","square","18","18","1","0.9444444444444444","","","","","","","",""
"null","240028","SARL_v6","SARL_v64ruu9yzc","6109b95a3954ea5afdd7add9","freq_resp","","","img/orange_2bandit_b.png","70","img/orange_2bandit_b.png","70","test","","","","","","","","","","","1","","","","","","","","",""
"null","240189","SARL_v6","SARL_v64ruu9yzc","6109b95a3954ea5afdd7add9","fixation","","","img/fixation.png","null","","","test","","","","","","","","","","","","","","","","","","","",""
"365.90000000596046","240563","SARL_v6","SARL_v64ruu9yzc","6109b95a3954ea5afdd7add9","freq","","","img/orange_2bandit_b2.png","70","","70","test","1","","19","","","","circle","square","19","19","1","0.9473684210526315","","","","","","","",""
"null","241016","SARL_v6","SARL_v64ruu9yzc","6109b95a3954ea5afdd7add9","freq_resp","","","img/orange_2bandit_b.png","70","img/orange_2bandit_b.png","70","test","","","","","","","","","","","1","","","","","","","","",""
"null","241184","SARL_v6","SARL_v64ruu9yzc","6109b95a3954ea5afdd7add9","fixation","","","img/fixation.png","null","","","test","","","","","","","","","","","","","","","","","","","",""
"511.90000000596046","241702","SARL_v6","SARL_v64ruu9yzc","6109b95a3954ea5afdd7add9","rl","","","img/black_2bandit_b2.png","75","","0","test","","","20","","","-3","circle","square","","0","1","","75","-3","-3","-3","-3","square","1","0"
"null","242472","SARL_v6","SARL_v64ruu9yzc","6109b95a3954ea5afdd7add9","feedback","","","<div class=""verylowPoints_sq""> -3 </div>","null","","na","test","","","NaN","","","","","","","","1","","75","","","","","","1",""
"599.2000000178814","243077","SARL_v6","SARL_v64ruu9yzc","6109b95a3954ea5afdd7add9","freq","","","img/orange_2bandit_b2.png","70","","70","test","1","","21","","","","circle","square","20","1","2","0.95","","","","","","","",""
"null","243295","SARL_v6","SARL_v64ruu9yzc","6109b95a3954ea5afdd7add9","freq_resp","","","img/orange_2bandit_b.png","70","img/orange_2bandit_b.png","70","test","","","","","","","","","","","2","","","","","","","","",""
"null","243464","SARL_v6","SARL_v64ruu9yzc","6109b95a3954ea5afdd7add9","fixation","","","img/fixation.png","null","","","test","","","","","","","","","","","","","","","","","","","",""
"585.9000000059605","244054","SARL_v6","SARL_v64ruu9yzc","6109b95a3954ea5afdd7add9","freq","","","img/orange_2bandit_b2.png","70","","70","test","1","","22","","","","circle","square","21","2","2","0.9523809523809523","","","","","","","",""
"null","244279","SARL_v6","SARL_v64ruu9yzc","6109b95a3954ea5afdd7add9","freq_resp","","","img/orange_2bandit_b.png","70","img/orange_2bandit_b.png","70","test","","","","","","","","","","","2","","","","","","","","",""
"null","244443","SARL_v6","SARL_v64ruu9yzc","6109b95a3954ea5afdd7add9","fixation","","","img/fixation.png","null","","","test","","","","","","","","","","","","","","","","","","","",""
"385.19999998807907","244835","SARL_v6","SARL_v64ruu9yzc","6109b95a3954ea5afdd7add9","freq","","","img/orange_2bandit_b2.png","70","","70","test","1","","23","","","","circle","square","22","3","2","0.9545454545454546","","","","","","","",""
"null","245259","SARL_v6","SARL_v64ruu9yzc","6109b95a3954ea5afdd7add9","freq_resp","","","img/orange_2bandit_b.png","70","img/orange_2bandit_b.png","70","test","","","","","","","","","","","2","","","","","","","","",""
"null","245421","SARL_v6","SARL_v64ruu9yzc","6109b95a3954ea5afdd7add9","fixation","","","img/fixation.png","null","","","test","","","","","","","","","","","","","","","","","","","",""
"401.69999998807907","245826","SARL_v6","SARL_v64ruu9yzc","6109b95a3954ea5afdd7add9","freq","","","img/orange_2bandit_b2.png","70","","70","test","1","","24","","","","circle","square","23","4","2","0.9565217391304348","","","","","","","",""
"null","246235","SARL_v6","SARL_v64ruu9yzc","6109b95a3954ea5afdd7add9","freq_resp","","","img/orange_2bandit_b.png","70","img/orange_2bandit_b.png","70","test","","","","","","","","","","","2","","","","","","","","",""
"null","246400","SARL_v6","SARL_v64ruu9yzc","6109b95a3954ea5afdd7add9","fixation","","","img/fixation.png","null","","","test","","","","","","","","","","","","","","","","","","","",""
"407.09999999403954","246810","SARL_v6","SARL_v64ruu9yzc","6109b95a3954ea5afdd7add9","freq","","","img/orange_2bandit_b2.png","70","","70","test","1","","25","","","","circle","square","24","5","2","0.9583333333333334","","","","","","","",""
"null","247215","SARL_v6","SARL_v64ruu9yzc","6109b95a3954ea5afdd7add9","freq_resp","","","img/orange_2bandit_b.png","70","img/orange_2bandit_b.png","70","test","","","","","","","","","","","2","","","","","","","","",""
"null","247380","SARL_v6","SARL_v64ruu9yzc","6109b95a3954ea5afdd7add9","fixation","","","img/fixation.png","null","","","test","","","","","","","","","","","","","","","","","","","",""
"351.89999997615814","247739","SARL_v6","SARL_v64ruu9yzc","6109b95a3954ea5afdd7add9","freq","","","img/orange_2bandit_b2.png","70","","70","test","1","","26","","","","circle","square","25","6","2","0.96","","","","","","","",""
"null","248199","SARL_v6","SARL_v64ruu9yzc","6109b95a3954ea5afdd7add9","freq_resp","","","img/orange_2bandit_b.png","70","img/orange_2bandit_b.png","70","test","","","","","","","","","","","2","","","","","","","","",""
"null","248367","SARL_v6","SARL_v64ruu9yzc","6109b95a3954ea5afdd7add9","fixation","","","img/fixation.png","null","","","test","","","","","","","","","","","","","","","","","","","",""
"364.69999998807907","248738","SARL_v6","SARL_v64ruu9yzc","6109b95a3954ea5afdd7add9","freq","","","img/orange_2bandit_b2.png","70","","70","test","1","","27","","","","circle","square","26","7","2","0.9615384615384616","","","","","","","",""
"null","249191","SARL_v6","SARL_v64ruu9yzc","6109b95a3954ea5afdd7add9","freq_resp","","","img/orange_2bandit_b.png","70","img/orange_2bandit_b.png","70","test","","","","","","","","","","","2","","","","","","","","",""
"null","249355","SARL_v6","SARL_v64ruu9yzc","6109b95a3954ea5afdd7add9","fixation","","","img/fixation.png","null","","","test","","","","","","","","","","","","","","","","","","","",""
"360.5","249722","SARL_v6","SARL_v64ruu9yzc","6109b95a3954ea5afdd7add9","freq","","","img/orange_2bandit_b2.png","70","","70","test","1","","28","","","","circle","square","27","8","2","0.9629629629629629","","","","","","","",""
"null","250173","SARL_v6","SARL_v64ruu9yzc","6109b95a3954ea5afdd7add9","freq_resp","","","img/orange_2bandit_b.png","70","img/orange_2bandit_b.png","70","test","","","","","","","","","","","2","","","","","","","","",""
"null","250343","SARL_v6","SARL_v64ruu9yzc","6109b95a3954ea5afdd7add9","fixation","","","img/fixation.png","null","","","test","","","","","","","","","","","","","","","","","","","",""
"312.19999998807907","250663","SARL_v6","SARL_v64ruu9yzc","6109b95a3954ea5afdd7add9","freq","","","img/orange_2bandit_b2.png","70","","70","test","1","","29","","","","circle","square","28","9","2","0.9642857142857143","","","","","","","",""
"null","251167","SARL_v6","SARL_v64ruu9yzc","6109b95a3954ea5afdd7add9","freq_resp","","","img/orange_2bandit_b.png","70","img/orange_2bandit_b.png","70","test","","","","","","","","","","","2","","","","","","","","",""
"null","251331","SARL_v6","SARL_v64ruu9yzc","6109b95a3954ea5afdd7add9","fixation","","","img/fixation.png","null","","","test","","","","","","","","","","","","","","","","","","","",""
"347.40000000596046","251685","SARL_v6","SARL_v64ruu9yzc","6109b95a3954ea5afdd7add9","freq","","","img/orange_2bandit_b2.png","70","","70","test","1","","30","","","","circle","square","29","10","2","0.9655172413793104","","","","","","","",""
"null","252151","SARL_v6","SARL_v64ruu9yzc","6109b95a3954ea5afdd7add9","freq_resp","","","img/orange_2bandit_b.png","70","img/orange_2bandit_b.png","70","test","","","","","","","","","","","2","","","","","","","","",""
"null","252316","SARL_v6","SARL_v64ruu9yzc","6109b95a3954ea5afdd7add9","fixation","","","img/fixation.png","null","","","test","","","","","","","","","","","","","","","","","","","",""
"350.5","252674","SARL_v6","SARL_v64ruu9yzc","6109b95a3954ea5afdd7add9","freq","","","img/orange_2bandit_b2.png","70","","70","test","1","","31","","","","circle","square","30","11","2","0.9666666666666667","","","","","","","",""
"null","253135","SARL_v6","SARL_v64ruu9yzc","6109b95a3954ea5afdd7add9","freq_resp","","","img/orange_2bandit_b.png","70","img/orange_2bandit_b.png","70","test","","","","","","","","","","","2","","","","","","","","",""
"null","253302","SARL_v6","SARL_v64ruu9yzc","6109b95a3954ea5afdd7add9","fixation","","","img/fixation.png","null","","","test","","","","","","","","","","","","","","","","","","","",""
"387.7000000178814","253695","SARL_v6","SARL_v64ruu9yzc","6109b95a3954ea5afdd7add9","freq","","","img/orange_2bandit_b2.png","70","","70","test","1","","32","","","","circle","square","31","12","2","0.967741935483871","","","","","","","",""
"null","254117","SARL_v6","SARL_v64ruu9yzc","6109b95a3954ea5afdd7add9","freq_resp","","","img/orange_2bandit_b.png","70","img/orange_2bandit_b.png","70","test","","","","","","","","","","","2","","","","","","","","",""
"null","254287","SARL_v6","SARL_v64ruu9yzc","6109b95a3954ea5afdd7add9","fixation","","","img/fixation.png","null","","","test","","","","","","","","","","","","","","","","","","","",""
"292.90000000596046","254587","SARL_v6","SARL_v64ruu9yzc","6109b95a3954ea5afdd7add9","freq","","","img/orange_2bandit_b2.png","70","","70","test","1","","33","","","","circle","square","32","13","2","0.96875","","","","","","","",""
"null","255108","SARL_v6","SARL_v64ruu9yzc","6109b95a3954ea5afdd7add9","freq_resp","","","img/orange_2bandit_b.png","70","img/orange_2bandit_b.png","70","test","","","","","","","","","","","2","","","","","","","","",""
"null","255272","SARL_v6","SARL_v64ruu9yzc","6109b95a3954ea5afdd7add9","fixation","","","img/fixation.png","null","","","test","","","","","","","","","","","","","","","","","","","",""
"357.19999998807907","255636","SARL_v6","SARL_v64ruu9yzc","6109b95a3954ea5afdd7add9","freq","","","img/orange_2bandit_b2.png","70","","70","test","1","","34","","","","circle","square","33","14","2","0.9696969696969697","","","","","","","",""
"null","256095","SARL_v6","SARL_v64ruu9yzc","6109b95a3954ea5afdd7add9","freq_resp","","","img/orange_2bandit_b.png","70","img/orange_2bandit_b.png","70","test","","","","","","","","","","","2","","","","","","","","",""
"null","256263","SARL_v6","SARL_v64ruu9yzc","6109b95a3954ea5afdd7add9","fixation","","","img/fixation.png","null","","","test","","","","","","","","","","","","","","","","","","","",""
"464.2000000178814","256735","SARL_v6","SARL_v64ruu9yzc","6109b95a3954ea5afdd7add9","infreq","","","img/blue_2bandit_b2.png","68","","68","test","1","","35","","","","circle","square","34","15","2","0.9705882352941176","","","","","","","",""
"null","257085","SARL_v6","SARL_v64ruu9yzc","6109b95a3954ea5afdd7add9","infreq_resp","","","img/blue_2bandit_b.png","68","img/blue_2bandit_b.png","68","test","","","","","","","","","","","2","","","","","","","","",""
"null","257248","SARL_v6","SARL_v64ruu9yzc","6109b95a3954ea5afdd7add9","fixation","","","img/fixation.png","null","","","test","","","","","","","","","","","","","","","","","","","",""
"681.6999999880791","257938","SARL_v6","SARL_v64ruu9yzc","6109b95a3954ea5afdd7add9","freq","","","img/orange_2bandit_b2.png","70","","70","test","1","","36","","","","circle","square","35","16","2","0.9714285714285714","","","","","","","",""
"null","258071","SARL_v6","SARL_v64ruu9yzc","6109b95a3954ea5afdd7add9","freq_resp","","","img/orange_2bandit_b.png","70","img/orange_2bandit_b.png","70","test","","","","","","","","","","","2","","","","","","","","",""
"null","258237","SARL_v6","SARL_v64ruu9yzc","6109b95a3954ea5afdd7add9","fixation","","","img/fixation.png","null","","","test","","","","","","","","","","","","","","","","","","","",""
"463.30000001192093","258706","SARL_v6","SARL_v64ruu9yzc","6109b95a3954ea5afdd7add9","freq","","","img/orange_2bandit_b2.png","70","","70","test","1","","37","","","","circle","square","36","17","2","0.9722222222222222","","","","","","","",""
"null","259055","SARL_v6","SARL_v64ruu9yzc","6109b95a3954ea5afdd7add9","freq_resp","","","img/orange_2bandit_b.png","70","img/orange_2bandit_b.png","70","test","","","","","","","","","","","2","","","","","","","","",""
"null","259215","SARL_v6","SARL_v64ruu9yzc","6109b95a3954ea5afdd7add9","fixation","","","img/fixation.png","null","","","test","","","","","","","","","","","","","","","","","","","",""
"410.7000000178814","259633","SARL_v6","SARL_v64ruu9yzc","6109b95a3954ea5afdd7add9","freq","","","img/orange_2bandit_b2.png","70","","70","test","1","","38","","","","circle","square","37","18","2","0.972972972972973","","","","","","","",""
"null","260037","SARL_v6","SARL_v64ruu9yzc","6109b95a3954ea5afdd7add9","freq_resp","","","img/orange_2bandit_b.png","70","img/orange_2bandit_b.png","70","test","","","","","","","","","","","2","","","","","","","","",""
"null","260207","SARL_v6","SARL_v64ruu9yzc","6109b95a3954ea5afdd7add9","fixation","","","img/fixation.png","null","","","test","","","","","","","","","","","","","","","","","","","",""
"417.5","260631","SARL_v6","SARL_v64ruu9yzc","6109b95a3954ea5afdd7add9","infreq","","","img/blue_2bandit_b2.png","68","","68","test","1","","39","","","","circle","square","38","19","2","0.9736842105263158","","","","","","","",""
"null","261031","SARL_v6","SARL_v64ruu9yzc","6109b95a3954ea5afdd7add9","infreq_resp","","","img/blue_2bandit_b.png","68","img/blue_2bandit_b.png","68","test","","","","","","","","","","","2","","","","","","","","",""
"null","261199","SARL_v6","SARL_v64ruu9yzc","6109b95a3954ea5afdd7add9","fixation","","","img/fixation.png","null","","","test","","","","","","","","","","","","","","","","","","","",""
"413.09999999403954","261620","SARL_v6","SARL_v64ruu9yzc","6109b95a3954ea5afdd7add9","freq","","","img/orange_2bandit_b2.png","70","","70","test","1","","40","","","","circle","square","39","20","2","0.9743589743589743","","","","","","","",""
"null","262023","SARL_v6","SARL_v64ruu9yzc","6109b95a3954ea5afdd7add9","freq_resp","","","img/orange_2bandit_b.png","70","img/orange_2bandit_b.png","70","test","","","","","","","","","","","2","","","","","","","","",""
"null","262191","SARL_v6","SARL_v64ruu9yzc","6109b95a3954ea5afdd7add9","fixation","","","img/fixation.png","null","","","test","","","","","","","","","","","","","","","","","","","",""
"416","262614","SARL_v6","SARL_v64ruu9yzc","6109b95a3954ea5afdd7add9","freq","","","img/orange_2bandit_b2.png","70","","70","test","1","","41","","","","circle","square","40","21","2","0.975","","","","","","","",""
"null","263015","SARL_v6","SARL_v64ruu9yzc","6109b95a3954ea5afdd7add9","freq_resp","","","img/orange_2bandit_b.png","70","img/orange_2bandit_b.png","70","test","","","","","","","","","","","2","","","","","","","","",""
"null","263182","SARL_v6","SARL_v64ruu9yzc","6109b95a3954ea5afdd7add9","fixation","","","img/fixation.png","null","","","test","","","","","","","","","","","","","","","","","","","",""
"356.69999998807907","263546","SARL_v6","SARL_v64ruu9yzc","6109b95a3954ea5afdd7add9","freq","","","img/orange_2bandit_b2.png","70","","70","test","1","","42","","","","circle","square","41","22","2","0.975609756097561","","","","","","","",""
"null","264007","SARL_v6","SARL_v64ruu9yzc","6109b95a3954ea5afdd7add9","freq_resp","","","img/orange_2bandit_b.png","70","img/orange_2bandit_b.png","70","test","","","","","","","","","","","2","","","","","","","","",""
"null","264174","SARL_v6","SARL_v64ruu9yzc","6109b95a3954ea5afdd7add9","fixation","","","img/fixation.png","null","","","test","","","","","","","","","","","","","","","","","","","",""
"495.59999999403954","264677","SARL_v6","SARL_v64ruu9yzc","6109b95a3954ea5afdd7add9","rl","","","img/black_2bandit_b2.png","75","","0","test","","","43","","","-8","circle","square","","0","2","","75","-5","-8","-5","-8","square","2","0"
"null","265448","SARL_v6","SARL_v64ruu9yzc","6109b95a3954ea5afdd7add9","feedback","","","<div class=""verylowPoints_sq""> -8 </div>","null","","na","test","","","NaN","","","","","","","","2","","75","","","","","","2",""
"505.90000000596046","265963","SARL_v6","SARL_v64ruu9yzc","6109b95a3954ea5afdd7add9","freq","","","img/orange_2bandit_b2.png","70","","70","test","1","","44","","","","circle","square","42","1","3","0.9761904761904762","","","","","","","",""
"null","266269","SARL_v6","SARL_v64ruu9yzc","6109b95a3954ea5afdd7add9","freq_resp","","","img/orange_2bandit_b.png","70","img/orange_2bandit_b.png","70","test","","","","","","","","","","","3","","","","","","","","",""
"null","266431","SARL_v6","SARL_v64ruu9yzc","6109b95a3954ea5afdd7add9","fixation","","","img/fixation.png","null","","","test","","","","","","","","","","","","","","","","","","","",""
"438.80000001192093","266872","SARL_v6","SARL_v64ruu9yzc","6109b95a3954ea5afdd7add9","freq","","","img/orange_2bandit_b2.png","70","","70","test","1","","45","","","","circle","square","43","2","3","0.9767441860465116","","","","","","","",""
"null","267243","SARL_v6","SARL_v64ruu9yzc","6109b95a3954ea5afdd7add9","freq_resp","","","img/orange_2bandit_b.png","70","img/orange_2bandit_b.png","70","test","","","","","","","","","","","3","","","","","","","","",""
"null","267407","SARL_v6","SARL_v64ruu9yzc","6109b95a3954ea5afdd7add9","fixation","","","img/fixation.png","null","","","test","","","","","","","","","","","","","","","","","","","",""
"401.09999999403954","267814","SARL_v6","SARL_v64ruu9yzc","6109b95a3954ea5afdd7add9","freq","","","img/orange_2bandit_b2.png","70","","70","test","1","","46","","","","circle","square","44","3","3","0.9772727272727273","","","","","","","",""
"null","268228","SARL_v6","SARL_v64ruu9yzc","6109b95a3954ea5afdd7add9","freq_resp","","","img/orange_2bandit_b.png","70","img/orange_2bandit_b.png","70","test","","","","","","","","","","","3","","","","","","","","",""
"null","268399","SARL_v6","SARL_v64ruu9yzc","6109b95a3954ea5afdd7add9","fixation","","","img/fixation.png","null","","","test","","","","","","","","","","","","","","","","","","","",""
"365.5","268771","SARL_v6","SARL_v64ruu9yzc","6109b95a3954ea5afdd7add9","freq","","","img/orange_2bandit_b2.png","70","","70","test","1","","47","","","","circle","square","45","4","3","0.9777777777777777","","","","","","","",""
"null","269219","SARL_v6","SARL_v64ruu9yzc","6109b95a3954ea5afdd7add9","freq_resp","","","img/orange_2bandit_b.png","70","img/orange_2bandit_b.png","70","test","","","","","","","","","","","3","","","","","","","","",""
"null","269382","SARL_v6","SARL_v64ruu9yzc","6109b95a3954ea5afdd7add9","fixation","","","img/fixation.png","null","","","test","","","","","","","","","","","","","","","","","","","",""
"335.80000001192093","269724","SARL_v6","SARL_v64ruu9yzc","6109b95a3954ea5afdd7add9","freq","","","img/orange_2bandit_b2.png","70","","70","test","1","","48","","","","circle","square","46","5","3","0.9782608695652174","","","","","","","",""
"null","270207","SARL_v6","SARL_v64ruu9yzc","6109b95a3954ea5afdd7add9","freq_resp","","","img/orange_2bandit_b.png","70","img/orange_2bandit_b.png","70","test","","","","","","","","","","","3","","","","","","","","",""
"null","270370","SARL_v6","SARL_v64ruu9yzc","6109b95a3954ea5afdd7add9","fixation","","","img/fixation.png","null","","","test","","","","","","","","","","","","","","","","","","","",""
"450.19999998807907","270827","SARL_v6","SARL_v64ruu9yzc","6109b95a3954ea5afdd7add9","infreq","","","img/blue_2bandit_b2.png","68","","68","test","1","","49","","","","circle","square","47","6","3","0.9787234042553191","","","","","","","",""
"null","271187","SARL_v6","SARL_v64ruu9yzc","6109b95a3954ea5afdd7add9","infreq_resp","","","img/blue_2bandit_b.png","68","img/blue_2bandit_b.png","68","test","","","","","","","","","","","3","","","","","","","","",""
"null","271348","SARL_v6","SARL_v64ruu9yzc","6109b95a3954ea5afdd7add9","fixation","","","img/fixation.png","null","","","test","","","","","","","","","","","","","","","","","","","",""
"551.4000000059605","271905","SARL_v6","SARL_v64ruu9yzc","6109b95a3954ea5afdd7add9","freq","","","img/orange_2bandit_b2.png","70","","70","test","1","","50","","","","circle","square","48","7","3","0.9791666666666666","","","","","","","",""
"null","272167","SARL_v6","SARL_v64ruu9yzc","6109b95a3954ea5afdd7add9","freq_resp","","","img/orange_2bandit_b.png","70","img/orange_2bandit_b.png","70","test","","","","","","","","","","","3","","","","","","","","",""
"null","272335","SARL_v6","SARL_v64ruu9yzc","6109b95a3954ea5afdd7add9","fixation","","","img/fixation.png","null","","","test","","","","","","","","","","","","","","","","","","","",""
"415.5","272758","SARL_v6","SARL_v64ruu9yzc","6109b95a3954ea5afdd7add9","freq","","","img/orange_2bandit_b2.png","70","","70","test","1","","51","","","","circle","square","49","8","3","0.9795918367346939","","","","","","","",""
"null","273158","SARL_v6","SARL_v64ruu9yzc","6109b95a3954ea5afdd7add9","freq_resp","","","img/orange_2bandit_b.png","70","img/orange_2bandit_b.png","70","test","","","","","","","","","","","3","","","","","","","","",""
"null","273327","SARL_v6","SARL_v64ruu9yzc","6109b95a3954ea5afdd7add9","fixation","","","img/fixation.png","null","","","test","","","","","","","","","","","","","","","","","","","",""
"409.60000002384186","273744","SARL_v6","SARL_v64ruu9yzc","6109b95a3954ea5afdd7add9","freq","","","img/orange_2bandit_b2.png","70","","70","test","1","","52","","","","circle","square","50","9","3","0.98","","","","","","","",""
"null","274151","SARL_v6","SARL_v64ruu9yzc","6109b95a3954ea5afdd7add9","freq_resp","","","img/orange_2bandit_b.png","70","img/orange_2bandit_b.png","70","test","","","","","","","","","","","3","","","","","","","","",""
"null","274315","SARL_v6","SARL_v64ruu9yzc","6109b95a3954ea5afdd7add9","fixation","","","img/fixation.png","null","","","test","","","","","","","","","","","","","","","","","","","",""
"287.59999999403954","274611","SARL_v6","SARL_v64ruu9yzc","6109b95a3954ea5afdd7add9","freq","","","img/orange_2bandit_b2.png","70","","70","test","1","","53","","","","circle","square","51","10","3","0.9803921568627451","","","","","","","",""
"null","275143","SARL_v6","SARL_v64ruu9yzc","6109b95a3954ea5afdd7add9","freq_resp","","","img/orange_2bandit_b.png","70","img/orange_2bandit_b.png","70","test","","","","","","","","","","","3","","","","","","","","",""
"null","275311","SARL_v6","SARL_v64ruu9yzc","6109b95a3954ea5afdd7add9","fixation","","","img/fixation.png","null","","","test","","","","","","","","","","","","","","","","","","","",""
"643.4000000059605","275961","SARL_v6","SARL_v64ruu9yzc","6109b95a3954ea5afdd7add9","freq","","","img/orange_2bandit_b2.png","70","","70","test","1","","54","","","","circle","square","52","11","3","0.9807692307692307","","","","","","","",""
"null","276134","SARL_v6","SARL_v64ruu9yzc","6109b95a3954ea5afdd7add9","freq_resp","","","img/orange_2bandit_b.png","70","img/orange_2bandit_b.png","70","test","","","","","","","","","","","3","","","","","","","","",""
"null","276302","SARL_v6","SARL_v64ruu9yzc","6109b95a3954ea5afdd7add9","fixation","","","img/fixation.png","null","","","test","","","","","","","","","","","","","","","","","","","",""
"424.19999998807907","276732","SARL_v6","SARL_v64ruu9yzc","6109b95a3954ea5afdd7add9","freq","","","img/orange_2bandit_b2.png","70","","70","test","1","","55","","","","circle","square","53","12","3","0.9811320754716981","","","","","","","",""
"null","277122","SARL_v6","SARL_v64ruu9yzc","6109b95a3954ea5afdd7add9","freq_resp","","","img/orange_2bandit_b.png","70","img/orange_2bandit_b.png","70","test","","","","","","","","","","","3","","","","","","","","",""
"null","277286","SARL_v6","SARL_v64ruu9yzc","6109b95a3954ea5afdd7add9","fixation","","","img/fixation.png","null","","","test","","","","","","","","","","","","","","","","","","","",""
"531.4000000059605","277825","SARL_v6","SARL_v64ruu9yzc","6109b95a3954ea5afdd7add9","freq","","","img/orange_2bandit_b2.png","70","","70","test","1","","56","","","","circle","square","54","13","3","0.9814814814814815","","","","","","","",""
"null","278111","SARL_v6","SARL_v64ruu9yzc","6109b95a3954ea5afdd7add9","freq_resp","","","img/orange_2bandit_b.png","70","img/orange_2bandit_b.png","70","test","","","","","","","","","","","3","","","","","","","","",""
"null","278274","SARL_v6","SARL_v64ruu9yzc","6109b95a3954ea5afdd7add9","fixation","","","img/fixation.png","null","","","test","","","","","","","","","","","","","","","","","","","",""
"436.90000000596046","278718","SARL_v6","SARL_v64ruu9yzc","6109b95a3954ea5afdd7add9","freq","","","img/orange_2bandit_b2.png","70","","70","test","1","","57","","","","circle","square","55","14","3","0.9818181818181818","","","","","","","",""
"null","279094","SARL_v6","SARL_v64ruu9yzc","6109b95a3954ea5afdd7add9","freq_resp","","","img/orange_2bandit_b.png","70","img/orange_2bandit_b.png","70","test","","","","","","","","","","","3","","","","","","","","",""
"null","279262","SARL_v6","SARL_v64ruu9yzc","6109b95a3954ea5afdd7add9","fixation","","","img/fixation.png","null","","","test","","","","","","","","","","","","","","","","","","","",""
"403.40000000596046","279671","SARL_v6","SARL_v64ruu9yzc","6109b95a3954ea5afdd7add9","freq","","","img/orange_2bandit_b2.png","70","","70","test","1","","58","","","","circle","square","56","15","3","0.9821428571428571","","","","","","","",""
"null","280086","SARL_v6","SARL_v64ruu9yzc","6109b95a3954ea5afdd7add9","freq_resp","","","img/orange_2bandit_b.png","70","img/orange_2bandit_b.png","70","test","","","","","","","","","","","3","","","","","","","","",""
"null","280254","SARL_v6","SARL_v64ruu9yzc","6109b95a3954ea5afdd7add9","fixation","","","img/fixation.png","null","","","test","","","","","","","","","","","","","","","","","","","",""
"318.40000000596046","280578","SARL_v6","SARL_v64ruu9yzc","6109b95a3954ea5afdd7add9","freq","","","img/orange_2bandit_b2.png","70","","70","test","1","","59","","","","circle","square","57","16","3","0.9824561403508771","","","","","","","",""
"null","281074","SARL_v6","SARL_v64ruu9yzc","6109b95a3954ea5afdd7add9","freq_resp","","","img/orange_2bandit_b.png","70","img/orange_2bandit_b.png","70","test","","","","","","","","","","","3","","","","","","","","",""
"null","281238","SARL_v6","SARL_v64ruu9yzc","6109b95a3954ea5afdd7add9","fixation","","","img/fixation.png","null","","","test","","","","","","","","","","","","","","","","","","","",""
"432","281676","SARL_v6","SARL_v64ruu9yzc","6109b95a3954ea5afdd7add9","freq","","","img/orange_2bandit_b2.png","70","","70","test","1","","60","","","","circle","square","58","17","3","0.9827586206896551","","","","","","","",""
"null","282062","SARL_v6","SARL_v64ruu9yzc","6109b95a3954ea5afdd7add9","freq_resp","","","img/orange_2bandit_b.png","70","img/orange_2bandit_b.png","70","test","","","","","","","","","","","3","","","","","","","","",""
"null","282226","SARL_v6","SARL_v64ruu9yzc","6109b95a3954ea5afdd7add9","fixation","","","img/fixation.png","null","","","test","","","","","","","","","","","","","","","","","","","",""
"384.19999998807907","282616","SARL_v6","SARL_v64ruu9yzc","6109b95a3954ea5afdd7add9","freq","","","img/orange_2bandit_b2.png","70","","70","test","1","","61","","","","circle","square","59","18","3","0.9830508474576272","","","","","","","",""
"null","283044","SARL_v6","SARL_v64ruu9yzc","6109b95a3954ea5afdd7add9","freq_resp","","","img/orange_2bandit_b.png","70","img/orange_2bandit_b.png","70","test","","","","","","","","","","","3","","","","","","","","",""
"null","283208","SARL_v6","SARL_v64ruu9yzc","6109b95a3954ea5afdd7add9","fixation","","","img/fixation.png","null","","","test","","","","","","","","","","","","","","","","","","","",""
"580.2000000178814","283796","SARL_v6","SARL_v64ruu9yzc","6109b95a3954ea5afdd7add9","freq","","","img/orange_2bandit_b2.png","70","","70","test","1","","62","","","","circle","square","60","19","3","0.9833333333333333","","","","","","","",""
"null","284021","SARL_v6","SARL_v64ruu9yzc","6109b95a3954ea5afdd7add9","freq_resp","","","img/orange_2bandit_b.png","70","img/orange_2bandit_b.png","70","test","","","","","","","","","","","3","","","","","","","","",""
"null","284186","SARL_v6","SARL_v64ruu9yzc","6109b95a3954ea5afdd7add9","fixation","","","img/fixation.png","null","","","test","","","","","","","","","","","","","","","","","","","",""
"541.9000000059605","284735","SARL_v6","SARL_v64ruu9yzc","6109b95a3954ea5afdd7add9","infreq","","","img/blue_2bandit_b2.png","68","","68","test","1","","63","","","","circle","square","61","20","3","0.9836065573770492","","","","","","","",""
"null","285011","SARL_v6","SARL_v64ruu9yzc","6109b95a3954ea5afdd7add9","infreq_resp","","","img/blue_2bandit_b.png","68","img/blue_2bandit_b.png","68","test","","","","","","","","","","","3","","","","","","","","",""
"null","285179","SARL_v6","SARL_v64ruu9yzc","6109b95a3954ea5afdd7add9","fixation","","","img/fixation.png","null","","","test","","","","","","","","","","","","","","","","","","","",""
"472","285659","SARL_v6","SARL_v64ruu9yzc","6109b95a3954ea5afdd7add9","freq","","","img/orange_2bandit_b2.png","70","","70","test","1","","64","","","","circle","square","62","21","3","0.9838709677419355","","","","","","","",""
"null","286001","SARL_v6","SARL_v64ruu9yzc","6109b95a3954ea5afdd7add9","freq_resp","","","img/orange_2bandit_b.png","70","img/orange_2bandit_b.png","70","test","","","","","","","","","","","3","","","","","","","","",""
"null","286165","SARL_v6","SARL_v64ruu9yzc","6109b95a3954ea5afdd7add9","fixation","","","img/fixation.png","null","","","test","","","","","","","","","","","","","","","","","","","",""
"366.59999999403954","286534","SARL_v6","SARL_v64ruu9yzc","6109b95a3954ea5afdd7add9","freq","","","img/orange_2bandit_b2.png","70","","70","test","1","","65","","","","circle","square","63","22","3","0.9841269841269841","","","","","","","",""
"null","286980","SARL_v6","SARL_v64ruu9yzc","6109b95a3954ea5afdd7add9","freq_resp","","","img/orange_2bandit_b.png","70","img/orange_2bandit_b.png","70","test","","","","","","","","","","","3","","","","","","","","",""
"null","287142","SARL_v6","SARL_v64ruu9yzc","6109b95a3954ea5afdd7add9","fixation","","","img/fixation.png","null","","","test","","","","","","","","","","","","","","","","","","","",""
"563.5","287712","SARL_v6","SARL_v64ruu9yzc","6109b95a3954ea5afdd7add9","rl","","","img/black_2bandit_b2.png","75","","0","test","","","66","","","-8","circle","square","","0","3","","75","-4","-8","-4","-8","square","3","0"
"null","288480","SARL_v6","SARL_v64ruu9yzc","6109b95a3954ea5afdd7add9","feedback","","","<div class=""verylowPoints_sq""> -8 </div>","null","","na","test","","","NaN","","","","","","","","3","","75","","","","","","3",""
"537.0999999940395","289025","SARL_v6","SARL_v64ruu9yzc","6109b95a3954ea5afdd7add9","freq","","","img/orange_2bandit_b2.png","70","","70","test","1","","67","","","","circle","square","64","1","4","0.984375","","","","","","","",""
"null","289305","SARL_v6","SARL_v64ruu9yzc","6109b95a3954ea5afdd7add9","freq_resp","","","img/orange_2bandit_b.png","70","img/orange_2bandit_b.png","70","test","","","","","","","","","","","4","","","","","","","","",""
"null","289469","SARL_v6","SARL_v64ruu9yzc","6109b95a3954ea5afdd7add9","fixation","","","img/fixation.png","null","","","test","","","","","","","","","","","","","","","","","","","",""
"299.39999997615814","289775","SARL_v6","SARL_v64ruu9yzc","6109b95a3954ea5afdd7add9","freq","","","img/orange_2bandit_b2.png","70","","70","test","1","","68","","","","circle","square","65","2","4","0.9846153846153847","","","","","","","",""
"null","290286","SARL_v6","SARL_v64ruu9yzc","6109b95a3954ea5afdd7add9","freq_resp","","","img/orange_2bandit_b.png","70","img/orange_2bandit_b.png","70","test","","","","","","","","","","","4","","","","","","","","",""
"null","290448","SARL_v6","SARL_v64ruu9yzc","6109b95a3954ea5afdd7add9","fixation","","","img/fixation.png","null","","","test","","","","","","","","","","","","","","","","","","","",""
"223.30000001192093","290680","SARL_v6","SARL_v64ruu9yzc","6109b95a3954ea5afdd7add9","freq","","","img/orange_2bandit_b2.png","70","","70","test","1","","69","","","","circle","square","66","3","4","0.9848484848484849","","","","","","","",""
"null","291271","SARL_v6","SARL_v64ruu9yzc","6109b95a3954ea5afdd7add9","freq_resp","","","img/orange_2bandit_b.png","70","img/orange_2bandit_b.png","70","test","","","","","","","","","","","4","","","","","","","","",""
"null","291436","SARL_v6","SARL_v64ruu9yzc","6109b95a3954ea5afdd7add9","fixation","","","img/fixation.png","null","","","test","","","","","","","","","","","","","","","","","","","",""
"364.69999998807907","291807","SARL_v6","SARL_v64ruu9yzc","6109b95a3954ea5afdd7add9","freq","","","img/orange_2bandit_b2.png","70","","70","test","1","","70","","","","circle","square","67","4","4","0.9850746268656716","","","","","","","",""
"null","292256","SARL_v6","SARL_v64ruu9yzc","6109b95a3954ea5afdd7add9","freq_resp","","","img/orange_2bandit_b.png","70","img/orange_2bandit_b.png","70","test","","","","","","","","","","","4","","","","","","","","",""
"null","292417","SARL_v6","SARL_v64ruu9yzc","6109b95a3954ea5afdd7add9","fixation","","","img/fixation.png","null","","","test","","","","","","","","","","","","","","","","","","","",""
"368.2000000178814","292793","SARL_v6","SARL_v64ruu9yzc","6109b95a3954ea5afdd7add9","freq","","","img/orange_2bandit_b2.png","70","","70","test","1","","71","","","","circle","square","68","5","4","0.9852941176470589","","","","","","","",""
"null","293237","SARL_v6","SARL_v64ruu9yzc","6109b95a3954ea5afdd7add9","freq_resp","","","img/orange_2bandit_b.png","70","img/orange_2bandit_b.png","70","test","","","","","","","","","","","4","","","","","","","","",""
"null","293405","SARL_v6","SARL_v64ruu9yzc","6109b95a3954ea5afdd7add9","fixation","","","img/fixation.png","null","","","test","","","","","","","","","","","","","","","","","","","",""
"356.40000000596046","293767","SARL_v6","SARL_v64ruu9yzc","6109b95a3954ea5afdd7add9","freq","","","img/orange_2bandit_b2.png","70","","70","test","1","","72","","","","circle","square","69","6","4","0.9855072463768116","","","","","","","",""
"null","294222","SARL_v6","SARL_v64ruu9yzc","6109b95a3954ea5afdd7add9","freq_resp","","","img/orange_2bandit_b.png","70","img/orange_2bandit_b.png","70","test","","","","","","","","","","","4","","","","","","","","",""
"null","294390","SARL_v6","SARL_v64ruu9yzc","6109b95a3954ea5afdd7add9","fixation","","","img/fixation.png","null","","","test","","","","","","","","","","","","","","","","","","","",""
"338.69999998807907","294736","SARL_v6","SARL_v64ruu9yzc","6109b95a3954ea5afdd7add9","freq","","","img/orange_2bandit_b2.png","70","","70","test","1","","73","","","","circle","square","70","7","4","0.9857142857142858","","","","","","","",""
"null","295215","SARL_v6","SARL_v64ruu9yzc","6109b95a3954ea5afdd7add9","freq_resp","","","img/orange_2bandit_b.png","70","img/orange_2bandit_b.png","70","test","","","","","","","","","","","4","","","","","","","","",""
"null","295384","SARL_v6","SARL_v64ruu9yzc","6109b95a3954ea5afdd7add9","fixation","","","img/fixation.png","null","","","test","","","","","","","","","","","","","","","","","","","",""
"341.80000001192093","295732","SARL_v6","SARL_v64ruu9yzc","6109b95a3954ea5afdd7add9","freq","","","img/orange_2bandit_b2.png","70","","70","test","1","","74","","","","circle","square","71","8","4","0.9859154929577465","","","","","","","",""
"null","296206","SARL_v6","SARL_v64ruu9yzc","6109b95a3954ea5afdd7add9","freq_resp","","","img/orange_2bandit_b.png","70","img/orange_2bandit_b.png","70","test","","","","","","","","","","","4","","","","","","","","",""
"null","296371","SARL_v6","SARL_v64ruu9yzc","6109b95a3954ea5afdd7add9","fixation","","","img/fixation.png","null","","","test","","","","","","","","","","","","","","","","","","","",""
"286.2000000178814","296665","SARL_v6","SARL_v64ruu9yzc","6109b95a3954ea5afdd7add9","freq","","","img/orange_2bandit_b2.png","70","","70","test","1","","75","","","","circle","square","72","9","4","0.9861111111111112","","","","","","","",""
"null","297188","SARL_v6","SARL_v64ruu9yzc","6109b95a3954ea5afdd7add9","freq_resp","","","img/orange_2bandit_b.png","70","img/orange_2bandit_b.png","70","test","","","","","","","","","","","4","","","","","","","","",""
"null","297353","SARL_v6","SARL_v64ruu9yzc","6109b95a3954ea5afdd7add9","fixation","","","img/fixation.png","null","","","test","","","","","","","","","","","","","","","","","","","",""
"289.90000000596046","297650","SARL_v6","SARL_v64ruu9yzc","6109b95a3954ea5afdd7add9","freq","","","img/orange_2bandit_b2.png","70","","70","test","1","","76","","","","circle","square","73","10","4","0.9863013698630136","","","","","","","",""
"null","298176","SARL_v6","SARL_v64ruu9yzc","6109b95a3954ea5afdd7add9","freq_resp","","","img/orange_2bandit_b.png","70","img/orange_2bandit_b.png","70","test","","","","","","","","","","","4","","","","","","","","",""
"null","298346","SARL_v6","SARL_v64ruu9yzc","6109b95a3954ea5afdd7add9","fixation","","","img/fixation.png","null","","","test","","","","","","","","","","","","","","","","","","","",""
"328.2000000178814","298680","SARL_v6","SARL_v64ruu9yzc","6109b95a3954ea5afdd7add9","freq","","","img/orange_2bandit_b2.png","70","","70","test","1","","77","","","","circle","square","74","11","4","0.9864864864864865","","","","","","","",""
"null","299170","SARL_v6","SARL_v64ruu9yzc","6109b95a3954ea5afdd7add9","freq_resp","","","img/orange_2bandit_b.png","70","img/orange_2bandit_b.png","70","test","","","","","","","","","","","4","","","","","","","","",""
"null","299338","SARL_v6","SARL_v64ruu9yzc","6109b95a3954ea5afdd7add9","fixation","","","img/fixation.png","null","","","test","","","","","","","","","","","","","","","","","","","",""
"317.2000000178814","299662","SARL_v6","SARL_v64ruu9yzc","6109b95a3954ea5afdd7add9","freq","","","img/orange_2bandit_b2.png","70","","70","test","1","","78","","","","circle","square","75","12","4","0.9866666666666667","","","","","","","",""
"null","300163","SARL_v6","SARL_v64ruu9yzc","6109b95a3954ea5afdd7add9","freq_resp","","","img/orange_2bandit_b.png","70","img/orange_2bandit_b.png","70","test","","","","","","","","","","","4","","","","","","","","",""
"null","300327","SARL_v6","SARL_v64ruu9yzc","6109b95a3954ea5afdd7add9","fixation","","","img/fixation.png","null","","","test","","","","","","","","","","","","","","","","","","","",""
"401.59999999403954","300737","SARL_v6","SARL_v64ruu9yzc","6109b95a3954ea5afdd7add9","freq","","","img/orange_2bandit_b2.png","70","","70","test","1","","79","","","","circle","square","76","13","4","0.9868421052631579","","","","","","","",""
"null","301148","SARL_v6","SARL_v64ruu9yzc","6109b95a3954ea5afdd7add9","freq_resp","","","img/orange_2bandit_b.png","70","img/orange_2bandit_b.png","70","test","","","","","","","","","","","4","","","","","","","","",""
"null","301315","SARL_v6","SARL_v64ruu9yzc","6109b95a3954ea5afdd7add9","fixation","","","img/fixation.png","null","","","test","","","","","","","","","","","","","","","","","","","",""
"366.39999997615814","301687","SARL_v6","SARL_v64ruu9yzc","6109b95a3954ea5afdd7add9","freq","","","img/orange_2bandit_b2.png","70","","70","test","1","","80","","","","circle","square","77","14","4","0.987012987012987","","","","","","","",""
"null","302140","SARL_v6","SARL_v64ruu9yzc","6109b95a3954ea5afdd7add9","freq_resp","","","img/orange_2bandit_b.png","70","img/orange_2bandit_b.png","70","test","","","","","","","","","","","4","","","","","","","","",""
"null","302307","SARL_v6","SARL_v64ruu9yzc","6109b95a3954ea5afdd7add9","fixation","","","img/fixation.png","null","","","test","","","","","","","","","","","","","","","","","","","",""
"472.7000000178814","302786","SARL_v6","SARL_v64ruu9yzc","6109b95a3954ea5afdd7add9","freq","","","img/orange_2bandit_b2.png","70","","70","test","1","","81","","","","circle","square","78","15","4","0.9871794871794872","","","","","","","",""
"null","303132","SARL_v6","SARL_v64ruu9yzc","6109b95a3954ea5afdd7add9","freq_resp","","","img/orange_2bandit_b.png","70","img/orange_2bandit_b.png","70","test","","","","","","","","","","","4","","","","","","","","",""
"null","303293","SARL_v6","SARL_v64ruu9yzc","6109b95a3954ea5afdd7add9","fixation","","","img/fixation.png","null","","","test","","","","","","","","","","","","","","","","","","","",""
"511.09999999403954","303811","SARL_v6","SARL_v64ruu9yzc","6109b95a3954ea5afdd7add9","infreq","","","img/blue_2bandit_b2.png","68","","68","test","1","","82","","","","circle","square","79","16","4","0.9873417721518988","","","","","","","",""
"null","304112","SARL_v6","SARL_v64ruu9yzc","6109b95a3954ea5afdd7add9","infreq_resp","","","img/blue_2bandit_b.png","68","img/blue_2bandit_b.png","68","test","","","","","","","","","","","4","","","","","","","","",""
"null","304273","SARL_v6","SARL_v64ruu9yzc","6109b95a3954ea5afdd7add9","fixation","","","img/fixation.png","null","","","test","","","","","","","","","","","","","","","","","","","",""
"472","304752","SARL_v6","SARL_v64ruu9yzc","6109b95a3954ea5afdd7add9","freq","","","img/orange_2bandit_b2.png","70","","70","test","1","","83","","","","circle","square","80","17","4","0.9875","","","","","","","",""
"null","305092","SARL_v6","SARL_v64ruu9yzc","6109b95a3954ea5afdd7add9","freq_resp","","","img/orange_2bandit_b.png","70","img/orange_2bandit_b.png","70","test","","","","","","","","","","","4","","","","","","","","",""
"null","305262","SARL_v6","SARL_v64ruu9yzc","6109b95a3954ea5afdd7add9","fixation","","","img/fixation.png","null","","","test","","","","","","","","","","","","","","","","","","","",""
"441.7000000178814","305710","SARL_v6","SARL_v64ruu9yzc","6109b95a3954ea5afdd7add9","infreq","","","img/blue_2bandit_b2.png","68","","68","test","1","","84","","","","circle","square","81","18","4","0.9876543209876543","","","","","","","",""
"null","306086","SARL_v6","SARL_v64ruu9yzc","6109b95a3954ea5afdd7add9","infreq_resp","","","img/blue_2bandit_b.png","68","img/blue_2bandit_b.png","68","test","","","","","","","","","","","4","","","","","","","","",""
"null","306249","SARL_v6","SARL_v64ruu9yzc","6109b95a3954ea5afdd7add9","fixation","","","img/fixation.png","null","","","test","","","","","","","","","","","","","","","","","","","",""
"410.80000001192093","306667","SARL_v6","SARL_v64ruu9yzc","6109b95a3954ea5afdd7add9","freq","","","img/orange_2bandit_b2.png","68","","70","test","0","","85","","","","circle","square","82","19","4","0.975609756097561","","","","","","","",""
"null","307070","SARL_v6","SARL_v64ruu9yzc","6109b95a3954ea5afdd7add9","freq_resp","","","img/orange_2bandit_b.png","68","img/orange_2bandit_b.png","70","test","","","","","","","","","","","4","","","","","","","","",""
"null","307238","SARL_v6","SARL_v64ruu9yzc","6109b95a3954ea5afdd7add9","fixation","","","img/fixation.png","null","","","test","","","","","","","","","","","","","","","","","","","",""
"503.39999997615814","307749","SARL_v6","SARL_v64ruu9yzc","6109b95a3954ea5afdd7add9","freq","","","img/orange_2bandit_b2.png","70","","70","test","1","","86","","","","circle","square","83","20","4","0.9759036144578314","","","","","","","",""
"null","308062","SARL_v6","SARL_v64ruu9yzc","6109b95a3954ea5afdd7add9","freq_resp","","","img/orange_2bandit_b.png","70","img/orange_2bandit_b.png","70","test","","","","","","","","","","","4","","","","","","","","",""
"null","308230","SARL_v6","SARL_v64ruu9yzc","6109b95a3954ea5afdd7add9","fixation","","","img/fixation.png","null","","","test","","","","","","","","","","","","","","","","","","","",""
"392.40000000596046","308630","SARL_v6","SARL_v64ruu9yzc","6109b95a3954ea5afdd7add9","freq","","","img/orange_2bandit_b2.png","70","","70","test","1","","87","","","","circle","square","84","21","4","0.9761904761904762","","","","","","","",""
"null","309055","SARL_v6","SARL_v64ruu9yzc","6109b95a3954ea5afdd7add9","freq_resp","","","img/orange_2bandit_b.png","70","img/orange_2bandit_b.png","70","test","","","","","","","","","","","4","","","","","","","","",""
"null","309219","SARL_v6","SARL_v64ruu9yzc","6109b95a3954ea5afdd7add9","fixation","","","img/fixation.png","null","","","test","","","","","","","","","","","","","","","","","","","",""
"552.7000000178814","309778","SARL_v6","SARL_v64ruu9yzc","6109b95a3954ea5afdd7add9","rl","","","img/black_2bandit_b2.png","74","","0","test","","","88","","","0","circle","square","","0","4","","74","0","-12","0","-12","circle","4","0"
"null","310543","SARL_v6","SARL_v64ruu9yzc","6109b95a3954ea5afdd7add9","feedback","","","<div class=""verylowPoints""> 0 </div>","null","","na","test","","","NaN","","","","","","","","4","","74","","","","","","4",""
"555.0999999940395","311105","SARL_v6","SARL_v64ruu9yzc","6109b95a3954ea5afdd7add9","freq","","","img/orange_2bandit_b2.png","70","","70","test","1","","89","","","","circle","square","85","1","5","0.9764705882352941","","","","","","","",""
"null","311367","SARL_v6","SARL_v64ruu9yzc","6109b95a3954ea5afdd7add9","freq_resp","","","img/orange_2bandit_b.png","70","img/orange_2bandit_b.png","70","test","","","","","","","","","","","5","","","","","","","","",""
"null","311531","SARL_v6","SARL_v64ruu9yzc","6109b95a3954ea5afdd7add9","fixation","","","img/fixation.png","null","","","test","","","","","","","","","","","","","","","","","","","",""
"290.7000000178814","311829","SARL_v6","SARL_v64ruu9yzc","6109b95a3954ea5afdd7add9","freq","","","img/orange_2bandit_b2.png","70","","70","test","1","","90","","","","circle","square","86","2","5","0.9767441860465116","","","","","","","",""
"null","312349","SARL_v6","SARL_v64ruu9yzc","6109b95a3954ea5afdd7add9","freq_resp","","","img/orange_2bandit_b.png","70","img/orange_2bandit_b.png","70","test","","","","","","","","","","","5","","","","","","","","",""
"null","312510","SARL_v6","SARL_v64ruu9yzc","6109b95a3954ea5afdd7add9","fixation","","","img/fixation.png","null","","","test","","","","","","","","","","","","","","","","","","","",""
"153.89999997615814","312666","SARL_v6","SARL_v64ruu9yzc","6109b95a3954ea5afdd7add9","freq","","","img/orange_2bandit_b2.png","70","","70","test","1","","91","","","","circle","square","87","3","5","0.9770114942528736","","","","","","","",""
"null","313328","SARL_v6","SARL_v64ruu9yzc","6109b95a3954ea5afdd7add9","freq_resp","","","img/orange_2bandit_b.png","70","img/orange_2bandit_b.png","70","test","","","","","","","","","","","5","","","","","","","","",""
"null","313492","SARL_v6","SARL_v64ruu9yzc","6109b95a3954ea5afdd7add9","fixation","","","img/fixation.png","null","","","test","","","","","","","","","","","","","","","","","","","",""
"181.7999999821186","313680","SARL_v6","SARL_v64ruu9yzc","6109b95a3954ea5afdd7add9","freq","","","img/orange_2bandit_b2.png","70","","70","test","1","","92","","","","circle","square","88","4","5","0.9772727272727273","","","","","","","",""
"null","314312","SARL_v6","SARL_v64ruu9yzc","6109b95a3954ea5afdd7add9","freq_resp","","","img/orange_2bandit_b.png","70","img/orange_2bandit_b.png","70","test","","","","","","","","","","","5","","","","","","","","",""
"null","314477","SARL_v6","SARL_v64ruu9yzc","6109b95a3954ea5afdd7add9","fixation","","","img/fixation.png","null","","","test","","","","","","","","","","","","","","","","","","","",""
"144.2999999821186","314628","SARL_v6","SARL_v64ruu9yzc","6109b95a3954ea5afdd7add9","freq","","","img/orange_2bandit_b2.png","70","","70","test","1","","93","","","","circle","square","89","5","5","0.9775280898876404","","","","","","","",""
"null","315297","SARL_v6","SARL_v64ruu9yzc","6109b95a3954ea5afdd7add9","freq_resp","","","img/orange_2bandit_b.png","70","img/orange_2bandit_b.png","70","test","","","","","","","","","","","5","","","","","","","","",""
"null","315465","SARL_v6","SARL_v64ruu9yzc","6109b95a3954ea5afdd7add9","fixation","","","img/fixation.png","null","","","test","","","","","","","","","","","","","","","","","","","",""
"227","315698","SARL_v6","SARL_v64ruu9yzc","6109b95a3954ea5afdd7add9","infreq","","","img/blue_2bandit_b2.png","70","","68","test","0","","94","","","","circle","square","90","6","5","0.9666666666666667","","","","","","","",""
"null","316288","SARL_v6","SARL_v64ruu9yzc","6109b95a3954ea5afdd7add9","infreq_resp","","","img/blue_2bandit_b.png","70","img/blue_2bandit_b.png","68","test","","","","","","","","","","","5","","","","","","","","",""
"null","316453","SARL_v6","SARL_v64ruu9yzc","6109b95a3954ea5afdd7add9","fixation","","","img/fixation.png","null","","","test","","","","","","","","","","","","","","","","","","","",""
"428.2999999821186","316889","SARL_v6","SARL_v64ruu9yzc","6109b95a3954ea5afdd7add9","freq","","","img/orange_2bandit_b2.png","70","","70","test","1","","95","","","","circle","square","91","7","5","0.967032967032967","","","","","","","",""
"null","317271","SARL_v6","SARL_v64ruu9yzc","6109b95a3954ea5afdd7add9","freq_resp","","","img/orange_2bandit_b.png","70","img/orange_2bandit_b.png","70","test","","","","","","","","","","","5","","","","","","","","",""
"null","317441","SARL_v6","SARL_v64ruu9yzc","6109b95a3954ea5afdd7add9","fixation","","","img/fixation.png","null","","","test","","","","","","","","","","","","","","","","","","","",""
"413.5","317863","SARL_v6","SARL_v64ruu9yzc","6109b95a3954ea5afdd7add9","freq","","","img/orange_2bandit_b2.png","70","","70","test","1","","96","","","","circle","square","92","8","5","0.967391304347826","","","","","","","",""
"null","318265","SARL_v6","SARL_v64ruu9yzc","6109b95a3954ea5afdd7add9","freq_resp","","","img/orange_2bandit_b.png","70","img/orange_2bandit_b.png","70","test","","","","","","","","","","","5","","","","","","","","",""
"null","318430","SARL_v6","SARL_v64ruu9yzc","6109b95a3954ea5afdd7add9","fixation","","","img/fixation.png","null","","","test","","","","","","","","","","","","","","","","","","","",""
"466.59999999403954","318904","SARL_v6","SARL_v64ruu9yzc","6109b95a3954ea5afdd7add9","freq","","","img/orange_2bandit_b2.png","70","","70","test","1","","97","","","","circle","square","93","9","5","0.967741935483871","","","","","","","",""
"null","319256","SARL_v6","SARL_v64ruu9yzc","6109b95a3954ea5afdd7add9","freq_resp","","","img/orange_2bandit_b.png","70","img/orange_2bandit_b.png","70","test","","","","","","","","","","","5","","","","","","","","",""
"null","319422","SARL_v6","SARL_v64ruu9yzc","6109b95a3954ea5afdd7add9","fixation","","","img/fixation.png","null","","","test","","","","","","","","","","","","","","","","","","","",""
"363.7999999821186","319794","SARL_v6","SARL_v64ruu9yzc","6109b95a3954ea5afdd7add9","freq","","","img/orange_2bandit_b2.png","70","","70","test","1","","98","","","","circle","square","94","10","5","0.9680851063829787","","","","","","","",""
"null","320249","SARL_v6","SARL_v64ruu9yzc","6109b95a3954ea5afdd7add9","freq_resp","","","img/orange_2bandit_b.png","70","img/orange_2bandit_b.png","70","test","","","","","","","","","","","5","","","","","","","","",""
"null","320417","SARL_v6","SARL_v64ruu9yzc","6109b95a3954ea5afdd7add9","fixation","","","img/fixation.png","null","","","test","","","","","","","","","","","","","","","","","","","",""
"515.5","320939","SARL_v6","SARL_v64ruu9yzc","6109b95a3954ea5afdd7add9","freq","","","img/orange_2bandit_b2.png","70","","70","test","1","","99","","","","circle","square","95","11","5","0.968421052631579","","","","","","","",""
"null","321237","SARL_v6","SARL_v64ruu9yzc","6109b95a3954ea5afdd7add9","freq_resp","","","img/orange_2bandit_b.png","70","img/orange_2bandit_b.png","70","test","","","","","","","","","","","5","","","","","","","","",""
"null","321400","SARL_v6","SARL_v64ruu9yzc","6109b95a3954ea5afdd7add9","fixation","","","img/fixation.png","null","","","test","","","","","","","","","","","","","","","","","","","",""
"487.7999999821186","321890","SARL_v6","SARL_v64ruu9yzc","6109b95a3954ea5afdd7add9","freq","","","img/orange_2bandit_b2.png","70","","70","test","1","","100","","","","circle","square","96","12","5","0.96875","","","","","","","",""
"null","322216","SARL_v6","SARL_v64ruu9yzc","6109b95a3954ea5afdd7add9","freq_resp","","","img/orange_2bandit_b.png","70","img/orange_2bandit_b.png","70","test","","","","","","","","","","","5","","","","","","","","",""
"null","322381","SARL_v6","SARL_v64ruu9yzc","6109b95a3954ea5afdd7add9","fixation","","","img/fixation.png","null","","","test","","","","","","","","","","","","","","","","","","","",""
"410.39999997615814","322799","SARL_v6","SARL_v64ruu9yzc","6109b95a3954ea5afdd7add9","freq","","","img/orange_2bandit_b2.png","70","","70","test","1","","101","","","","circle","square","97","13","5","0.9690721649484536","","","","","","","",""
"null","323202","SARL_v6","SARL_v64ruu9yzc","6109b95a3954ea5afdd7add9","freq_resp","","","img/orange_2bandit_b.png","70","img/orange_2bandit_b.png","70","test","","","","","","","","","","","5","","","","","","","","",""
"null","323370","SARL_v6","SARL_v64ruu9yzc","6109b95a3954ea5afdd7add9","fixation","","","img/fixation.png","null","","","test","","","","","","","","","","","","","","","","","","","",""
"425.30000001192093","323801","SARL_v6","SARL_v64ruu9yzc","6109b95a3954ea5afdd7add9","freq","","","img/orange_2bandit_b2.png","70","","70","test","1","","102","","","","circle","square","98","14","5","0.9693877551020408","","","","","","","",""
"null","324190","SARL_v6","SARL_v64ruu9yzc","6109b95a3954ea5afdd7add9","freq_resp","","","img/orange_2bandit_b.png","70","img/orange_2bandit_b.png","70","test","","","","","","","","","","","5","","","","","","","","",""
"null","324350","SARL_v6","SARL_v64ruu9yzc","6109b95a3954ea5afdd7add9","fixation","","","img/fixation.png","null","","","test","","","","","","","","","","","","","","","","","","","",""
"442.2000000178814","324798","SARL_v6","SARL_v64ruu9yzc","6109b95a3954ea5afdd7add9","infreq","","","img/blue_2bandit_b2.png","68","","68","test","1","","103","","","","circle","square","99","15","5","0.9696969696969697","","","","","","","",""
"null","325165","SARL_v6","SARL_v64ruu9yzc","6109b95a3954ea5afdd7add9","infreq_resp","","","img/blue_2bandit_b.png","68","img/blue_2bandit_b.png","68","test","","","","","","","","","","","5","","","","","","","","",""
"null","325330","SARL_v6","SARL_v64ruu9yzc","6109b95a3954ea5afdd7add9","fixation","","","img/fixation.png","null","","","test","","","","","","","","","","","","","","","","","","","",""
"512.9000000059605","325851","SARL_v6","SARL_v64ruu9yzc","6109b95a3954ea5afdd7add9","freq","","","img/orange_2bandit_b2.png","70","","70","test","1","","104","","","","circle","square","100","16","5","0.97","","","","","","","",""
"null","326154","SARL_v6","SARL_v64ruu9yzc","6109b95a3954ea5afdd7add9","freq_resp","","","img/orange_2bandit_b.png","70","img/orange_2bandit_b.png","70","test","","","","","","","","","","","5","","","","","","","","",""
"null","326322","SARL_v6","SARL_v64ruu9yzc","6109b95a3954ea5afdd7add9","fixation","","","img/fixation.png","null","","","test","","","","","","","","","","","","","","","","","","","",""
"449.80000001192093","326778","SARL_v6","SARL_v64ruu9yzc","6109b95a3954ea5afdd7add9","freq","","","img/orange_2bandit_b2.png","70","","70","test","1","","105","","","","circle","square","101","17","5","0.9702970297029703","","","","","","","",""
"null","327145","SARL_v6","SARL_v64ruu9yzc","6109b95a3954ea5afdd7add9","freq_resp","","","img/orange_2bandit_b.png","70","img/orange_2bandit_b.png","70","test","","","","","","","","","","","5","","","","","","","","",""
"null","327309","SARL_v6","SARL_v64ruu9yzc","6109b95a3954ea5afdd7add9","fixation","","","img/fixation.png","null","","","test","","","","","","","","","","","","","","","","","","","",""
"542.5","327859","SARL_v6","SARL_v64ruu9yzc","6109b95a3954ea5afdd7add9","freq","","","img/orange_2bandit_b2.png","70","","70","test","1","","106","","","","circle","square","102","18","5","0.9705882352941176","","","","","","","",""
"null","328127","SARL_v6","SARL_v64ruu9yzc","6109b95a3954ea5afdd7add9","freq_resp","","","img/orange_2bandit_b.png","70","img/orange_2bandit_b.png","70","test","","","","","","","","","","","5","","","","","","","","",""
"null","328289","SARL_v6","SARL_v64ruu9yzc","6109b95a3954ea5afdd7add9","fixation","","","img/fixation.png","null","","","test","","","","","","","","","","","","","","","","","","","",""
"568.8999999761581","328863","SARL_v6","SARL_v64ruu9yzc","6109b95a3954ea5afdd7add9","freq","","","img/orange_2bandit_b2.png","70","","70","test","1","","107","","","","circle","square","103","19","5","0.970873786407767","","","","","","","",""
"null","329104","SARL_v6","SARL_v64ruu9yzc","6109b95a3954ea5afdd7add9","freq_resp","","","img/orange_2bandit_b.png","70","img/orange_2bandit_b.png","70","test","","","","","","","","","","","5","","","","","","","","",""
"null","329274","SARL_v6","SARL_v64ruu9yzc","6109b95a3954ea5afdd7add9","fixation","","","img/fixation.png","null","","","test","","","","","","","","","","","","","","","","","","","",""
"422.7999999821186","329704","SARL_v6","SARL_v64ruu9yzc","6109b95a3954ea5afdd7add9","freq","","","img/orange_2bandit_b2.png","70","","70","test","1","","108","","","","circle","square","104","20","5","0.9711538461538461","","","","","","","",""
"null","330098","SARL_v6","SARL_v64ruu9yzc","6109b95a3954ea5afdd7add9","freq_resp","","","img/orange_2bandit_b.png","70","img/orange_2bandit_b.png","70","test","","","","","","","","","","","5","","","","","","","","",""
"null","330266","SARL_v6","SARL_v64ruu9yzc","6109b95a3954ea5afdd7add9","fixation","","","img/fixation.png","null","","","test","","","","","","","","","","","","","","","","","","","",""
"952.6999999880791","331227","SARL_v6","SARL_v64ruu9yzc","6109b95a3954ea5afdd7add9","rl","","","img/black_2bandit_b2.png","74","","0","test","","","109","","","4","circle","square","","0","5","","74","4","-7","4","-7","circle","5","0"
"null","331995","SARL_v6","SARL_v64ruu9yzc","6109b95a3954ea5afdd7add9","feedback","","","<div class=""veryhighPoints""> 4 </div>","null","","na","test","","","NaN","","","","","","","","5","","74","","","","","","5",""
"538.8999999761581","332542","SARL_v6","SARL_v64ruu9yzc","6109b95a3954ea5afdd7add9","freq","","","img/orange_2bandit_b2.png","70","","70","test","1","","110","","","","circle","square","105","1","6","0.9714285714285714","","","","","","","",""
"null","332815","SARL_v6","SARL_v64ruu9yzc","6109b95a3954ea5afdd7add9","freq_resp","","","img/orange_2bandit_b.png","70","img/orange_2bandit_b.png","70","test","","","","","","","","","","","6","","","","","","","","",""
"null","332979","SARL_v6","SARL_v64ruu9yzc","6109b95a3954ea5afdd7add9","fixation","","","img/fixation.png","null","","","test","","","","","","","","","","","","","","","","","","","",""
"673.0999999940395","333658","SARL_v6","SARL_v64ruu9yzc","6109b95a3954ea5afdd7add9","infreq","","","img/blue_2bandit_b2.png","68","","68","test","1","","111","","","","circle","square","106","2","6","0.9716981132075472","","","","","","","",""
"null","333799","SARL_v6","SARL_v64ruu9yzc","6109b95a3954ea5afdd7add9","infreq_resp","","","img/blue_2bandit_b.png","68","img/blue_2bandit_b.png","68","test","","","","","","","","","","","6","","","","","","","","",""
"null","333962","SARL_v6","SARL_v64ruu9yzc","6109b95a3954ea5afdd7add9","fixation","","","img/fixation.png","null","","","test","","","","","","","","","","","","","","","","","","","",""
"521.3999999761581","334490","SARL_v6","SARL_v64ruu9yzc","6109b95a3954ea5afdd7add9","freq","","","img/orange_2bandit_b2.png","70","","70","test","1","","112","","","","circle","square","107","3","6","0.9719626168224299","","","","","","","",""
"null","334786","SARL_v6","SARL_v64ruu9yzc","6109b95a3954ea5afdd7add9","freq_resp","","","img/orange_2bandit_b.png","70","img/orange_2bandit_b.png","70","test","","","","","","","","","","","6","","","","","","","","",""
"null","334951","SARL_v6","SARL_v64ruu9yzc","6109b95a3954ea5afdd7add9","fixation","","","img/fixation.png","null","","","test","","","","","","","","","","","","","","","","","","","",""
"513.7999999821186","335472","SARL_v6","SARL_v64ruu9yzc","6109b95a3954ea5afdd7add9","freq","","","img/orange_2bandit_b2.png","70","","70","test","1","","113","","","","circle","square","108","4","6","0.9722222222222222","","","","","","","",""
"null","335780","SARL_v6","SARL_v64ruu9yzc","6109b95a3954ea5afdd7add9","freq_resp","","","img/orange_2bandit_b.png","70","img/orange_2bandit_b.png","70","test","","","","","","","","","","","6","","","","","","","","",""
"null","335947","SARL_v6","SARL_v64ruu9yzc","6109b95a3954ea5afdd7add9","fixation","","","img/fixation.png","null","","","test","","","","","","","","","","","","","","","","","","","",""
"462.60000002384186","336416","SARL_v6","SARL_v64ruu9yzc","6109b95a3954ea5afdd7add9","freq","","","img/orange_2bandit_b2.png","70","","70","test","1","","114","","","","circle","square","109","5","6","0.9724770642201835","","","","","","","",""
"null","336770","SARL_v6","SARL_v64ruu9yzc","6109b95a3954ea5afdd7add9","freq_resp","","","img/orange_2bandit_b.png","70","img/orange_2bandit_b.png","70","test","","","","","","","","","","","6","","","","","","","","",""
"null","336932","SARL_v6","SARL_v64ruu9yzc","6109b95a3954ea5afdd7add9","fixation","","","img/fixation.png","null","","","test","","","","","","","","","","","","","","","","","","","",""
"391.40000000596046","337330","SARL_v6","SARL_v64ruu9yzc","6109b95a3954ea5afdd7add9","freq","","","img/orange_2bandit_b2.png","70","","70","test","1","","115","","","","circle","square","110","6","6","0.9727272727272728","","","","","","","",""
"null","337755","SARL_v6","SARL_v64ruu9yzc","6109b95a3954ea5afdd7add9","freq_resp","","","img/orange_2bandit_b.png","70","img/orange_2bandit_b.png","70","test","","","","","","","","","","","6","","","","","","","","",""
"null","337923","SARL_v6","SARL_v64ruu9yzc","6109b95a3954ea5afdd7add9","fixation","","","img/fixation.png","null","","","test","","","","","","","","","","","","","","","","","","","",""
"448","338379","SARL_v6","SARL_v64ruu9yzc","6109b95a3954ea5afdd7add9","freq","","","img/orange_2bandit_b2.png","70","","70","test","1","","116","","","","circle","square","111","7","6","0.972972972972973","","","","","","","",""
"null","338742","SARL_v6","SARL_v64ruu9yzc","6109b95a3954ea5afdd7add9","freq_resp","","","img/orange_2bandit_b.png","70","img/orange_2bandit_b.png","70","test","","","","","","","","","","","6","","","","","","","","",""
"null","338906","SARL_v6","SARL_v64ruu9yzc","6109b95a3954ea5afdd7add9","fixation","","","img/fixation.png","null","","","test","","","","","","","","","","","","","","","","","","","",""
"359.30000001192093","339273","SARL_v6","SARL_v64ruu9yzc","6109b95a3954ea5afdd7add9","freq","","","img/orange_2bandit_b2.png","70","","70","test","1","","117","","","","circle","square","112","8","6","0.9732142857142857","","","","","","","",""
"null","339731","SARL_v6","SARL_v64ruu9yzc","6109b95a3954ea5afdd7add9","freq_resp","","","img/orange_2bandit_b.png","70","img/orange_2bandit_b.png","70","test","","","","","","","","","","","6","","","","","","","","",""
"null","339894","SARL_v6","SARL_v64ruu9yzc","6109b95a3954ea5afdd7add9","fixation","","","img/fixation.png","null","","","test","","","","","","","","","","","","","","","","","","","",""
"325","340227","SARL_v6","SARL_v64ruu9yzc","6109b95a3954ea5afdd7add9","freq","","","img/orange_2bandit_b2.png","70","","70","test","1","","118","","","","circle","square","113","9","6","0.9734513274336283","","","","","","","",""
"null","340714","SARL_v6","SARL_v64ruu9yzc","6109b95a3954ea5afdd7add9","freq_resp","","","img/orange_2bandit_b.png","70","img/orange_2bandit_b.png","70","test","","","","","","","","","","","6","","","","","","","","",""
"null","340879","SARL_v6","SARL_v64ruu9yzc","6109b95a3954ea5afdd7add9","fixation","","","img/fixation.png","null","","","test","","","","","","","","","","","","","","","","","","","",""
"413.19999998807907","341298","SARL_v6","SARL_v64ruu9yzc","6109b95a3954ea5afdd7add9","freq","","","img/orange_2bandit_b2.png","70","","70","test","1","","119","","","","circle","square","114","10","6","0.9736842105263158","","","","","","","",""
"null","341698","SARL_v6","SARL_v64ruu9yzc","6109b95a3954ea5afdd7add9","freq_resp","","","img/orange_2bandit_b.png","70","img/orange_2bandit_b.png","70","test","","","","","","","","","","","6","","","","","","","","",""
"null","341863","SARL_v6","SARL_v64ruu9yzc","6109b95a3954ea5afdd7add9","fixation","","","img/fixation.png","null","","","test","","","","","","","","","","","","","","","","","","","",""
"398.30000001192093","342268","SARL_v6","SARL_v64ruu9yzc","6109b95a3954ea5afdd7add9","freq","","","img/orange_2bandit_b2.png","70","","70","test","1","","120","","","","circle","square","115","11","6","0.9739130434782609","","","","","","","",""
"null","342680","SARL_v6","SARL_v64ruu9yzc","6109b95a3954ea5afdd7add9","freq_resp","","","img/orange_2bandit_b.png","70","img/orange_2bandit_b.png","70","test","","","","","","","","","","","6","","","","","","","","",""
"null","342843","SARL_v6","SARL_v64ruu9yzc","6109b95a3954ea5afdd7add9","fixation","","","img/fixation.png","null","","","test","","","","","","","","","","","","","","","","","","","",""
"435.7999999821186","343285","SARL_v6","SARL_v64ruu9yzc","6109b95a3954ea5afdd7add9","freq","","","img/orange_2bandit_b2.png","70","","70","test","1","","121","","","","circle","square","116","12","6","0.9741379310344828","","","","","","","",""
"null","343663","SARL_v6","SARL_v64ruu9yzc","6109b95a3954ea5afdd7add9","freq_resp","","","img/orange_2bandit_b.png","70","img/orange_2bandit_b.png","70","test","","","","","","","","","","","6","","","","","","","","",""
"null","343828","SARL_v6","SARL_v64ruu9yzc","6109b95a3954ea5afdd7add9","fixation","","","img/fixation.png","null","","","test","","","","","","","","","","","","","","","","","","","",""
"414.10000002384186","344248","SARL_v6","SARL_v64ruu9yzc","6109b95a3954ea5afdd7add9","freq","","","img/orange_2bandit_b2.png","70","","70","test","1","","122","","","","circle","square","117","13","6","0.9743589743589743","","","","","","","",""
"null","344650","SARL_v6","SARL_v64ruu9yzc","6109b95a3954ea5afdd7add9","freq_resp","","","img/orange_2bandit_b.png","70","img/orange_2bandit_b.png","70","test","","","","","","","","","","","6","","","","","","","","",""
"null","344818","SARL_v6","SARL_v64ruu9yzc","6109b95a3954ea5afdd7add9","fixation","","","img/fixation.png","null","","","test","","","","","","","","","","","","","","","","","","","",""
"426.59999999403954","345252","SARL_v6","SARL_v64ruu9yzc","6109b95a3954ea5afdd7add9","freq","","","img/orange_2bandit_b2.png","70","","70","test","1","","123","","","","circle","square","118","14","6","0.9745762711864406","","","","","","","",""
"null","345642","SARL_v6","SARL_v64ruu9yzc","6109b95a3954ea5afdd7add9","freq_resp","","","img/orange_2bandit_b.png","70","img/orange_2bandit_b.png","70","test","","","","","","","","","","","6","","","","","","","","",""
"null","345808","SARL_v6","SARL_v64ruu9yzc","6109b95a3954ea5afdd7add9","fixation","","","img/fixation.png","null","","","test","","","","","","","","","","","","","","","","","","","",""
"444.90000000596046","346260","SARL_v6","SARL_v64ruu9yzc","6109b95a3954ea5afdd7add9","freq","","","img/orange_2bandit_b2.png","70","","70","test","1","","124","","","","circle","square","119","15","6","0.9747899159663865","","","","","","","",""
"null","346634","SARL_v6","SARL_v64ruu9yzc","6109b95a3954ea5afdd7add9","freq_resp","","","img/orange_2bandit_b.png","70","img/orange_2bandit_b.png","70","test","","","","","","","","","","","6","","","","","","","","",""
"null","346802","SARL_v6","SARL_v64ruu9yzc","6109b95a3954ea5afdd7add9","fixation","","","img/fixation.png","null","","","test","","","","","","","","","","","","","","","","","","","",""
"472.5","347281","SARL_v6","SARL_v64ruu9yzc","6109b95a3954ea5afdd7add9","freq","","","img/orange_2bandit_b2.png","70","","70","test","1","","125","","","","circle","square","120","16","6","0.975","","","","","","","",""
"null","347627","SARL_v6","SARL_v64ruu9yzc","6109b95a3954ea5afdd7add9","freq_resp","","","img/orange_2bandit_b.png","70","img/orange_2bandit_b.png","70","test","","","","","","","","","","","6","","","","","","","","",""
"null","347787","SARL_v6","SARL_v64ruu9yzc","6109b95a3954ea5afdd7add9","fixation","","","img/fixation.png","null","","","test","","","","","","","","","","","","","","","","","","","",""
"490.40000000596046","348282","SARL_v6","SARL_v64ruu9yzc","6109b95a3954ea5afdd7add9","freq","","","img/orange_2bandit_b2.png","70","","70","test","1","","126","","","","circle","square","121","17","6","0.9752066115702479","","","","","","","",""
"null","348610","SARL_v6","SARL_v64ruu9yzc","6109b95a3954ea5afdd7add9","freq_resp","","","img/orange_2bandit_b.png","70","img/orange_2bandit_b.png","70","test","","","","","","","","","","","6","","","","","","","","",""
"null","348778","SARL_v6","SARL_v64ruu9yzc","6109b95a3954ea5afdd7add9","fixation","","","img/fixation.png","null","","","test","","","","","","","","","","","","","","","","","","","",""
"645.1000000238419","349429","SARL_v6","SARL_v64ruu9yzc","6109b95a3954ea5afdd7add9","freq","","","img/orange_2bandit_b2.png","70","","70","test","1","","127","","","","circle","square","122","18","6","0.9754098360655737","","","","","","","",""
"null","349595","SARL_v6","SARL_v64ruu9yzc","6109b95a3954ea5afdd7add9","freq_resp","","","img/orange_2bandit_b.png","70","img/orange_2bandit_b.png","70","test","","","","","","","","","","","6","","","","","","","","",""
"null","349763","SARL_v6","SARL_v64ruu9yzc","6109b95a3954ea5afdd7add9","fixation","","","img/fixation.png","null","","","test","","","","","","","","","","","","","","","","","","","",""
"null","350576","SARL_v6","SARL_v64ruu9yzc","6109b95a3954ea5afdd7add9","freq","","","img/orange_2bandit_b2.png","null","","70","test","0","","128","","","","circle","square","123","19","6","0.967479674796748","","","","","","","",""
