"rt","time_elapsed","expId","subject","prolificID","trialType","rlType","attType","stimulus","key_press","stim","corrresp","phase","corr","pracCounter","trialNum","rewardOne","rewardTwo","reward","bandOne","bandTwo","attentionNum","attentionRunNum","blockNum","performance","bandChosen","circleVal","squareVal","bandOneVal","bandTwoVal","shapeChosen","rlNum","badFlag"
"21477.399999976158","21483","SARL_v6","SARL_v6sfoa6qkv","55eb04337480920010aa9e0d","","","","","","","","","","","","","","","","","","","","","","","","","","","",""
"","24571","SARL_v6","SARL_v6sfoa6qkv","55eb04337480920010aa9e0d","fullscreen","fullscreen","fullscreen","","","","","","","","","","","","","","","","","","","","","","","","",""
"103565.89999997616","128140","SARL_v6","SARL_v6sfoa6qkv","55eb04337480920010aa9e0d","","","","","","","","","","","","","","","","","","","","","","","","","","","",""
"null","128944","SARL_v6","SARL_v6sfoa6qkv","55eb04337480920010aa9e0d","freqPrac","","","img/blue_2bandit_b2.png","null","img/blue_2bandit_b2.png","70","prac","0","1","","","","","","","","","","","","","","","","","",""
"null","129956","SARL_v6","SARL_v6sfoa6qkv","55eb04337480920010aa9e0d","feedback","","","img/tooSlow.png","null","","na","prac","","","","","","","","","","","","","","","","","","","",""
"null","130121","SARL_v6","SARL_v6sfoa6qkv","55eb04337480920010aa9e0d","fixation","","","img/fixation.png","null","","","prac","","","","","","","","","","","","","","","","","","","",""
"504.2999999523163","130630","SARL_v6","SARL_v6sfoa6qkv","55eb04337480920010aa9e0d","infreqPrac","","","img/orange_2bandit_b2.png","68","img/orange_2bandit_b2.png","68","prac","1","1","","","","","","","","","","","","","","","","","",""
"504.2999999523163","130931","SARL_v6","SARL_v6sfoa6qkv","55eb04337480920010aa9e0d","infreqPrac_resp","","","img/orange_2bandit_b.png","68","img/orange_2bandit_b.png","68","prac","","","","","","","","","","","","","","","","","","","",""
"null","131092","SARL_v6","SARL_v6sfoa6qkv","55eb04337480920010aa9e0d","fixation","","","img/fixation.png","null","","","prac","","","","","","","","","","","","","","","","","","","",""
"383.60000002384186","131480","SARL_v6","SARL_v6sfoa6qkv","55eb04337480920010aa9e0d","freqPrac","","","img/blue_2bandit_b2.png","70","img/blue_2bandit_b2.png","70","prac","1","1","","","","","","","","","","","","","","","","","",""
"383.60000002384186","131908","SARL_v6","SARL_v6sfoa6qkv","55eb04337480920010aa9e0d","freqPrac_resp","","","img/blue_2bandit_b.png","70","img/blue_2bandit_b.png","70","prac","","","","","","","","","","","","","","","","","","","",""
"null","132066","SARL_v6","SARL_v6sfoa6qkv","55eb04337480920010aa9e0d","fixation","","","img/fixation.png","null","","","prac","","","","","","","","","","","","","","","","","","","",""
"350.2999999523163","132418","SARL_v6","SARL_v6sfoa6qkv","55eb04337480920010aa9e0d","infreqPrac","","","img/orange_2bandit_b2.png","68","img/orange_2bandit_b2.png","68","prac","1","1","","","","","","","","","","","","","","","","","",""
"350.2999999523163","132873","SARL_v6","SARL_v6sfoa6qkv","55eb04337480920010aa9e0d","infreqPrac_resp","","","img/orange_2bandit_b.png","68","img/orange_2bandit_b.png","68","prac","","","","","","","","","","","","","","","","","","","",""
"null","133041","SARL_v6","SARL_v6sfoa6qkv","55eb04337480920010aa9e0d","fixation","","","img/fixation.png","null","","","prac","","","","","","","","","","","","","","","","","","","",""
"434.59999990463257","133477","SARL_v6","SARL_v6sfoa6qkv","55eb04337480920010aa9e0d","infreqPrac","","","img/orange_2bandit_b2.png","68","img/orange_2bandit_b2.png","68","prac","1","1","","","","","","","","","","","","","","","","","",""
"434.59999990463257","133855","SARL_v6","SARL_v6sfoa6qkv","55eb04337480920010aa9e0d","infreqPrac_resp","","","img/orange_2bandit_b.png","68","img/orange_2bandit_b.png","68","prac","","","","","","","","","","","","","","","","","","","",""
"null","134009","SARL_v6","SARL_v6sfoa6qkv","55eb04337480920010aa9e0d","fixation","","","img/fixation.png","null","","","prac","","","","","","","","","","","","","","","","","","","",""
"368.8000000715256","134381","SARL_v6","SARL_v6sfoa6qkv","55eb04337480920010aa9e0d","infreqPrac","","","img/orange_2bandit_b2.png","68","img/orange_2bandit_b2.png","68","prac","1","1","","","","","","","","","","","","","","","","","",""
"368.8000000715256","134824","SARL_v6","SARL_v6sfoa6qkv","55eb04337480920010aa9e0d","infreqPrac_resp","","","img/orange_2bandit_b.png","68","img/orange_2bandit_b.png","68","prac","","","","","","","","","","","","","","","","","","","",""
"null","134976","SARL_v6","SARL_v6sfoa6qkv","55eb04337480920010aa9e0d","fixation","","","img/fixation.png","null","","","prac","","","","","","","","","","","","","","","","","","","",""
"399.3000000715256","135379","SARL_v6","SARL_v6sfoa6qkv","55eb04337480920010aa9e0d","freqPrac","","","img/blue_2bandit_b2.png","70","img/blue_2bandit_b2.png","70","prac","1","1","","","","","","","","","","","","","","","","","",""
"399.3000000715256","135797","SARL_v6","SARL_v6sfoa6qkv","55eb04337480920010aa9e0d","freqPrac_resp","","","img/blue_2bandit_b.png","70","img/blue_2bandit_b.png","70","prac","","","","","","","","","","","","","","","","","","","",""
"null","135960","SARL_v6","SARL_v6sfoa6qkv","55eb04337480920010aa9e0d","fixation","","","img/fixation.png","null","","","prac","","","","","","","","","","","","","","","","","","","",""
"445.60000002384186","136407","SARL_v6","SARL_v6sfoa6qkv","55eb04337480920010aa9e0d","infreqPrac","","","img/orange_2bandit_b2.png","68","img/orange_2bandit_b2.png","68","prac","1","1","","","","","","","","","","","","","","","","","",""
"445.60000002384186","136766","SARL_v6","SARL_v6sfoa6qkv","55eb04337480920010aa9e0d","infreqPrac_resp","","","img/orange_2bandit_b.png","68","img/orange_2bandit_b.png","68","prac","","","","","","","","","","","","","","","","","","","",""
"null","136929","SARL_v6","SARL_v6sfoa6qkv","55eb04337480920010aa9e0d","fixation","","","img/fixation.png","null","","","prac","","","","","","","","","","","","","","","","","","","",""
"373.89999997615814","137306","SARL_v6","SARL_v6sfoa6qkv","55eb04337480920010aa9e0d","freqPrac","","","img/blue_2bandit_b2.png","70","img/blue_2bandit_b2.png","70","prac","1","1","","","","","","","","","","","","","","","","","",""
"373.89999997615814","137747","SARL_v6","SARL_v6sfoa6qkv","55eb04337480920010aa9e0d","freqPrac_resp","","","img/blue_2bandit_b.png","70","img/blue_2bandit_b.png","70","prac","","","","","","","","","","","","","","","","","","","",""
"null","137912","SARL_v6","SARL_v6sfoa6qkv","55eb04337480920010aa9e0d","fixation","","","img/fixation.png","null","","","prac","","","","","","","","","","","","","","","","","","","",""
"332","138246","SARL_v6","SARL_v6sfoa6qkv","55eb04337480920010aa9e0d","freqPrac","","","img/blue_2bandit_b2.png","70","img/blue_2bandit_b2.png","70","prac","1","1","","","","","","","","","","","","","","","","","",""
"332","138726","SARL_v6","SARL_v6sfoa6qkv","55eb04337480920010aa9e0d","freqPrac_resp","","","img/blue_2bandit_b.png","70","img/blue_2bandit_b.png","70","prac","","","","","","","","","","","","","","","","","","","",""
"null","138882","SARL_v6","SARL_v6sfoa6qkv","55eb04337480920010aa9e0d","fixation","","","img/fixation.png","null","","","prac","","","","","","","","","","","","","","","","","","","",""
"37806.699999928474","176692","SARL_v6","SARL_v6sfoa6qkv","55eb04337480920010aa9e0d","","","","","","","","prac","","","","","","","","","","","","","","","","","","","",""
"573.1999999284744","177269","SARL_v6","SARL_v6sfoa6qkv","55eb04337480920010aa9e0d","rlPractice","","","img/black_2bandit_b2.png","74","img/black_2bandit_b2.png","","prac","","","0","","","","","","","","","","","","","","","","",""
"null","178028","SARL_v6","SARL_v6sfoa6qkv","55eb04337480920010aa9e0d","feedback","","","<div class=""veryhighPoints""> 10 </div>","null","","na","prac","","","1","10","-14","10","","","","","","","","","","","","","",""
"null","178186","SARL_v6","SARL_v6sfoa6qkv","55eb04337480920010aa9e0d","fixation","","","img/fixation.png","null","","","prac","","","","","","","","","","","","","","","","","","","",""
"498.1999999284744","178686","SARL_v6","SARL_v6sfoa6qkv","55eb04337480920010aa9e0d","rlPractice","","","img/black_2bandit_b2.png","75","img/black_2bandit_b2.png","","prac","","","1","","","","","","","","","","","","","","","","",""
"null","179446","SARL_v6","SARL_v6sfoa6qkv","55eb04337480920010aa9e0d","feedback","","","<div class=""verylowPoints_sq""> -5 </div>","null","","na","prac","","","2","5","-5","5","","","","","","","","","","","","","",""
"null","179607","SARL_v6","SARL_v6sfoa6qkv","55eb04337480920010aa9e0d","fixation","","","img/fixation.png","null","","","prac","","","","","","","","","","","","","","","","","","","",""
"377.89999997615814","179987","SARL_v6","SARL_v6sfoa6qkv","55eb04337480920010aa9e0d","rlPractice","","","img/black_2bandit_b2.png","74","img/black_2bandit_b2.png","","prac","","","2","","","","","","","","","","","","","","","","",""
"null","180746","SARL_v6","SARL_v6sfoa6qkv","55eb04337480920010aa9e0d","feedback","","","<div class=""veryhighPoints""> 30 </div>","null","","na","prac","","","3","30","2","30","","","","","","","","","","","","","",""
"null","180906","SARL_v6","SARL_v6sfoa6qkv","55eb04337480920010aa9e0d","fixation","","","img/fixation.png","null","","","prac","","","","","","","","","","","","","","","","","","","",""
"357.60000002384186","181266","SARL_v6","SARL_v6sfoa6qkv","55eb04337480920010aa9e0d","rlPractice","","","img/black_2bandit_b2.png","74","img/black_2bandit_b2.png","","prac","","","3","","","","","","","","","","","","","","","","",""
"null","182032","SARL_v6","SARL_v6sfoa6qkv","55eb04337480920010aa9e0d","feedback","","","<div class=""verylowPoints""> -2 </div>","null","","na","prac","","","4","-2","20","-2","","","","","","","","","","","","","",""
"null","182191","SARL_v6","SARL_v6sfoa6qkv","55eb04337480920010aa9e0d","fixation","","","img/fixation.png","null","","","prac","","","","","","","","","","","","","","","","","","","",""
"13078.299999952316","195271","SARL_v6","SARL_v6sfoa6qkv","55eb04337480920010aa9e0d","","","","","","","","prac","","","","","","","","","","","","","","","","","","","",""
"750.3000000715256","196025","SARL_v6","SARL_v6sfoa6qkv","55eb04337480920010aa9e0d","mixAttFreqPrac","","","img/blue_2bandit_b2.png","70","img/blue_2bandit_b2.png","70","prac","","","1","","","","","","","","","","","","","","","","",""
"750.3000000715256","196077","SARL_v6","SARL_v6sfoa6qkv","55eb04337480920010aa9e0d","freqPrac_resp","","","img/blue_2bandit_b.png","70","img/blue_2bandit_b.png","70","prac","","","1","","","","","","","","","","","","","","","","",""
"null","196239","SARL_v6","SARL_v6sfoa6qkv","55eb04337480920010aa9e0d","fixation","","","img/fixation.png","null","","","prac","","","","","","","","","","","","","","","","","","","",""
"722","196965","SARL_v6","SARL_v6sfoa6qkv","55eb04337480920010aa9e0d","mixAttInfreqPrac","","","img/orange_2bandit_b2.png","68","img/orange_2bandit_b2.png","68","prac","","","2","","","","","","","","","","","","","","","","",""
"722","197060","SARL_v6","SARL_v6sfoa6qkv","55eb04337480920010aa9e0d","infreqPrac_resp","","","img/orange_2bandit_b.png","68","img/blue_2bandit_b.png","68","prac","","","2","","","","","","","","","","","","","","","","",""
"null","197223","SARL_v6","SARL_v6sfoa6qkv","55eb04337480920010aa9e0d","fixation","","","img/fixation.png","null","","","prac","","","","","","","","","","","","","","","","","","","",""
"500.6999999284744","197726","SARL_v6","SARL_v6sfoa6qkv","55eb04337480920010aa9e0d","mixAttInfreqPrac","","","img/orange_2bandit_b2.png","68","img/orange_2bandit_b2.png","68","prac","","","3","","","","","","","","","","","","","","","","",""
"500.6999999284744","198030","SARL_v6","SARL_v6sfoa6qkv","55eb04337480920010aa9e0d","infreqPrac_resp","","","img/orange_2bandit_b.png","68","img/blue_2bandit_b.png","68","prac","","","3","","","","","","","","","","","","","","","","",""
"null","198194","SARL_v6","SARL_v6sfoa6qkv","55eb04337480920010aa9e0d","fixation","","","img/fixation.png","null","","","prac","","","","","","","","","","","","","","","","","","","",""
"416.39999997615814","198613","SARL_v6","SARL_v6sfoa6qkv","55eb04337480920010aa9e0d","mixAttInfreqPrac","","","img/orange_2bandit_b2.png","68","img/orange_2bandit_b2.png","68","prac","","","4","","","","","","","","","","","","","","","","",""
"416.39999997615814","199008","SARL_v6","SARL_v6sfoa6qkv","55eb04337480920010aa9e0d","infreqPrac_resp","","","img/orange_2bandit_b.png","68","img/blue_2bandit_b.png","68","prac","","","4","","","","","","","","","","","","","","","","",""
"null","199172","SARL_v6","SARL_v6sfoa6qkv","55eb04337480920010aa9e0d","fixation","","","img/fixation.png","null","","","prac","","","","","","","","","","","","","","","","","","","",""
"380.09999990463257","199555","SARL_v6","SARL_v6sfoa6qkv","55eb04337480920010aa9e0d","mixAttFreqPrac","","","img/blue_2bandit_b2.png","70","img/blue_2bandit_b2.png","70","prac","","","5","","","","","","","","","","","","","","","","",""
"380.09999990463257","199985","SARL_v6","SARL_v6sfoa6qkv","55eb04337480920010aa9e0d","freqPrac_resp","","","img/blue_2bandit_b.png","70","img/blue_2bandit_b.png","70","prac","","","5","","","","","","","","","","","","","","","","",""
"null","200142","SARL_v6","SARL_v6sfoa6qkv","55eb04337480920010aa9e0d","fixation","","","img/fixation.png","null","","","prac","","","","","","","","","","","","","","","","","","","",""
"683.2000000476837","200827","SARL_v6","SARL_v6sfoa6qkv","55eb04337480920010aa9e0d","mixRLPractice","","","img/black_2bandit_b2.png","74","img/black_2bandit_b2.png","","prac","","","5","","","","","","","","","","","","","","","","",""
"null","201588","SARL_v6","SARL_v6sfoa6qkv","55eb04337480920010aa9e0d","feedback","","","<div class=""verylowPoints""> -14 </div>","null","","na","prac","","","6","-14","10","-14","","","","","","","","","","","","","",""
"null","201744","SARL_v6","SARL_v6sfoa6qkv","55eb04337480920010aa9e0d","fixation","","","img/fixation.png","null","","","prac","","","","","","","","","","","","","","","","","","","",""
"null","202550","SARL_v6","SARL_v6sfoa6qkv","55eb04337480920010aa9e0d","mixAttFreqPrac","","","img/blue_2bandit_b2.png","null","img/blue_2bandit_b2.png","70","prac","","","7","","","","","","","","","","","","","","","","",""
"131.39999997615814","202712","SARL_v6","SARL_v6sfoa6qkv","55eb04337480920010aa9e0d","fixation","","","img/fixation.png","70","","","prac","","","","","","","","","","","","","","","","","","","",""
"482.7999999523163","203197","SARL_v6","SARL_v6sfoa6qkv","55eb04337480920010aa9e0d","mixAttInfreqPrac","","","img/orange_2bandit_b2.png","68","img/orange_2bandit_b2.png","68","prac","","","8","","","","","","","","","","","","","","","","",""
"482.7999999523163","203519","SARL_v6","SARL_v6sfoa6qkv","55eb04337480920010aa9e0d","infreqPrac_resp","","","img/orange_2bandit_b.png","68","img/blue_2bandit_b.png","68","prac","","","8","","","","","","","","","","","","","","","","",""
"null","203678","SARL_v6","SARL_v6sfoa6qkv","55eb04337480920010aa9e0d","fixation","","","img/fixation.png","null","","","prac","","","","","","","","","","","","","","","","","","","",""
"337.2000000476837","204019","SARL_v6","SARL_v6sfoa6qkv","55eb04337480920010aa9e0d","mixAttFreqPrac","","","img/blue_2bandit_b2.png","70","img/blue_2bandit_b2.png","70","prac","","","9","","","","","","","","","","","","","","","","",""
"337.2000000476837","204494","SARL_v6","SARL_v6sfoa6qkv","55eb04337480920010aa9e0d","freqPrac_resp","","","img/blue_2bandit_b.png","70","img/blue_2bandit_b.png","70","prac","","","9","","","","","","","","","","","","","","","","",""
"null","204646","SARL_v6","SARL_v6sfoa6qkv","55eb04337480920010aa9e0d","fixation","","","img/fixation.png","null","","","prac","","","","","","","","","","","","","","","","","","","",""
"398.7999999523163","205047","SARL_v6","SARL_v6sfoa6qkv","55eb04337480920010aa9e0d","mixAttFreqPrac","","","img/blue_2bandit_b2.png","70","img/blue_2bandit_b2.png","70","prac","","","10","","","","","","","","","","","","","","","","",""
"398.7999999523163","205463","SARL_v6","SARL_v6sfoa6qkv","55eb04337480920010aa9e0d","freqPrac_resp","","","img/blue_2bandit_b.png","70","img/blue_2bandit_b.png","70","prac","","","10","","","","","","","","","","","","","","","","",""
"null","205630","SARL_v6","SARL_v6sfoa6qkv","55eb04337480920010aa9e0d","fixation","","","img/fixation.png","null","","","prac","","","","","","","","","","","","","","","","","","","",""
"427","206059","SARL_v6","SARL_v6sfoa6qkv","55eb04337480920010aa9e0d","mixAttInfreqPrac","","","img/orange_2bandit_b2.png","68","img/orange_2bandit_b2.png","68","prac","","","11","","","","","","","","","","","","","","","","",""
"427","206450","SARL_v6","SARL_v6sfoa6qkv","55eb04337480920010aa9e0d","infreqPrac_resp","","","img/orange_2bandit_b.png","68","img/blue_2bandit_b.png","68","prac","","","11","","","","","","","","","","","","","","","","",""
"null","206616","SARL_v6","SARL_v6sfoa6qkv","55eb04337480920010aa9e0d","fixation","","","img/fixation.png","null","","","prac","","","","","","","","","","","","","","","","","","","",""
"580.8999999761581","207199","SARL_v6","SARL_v6sfoa6qkv","55eb04337480920010aa9e0d","mixRLPractice","","","img/black_2bandit_b2.png","74","img/black_2bandit_b2.png","","prac","","","11","","","","","","","","","","","","","","","","",""
"null","207960","SARL_v6","SARL_v6sfoa6qkv","55eb04337480920010aa9e0d","feedback","","","<div class=""veryhighPoints""> 5 </div>","null","","na","prac","","","12","5","-5","5","","","","","","","","","","","","","",""
"null","208117","SARL_v6","SARL_v6sfoa6qkv","55eb04337480920010aa9e0d","fixation","","","img/fixation.png","null","","","prac","","","","","","","","","","","","","","","","","","","",""
"11616.100000023842","219735","SARL_v6","SARL_v6sfoa6qkv","55eb04337480920010aa9e0d","","","","","","","","prac","","","","","","","","","","","","","","","","","","","",""
"681.3999999761581","220420","SARL_v6","SARL_v6sfoa6qkv","55eb04337480920010aa9e0d","freq","","","img/blue_2bandit_b2.png","70","","70","test","1","","1","","","","circle","square","1","1","1","1","","","","","","","",""
"null","220554","SARL_v6","SARL_v6sfoa6qkv","55eb04337480920010aa9e0d","freq_resp","","","img/blue_2bandit_b.png","70","img/blue_2bandit_b.png","70","test","","","","","","","","","","","1","","","","","","","","",""
"null","220712","SARL_v6","SARL_v6sfoa6qkv","55eb04337480920010aa9e0d","fixation","","","img/fixation.png","null","","","test","","","","","","","","","","","","","","","","","","","",""
"428.60000002384186","221143","SARL_v6","SARL_v6sfoa6qkv","55eb04337480920010aa9e0d","freq","","","img/blue_2bandit_b2.png","70","","70","test","1","","2","","","","circle","square","2","2","1","1","","","","","","","",""
"null","221530","SARL_v6","SARL_v6sfoa6qkv","55eb04337480920010aa9e0d","freq_resp","","","img/blue_2bandit_b.png","70","img/blue_2bandit_b.png","70","test","","","","","","","","","","","1","","","","","","","","",""
"null","221695","SARL_v6","SARL_v6sfoa6qkv","55eb04337480920010aa9e0d","fixation","","","img/fixation.png","null","","","test","","","","","","","","","","","","","","","","","","","",""
"348.60000002384186","222047","SARL_v6","SARL_v6sfoa6qkv","55eb04337480920010aa9e0d","freq","","","img/blue_2bandit_b2.png","70","","70","test","1","","3","","","","circle","square","3","3","1","1","","","","","","","",""
"null","222512","SARL_v6","SARL_v6sfoa6qkv","55eb04337480920010aa9e0d","freq_resp","","","img/blue_2bandit_b.png","70","img/blue_2bandit_b.png","70","test","","","","","","","","","","","1","","","","","","","","",""
"null","222681","SARL_v6","SARL_v6sfoa6qkv","55eb04337480920010aa9e0d","fixation","","","img/fixation.png","null","","","test","","","","","","","","","","","","","","","","","","","",""
"368.39999997615814","223054","SARL_v6","SARL_v6sfoa6qkv","55eb04337480920010aa9e0d","infreq","","","img/orange_2bandit_b2.png","68","","68","test","1","","4","","","","circle","square","4","4","1","1","","","","","","","",""
"null","223497","SARL_v6","SARL_v6sfoa6qkv","55eb04337480920010aa9e0d","infreq_resp","","","img/orange_2bandit_b.png","68","img/orange_2bandit_b.png","68","test","","","","","","","","","","","1","","","","","","","","",""
"null","223666","SARL_v6","SARL_v6sfoa6qkv","55eb04337480920010aa9e0d","fixation","","","img/fixation.png","null","","","test","","","","","","","","","","","","","","","","","","","",""
"391.8000000715256","224061","SARL_v6","SARL_v6sfoa6qkv","55eb04337480920010aa9e0d","freq","","","img/blue_2bandit_b2.png","70","","70","test","1","","5","","","","circle","square","5","5","1","1","","","","","","","",""
"null","224482","SARL_v6","SARL_v6sfoa6qkv","55eb04337480920010aa9e0d","freq_resp","","","img/blue_2bandit_b.png","70","img/blue_2bandit_b.png","70","test","","","","","","","","","","","1","","","","","","","","",""
"null","224650","SARL_v6","SARL_v6sfoa6qkv","55eb04337480920010aa9e0d","fixation","","","img/fixation.png","null","","","test","","","","","","","","","","","","","","","","","","","",""
"385.8000000715256","225041","SARL_v6","SARL_v6sfoa6qkv","55eb04337480920010aa9e0d","freq","","","img/blue_2bandit_b2.png","70","","70","test","1","","6","","","","circle","square","6","6","1","1","","","","","","","",""
"null","225466","SARL_v6","SARL_v6sfoa6qkv","55eb04337480920010aa9e0d","freq_resp","","","img/blue_2bandit_b.png","70","img/blue_2bandit_b.png","70","test","","","","","","","","","","","1","","","","","","","","",""
"null","225632","SARL_v6","SARL_v6sfoa6qkv","55eb04337480920010aa9e0d","fixation","","","img/fixation.png","null","","","test","","","","","","","","","","","","","","","","","","","",""
"506.2999999523163","226142","SARL_v6","SARL_v6sfoa6qkv","55eb04337480920010aa9e0d","infreq","","","img/orange_2bandit_b2.png","68","","68","test","1","","7","","","","circle","square","7","7","1","1","","","","","","","",""
"null","226445","SARL_v6","SARL_v6sfoa6qkv","55eb04337480920010aa9e0d","infreq_resp","","","img/orange_2bandit_b.png","68","img/orange_2bandit_b.png","68","test","","","","","","","","","","","1","","","","","","","","",""
"null","226601","SARL_v6","SARL_v6sfoa6qkv","55eb04337480920010aa9e0d","fixation","","","img/fixation.png","null","","","test","","","","","","","","","","","","","","","","","","","",""
"393.89999997615814","226999","SARL_v6","SARL_v6sfoa6qkv","55eb04337480920010aa9e0d","freq","","","img/blue_2bandit_b2.png","70","","70","test","1","","8","","","","circle","square","8","8","1","1","","","","","","","",""
"null","227419","SARL_v6","SARL_v6sfoa6qkv","55eb04337480920010aa9e0d","freq_resp","","","img/blue_2bandit_b.png","70","img/blue_2bandit_b.png","70","test","","","","","","","","","","","1","","","","","","","","",""
"null","227580","SARL_v6","SARL_v6sfoa6qkv","55eb04337480920010aa9e0d","fixation","","","img/fixation.png","null","","","test","","","","","","","","","","","","","","","","","","","",""
"335.89999997615814","227919","SARL_v6","SARL_v6sfoa6qkv","55eb04337480920010aa9e0d","freq","","","img/blue_2bandit_b2.png","70","","70","test","1","","9","","","","circle","square","9","9","1","1","","","","","","","",""
"null","228397","SARL_v6","SARL_v6sfoa6qkv","55eb04337480920010aa9e0d","freq_resp","","","img/blue_2bandit_b.png","70","img/blue_2bandit_b.png","70","test","","","","","","","","","","","1","","","","","","","","",""
"null","228555","SARL_v6","SARL_v6sfoa6qkv","55eb04337480920010aa9e0d","fixation","","","img/fixation.png","null","","","test","","","","","","","","","","","","","","","","","","","",""
"335.6999999284744","228894","SARL_v6","SARL_v6sfoa6qkv","55eb04337480920010aa9e0d","freq","","","img/blue_2bandit_b2.png","70","","70","test","1","","10","","","","circle","square","10","10","1","1","","","","","","","",""
"null","229367","SARL_v6","SARL_v6sfoa6qkv","55eb04337480920010aa9e0d","freq_resp","","","img/blue_2bandit_b.png","70","img/blue_2bandit_b.png","70","test","","","","","","","","","","","1","","","","","","","","",""
"null","229521","SARL_v6","SARL_v6sfoa6qkv","55eb04337480920010aa9e0d","fixation","","","img/fixation.png","null","","","test","","","","","","","","","","","","","","","","","","","",""
"362.7999999523163","229886","SARL_v6","SARL_v6sfoa6qkv","55eb04337480920010aa9e0d","freq","","","img/blue_2bandit_b2.png","70","","70","test","1","","11","","","","circle","square","11","11","1","1","","","","","","","",""
"null","230334","SARL_v6","SARL_v6sfoa6qkv","55eb04337480920010aa9e0d","freq_resp","","","img/blue_2bandit_b.png","70","img/blue_2bandit_b.png","70","test","","","","","","","","","","","1","","","","","","","","",""
"null","230490","SARL_v6","SARL_v6sfoa6qkv","55eb04337480920010aa9e0d","fixation","","","img/fixation.png","null","","","test","","","","","","","","","","","","","","","","","","","",""
"367.7999999523163","230861","SARL_v6","SARL_v6sfoa6qkv","55eb04337480920010aa9e0d","freq","","","img/blue_2bandit_b2.png","70","","70","test","1","","12","","","","circle","square","12","12","1","1","","","","","","","",""
"null","231301","SARL_v6","SARL_v6sfoa6qkv","55eb04337480920010aa9e0d","freq_resp","","","img/blue_2bandit_b.png","70","img/blue_2bandit_b.png","70","test","","","","","","","","","","","1","","","","","","","","",""
"null","231457","SARL_v6","SARL_v6sfoa6qkv","55eb04337480920010aa9e0d","fixation","","","img/fixation.png","null","","","test","","","","","","","","","","","","","","","","","","","",""
"355.8000000715256","231817","SARL_v6","SARL_v6sfoa6qkv","55eb04337480920010aa9e0d","freq","","","img/blue_2bandit_b2.png","70","","70","test","1","","13","","","","circle","square","13","13","1","1","","","","","","","",""
"null","232273","SARL_v6","SARL_v6sfoa6qkv","55eb04337480920010aa9e0d","freq_resp","","","img/blue_2bandit_b.png","70","img/blue_2bandit_b.png","70","test","","","","","","","","","","","1","","","","","","","","",""
"null","232440","SARL_v6","SARL_v6sfoa6qkv","55eb04337480920010aa9e0d","fixation","","","img/fixation.png","null","","","test","","","","","","","","","","","","","","","","","","","",""
"569.7000000476837","233015","SARL_v6","SARL_v6sfoa6qkv","55eb04337480920010aa9e0d","freq","","","img/blue_2bandit_b2.png","70","","70","test","1","","14","","","","circle","square","14","14","1","1","","","","","","","",""
"null","233253","SARL_v6","SARL_v6sfoa6qkv","55eb04337480920010aa9e0d","freq_resp","","","img/blue_2bandit_b.png","70","img/blue_2bandit_b.png","70","test","","","","","","","","","","","1","","","","","","","","",""
"null","233409","SARL_v6","SARL_v6sfoa6qkv","55eb04337480920010aa9e0d","fixation","","","img/fixation.png","null","","","test","","","","","","","","","","","","","","","","","","","",""
"442.39999997615814","233855","SARL_v6","SARL_v6sfoa6qkv","55eb04337480920010aa9e0d","freq","","","img/blue_2bandit_b2.png","70","","70","test","1","","15","","","","circle","square","15","15","1","1","","","","","","","",""
"null","234228","SARL_v6","SARL_v6sfoa6qkv","55eb04337480920010aa9e0d","freq_resp","","","img/blue_2bandit_b.png","70","img/blue_2bandit_b.png","70","test","","","","","","","","","","","1","","","","","","","","",""
"null","234392","SARL_v6","SARL_v6sfoa6qkv","55eb04337480920010aa9e0d","fixation","","","img/fixation.png","null","","","test","","","","","","","","","","","","","","","","","","","",""
"622.7999999523163","235020","SARL_v6","SARL_v6sfoa6qkv","55eb04337480920010aa9e0d","infreq","","","img/orange_2bandit_b2.png","68","","68","test","1","","16","","","","circle","square","16","16","1","1","","","","","","","",""
"null","235205","SARL_v6","SARL_v6sfoa6qkv","55eb04337480920010aa9e0d","infreq_resp","","","img/orange_2bandit_b.png","68","img/orange_2bandit_b.png","68","test","","","","","","","","","","","1","","","","","","","","",""
"null","235360","SARL_v6","SARL_v6sfoa6qkv","55eb04337480920010aa9e0d","fixation","","","img/fixation.png","null","","","test","","","","","","","","","","","","","","","","","","","",""
"422.7000000476837","235786","SARL_v6","SARL_v6sfoa6qkv","55eb04337480920010aa9e0d","freq","","","img/blue_2bandit_b2.png","70","","70","test","1","","17","","","","circle","square","17","17","1","1","","","","","","","",""
"null","236179","SARL_v6","SARL_v6sfoa6qkv","55eb04337480920010aa9e0d","freq_resp","","","img/blue_2bandit_b.png","70","img/blue_2bandit_b.png","70","test","","","","","","","","","","","1","","","","","","","","",""
"null","236343","SARL_v6","SARL_v6sfoa6qkv","55eb04337480920010aa9e0d","fixation","","","img/fixation.png","null","","","test","","","","","","","","","","","","","","","","","","","",""
"376.89999997615814","236723","SARL_v6","SARL_v6sfoa6qkv","55eb04337480920010aa9e0d","freq","","","img/blue_2bandit_b2.png","70","","70","test","1","","18","","","","circle","square","18","18","1","1","","","","","","","",""
"null","237160","SARL_v6","SARL_v6sfoa6qkv","55eb04337480920010aa9e0d","freq_resp","","","img/blue_2bandit_b.png","70","img/blue_2bandit_b.png","70","test","","","","","","","","","","","1","","","","","","","","",""
"null","237328","SARL_v6","SARL_v6sfoa6qkv","55eb04337480920010aa9e0d","fixation","","","img/fixation.png","null","","","test","","","","","","","","","","","","","","","","","","","",""
"340.2000000476837","237670","SARL_v6","SARL_v6sfoa6qkv","55eb04337480920010aa9e0d","freq","","","img/blue_2bandit_b2.png","70","","70","test","1","","19","","","","circle","square","19","19","1","1","","","","","","","",""
"null","238145","SARL_v6","SARL_v6sfoa6qkv","55eb04337480920010aa9e0d","freq_resp","","","img/blue_2bandit_b.png","70","img/blue_2bandit_b.png","70","test","","","","","","","","","","","1","","","","","","","","",""
"null","238312","SARL_v6","SARL_v6sfoa6qkv","55eb04337480920010aa9e0d","fixation","","","img/fixation.png","null","","","test","","","","","","","","","","","","","","","","","","","",""
"350.5","238665","SARL_v6","SARL_v6sfoa6qkv","55eb04337480920010aa9e0d","freq","","","img/blue_2bandit_b2.png","70","","70","test","1","","20","","","","circle","square","20","20","1","1","","","","","","","",""
"null","239127","SARL_v6","SARL_v6sfoa6qkv","55eb04337480920010aa9e0d","freq_resp","","","img/blue_2bandit_b.png","70","img/blue_2bandit_b.png","70","test","","","","","","","","","","","1","","","","","","","","",""
"null","239282","SARL_v6","SARL_v6sfoa6qkv","55eb04337480920010aa9e0d","fixation","","","img/fixation.png","null","","","test","","","","","","","","","","","","","","","","","","","",""
"631.1999999284744","239917","SARL_v6","SARL_v6sfoa6qkv","55eb04337480920010aa9e0d","rl","","","img/black_2bandit_b2.png","74","","0","test","","","21","","","-3","circle","square","","0","1","","74","-3","-3","-3","-3","circle","1","0"
"null","240674","SARL_v6","SARL_v6sfoa6qkv","55eb04337480920010aa9e0d","feedback","","","<div class=""verylowPoints""> -3 </div>","null","","na","test","","","NaN","","","","","","","","1","","74","","","","","","1",""
"559.1999999284744","241236","SARL_v6","SARL_v6sfoa6qkv","55eb04337480920010aa9e0d","freq","","","img/blue_2bandit_b2.png","70","","70","test","1","","22","","","","circle","square","21","1","2","1","","","","","","","",""
"null","241483","SARL_v6","SARL_v6sfoa6qkv","55eb04337480920010aa9e0d","freq_resp","","","img/blue_2bandit_b.png","70","img/blue_2bandit_b.png","70","test","","","","","","","","","","","2","","","","","","","","",""
"null","241648","SARL_v6","SARL_v6sfoa6qkv","55eb04337480920010aa9e0d","fixation","","","img/fixation.png","null","","","test","","","","","","","","","","","","","","","","","","","",""
"343.89999997615814","241994","SARL_v6","SARL_v6sfoa6qkv","55eb04337480920010aa9e0d","freq","","","img/blue_2bandit_b2.png","70","","70","test","1","","23","","","","circle","square","22","2","2","1","","","","","","","",""
"null","242462","SARL_v6","SARL_v6sfoa6qkv","55eb04337480920010aa9e0d","freq_resp","","","img/blue_2bandit_b.png","70","img/blue_2bandit_b.png","70","test","","","","","","","","","","","2","","","","","","","","",""
"null","242619","SARL_v6","SARL_v6sfoa6qkv","55eb04337480920010aa9e0d","fixation","","","img/fixation.png","null","","","test","","","","","","","","","","","","","","","","","","","",""
"331.59999990463257","242954","SARL_v6","SARL_v6sfoa6qkv","55eb04337480920010aa9e0d","freq","","","img/blue_2bandit_b2.png","70","","70","test","1","","24","","","","circle","square","23","3","2","1","","","","","","","",""
"null","243434","SARL_v6","SARL_v6sfoa6qkv","55eb04337480920010aa9e0d","freq_resp","","","img/blue_2bandit_b.png","70","img/blue_2bandit_b.png","70","test","","","","","","","","","","","2","","","","","","","","",""
"null","243602","SARL_v6","SARL_v6sfoa6qkv","55eb04337480920010aa9e0d","fixation","","","img/fixation.png","null","","","test","","","","","","","","","","","","","","","","","","","",""
"333.10000002384186","243939","SARL_v6","SARL_v6sfoa6qkv","55eb04337480920010aa9e0d","freq","","","img/blue_2bandit_b2.png","70","","70","test","1","","25","","","","circle","square","24","4","2","1","","","","","","","",""
"null","244411","SARL_v6","SARL_v6sfoa6qkv","55eb04337480920010aa9e0d","freq_resp","","","img/blue_2bandit_b.png","70","img/blue_2bandit_b.png","70","test","","","","","","","","","","","2","","","","","","","","",""
"null","244570","SARL_v6","SARL_v6sfoa6qkv","55eb04337480920010aa9e0d","fixation","","","img/fixation.png","null","","","test","","","","","","","","","","","","","","","","","","","",""
"null","245384","SARL_v6","SARL_v6sfoa6qkv","55eb04337480920010aa9e0d","freq","","","img/blue_2bandit_b2.png","null","","70","test","0","","26","","","","circle","square","25","5","2","0.96","","","","","","","",""
"null","245537","SARL_v6","SARL_v6sfoa6qkv","55eb04337480920010aa9e0d","fixation","","","img/fixation.png","null","","","test","","","","","","","","","","","","","","","","","","","",""
"70.79999995231628","245611","SARL_v6","SARL_v6sfoa6qkv","55eb04337480920010aa9e0d","freq","","","img/blue_2bandit_b2.png","70","","70","test","1","","27","","","","circle","square","26","6","2","0.9615384615384616","","","","","","","",""
"null","246352","SARL_v6","SARL_v6sfoa6qkv","55eb04337480920010aa9e0d","freq_resp","","","img/blue_2bandit_b.png","70","img/blue_2bandit_b.png","70","test","","","","","","","","","","","2","","","","","","","","",""
"null","246508","SARL_v6","SARL_v6sfoa6qkv","55eb04337480920010aa9e0d","fixation","","","img/fixation.png","null","","","test","","","","","","","","","","","","","","","","","","","",""
"532.7999999523163","247044","SARL_v6","SARL_v6sfoa6qkv","55eb04337480920010aa9e0d","freq","","","img/blue_2bandit_b2.png","70","","70","test","1","","28","","","","circle","square","27","7","2","0.9629629629629629","","","","","","","",""
"null","247316","SARL_v6","SARL_v6sfoa6qkv","55eb04337480920010aa9e0d","freq_resp","","","img/blue_2bandit_b.png","70","img/blue_2bandit_b.png","70","test","","","","","","","","","","","2","","","","","","","","",""
"null","247474","SARL_v6","SARL_v6sfoa6qkv","55eb04337480920010aa9e0d","fixation","","","img/fixation.png","null","","","test","","","","","","","","","","","","","","","","","","","",""
"351.39999997615814","247830","SARL_v6","SARL_v6sfoa6qkv","55eb04337480920010aa9e0d","freq","","","img/blue_2bandit_b2.png","70","","70","test","1","","29","","","","circle","square","28","8","2","0.9642857142857143","","","","","","","",""
"null","248289","SARL_v6","SARL_v6sfoa6qkv","55eb04337480920010aa9e0d","freq_resp","","","img/blue_2bandit_b.png","70","img/blue_2bandit_b.png","70","test","","","","","","","","","","","2","","","","","","","","",""
"null","248455","SARL_v6","SARL_v6sfoa6qkv","55eb04337480920010aa9e0d","fixation","","","img/fixation.png","null","","","test","","","","","","","","","","","","","","","","","","","",""
"334","248793","SARL_v6","SARL_v6sfoa6qkv","55eb04337480920010aa9e0d","freq","","","img/blue_2bandit_b2.png","70","","70","test","1","","30","","","","circle","square","29","9","2","0.9655172413793104","","","","","","","",""
"null","249269","SARL_v6","SARL_v6sfoa6qkv","55eb04337480920010aa9e0d","freq_resp","","","img/blue_2bandit_b.png","70","img/blue_2bandit_b.png","70","test","","","","","","","","","","","2","","","","","","","","",""
"null","249424","SARL_v6","SARL_v6sfoa6qkv","55eb04337480920010aa9e0d","fixation","","","img/fixation.png","null","","","test","","","","","","","","","","","","","","","","","","","",""
"322.1999999284744","249748","SARL_v6","SARL_v6sfoa6qkv","55eb04337480920010aa9e0d","freq","","","img/blue_2bandit_b2.png","70","","70","test","1","","31","","","","circle","square","30","10","2","0.9666666666666667","","","","","","","",""
"null","250237","SARL_v6","SARL_v6sfoa6qkv","55eb04337480920010aa9e0d","freq_resp","","","img/blue_2bandit_b.png","70","img/blue_2bandit_b.png","70","test","","","","","","","","","","","2","","","","","","","","",""
"null","250392","SARL_v6","SARL_v6sfoa6qkv","55eb04337480920010aa9e0d","fixation","","","img/fixation.png","null","","","test","","","","","","","","","","","","","","","","","","","",""
"343.6999999284744","250738","SARL_v6","SARL_v6sfoa6qkv","55eb04337480920010aa9e0d","freq","","","img/blue_2bandit_b2.png","70","","70","test","1","","32","","","","circle","square","31","11","2","0.967741935483871","","","","","","","",""
"null","251211","SARL_v6","SARL_v6sfoa6qkv","55eb04337480920010aa9e0d","freq_resp","","","img/blue_2bandit_b.png","70","img/blue_2bandit_b.png","70","test","","","","","","","","","","","2","","","","","","","","",""
"null","251376","SARL_v6","SARL_v6sfoa6qkv","55eb04337480920010aa9e0d","fixation","","","img/fixation.png","null","","","test","","","","","","","","","","","","","","","","","","","",""
"327.5","251707","SARL_v6","SARL_v6sfoa6qkv","55eb04337480920010aa9e0d","freq","","","img/blue_2bandit_b2.png","70","","70","test","1","","33","","","","circle","square","32","12","2","0.96875","","","","","","","",""
"null","252189","SARL_v6","SARL_v6sfoa6qkv","55eb04337480920010aa9e0d","freq_resp","","","img/blue_2bandit_b.png","70","img/blue_2bandit_b.png","70","test","","","","","","","","","","","2","","","","","","","","",""
"null","252345","SARL_v6","SARL_v6sfoa6qkv","55eb04337480920010aa9e0d","fixation","","","img/fixation.png","null","","","test","","","","","","","","","","","","","","","","","","","",""
"315.2000000476837","252664","SARL_v6","SARL_v6sfoa6qkv","55eb04337480920010aa9e0d","freq","","","img/blue_2bandit_b2.png","70","","70","test","1","","34","","","","circle","square","33","13","2","0.9696969696969697","","","","","","","",""
"null","253167","SARL_v6","SARL_v6sfoa6qkv","55eb04337480920010aa9e0d","freq_resp","","","img/blue_2bandit_b.png","70","img/blue_2bandit_b.png","70","test","","","","","","","","","","","2","","","","","","","","",""
"null","253330","SARL_v6","SARL_v6sfoa6qkv","55eb04337480920010aa9e0d","fixation","","","img/fixation.png","null","","","test","","","","","","","","","","","","","","","","","","","",""
"null","254138","SARL_v6","SARL_v6sfoa6qkv","55eb04337480920010aa9e0d","freq","","","img/blue_2bandit_b2.png","null","","70","test","0","","35","","","","circle","square","34","14","2","0.9411764705882353","","","","","","","",""
"null","254296","SARL_v6","SARL_v6sfoa6qkv","55eb04337480920010aa9e0d","fixation","","","img/fixation.png","null","","","test","","","","","","","","","","","","","","","","","","","",""
"156.89999997615814","254456","SARL_v6","SARL_v6sfoa6qkv","55eb04337480920010aa9e0d","freq","","","img/blue_2bandit_b2.png","70","","70","test","1","","36","","","","circle","square","35","15","2","0.9428571428571428","","","","","","","",""
"null","255112","SARL_v6","SARL_v6sfoa6qkv","55eb04337480920010aa9e0d","freq_resp","","","img/blue_2bandit_b.png","70","img/blue_2bandit_b.png","70","test","","","","","","","","","","","2","","","","","","","","",""
"null","255279","SARL_v6","SARL_v6sfoa6qkv","55eb04337480920010aa9e0d","fixation","","","img/fixation.png","null","","","test","","","","","","","","","","","","","","","","","","","",""
"214.59999990463257","255497","SARL_v6","SARL_v6sfoa6qkv","55eb04337480920010aa9e0d","freq","","","img/blue_2bandit_b2.png","70","","70","test","1","","37","","","","circle","square","36","16","2","0.9444444444444444","","","","","","","",""
"null","256100","SARL_v6","SARL_v6sfoa6qkv","55eb04337480920010aa9e0d","freq_resp","","","img/blue_2bandit_b.png","70","img/blue_2bandit_b.png","70","test","","","","","","","","","","","2","","","","","","","","",""
"null","256263","SARL_v6","SARL_v6sfoa6qkv","55eb04337480920010aa9e0d","fixation","","","img/fixation.png","null","","","test","","","","","","","","","","","","","","","","","","","",""
"625.3000000715256","256893","SARL_v6","SARL_v6sfoa6qkv","55eb04337480920010aa9e0d","infreq","","","img/orange_2bandit_b2.png","68","","68","test","1","","38","","","","circle","square","37","17","2","0.9459459459459459","","","","","","","",""
"null","257079","SARL_v6","SARL_v6sfoa6qkv","55eb04337480920010aa9e0d","infreq_resp","","","img/orange_2bandit_b.png","68","img/orange_2bandit_b.png","68","test","","","","","","","","","","","2","","","","","","","","",""
"null","257248","SARL_v6","SARL_v6sfoa6qkv","55eb04337480920010aa9e0d","fixation","","","img/fixation.png","null","","","test","","","","","","","","","","","","","","","","","","","",""
"343.60000002384186","257596","SARL_v6","SARL_v6sfoa6qkv","55eb04337480920010aa9e0d","freq","","","img/blue_2bandit_b2.png","70","","70","test","1","","39","","","","circle","square","38","18","2","0.9473684210526315","","","","","","","",""
"null","258060","SARL_v6","SARL_v6sfoa6qkv","55eb04337480920010aa9e0d","freq_resp","","","img/blue_2bandit_b.png","70","img/blue_2bandit_b.png","70","test","","","","","","","","","","","2","","","","","","","","",""
"null","258217","SARL_v6","SARL_v6sfoa6qkv","55eb04337480920010aa9e0d","fixation","","","img/fixation.png","null","","","test","","","","","","","","","","","","","","","","","","","",""
"329.59999990463257","258551","SARL_v6","SARL_v6sfoa6qkv","55eb04337480920010aa9e0d","freq","","","img/blue_2bandit_b2.png","70","","70","test","1","","40","","","","circle","square","39","19","2","0.9487179487179487","","","","","","","",""
"null","259034","SARL_v6","SARL_v6sfoa6qkv","55eb04337480920010aa9e0d","freq_resp","","","img/blue_2bandit_b.png","70","img/blue_2bandit_b.png","70","test","","","","","","","","","","","2","","","","","","","","",""
"null","259200","SARL_v6","SARL_v6sfoa6qkv","55eb04337480920010aa9e0d","fixation","","","img/fixation.png","null","","","test","","","","","","","","","","","","","","","","","","","",""
"349.6999999284744","259554","SARL_v6","SARL_v6sfoa6qkv","55eb04337480920010aa9e0d","freq","","","img/blue_2bandit_b2.png","70","","70","test","1","","41","","","","circle","square","40","20","2","0.95","","","","","","","",""
"null","260016","SARL_v6","SARL_v6sfoa6qkv","55eb04337480920010aa9e0d","freq_resp","","","img/blue_2bandit_b.png","70","img/blue_2bandit_b.png","70","test","","","","","","","","","","","2","","","","","","","","",""
"null","260183","SARL_v6","SARL_v6sfoa6qkv","55eb04337480920010aa9e0d","fixation","","","img/fixation.png","null","","","test","","","","","","","","","","","","","","","","","","","",""
"338.39999997615814","260524","SARL_v6","SARL_v6sfoa6qkv","55eb04337480920010aa9e0d","freq","","","img/blue_2bandit_b2.png","70","","70","test","1","","42","","","","circle","square","41","21","2","0.9512195121951219","","","","","","","",""
"null","260999","SARL_v6","SARL_v6sfoa6qkv","55eb04337480920010aa9e0d","freq_resp","","","img/blue_2bandit_b.png","70","img/blue_2bandit_b.png","70","test","","","","","","","","","","","2","","","","","","","","",""
"null","261153","SARL_v6","SARL_v6sfoa6qkv","55eb04337480920010aa9e0d","fixation","","","img/fixation.png","null","","","test","","","","","","","","","","","","","","","","","","","",""
"355","261513","SARL_v6","SARL_v6sfoa6qkv","55eb04337480920010aa9e0d","freq","","","img/blue_2bandit_b2.png","70","","70","test","1","","43","","","","circle","square","42","22","2","0.9523809523809523","","","","","","","",""
"null","261967","SARL_v6","SARL_v6sfoa6qkv","55eb04337480920010aa9e0d","freq_resp","","","img/blue_2bandit_b.png","70","img/blue_2bandit_b.png","70","test","","","","","","","","","","","2","","","","","","","","",""
"null","262135","SARL_v6","SARL_v6sfoa6qkv","55eb04337480920010aa9e0d","fixation","","","img/fixation.png","null","","","test","","","","","","","","","","","","","","","","","","","",""
"415","262552","SARL_v6","SARL_v6sfoa6qkv","55eb04337480920010aa9e0d","freq","","","img/blue_2bandit_b2.png","70","","70","test","1","","44","","","","circle","square","43","23","2","0.9534883720930233","","","","","","","",""
"null","262955","SARL_v6","SARL_v6sfoa6qkv","55eb04337480920010aa9e0d","freq_resp","","","img/blue_2bandit_b.png","70","img/blue_2bandit_b.png","70","test","","","","","","","","","","","2","","","","","","","","",""
"null","263119","SARL_v6","SARL_v6sfoa6qkv","55eb04337480920010aa9e0d","fixation","","","img/fixation.png","null","","","test","","","","","","","","","","","","","","","","","","","",""
"375.2000000476837","263497","SARL_v6","SARL_v6sfoa6qkv","55eb04337480920010aa9e0d","freq","","","img/blue_2bandit_b2.png","70","","70","test","1","","45","","","","circle","square","44","24","2","0.9545454545454546","","","","","","","",""
"null","263936","SARL_v6","SARL_v6sfoa6qkv","55eb04337480920010aa9e0d","freq_resp","","","img/blue_2bandit_b.png","70","img/blue_2bandit_b.png","70","test","","","","","","","","","","","2","","","","","","","","",""
"null","264103","SARL_v6","SARL_v6sfoa6qkv","55eb04337480920010aa9e0d","fixation","","","img/fixation.png","null","","","test","","","","","","","","","","","","","","","","","","","",""
"445.7999999523163","264552","SARL_v6","SARL_v6sfoa6qkv","55eb04337480920010aa9e0d","infreq","","","img/orange_2bandit_b2.png","68","","68","test","1","","46","","","","circle","square","45","25","2","0.9555555555555556","","","","","","","",""
"null","264926","SARL_v6","SARL_v6sfoa6qkv","55eb04337480920010aa9e0d","infreq_resp","","","img/orange_2bandit_b.png","68","img/orange_2bandit_b.png","68","test","","","","","","","","","","","2","","","","","","","","",""
"null","265089","SARL_v6","SARL_v6sfoa6qkv","55eb04337480920010aa9e0d","fixation","","","img/fixation.png","null","","","test","","","","","","","","","","","","","","","","","","","",""
"373.1999999284744","265465","SARL_v6","SARL_v6sfoa6qkv","55eb04337480920010aa9e0d","freq","","","img/blue_2bandit_b2.png","70","","70","test","1","","47","","","","circle","square","46","26","2","0.9565217391304348","","","","","","","",""
"null","265905","SARL_v6","SARL_v6sfoa6qkv","55eb04337480920010aa9e0d","freq_resp","","","img/blue_2bandit_b.png","70","img/blue_2bandit_b.png","70","test","","","","","","","","","","","2","","","","","","","","",""
"null","266072","SARL_v6","SARL_v6sfoa6qkv","55eb04337480920010aa9e0d","fixation","","","img/fixation.png","null","","","test","","","","","","","","","","","","","","","","","","","",""
"536.8999999761581","266612","SARL_v6","SARL_v6sfoa6qkv","55eb04337480920010aa9e0d","rl","","","img/black_2bandit_b2.png","74","","0","test","","","48","","","-8","circle","square","","0","2","","74","-8","-5","-8","-5","circle","2","0"
"null","267369","SARL_v6","SARL_v6sfoa6qkv","55eb04337480920010aa9e0d","feedback","","","<div class=""verylowPoints""> -8 </div>","null","","na","test","","","NaN","","","","","","","","2","","74","","","","","","2",""
"null","268187","SARL_v6","SARL_v6sfoa6qkv","55eb04337480920010aa9e0d","freq","","","img/blue_2bandit_b2.png","null","","70","test","0","","49","","","","circle","square","47","1","3","0.9361702127659575","","","","","","","",""
"null","268344","SARL_v6","SARL_v6sfoa6qkv","55eb04337480920010aa9e0d","fixation","","","img/fixation.png","null","","","test","","","","","","","","","","","","","","","","","","","",""
"1.4000000953674316","268350","SARL_v6","SARL_v6sfoa6qkv","55eb04337480920010aa9e0d","freq","","","img/blue_2bandit_b2.png","70","","70","test","1","","50","","","","circle","square","48","2","3","0.9375","","","","","","","",""
"null","269150","SARL_v6","SARL_v6sfoa6qkv","55eb04337480920010aa9e0d","freq_resp","","","img/blue_2bandit_b.png","70","img/blue_2bandit_b.png","70","test","","","","","","","","","","","3","","","","","","","","",""
"null","269311","SARL_v6","SARL_v6sfoa6qkv","55eb04337480920010aa9e0d","fixation","","","img/fixation.png","null","","","test","","","","","","","","","","","","","","","","","","","",""
"320.39999997615814","269635","SARL_v6","SARL_v6sfoa6qkv","55eb04337480920010aa9e0d","freq","","","img/blue_2bandit_b2.png","70","","70","test","1","","51","","","","circle","square","49","3","3","0.9387755102040817","","","","","","","",""
"null","270122","SARL_v6","SARL_v6sfoa6qkv","55eb04337480920010aa9e0d","freq_resp","","","img/blue_2bandit_b.png","70","img/blue_2bandit_b.png","70","test","","","","","","","","","","","3","","","","","","","","",""
"null","270279","SARL_v6","SARL_v6sfoa6qkv","55eb04337480920010aa9e0d","fixation","","","img/fixation.png","null","","","test","","","","","","","","","","","","","","","","","","","",""
"322.89999997615814","270606","SARL_v6","SARL_v6sfoa6qkv","55eb04337480920010aa9e0d","freq","","","img/blue_2bandit_b2.png","70","","70","test","1","","52","","","","circle","square","50","4","3","0.94","","","","","","","",""
"null","271089","SARL_v6","SARL_v6sfoa6qkv","55eb04337480920010aa9e0d","freq_resp","","","img/blue_2bandit_b.png","70","img/blue_2bandit_b.png","70","test","","","","","","","","","","","3","","","","","","","","",""
"null","271247","SARL_v6","SARL_v6sfoa6qkv","55eb04337480920010aa9e0d","fixation","","","img/fixation.png","null","","","test","","","","","","","","","","","","","","","","","","","",""
"364","271616","SARL_v6","SARL_v6sfoa6qkv","55eb04337480920010aa9e0d","freq","","","img/blue_2bandit_b2.png","70","","70","test","1","","53","","","","circle","square","51","5","3","0.9411764705882353","","","","","","","",""
"null","272060","SARL_v6","SARL_v6sfoa6qkv","55eb04337480920010aa9e0d","freq_resp","","","img/blue_2bandit_b.png","70","img/blue_2bandit_b.png","70","test","","","","","","","","","","","3","","","","","","","","",""
"null","272215","SARL_v6","SARL_v6sfoa6qkv","55eb04337480920010aa9e0d","fixation","","","img/fixation.png","null","","","test","","","","","","","","","","","","","","","","","","","",""
"309.7000000476837","272529","SARL_v6","SARL_v6sfoa6qkv","55eb04337480920010aa9e0d","freq","","","img/blue_2bandit_b2.png","70","","70","test","1","","54","","","","circle","square","52","6","3","0.9423076923076923","","","","","","","",""
"null","273023","SARL_v6","SARL_v6sfoa6qkv","55eb04337480920010aa9e0d","freq_resp","","","img/blue_2bandit_b.png","70","img/blue_2bandit_b.png","70","test","","","","","","","","","","","3","","","","","","","","",""
"null","273180","SARL_v6","SARL_v6sfoa6qkv","55eb04337480920010aa9e0d","fixation","","","img/fixation.png","null","","","test","","","","","","","","","","","","","","","","","","","",""
"290.6999999284744","273473","SARL_v6","SARL_v6sfoa6qkv","55eb04337480920010aa9e0d","freq","","","img/blue_2bandit_b2.png","70","","70","test","1","","55","","","","circle","square","53","7","3","0.9433962264150944","","","","","","","",""
"null","273991","SARL_v6","SARL_v6sfoa6qkv","55eb04337480920010aa9e0d","freq_resp","","","img/blue_2bandit_b.png","70","img/blue_2bandit_b.png","70","test","","","","","","","","","","","3","","","","","","","","",""
"null","274148","SARL_v6","SARL_v6sfoa6qkv","55eb04337480920010aa9e0d","fixation","","","img/fixation.png","null","","","test","","","","","","","","","","","","","","","","","","","",""
"405.10000002384186","274555","SARL_v6","SARL_v6sfoa6qkv","55eb04337480920010aa9e0d","infreq","","","img/orange_2bandit_b2.png","68","","68","test","1","","56","","","","circle","square","54","8","3","0.9444444444444444","","","","","","","",""
"null","274966","SARL_v6","SARL_v6sfoa6qkv","55eb04337480920010aa9e0d","infreq_resp","","","img/orange_2bandit_b.png","68","img/orange_2bandit_b.png","68","test","","","","","","","","","","","3","","","","","","","","",""
"null","275131","SARL_v6","SARL_v6sfoa6qkv","55eb04337480920010aa9e0d","fixation","","","img/fixation.png","null","","","test","","","","","","","","","","","","","","","","","","","",""
"371.6999999284744","275506","SARL_v6","SARL_v6sfoa6qkv","55eb04337480920010aa9e0d","freq","","","img/blue_2bandit_b2.png","70","","70","test","1","","57","","","","circle","square","55","9","3","0.9454545454545454","","","","","","","",""
"null","275950","SARL_v6","SARL_v6sfoa6qkv","55eb04337480920010aa9e0d","freq_resp","","","img/blue_2bandit_b.png","70","img/blue_2bandit_b.png","70","test","","","","","","","","","","","3","","","","","","","","",""
"null","276117","SARL_v6","SARL_v6sfoa6qkv","55eb04337480920010aa9e0d","fixation","","","img/fixation.png","null","","","test","","","","","","","","","","","","","","","","","","","",""
"301.1999999284744","276421","SARL_v6","SARL_v6sfoa6qkv","55eb04337480920010aa9e0d","freq","","","img/blue_2bandit_b2.png","70","","70","test","1","","58","","","","circle","square","56","10","3","0.9464285714285714","","","","","","","",""
"null","276929","SARL_v6","SARL_v6sfoa6qkv","55eb04337480920010aa9e0d","freq_resp","","","img/blue_2bandit_b.png","70","img/blue_2bandit_b.png","70","test","","","","","","","","","","","3","","","","","","","","",""
"null","277093","SARL_v6","SARL_v6sfoa6qkv","55eb04337480920010aa9e0d","fixation","","","img/fixation.png","null","","","test","","","","","","","","","","","","","","","","","","","",""
"301.10000002384186","277398","SARL_v6","SARL_v6sfoa6qkv","55eb04337480920010aa9e0d","freq","","","img/blue_2bandit_b2.png","70","","70","test","1","","59","","","","circle","square","57","11","3","0.9473684210526315","","","","","","","",""
"null","277911","SARL_v6","SARL_v6sfoa6qkv","55eb04337480920010aa9e0d","freq_resp","","","img/blue_2bandit_b.png","70","img/blue_2bandit_b.png","70","test","","","","","","","","","","","3","","","","","","","","",""
"null","278070","SARL_v6","SARL_v6sfoa6qkv","55eb04337480920010aa9e0d","fixation","","","img/fixation.png","null","","","test","","","","","","","","","","","","","","","","","","","",""
"274.7000000476837","278349","SARL_v6","SARL_v6sfoa6qkv","55eb04337480920010aa9e0d","freq","","","img/blue_2bandit_b2.png","70","","70","test","1","","60","","","","circle","square","58","12","3","0.9482758620689655","","","","","","","",""
"null","278880","SARL_v6","SARL_v6sfoa6qkv","55eb04337480920010aa9e0d","freq_resp","","","img/blue_2bandit_b.png","70","img/blue_2bandit_b.png","70","test","","","","","","","","","","","3","","","","","","","","",""
"null","279036","SARL_v6","SARL_v6sfoa6qkv","55eb04337480920010aa9e0d","fixation","","","img/fixation.png","null","","","test","","","","","","","","","","","","","","","","","","","",""
"284.39999997615814","279324","SARL_v6","SARL_v6sfoa6qkv","55eb04337480920010aa9e0d","freq","","","img/blue_2bandit_b2.png","70","","70","test","1","","61","","","","circle","square","59","13","3","0.9491525423728814","","","","","","","",""
"null","279846","SARL_v6","SARL_v6sfoa6qkv","55eb04337480920010aa9e0d","freq_resp","","","img/blue_2bandit_b.png","70","img/blue_2bandit_b.png","70","test","","","","","","","","","","","3","","","","","","","","",""
"null","280006","SARL_v6","SARL_v6sfoa6qkv","55eb04337480920010aa9e0d","fixation","","","img/fixation.png","null","","","test","","","","","","","","","","","","","","","","","","","",""
"312.5","280322","SARL_v6","SARL_v6sfoa6qkv","55eb04337480920010aa9e0d","freq","","","img/blue_2bandit_b2.png","70","","70","test","1","","62","","","","circle","square","60","14","3","0.95","","","","","","","",""
"null","280816","SARL_v6","SARL_v6sfoa6qkv","55eb04337480920010aa9e0d","freq_resp","","","img/blue_2bandit_b.png","70","img/blue_2bandit_b.png","70","test","","","","","","","","","","","3","","","","","","","","",""
"null","280973","SARL_v6","SARL_v6sfoa6qkv","55eb04337480920010aa9e0d","fixation","","","img/fixation.png","null","","","test","","","","","","","","","","","","","","","","","","","",""
"433.7999999523163","281410","SARL_v6","SARL_v6sfoa6qkv","55eb04337480920010aa9e0d","freq","","","img/blue_2bandit_b2.png","70","","70","test","1","","63","","","","circle","square","61","15","3","0.9508196721311475","","","","","","","",""
"null","281792","SARL_v6","SARL_v6sfoa6qkv","55eb04337480920010aa9e0d","freq_resp","","","img/blue_2bandit_b.png","70","img/blue_2bandit_b.png","70","test","","","","","","","","","","","3","","","","","","","","",""
"null","281958","SARL_v6","SARL_v6sfoa6qkv","55eb04337480920010aa9e0d","fixation","","","img/fixation.png","null","","","test","","","","","","","","","","","","","","","","","","","",""
"338.2999999523163","282299","SARL_v6","SARL_v6sfoa6qkv","55eb04337480920010aa9e0d","freq","","","img/blue_2bandit_b2.png","70","","70","test","1","","64","","","","circle","square","62","16","3","0.9516129032258065","","","","","","","",""
"null","282770","SARL_v6","SARL_v6sfoa6qkv","55eb04337480920010aa9e0d","freq_resp","","","img/blue_2bandit_b.png","70","img/blue_2bandit_b.png","70","test","","","","","","","","","","","3","","","","","","","","",""
"null","282924","SARL_v6","SARL_v6sfoa6qkv","55eb04337480920010aa9e0d","fixation","","","img/fixation.png","null","","","test","","","","","","","","","","","","","","","","","","","",""
"286.2000000476837","283213","SARL_v6","SARL_v6sfoa6qkv","55eb04337480920010aa9e0d","freq","","","img/blue_2bandit_b2.png","70","","70","test","1","","65","","","","circle","square","63","17","3","0.9523809523809523","","","","","","","",""
"null","283736","SARL_v6","SARL_v6sfoa6qkv","55eb04337480920010aa9e0d","freq_resp","","","img/blue_2bandit_b.png","70","img/blue_2bandit_b.png","70","test","","","","","","","","","","","3","","","","","","","","",""
"null","283891","SARL_v6","SARL_v6sfoa6qkv","55eb04337480920010aa9e0d","fixation","","","img/fixation.png","null","","","test","","","","","","","","","","","","","","","","","","","",""
"278.2000000476837","284172","SARL_v6","SARL_v6sfoa6qkv","55eb04337480920010aa9e0d","freq","","","img/blue_2bandit_b2.png","70","","70","test","1","","66","","","","circle","square","64","18","3","0.953125","","","","","","","",""
"null","284702","SARL_v6","SARL_v6sfoa6qkv","55eb04337480920010aa9e0d","freq_resp","","","img/blue_2bandit_b.png","70","img/blue_2bandit_b.png","70","test","","","","","","","","","","","3","","","","","","","","",""
"null","284859","SARL_v6","SARL_v6sfoa6qkv","55eb04337480920010aa9e0d","fixation","","","img/fixation.png","null","","","test","","","","","","","","","","","","","","","","","","","",""
"306.39999997615814","285169","SARL_v6","SARL_v6sfoa6qkv","55eb04337480920010aa9e0d","freq","","","img/blue_2bandit_b2.png","70","","70","test","1","","67","","","","circle","square","65","19","3","0.9538461538461539","","","","","","","",""
"null","285671","SARL_v6","SARL_v6sfoa6qkv","55eb04337480920010aa9e0d","freq_resp","","","img/blue_2bandit_b.png","70","img/blue_2bandit_b.png","70","test","","","","","","","","","","","3","","","","","","","","",""
"null","285828","SARL_v6","SARL_v6sfoa6qkv","55eb04337480920010aa9e0d","fixation","","","img/fixation.png","null","","","test","","","","","","","","","","","","","","","","","","","",""
"368.5","286200","SARL_v6","SARL_v6sfoa6qkv","55eb04337480920010aa9e0d","freq","","","img/blue_2bandit_b2.png","70","","70","test","1","","68","","","","circle","square","66","20","3","0.9545454545454546","","","","","","","",""
"null","286643","SARL_v6","SARL_v6sfoa6qkv","55eb04337480920010aa9e0d","freq_resp","","","img/blue_2bandit_b.png","70","img/blue_2bandit_b.png","70","test","","","","","","","","","","","3","","","","","","","","",""
"null","286797","SARL_v6","SARL_v6sfoa6qkv","55eb04337480920010aa9e0d","fixation","","","img/fixation.png","null","","","test","","","","","","","","","","","","","","","","","","","",""
"412.2000000476837","287215","SARL_v6","SARL_v6sfoa6qkv","55eb04337480920010aa9e0d","infreq","","","img/orange_2bandit_b2.png","68","","68","test","1","","69","","","","circle","square","67","21","3","0.9552238805970149","","","","","","","",""
"null","287614","SARL_v6","SARL_v6sfoa6qkv","55eb04337480920010aa9e0d","infreq_resp","","","img/orange_2bandit_b.png","68","img/orange_2bandit_b.png","68","test","","","","","","","","","","","3","","","","","","","","",""
"null","287778","SARL_v6","SARL_v6sfoa6qkv","55eb04337480920010aa9e0d","fixation","","","img/fixation.png","null","","","test","","","","","","","","","","","","","","","","","","","",""
"332.59999990463257","288114","SARL_v6","SARL_v6sfoa6qkv","55eb04337480920010aa9e0d","freq","","","img/blue_2bandit_b2.png","70","","70","test","1","","70","","","","circle","square","68","22","3","0.9558823529411765","","","","","","","",""
"null","288591","SARL_v6","SARL_v6sfoa6qkv","55eb04337480920010aa9e0d","freq_resp","","","img/blue_2bandit_b.png","70","img/blue_2bandit_b.png","70","test","","","","","","","","","","","3","","","","","","","","",""
"null","288747","SARL_v6","SARL_v6sfoa6qkv","55eb04337480920010aa9e0d","fixation","","","img/fixation.png","null","","","test","","","","","","","","","","","","","","","","","","","",""
"327.7999999523163","289081","SARL_v6","SARL_v6sfoa6qkv","55eb04337480920010aa9e0d","freq","","","img/blue_2bandit_b2.png","70","","70","test","1","","71","","","","circle","square","69","23","3","0.9565217391304348","","","","","","","",""
"null","289557","SARL_v6","SARL_v6sfoa6qkv","55eb04337480920010aa9e0d","freq_resp","","","img/blue_2bandit_b.png","70","img/blue_2bandit_b.png","70","test","","","","","","","","","","","3","","","","","","","","",""
"null","289715","SARL_v6","SARL_v6sfoa6qkv","55eb04337480920010aa9e0d","fixation","","","img/fixation.png","null","","","test","","","","","","","","","","","","","","","","","","","",""
"593.2999999523163","290313","SARL_v6","SARL_v6sfoa6qkv","55eb04337480920010aa9e0d","rl","","","img/black_2bandit_b2.png","75","","0","test","","","72","","","-4","circle","square","","0","3","","75","-8","-4","-8","-4","square","3","0"
"null","291075","SARL_v6","SARL_v6sfoa6qkv","55eb04337480920010aa9e0d","feedback","","","<div class=""verylowPoints_sq""> -4 </div>","null","","na","test","","","NaN","","","","","","","","3","","75","","","","","","3",""
"733.8999999761581","291813","SARL_v6","SARL_v6sfoa6qkv","55eb04337480920010aa9e0d","freq","","","img/blue_2bandit_b2.png","68","","70","test","0","","73","","","","circle","square","70","1","4","0.9428571428571428","","","","","","","",""
"null","291889","SARL_v6","SARL_v6sfoa6qkv","55eb04337480920010aa9e0d","freq_resp","","","img/blue_2bandit_b.png","68","img/blue_2bandit_b.png","70","test","","","","","","","","","","","4","","","","","","","","",""
"null","292050","SARL_v6","SARL_v6sfoa6qkv","55eb04337480920010aa9e0d","fixation","","","img/fixation.png","null","","","test","","","","","","","","","","","","","","","","","","","",""
"432.7999999523163","292485","SARL_v6","SARL_v6sfoa6qkv","55eb04337480920010aa9e0d","freq","","","img/blue_2bandit_b2.png","70","","70","test","1","","74","","","","circle","square","71","2","4","0.9436619718309859","","","","","","","",""
"null","292869","SARL_v6","SARL_v6sfoa6qkv","55eb04337480920010aa9e0d","freq_resp","","","img/blue_2bandit_b.png","70","img/blue_2bandit_b.png","70","test","","","","","","","","","","","4","","","","","","","","",""
"null","293032","SARL_v6","SARL_v6sfoa6qkv","55eb04337480920010aa9e0d","fixation","","","img/fixation.png","null","","","test","","","","","","","","","","","","","","","","","","","",""
"324.2999999523163","293358","SARL_v6","SARL_v6sfoa6qkv","55eb04337480920010aa9e0d","freq","","","img/blue_2bandit_b2.png","70","","70","test","1","","75","","","","circle","square","72","3","4","0.9444444444444444","","","","","","","",""
"null","293846","SARL_v6","SARL_v6sfoa6qkv","55eb04337480920010aa9e0d","freq_resp","","","img/blue_2bandit_b.png","70","img/blue_2bandit_b.png","70","test","","","","","","","","","","","4","","","","","","","","",""
"null","294001","SARL_v6","SARL_v6sfoa6qkv","55eb04337480920010aa9e0d","fixation","","","img/fixation.png","null","","","test","","","","","","","","","","","","","","","","","","","",""
"304.90000009536743","294308","SARL_v6","SARL_v6sfoa6qkv","55eb04337480920010aa9e0d","freq","","","img/blue_2bandit_b2.png","70","","70","test","1","","76","","","","circle","square","73","4","4","0.9452054794520548","","","","","","","",""
"null","294814","SARL_v6","SARL_v6sfoa6qkv","55eb04337480920010aa9e0d","freq_resp","","","img/blue_2bandit_b.png","70","img/blue_2bandit_b.png","70","test","","","","","","","","","","","4","","","","","","","","",""
"null","294970","SARL_v6","SARL_v6sfoa6qkv","55eb04337480920010aa9e0d","fixation","","","img/fixation.png","null","","","test","","","","","","","","","","","","","","","","","","","",""
"284.7999999523163","295258","SARL_v6","SARL_v6sfoa6qkv","55eb04337480920010aa9e0d","freq","","","img/blue_2bandit_b2.png","70","","70","test","1","","77","","","","circle","square","74","5","4","0.9459459459459459","","","","","","","",""
"null","295781","SARL_v6","SARL_v6sfoa6qkv","55eb04337480920010aa9e0d","freq_resp","","","img/blue_2bandit_b.png","70","img/blue_2bandit_b.png","70","test","","","","","","","","","","","4","","","","","","","","",""
"null","295937","SARL_v6","SARL_v6sfoa6qkv","55eb04337480920010aa9e0d","fixation","","","img/fixation.png","null","","","test","","","","","","","","","","","","","","","","","","","",""
"303.89999997615814","296245","SARL_v6","SARL_v6sfoa6qkv","55eb04337480920010aa9e0d","freq","","","img/blue_2bandit_b2.png","70","","70","test","1","","78","","","","circle","square","75","6","4","0.9466666666666667","","","","","","","",""
"null","296746","SARL_v6","SARL_v6sfoa6qkv","55eb04337480920010aa9e0d","freq_resp","","","img/blue_2bandit_b.png","70","img/blue_2bandit_b.png","70","test","","","","","","","","","","","4","","","","","","","","",""
"null","296906","SARL_v6","SARL_v6sfoa6qkv","55eb04337480920010aa9e0d","fixation","","","img/fixation.png","null","","","test","","","","","","","","","","","","","","","","","","","",""
"322.39999997615814","297233","SARL_v6","SARL_v6sfoa6qkv","55eb04337480920010aa9e0d","freq","","","img/blue_2bandit_b2.png","70","","70","test","1","","79","","","","circle","square","76","7","4","0.9473684210526315","","","","","","","",""
"null","297716","SARL_v6","SARL_v6sfoa6qkv","55eb04337480920010aa9e0d","freq_resp","","","img/blue_2bandit_b.png","70","img/blue_2bandit_b.png","70","test","","","","","","","","","","","4","","","","","","","","",""
"null","297874","SARL_v6","SARL_v6sfoa6qkv","55eb04337480920010aa9e0d","fixation","","","img/fixation.png","null","","","test","","","","","","","","","","","","","","","","","","","",""
"419.7999999523163","298298","SARL_v6","SARL_v6sfoa6qkv","55eb04337480920010aa9e0d","infreq","","","img/orange_2bandit_b2.png","68","","68","test","1","","80","","","","circle","square","77","8","4","0.948051948051948","","","","","","","",""
"null","298695","SARL_v6","SARL_v6sfoa6qkv","55eb04337480920010aa9e0d","infreq_resp","","","img/orange_2bandit_b.png","68","img/orange_2bandit_b.png","68","test","","","","","","","","","","","4","","","","","","","","",""
"null","298857","SARL_v6","SARL_v6sfoa6qkv","55eb04337480920010aa9e0d","fixation","","","img/fixation.png","null","","","test","","","","","","","","","","","","","","","","","","","",""
"343.2000000476837","299203","SARL_v6","SARL_v6sfoa6qkv","55eb04337480920010aa9e0d","freq","","","img/blue_2bandit_b2.png","70","","70","test","1","","81","","","","circle","square","78","9","4","0.9487179487179487","","","","","","","",""
"null","299668","SARL_v6","SARL_v6sfoa6qkv","55eb04337480920010aa9e0d","freq_resp","","","img/blue_2bandit_b.png","70","img/blue_2bandit_b.png","70","test","","","","","","","","","","","4","","","","","","","","",""
"null","299825","SARL_v6","SARL_v6sfoa6qkv","55eb04337480920010aa9e0d","fixation","","","img/fixation.png","null","","","test","","","","","","","","","","","","","","","","","","","",""
"314","300143","SARL_v6","SARL_v6sfoa6qkv","55eb04337480920010aa9e0d","freq","","","img/blue_2bandit_b2.png","70","","70","test","1","","82","","","","circle","square","79","10","4","0.9493670886075949","","","","","","","",""
"null","300637","SARL_v6","SARL_v6sfoa6qkv","55eb04337480920010aa9e0d","freq_resp","","","img/blue_2bandit_b.png","70","img/blue_2bandit_b.png","70","test","","","","","","","","","","","4","","","","","","","","",""
"null","300792","SARL_v6","SARL_v6sfoa6qkv","55eb04337480920010aa9e0d","fixation","","","img/fixation.png","null","","","test","","","","","","","","","","","","","","","","","","","",""
"303.7999999523163","301098","SARL_v6","SARL_v6sfoa6qkv","55eb04337480920010aa9e0d","freq","","","img/blue_2bandit_b2.png","70","","70","test","1","","83","","","","circle","square","80","11","4","0.95","","","","","","","",""
"null","301605","SARL_v6","SARL_v6sfoa6qkv","55eb04337480920010aa9e0d","freq_resp","","","img/blue_2bandit_b.png","70","img/blue_2bandit_b.png","70","test","","","","","","","","","","","4","","","","","","","","",""
"null","301759","SARL_v6","SARL_v6sfoa6qkv","55eb04337480920010aa9e0d","fixation","","","img/fixation.png","null","","","test","","","","","","","","","","","","","","","","","","","",""
"318.5","302079","SARL_v6","SARL_v6sfoa6qkv","55eb04337480920010aa9e0d","freq","","","img/blue_2bandit_b2.png","70","","70","test","1","","84","","","","circle","square","81","12","4","0.9506172839506173","","","","","","","",""
"null","302571","SARL_v6","SARL_v6sfoa6qkv","55eb04337480920010aa9e0d","freq_resp","","","img/blue_2bandit_b.png","70","img/blue_2bandit_b.png","70","test","","","","","","","","","","","4","","","","","","","","",""
"null","302726","SARL_v6","SARL_v6sfoa6qkv","55eb04337480920010aa9e0d","fixation","","","img/fixation.png","null","","","test","","","","","","","","","","","","","","","","","","","",""
"294.10000002384186","303022","SARL_v6","SARL_v6sfoa6qkv","55eb04337480920010aa9e0d","freq","","","img/blue_2bandit_b2.png","70","","70","test","1","","85","","","","circle","square","82","13","4","0.9512195121951219","","","","","","","",""
"null","303536","SARL_v6","SARL_v6sfoa6qkv","55eb04337480920010aa9e0d","freq_resp","","","img/blue_2bandit_b.png","70","img/blue_2bandit_b.png","70","test","","","","","","","","","","","4","","","","","","","","",""
"null","303696","SARL_v6","SARL_v6sfoa6qkv","55eb04337480920010aa9e0d","fixation","","","img/fixation.png","null","","","test","","","","","","","","","","","","","","","","","","","",""
"430.59999990463257","304130","SARL_v6","SARL_v6sfoa6qkv","55eb04337480920010aa9e0d","freq","","","img/blue_2bandit_b2.png","70","","70","test","1","","86","","","","circle","square","83","14","4","0.9518072289156626","","","","","","","",""
"null","304513","SARL_v6","SARL_v6sfoa6qkv","55eb04337480920010aa9e0d","freq_resp","","","img/blue_2bandit_b.png","70","img/blue_2bandit_b.png","70","test","","","","","","","","","","","4","","","","","","","","",""
"null","304678","SARL_v6","SARL_v6sfoa6qkv","55eb04337480920010aa9e0d","fixation","","","img/fixation.png","null","","","test","","","","","","","","","","","","","","","","","","","",""
"336.89999997615814","305018","SARL_v6","SARL_v6sfoa6qkv","55eb04337480920010aa9e0d","freq","","","img/blue_2bandit_b2.png","70","","70","test","1","","87","","","","circle","square","84","15","4","0.9523809523809523","","","","","","","",""
"null","305494","SARL_v6","SARL_v6sfoa6qkv","55eb04337480920010aa9e0d","freq_resp","","","img/blue_2bandit_b.png","70","img/blue_2bandit_b.png","70","test","","","","","","","","","","","4","","","","","","","","",""
"null","305663","SARL_v6","SARL_v6sfoa6qkv","55eb04337480920010aa9e0d","fixation","","","img/fixation.png","null","","","test","","","","","","","","","","","","","","","","","","","",""
"556.6000000238419","306225","SARL_v6","SARL_v6sfoa6qkv","55eb04337480920010aa9e0d","infreq","","","img/orange_2bandit_b2.png","68","","68","test","1","","88","","","","circle","square","85","16","4","0.9529411764705882","","","","","","","",""
"null","306475","SARL_v6","SARL_v6sfoa6qkv","55eb04337480920010aa9e0d","infreq_resp","","","img/orange_2bandit_b.png","68","img/orange_2bandit_b.png","68","test","","","","","","","","","","","4","","","","","","","","",""
"null","306633","SARL_v6","SARL_v6sfoa6qkv","55eb04337480920010aa9e0d","fixation","","","img/fixation.png","null","","","test","","","","","","","","","","","","","","","","","","","",""
"346.2000000476837","306984","SARL_v6","SARL_v6sfoa6qkv","55eb04337480920010aa9e0d","freq","","","img/blue_2bandit_b2.png","70","","70","test","1","","89","","","","circle","square","86","17","4","0.9534883720930233","","","","","","","",""
"null","307447","SARL_v6","SARL_v6sfoa6qkv","55eb04337480920010aa9e0d","freq_resp","","","img/blue_2bandit_b.png","70","img/blue_2bandit_b.png","70","test","","","","","","","","","","","4","","","","","","","","",""
"null","307613","SARL_v6","SARL_v6sfoa6qkv","55eb04337480920010aa9e0d","fixation","","","img/fixation.png","null","","","test","","","","","","","","","","","","","","","","","","","",""
"300.89999997615814","307916","SARL_v6","SARL_v6sfoa6qkv","55eb04337480920010aa9e0d","freq","","","img/blue_2bandit_b2.png","70","","70","test","1","","90","","","","circle","square","87","18","4","0.9540229885057471","","","","","","","",""
"null","308425","SARL_v6","SARL_v6sfoa6qkv","55eb04337480920010aa9e0d","freq_resp","","","img/blue_2bandit_b.png","70","img/blue_2bandit_b.png","70","test","","","","","","","","","","","4","","","","","","","","",""
"null","308584","SARL_v6","SARL_v6sfoa6qkv","55eb04337480920010aa9e0d","fixation","","","img/fixation.png","null","","","test","","","","","","","","","","","","","","","","","","","",""
"308.89999997615814","308897","SARL_v6","SARL_v6sfoa6qkv","55eb04337480920010aa9e0d","freq","","","img/blue_2bandit_b2.png","70","","70","test","1","","91","","","","circle","square","88","19","4","0.9545454545454546","","","","","","","",""
"null","309397","SARL_v6","SARL_v6sfoa6qkv","55eb04337480920010aa9e0d","freq_resp","","","img/blue_2bandit_b.png","70","img/blue_2bandit_b.png","70","test","","","","","","","","","","","4","","","","","","","","",""
"null","309551","SARL_v6","SARL_v6sfoa6qkv","55eb04337480920010aa9e0d","fixation","","","img/fixation.png","null","","","test","","","","","","","","","","","","","","","","","","","",""
"355","309911","SARL_v6","SARL_v6sfoa6qkv","55eb04337480920010aa9e0d","freq","","","img/blue_2bandit_b2.png","70","","70","test","1","","92","","","","circle","square","89","20","4","0.9550561797752809","","","","","","","",""
"null","310364","SARL_v6","SARL_v6sfoa6qkv","55eb04337480920010aa9e0d","freq_resp","","","img/blue_2bandit_b.png","70","img/blue_2bandit_b.png","70","test","","","","","","","","","","","4","","","","","","","","",""
"null","310517","SARL_v6","SARL_v6sfoa6qkv","55eb04337480920010aa9e0d","fixation","","","img/fixation.png","null","","","test","","","","","","","","","","","","","","","","","","","",""
"500.2000000476837","311021","SARL_v6","SARL_v6sfoa6qkv","55eb04337480920010aa9e0d","rl","","","img/black_2bandit_b2.png","74","","0","test","","","93","","","-12","circle","square","","0","4","","74","-12","0","-12","0","circle","4","0"
"null","311779","SARL_v6","SARL_v6sfoa6qkv","55eb04337480920010aa9e0d","feedback","","","<div class=""verylowPoints""> -12 </div>","null","","na","test","","","NaN","","","","","","","","4","","74","","","","","","4",""
"781.3999999761581","312564","SARL_v6","SARL_v6sfoa6qkv","55eb04337480920010aa9e0d","freq","","","img/blue_2bandit_b2.png","70","","70","test","1","","94","","","","circle","square","90","1","5","0.9555555555555556","","","","","","","",""
"null","312585","SARL_v6","SARL_v6sfoa6qkv","55eb04337480920010aa9e0d","freq_resp","","","img/blue_2bandit_b.png","70","img/blue_2bandit_b.png","70","test","","","","","","","","","","","5","","","","","","","","",""
"null","312752","SARL_v6","SARL_v6sfoa6qkv","55eb04337480920010aa9e0d","fixation","","","img/fixation.png","null","","","test","","","","","","","","","","","","","","","","","","","",""
"461.5","313218","SARL_v6","SARL_v6sfoa6qkv","55eb04337480920010aa9e0d","freq","","","img/blue_2bandit_b2.png","70","","70","test","1","","95","","","","circle","square","91","2","5","0.9560439560439561","","","","","","","",""
"null","313575","SARL_v6","SARL_v6sfoa6qkv","55eb04337480920010aa9e0d","freq_resp","","","img/blue_2bandit_b.png","70","img/blue_2bandit_b.png","70","test","","","","","","","","","","","5","","","","","","","","",""
"null","313737","SARL_v6","SARL_v6sfoa6qkv","55eb04337480920010aa9e0d","fixation","","","img/fixation.png","null","","","test","","","","","","","","","","","","","","","","","","","",""
"334.89999997615814","314075","SARL_v6","SARL_v6sfoa6qkv","55eb04337480920010aa9e0d","freq","","","img/blue_2bandit_b2.png","70","","70","test","1","","96","","","","circle","square","92","3","5","0.9565217391304348","","","","","","","",""
"null","314551","SARL_v6","SARL_v6sfoa6qkv","55eb04337480920010aa9e0d","freq_resp","","","img/blue_2bandit_b.png","70","img/blue_2bandit_b.png","70","test","","","","","","","","","","","5","","","","","","","","",""
"null","314707","SARL_v6","SARL_v6sfoa6qkv","55eb04337480920010aa9e0d","fixation","","","img/fixation.png","null","","","test","","","","","","","","","","","","","","","","","","","",""
"341.5","315052","SARL_v6","SARL_v6sfoa6qkv","55eb04337480920010aa9e0d","freq","","","img/blue_2bandit_b2.png","70","","70","test","1","","97","","","","circle","square","93","4","5","0.956989247311828","","","","","","","",""
"null","315520","SARL_v6","SARL_v6sfoa6qkv","55eb04337480920010aa9e0d","freq_resp","","","img/blue_2bandit_b.png","70","img/blue_2bandit_b.png","70","test","","","","","","","","","","","5","","","","","","","","",""
"null","315676","SARL_v6","SARL_v6sfoa6qkv","55eb04337480920010aa9e0d","fixation","","","img/fixation.png","null","","","test","","","","","","","","","","","","","","","","","","","",""
"348.1999999284744","316028","SARL_v6","SARL_v6sfoa6qkv","55eb04337480920010aa9e0d","freq","","","img/blue_2bandit_b2.png","70","","70","test","1","","98","","","","circle","square","94","5","5","0.9574468085106383","","","","","","","",""
"null","316487","SARL_v6","SARL_v6sfoa6qkv","55eb04337480920010aa9e0d","freq_resp","","","img/blue_2bandit_b.png","70","img/blue_2bandit_b.png","70","test","","","","","","","","","","","5","","","","","","","","",""
"null","316642","SARL_v6","SARL_v6sfoa6qkv","55eb04337480920010aa9e0d","fixation","","","img/fixation.png","null","","","test","","","","","","","","","","","","","","","","","","","",""
"327.7999999523163","316974","SARL_v6","SARL_v6sfoa6qkv","55eb04337480920010aa9e0d","freq","","","img/blue_2bandit_b2.png","70","","70","test","1","","99","","","","circle","square","95","6","5","0.9578947368421052","","","","","","","",""
"null","317453","SARL_v6","SARL_v6sfoa6qkv","55eb04337480920010aa9e0d","freq_resp","","","img/blue_2bandit_b.png","70","img/blue_2bandit_b.png","70","test","","","","","","","","","","","5","","","","","","","","",""
"null","317617","SARL_v6","SARL_v6sfoa6qkv","55eb04337480920010aa9e0d","fixation","","","img/fixation.png","null","","","test","","","","","","","","","","","","","","","","","","","",""
"395.2999999523163","318016","SARL_v6","SARL_v6sfoa6qkv","55eb04337480920010aa9e0d","freq","","","img/blue_2bandit_b2.png","70","","70","test","1","","100","","","","circle","square","96","7","5","0.9583333333333334","","","","","","","",""
"null","318427","SARL_v6","SARL_v6sfoa6qkv","55eb04337480920010aa9e0d","freq_resp","","","img/blue_2bandit_b.png","70","img/blue_2bandit_b.png","70","test","","","","","","","","","","","5","","","","","","","","",""
"null","318593","SARL_v6","SARL_v6sfoa6qkv","55eb04337480920010aa9e0d","fixation","","","img/fixation.png","null","","","test","","","","","","","","","","","","","","","","","","","",""
"294.5","318891","SARL_v6","SARL_v6sfoa6qkv","55eb04337480920010aa9e0d","freq","","","img/blue_2bandit_b2.png","70","","70","test","1","","101","","","","circle","square","97","8","5","0.9587628865979382","","","","","","","",""
"null","319403","SARL_v6","SARL_v6sfoa6qkv","55eb04337480920010aa9e0d","freq_resp","","","img/blue_2bandit_b.png","70","img/blue_2bandit_b.png","70","test","","","","","","","","","","","5","","","","","","","","",""
"null","319562","SARL_v6","SARL_v6sfoa6qkv","55eb04337480920010aa9e0d","fixation","","","img/fixation.png","null","","","test","","","","","","","","","","","","","","","","","","","",""
"364","319931","SARL_v6","SARL_v6sfoa6qkv","55eb04337480920010aa9e0d","freq","","","img/blue_2bandit_b2.png","70","","70","test","1","","102","","","","circle","square","98","9","5","0.9591836734693877","","","","","","","",""
"null","320377","SARL_v6","SARL_v6sfoa6qkv","55eb04337480920010aa9e0d","freq_resp","","","img/blue_2bandit_b.png","70","img/blue_2bandit_b.png","70","test","","","","","","","","","","","5","","","","","","","","",""
"null","320547","SARL_v6","SARL_v6sfoa6qkv","55eb04337480920010aa9e0d","fixation","","","img/fixation.png","null","","","test","","","","","","","","","","","","","","","","","","","",""
"299","320849","SARL_v6","SARL_v6sfoa6qkv","55eb04337480920010aa9e0d","freq","","","img/blue_2bandit_b2.png","70","","70","test","1","","103","","","","circle","square","99","10","5","0.9595959595959596","","","","","","","",""
"null","321356","SARL_v6","SARL_v6sfoa6qkv","55eb04337480920010aa9e0d","freq_resp","","","img/blue_2bandit_b.png","70","img/blue_2bandit_b.png","70","test","","","","","","","","","","","5","","","","","","","","",""
"null","321513","SARL_v6","SARL_v6sfoa6qkv","55eb04337480920010aa9e0d","fixation","","","img/fixation.png","null","","","test","","","","","","","","","","","","","","","","","","","",""
"339.7999999523163","321855","SARL_v6","SARL_v6sfoa6qkv","55eb04337480920010aa9e0d","freq","","","img/blue_2bandit_b2.png","70","","70","test","1","","104","","","","circle","square","100","11","5","0.96","","","","","","","",""
"null","322326","SARL_v6","SARL_v6sfoa6qkv","55eb04337480920010aa9e0d","freq_resp","","","img/blue_2bandit_b.png","70","img/blue_2bandit_b.png","70","test","","","","","","","","","","","5","","","","","","","","",""
"null","322480","SARL_v6","SARL_v6sfoa6qkv","55eb04337480920010aa9e0d","fixation","","","img/fixation.png","null","","","test","","","","","","","","","","","","","","","","","","","",""
"256.60000002384186","322740","SARL_v6","SARL_v6sfoa6qkv","55eb04337480920010aa9e0d","freq","","","img/blue_2bandit_b2.png","70","","70","test","1","","105","","","","circle","square","101","12","5","0.9603960396039604","","","","","","","",""
"null","323288","SARL_v6","SARL_v6sfoa6qkv","55eb04337480920010aa9e0d","freq_resp","","","img/blue_2bandit_b.png","70","img/blue_2bandit_b.png","70","test","","","","","","","","","","","5","","","","","","","","",""
"null","323449","SARL_v6","SARL_v6sfoa6qkv","55eb04337480920010aa9e0d","fixation","","","img/fixation.png","null","","","test","","","","","","","","","","","","","","","","","","","",""
"267.39999997615814","323718","SARL_v6","SARL_v6sfoa6qkv","55eb04337480920010aa9e0d","freq","","","img/blue_2bandit_b2.png","70","","70","test","1","","106","","","","circle","square","102","13","5","0.9607843137254902","","","","","","","",""
"null","324255","SARL_v6","SARL_v6sfoa6qkv","55eb04337480920010aa9e0d","freq_resp","","","img/blue_2bandit_b.png","70","img/blue_2bandit_b.png","70","test","","","","","","","","","","","5","","","","","","","","",""
"null","324419","SARL_v6","SARL_v6sfoa6qkv","55eb04337480920010aa9e0d","fixation","","","img/fixation.png","null","","","test","","","","","","","","","","","","","","","","","","","",""
"350.10000002384186","324774","SARL_v6","SARL_v6sfoa6qkv","55eb04337480920010aa9e0d","freq","","","img/blue_2bandit_b2.png","70","","70","test","1","","107","","","","circle","square","103","14","5","0.9611650485436893","","","","","","","",""
"null","325229","SARL_v6","SARL_v6sfoa6qkv","55eb04337480920010aa9e0d","freq_resp","","","img/blue_2bandit_b.png","70","img/blue_2bandit_b.png","70","test","","","","","","","","","","","5","","","","","","","","",""
"null","325384","SARL_v6","SARL_v6sfoa6qkv","55eb04337480920010aa9e0d","fixation","","","img/fixation.png","null","","","test","","","","","","","","","","","","","","","","","","","",""
"318.5","325708","SARL_v6","SARL_v6sfoa6qkv","55eb04337480920010aa9e0d","freq","","","img/blue_2bandit_b2.png","70","","70","test","1","","108","","","","circle","square","104","15","5","0.9615384615384616","","","","","","","",""
"null","326197","SARL_v6","SARL_v6sfoa6qkv","55eb04337480920010aa9e0d","freq_resp","","","img/blue_2bandit_b.png","70","img/blue_2bandit_b.png","70","test","","","","","","","","","","","5","","","","","","","","",""
"null","326352","SARL_v6","SARL_v6sfoa6qkv","55eb04337480920010aa9e0d","fixation","","","img/fixation.png","null","","","test","","","","","","","","","","","","","","","","","","","",""
"354.2999999523163","326711","SARL_v6","SARL_v6sfoa6qkv","55eb04337480920010aa9e0d","freq","","","img/blue_2bandit_b2.png","70","","70","test","1","","109","","","","circle","square","105","16","5","0.9619047619047619","","","","","","","",""
"null","327166","SARL_v6","SARL_v6sfoa6qkv","55eb04337480920010aa9e0d","freq_resp","","","img/blue_2bandit_b.png","70","img/blue_2bandit_b.png","70","test","","","","","","","","","","","5","","","","","","","","",""
"null","327334","SARL_v6","SARL_v6sfoa6qkv","55eb04337480920010aa9e0d","fixation","","","img/fixation.png","null","","","test","","","","","","","","","","","","","","","","","","","",""
"355.89999997615814","327692","SARL_v6","SARL_v6sfoa6qkv","55eb04337480920010aa9e0d","freq","","","img/blue_2bandit_b2.png","70","","70","test","1","","110","","","","circle","square","106","17","5","0.9622641509433962","","","","","","","",""
"null","328151","SARL_v6","SARL_v6sfoa6qkv","55eb04337480920010aa9e0d","freq_resp","","","img/blue_2bandit_b.png","70","img/blue_2bandit_b.png","70","test","","","","","","","","","","","5","","","","","","","","",""
"null","328305","SARL_v6","SARL_v6sfoa6qkv","55eb04337480920010aa9e0d","fixation","","","img/fixation.png","null","","","test","","","","","","","","","","","","","","","","","","","",""
"294.39999997615814","328603","SARL_v6","SARL_v6sfoa6qkv","55eb04337480920010aa9e0d","freq","","","img/blue_2bandit_b2.png","70","","70","test","1","","111","","","","circle","square","107","18","5","0.9626168224299065","","","","","","","",""
"null","329113","SARL_v6","SARL_v6sfoa6qkv","55eb04337480920010aa9e0d","freq_resp","","","img/blue_2bandit_b.png","70","img/blue_2bandit_b.png","70","test","","","","","","","","","","","5","","","","","","","","",""
"null","329270","SARL_v6","SARL_v6sfoa6qkv","55eb04337480920010aa9e0d","fixation","","","img/fixation.png","null","","","test","","","","","","","","","","","","","","","","","","","",""
"474","329747","SARL_v6","SARL_v6sfoa6qkv","55eb04337480920010aa9e0d","infreq","","","img/orange_2bandit_b2.png","68","","68","test","1","","112","","","","circle","square","108","19","5","0.9629629629629629","","","","","","","",""
"null","330092","SARL_v6","SARL_v6sfoa6qkv","55eb04337480920010aa9e0d","infreq_resp","","","img/orange_2bandit_b.png","68","img/orange_2bandit_b.png","68","test","","","","","","","","","","","5","","","","","","","","",""
"null","330253","SARL_v6","SARL_v6sfoa6qkv","55eb04337480920010aa9e0d","fixation","","","img/fixation.png","null","","","test","","","","","","","","","","","","","","","","","","","",""
"362","330617","SARL_v6","SARL_v6sfoa6qkv","55eb04337480920010aa9e0d","infreq","","","img/orange_2bandit_b2.png","68","","68","test","1","","113","","","","circle","square","109","20","5","0.963302752293578","","","","","","","",""
"null","331069","SARL_v6","SARL_v6sfoa6qkv","55eb04337480920010aa9e0d","infreq_resp","","","img/orange_2bandit_b.png","68","img/orange_2bandit_b.png","68","test","","","","","","","","","","","5","","","","","","","","",""
"null","331223","SARL_v6","SARL_v6sfoa6qkv","55eb04337480920010aa9e0d","fixation","","","img/fixation.png","null","","","test","","","","","","","","","","","","","","","","","","","",""
"408.10000002384186","331634","SARL_v6","SARL_v6sfoa6qkv","55eb04337480920010aa9e0d","freq","","","img/blue_2bandit_b2.png","70","","70","test","1","","114","","","","circle","square","110","21","5","0.9636363636363636","","","","","","","",""
"null","332042","SARL_v6","SARL_v6sfoa6qkv","55eb04337480920010aa9e0d","freq_resp","","","img/blue_2bandit_b.png","70","img/blue_2bandit_b.png","70","test","","","","","","","","","","","5","","","","","","","","",""
"null","332205","SARL_v6","SARL_v6sfoa6qkv","55eb04337480920010aa9e0d","fixation","","","img/fixation.png","null","","","test","","","","","","","","","","","","","","","","","","","",""
"327.7999999523163","332535","SARL_v6","SARL_v6sfoa6qkv","55eb04337480920010aa9e0d","freq","","","img/blue_2bandit_b2.png","70","","70","test","1","","115","","","","circle","square","111","22","5","0.963963963963964","","","","","","","",""
"null","333019","SARL_v6","SARL_v6sfoa6qkv","55eb04337480920010aa9e0d","freq_resp","","","img/blue_2bandit_b.png","70","img/blue_2bandit_b.png","70","test","","","","","","","","","","","5","","","","","","","","",""
"null","333176","SARL_v6","SARL_v6sfoa6qkv","55eb04337480920010aa9e0d","fixation","","","img/fixation.png","null","","","test","","","","","","","","","","","","","","","","","","","",""
"295.60000002384186","333476","SARL_v6","SARL_v6sfoa6qkv","55eb04337480920010aa9e0d","freq","","","img/blue_2bandit_b2.png","70","","70","test","1","","116","","","","circle","square","112","23","5","0.9642857142857143","","","","","","","",""
"null","333988","SARL_v6","SARL_v6sfoa6qkv","55eb04337480920010aa9e0d","freq_resp","","","img/blue_2bandit_b.png","70","img/blue_2bandit_b.png","70","test","","","","","","","","","","","5","","","","","","","","",""
"null","334143","SARL_v6","SARL_v6sfoa6qkv","55eb04337480920010aa9e0d","fixation","","","img/fixation.png","null","","","test","","","","","","","","","","","","","","","","","","","",""
"275","334423","SARL_v6","SARL_v6sfoa6qkv","55eb04337480920010aa9e0d","freq","","","img/blue_2bandit_b2.png","70","","70","test","1","","117","","","","circle","square","113","24","5","0.9646017699115044","","","","","","","",""
"null","334967","SARL_v6","SARL_v6sfoa6qkv","55eb04337480920010aa9e0d","freq_resp","","","img/blue_2bandit_b.png","70","img/blue_2bandit_b.png","70","test","","","","","","","","","","","5","","","","","","","","",""
"null","335129","SARL_v6","SARL_v6sfoa6qkv","55eb04337480920010aa9e0d","fixation","","","img/fixation.png","null","","","test","","","","","","","","","","","","","","","","","","","",""
"661.2000000476837","335796","SARL_v6","SARL_v6sfoa6qkv","55eb04337480920010aa9e0d","rl","","","img/black_2bandit_b2.png","74","","0","test","","","118","","","-7","circle","square","","0","5","","74","-7","4","-7","4","circle","5","0"
"null","336555","SARL_v6","SARL_v6sfoa6qkv","55eb04337480920010aa9e0d","feedback","","","<div class=""verylowPoints""> -7 </div>","null","","na","test","","","NaN","","","","","","","","5","","74","","","","","","5",""
"633.3000000715256","337191","SARL_v6","SARL_v6sfoa6qkv","55eb04337480920010aa9e0d","freq","","","img/blue_2bandit_b2.png","70","","70","test","1","","119","","","","circle","square","114","1","6","0.9649122807017544","","","","","","","",""
"null","337368","SARL_v6","SARL_v6sfoa6qkv","55eb04337480920010aa9e0d","freq_resp","","","img/blue_2bandit_b.png","70","img/blue_2bandit_b.png","70","test","","","","","","","","","","","6","","","","","","","","",""
"null","337522","SARL_v6","SARL_v6sfoa6qkv","55eb04337480920010aa9e0d","fixation","","","img/fixation.png","null","","","test","","","","","","","","","","","","","","","","","","","",""
"659.6000000238419","338185","SARL_v6","SARL_v6sfoa6qkv","55eb04337480920010aa9e0d","infreq","","","img/orange_2bandit_b2.png","68","","68","test","1","","120","","","","circle","square","115","2","6","0.9652173913043478","","","","","","","",""
"null","338332","SARL_v6","SARL_v6sfoa6qkv","55eb04337480920010aa9e0d","infreq_resp","","","img/orange_2bandit_b.png","68","img/orange_2bandit_b.png","68","test","","","","","","","","","","","6","","","","","","","","",""
"null","338498","SARL_v6","SARL_v6sfoa6qkv","55eb04337480920010aa9e0d","fixation","","","img/fixation.png","null","","","test","","","","","","","","","","","","","","","","","","","",""
"598.2999999523163","339100","SARL_v6","SARL_v6sfoa6qkv","55eb04337480920010aa9e0d","infreq","","","img/orange_2bandit_b2.png","68","","68","test","1","","121","","","","circle","square","116","3","6","0.9655172413793104","","","","","","","",""
"null","339309","SARL_v6","SARL_v6sfoa6qkv","55eb04337480920010aa9e0d","infreq_resp","","","img/orange_2bandit_b.png","68","img/orange_2bandit_b.png","68","test","","","","","","","","","","","6","","","","","","","","",""
"null","339465","SARL_v6","SARL_v6sfoa6qkv","55eb04337480920010aa9e0d","fixation","","","img/fixation.png","null","","","test","","","","","","","","","","","","","","","","","","","",""
"542.8000000715256","340013","SARL_v6","SARL_v6sfoa6qkv","55eb04337480920010aa9e0d","freq","","","img/blue_2bandit_b2.png","70","","70","test","1","","122","","","","circle","square","117","4","6","0.9658119658119658","","","","","","","",""
"null","340277","SARL_v6","SARL_v6sfoa6qkv","55eb04337480920010aa9e0d","freq_resp","","","img/blue_2bandit_b.png","70","img/blue_2bandit_b.png","70","test","","","","","","","","","","","6","","","","","","","","",""
"null","340433","SARL_v6","SARL_v6sfoa6qkv","55eb04337480920010aa9e0d","fixation","","","img/fixation.png","null","","","test","","","","","","","","","","","","","","","","","","","",""
"402.09999990463257","340839","SARL_v6","SARL_v6sfoa6qkv","55eb04337480920010aa9e0d","freq","","","img/blue_2bandit_b2.png","70","","70","test","1","","123","","","","circle","square","118","5","6","0.9661016949152542","","","","","","","",""
"null","341249","SARL_v6","SARL_v6sfoa6qkv","55eb04337480920010aa9e0d","freq_resp","","","img/blue_2bandit_b.png","70","img/blue_2bandit_b.png","70","test","","","","","","","","","","","6","","","","","","","","",""
"null","341411","SARL_v6","SARL_v6sfoa6qkv","55eb04337480920010aa9e0d","fixation","","","img/fixation.png","null","","","test","","","","","","","","","","","","","","","","","","","",""
"330.7999999523163","341744","SARL_v6","SARL_v6sfoa6qkv","55eb04337480920010aa9e0d","freq","","","img/blue_2bandit_b2.png","70","","70","test","1","","124","","","","circle","square","119","6","6","0.9663865546218487","","","","","","","",""
"null","342224","SARL_v6","SARL_v6sfoa6qkv","55eb04337480920010aa9e0d","freq_resp","","","img/blue_2bandit_b.png","70","img/blue_2bandit_b.png","70","test","","","","","","","","","","","6","","","","","","","","",""
"null","342383","SARL_v6","SARL_v6sfoa6qkv","55eb04337480920010aa9e0d","fixation","","","img/fixation.png","null","","","test","","","","","","","","","","","","","","","","","","","",""
"312.7999999523163","342698","SARL_v6","SARL_v6sfoa6qkv","55eb04337480920010aa9e0d","freq","","","img/blue_2bandit_b2.png","70","","70","test","1","","125","","","","circle","square","120","7","6","0.9666666666666667","","","","","","","",""
"null","343192","SARL_v6","SARL_v6sfoa6qkv","55eb04337480920010aa9e0d","freq_resp","","","img/blue_2bandit_b.png","70","img/blue_2bandit_b.png","70","test","","","","","","","","","","","6","","","","","","","","",""
"null","343351","SARL_v6","SARL_v6sfoa6qkv","55eb04337480920010aa9e0d","fixation","","","img/fixation.png","null","","","test","","","","","","","","","","","","","","","","","","","",""
"401","343756","SARL_v6","SARL_v6sfoa6qkv","55eb04337480920010aa9e0d","freq","","","img/blue_2bandit_b2.png","70","","70","test","1","","126","","","","circle","square","121","8","6","0.9669421487603306","","","","","","","",""
"null","344169","SARL_v6","SARL_v6sfoa6qkv","55eb04337480920010aa9e0d","freq_resp","","","img/blue_2bandit_b.png","70","img/blue_2bandit_b.png","70","test","","","","","","","","","","","6","","","","","","","","",""
"null","344335","SARL_v6","SARL_v6sfoa6qkv","55eb04337480920010aa9e0d","fixation","","","img/fixation.png","null","","","test","","","","","","","","","","","","","","","","","","","",""
"291.60000002384186","344628","SARL_v6","SARL_v6sfoa6qkv","55eb04337480920010aa9e0d","freq","","","img/blue_2bandit_b2.png","70","","70","test","1","","127","","","","circle","square","122","9","6","0.9672131147540983","","","","","","","",""
"null","345146","SARL_v6","SARL_v6sfoa6qkv","55eb04337480920010aa9e0d","freq_resp","","","img/blue_2bandit_b.png","70","img/blue_2bandit_b.png","70","test","","","","","","","","","","","6","","","","","","","","",""
"null","345303","SARL_v6","SARL_v6sfoa6qkv","55eb04337480920010aa9e0d","fixation","","","img/fixation.png","null","","","test","","","","","","","","","","","","","","","","","","","",""
"292","345597","SARL_v6","SARL_v6sfoa6qkv","55eb04337480920010aa9e0d","freq","","","img/blue_2bandit_b2.png","70","","70","test","1","","128","","","","circle","square","123","10","6","0.967479674796748","","","","","","","",""
"null","346114","SARL_v6","SARL_v6sfoa6qkv","55eb04337480920010aa9e0d","freq_resp","","","img/blue_2bandit_b.png","70","img/blue_2bandit_b.png","70","test","","","","","","","","","","","6","","","","","","","","",""
"null","346272","SARL_v6","SARL_v6sfoa6qkv","55eb04337480920010aa9e0d","fixation","","","img/fixation.png","null","","","test","","","","","","","","","","","","","","","","","","","",""
"342.2000000476837","346618","SARL_v6","SARL_v6sfoa6qkv","55eb04337480920010aa9e0d","freq","","","img/blue_2bandit_b2.png","70","","70","test","1","","129","","","","circle","square","124","11","6","0.967741935483871","","","","","","","",""
"null","347084","SARL_v6","SARL_v6sfoa6qkv","55eb04337480920010aa9e0d","freq_resp","","","img/blue_2bandit_b.png","70","img/blue_2bandit_b.png","70","test","","","","","","","","","","","6","","","","","","","","",""
"null","347245","SARL_v6","SARL_v6sfoa6qkv","55eb04337480920010aa9e0d","fixation","","","img/fixation.png","null","","","test","","","","","","","","","","","","","","","","","","","",""
"353.5","347602","SARL_v6","SARL_v6sfoa6qkv","55eb04337480920010aa9e0d","freq","","","img/blue_2bandit_b2.png","70","","70","test","1","","130","","","","circle","square","125","12","6","0.968","","","","","","","",""
"null","348053","SARL_v6","SARL_v6sfoa6qkv","55eb04337480920010aa9e0d","freq_resp","","","img/blue_2bandit_b.png","70","img/blue_2bandit_b.png","70","test","","","","","","","","","","","6","","","","","","","","",""
"null","348208","SARL_v6","SARL_v6sfoa6qkv","55eb04337480920010aa9e0d","fixation","","","img/fixation.png","null","","","test","","","","","","","","","","","","","","","","","","","",""
"348","348559","SARL_v6","SARL_v6sfoa6qkv","55eb04337480920010aa9e0d","freq","","","img/blue_2bandit_b2.png","70","","70","test","1","","131","","","","circle","square","126","13","6","0.9682539682539683","","","","","","","",""
