"rt","time_elapsed","expId","subject","prolificID","trialType","rlType","attType","stimulus","key_press","stim","corrresp","phase","corr","pracCounter","trialNum","rewardOne","rewardTwo","reward","bandOne","bandTwo","attentionNum","attentionRunNum","blockNum","performance","bandChosen","circleVal","squareVal","bandOneVal","bandTwoVal","shapeChosen","rlNum","badFlag"
"7993.599999904633","8011","SARL_v6","SARL_v69x6ecwcg","60cac378df202bf598c986b1","","","","","","","","","","","","","","","","","","","","","","","","","","","",""
"","10751","SARL_v6","SARL_v69x6ecwcg","60cac378df202bf598c986b1","fullscreen","fullscreen","fullscreen","","","","","","","","","","","","","","","","","","","","","","","","",""
"79462.79999995232","90219","SARL_v6","SARL_v69x6ecwcg","60cac378df202bf598c986b1","","","","","","","","","","","","","","","","","","","","","","","","","","","",""
"null","91026","SARL_v6","SARL_v69x6ecwcg","60cac378df202bf598c986b1","freqPrac","","","img/orange_2bandit_a2.png","null","img/orange_2bandit_a2.png","70","prac","0","1","","","","","","","","","","","","","","","","","",""
"null","92038","SARL_v6","SARL_v69x6ecwcg","60cac378df202bf598c986b1","feedback","","","img/tooSlow.png","null","","na","prac","","","","","","","","","","","","","","","","","","","",""
"null","92199","SARL_v6","SARL_v69x6ecwcg","60cac378df202bf598c986b1","fixation","","","img/fixation.png","null","","","prac","","","","","","","","","","","","","","","","","","","",""
"463","92666","SARL_v6","SARL_v69x6ecwcg","60cac378df202bf598c986b1","infreqPrac","","","img/blue_2bandit_a2.png","68","img/blue_2bandit_a2.png","68","prac","1","1","","","","","","","","","","","","","","","","","",""
"463","93015","SARL_v6","SARL_v69x6ecwcg","60cac378df202bf598c986b1","infreqPrac_resp","","","img/blue_2bandit_a.png","68","img/blue_2bandit_a.png","68","prac","","","","","","","","","","","","","","","","","","","",""
"null","93173","SARL_v6","SARL_v69x6ecwcg","60cac378df202bf598c986b1","fixation","","","img/fixation.png","null","","","prac","","","","","","","","","","","","","","","","","","","",""
"636","93812","SARL_v6","SARL_v69x6ecwcg","60cac378df202bf598c986b1","freqPrac","","","img/orange_2bandit_a2.png","70","img/orange_2bandit_a2.png","70","prac","1","1","","","","","","","","","","","","","","","","","",""
"636","93987","SARL_v6","SARL_v69x6ecwcg","60cac378df202bf598c986b1","freqPrac_resp","","","img/orange_2bandit_a.png","70","img/orange_2bandit_a.png","70","prac","","","","","","","","","","","","","","","","","","","",""
"null","94151","SARL_v6","SARL_v69x6ecwcg","60cac378df202bf598c986b1","fixation","","","img/fixation.png","null","","","prac","","","","","","","","","","","","","","","","","","","",""
"457.39999997615814","94612","SARL_v6","SARL_v69x6ecwcg","60cac378df202bf598c986b1","infreqPrac","","","img/blue_2bandit_a2.png","68","img/blue_2bandit_a2.png","68","prac","1","1","","","","","","","","","","","","","","","","","",""
"457.39999997615814","94967","SARL_v6","SARL_v69x6ecwcg","60cac378df202bf598c986b1","infreqPrac_resp","","","img/blue_2bandit_a.png","68","img/blue_2bandit_a.png","68","prac","","","","","","","","","","","","","","","","","","","",""
"null","95123","SARL_v6","SARL_v69x6ecwcg","60cac378df202bf598c986b1","fixation","","","img/fixation.png","null","","","prac","","","","","","","","","","","","","","","","","","","",""
"416.10000002384186","95542","SARL_v6","SARL_v69x6ecwcg","60cac378df202bf598c986b1","infreqPrac","","","img/blue_2bandit_a2.png","68","img/blue_2bandit_a2.png","68","prac","1","1","","","","","","","","","","","","","","","","","",""
"416.10000002384186","95935","SARL_v6","SARL_v69x6ecwcg","60cac378df202bf598c986b1","infreqPrac_resp","","","img/blue_2bandit_a.png","68","img/blue_2bandit_a.png","68","prac","","","","","","","","","","","","","","","","","","","",""
"null","96094","SARL_v6","SARL_v69x6ecwcg","60cac378df202bf598c986b1","fixation","","","img/fixation.png","null","","","prac","","","","","","","","","","","","","","","","","","","",""
"345.09999990463257","96443","SARL_v6","SARL_v69x6ecwcg","60cac378df202bf598c986b1","infreqPrac","","","img/blue_2bandit_a2.png","68","img/blue_2bandit_a2.png","68","prac","1","1","","","","","","","","","","","","","","","","","",""
"345.09999990463257","96911","SARL_v6","SARL_v69x6ecwcg","60cac378df202bf598c986b1","infreqPrac_resp","","","img/blue_2bandit_a.png","68","img/blue_2bandit_a.png","68","prac","","","","","","","","","","","","","","","","","","","",""
"null","97071","SARL_v6","SARL_v69x6ecwcg","60cac378df202bf598c986b1","fixation","","","img/fixation.png","null","","","prac","","","","","","","","","","","","","","","","","","","",""
"356.40000009536743","97431","SARL_v6","SARL_v69x6ecwcg","60cac378df202bf598c986b1","freqPrac","","","img/orange_2bandit_a2.png","70","img/orange_2bandit_a2.png","70","prac","1","1","","","","","","","","","","","","","","","","","",""
"356.40000009536743","97887","SARL_v6","SARL_v69x6ecwcg","60cac378df202bf598c986b1","freqPrac_resp","","","img/orange_2bandit_a.png","70","img/orange_2bandit_a.png","70","prac","","","","","","","","","","","","","","","","","","","",""
"null","98042","SARL_v6","SARL_v69x6ecwcg","60cac378df202bf598c986b1","fixation","","","img/fixation.png","null","","","prac","","","","","","","","","","","","","","","","","","","",""
"458.2999999523163","98504","SARL_v6","SARL_v69x6ecwcg","60cac378df202bf598c986b1","infreqPrac","","","img/blue_2bandit_a2.png","68","img/blue_2bandit_a2.png","68","prac","1","1","","","","","","","","","","","","","","","","","",""
"458.2999999523163","98854","SARL_v6","SARL_v69x6ecwcg","60cac378df202bf598c986b1","infreqPrac_resp","","","img/blue_2bandit_a.png","68","img/blue_2bandit_a.png","68","prac","","","","","","","","","","","","","","","","","","","",""
"null","99015","SARL_v6","SARL_v69x6ecwcg","60cac378df202bf598c986b1","fixation","","","img/fixation.png","null","","","prac","","","","","","","","","","","","","","","","","","","",""
"536.5","99555","SARL_v6","SARL_v69x6ecwcg","60cac378df202bf598c986b1","freqPrac","","","img/orange_2bandit_a2.png","70","img/orange_2bandit_a2.png","70","prac","1","1","","","","","","","","","","","","","","","","","",""
"536.5","99831","SARL_v6","SARL_v69x6ecwcg","60cac378df202bf598c986b1","freqPrac_resp","","","img/orange_2bandit_a.png","70","img/orange_2bandit_a.png","70","prac","","","","","","","","","","","","","","","","","","","",""
"null","99991","SARL_v6","SARL_v69x6ecwcg","60cac378df202bf598c986b1","fixation","","","img/fixation.png","null","","","prac","","","","","","","","","","","","","","","","","","","",""
"437.89999997615814","100432","SARL_v6","SARL_v69x6ecwcg","60cac378df202bf598c986b1","freqPrac","","","img/orange_2bandit_a2.png","70","img/orange_2bandit_a2.png","70","prac","1","1","","","","","","","","","","","","","","","","","",""
"437.89999997615814","100807","SARL_v6","SARL_v69x6ecwcg","60cac378df202bf598c986b1","freqPrac_resp","","","img/orange_2bandit_a.png","70","img/orange_2bandit_a.png","70","prac","","","","","","","","","","","","","","","","","","","",""
"null","100961","SARL_v6","SARL_v69x6ecwcg","60cac378df202bf598c986b1","fixation","","","img/fixation.png","null","","","prac","","","","","","","","","","","","","","","","","","","",""
"28575.700000047684","129540","SARL_v6","SARL_v69x6ecwcg","60cac378df202bf598c986b1","","","","","","","","prac","","","","","","","","","","","","","","","","","","","",""
"348.39999997615814","129894","SARL_v6","SARL_v69x6ecwcg","60cac378df202bf598c986b1","rlPractice","","","img/black_2bandit_a2.png","74","img/black_2bandit_a2.png","","prac","","","0","","","","","","","","","","","","","","","","",""
"null","130652","SARL_v6","SARL_v69x6ecwcg","60cac378df202bf598c986b1","feedback","","","<div class=""verylowPoints_sq""> -14 </div>","null","","na","prac","","","1","10","-14","10","","","","","","","","","","","","","",""
"null","130809","SARL_v6","SARL_v69x6ecwcg","60cac378df202bf598c986b1","fixation","","","img/fixation.png","null","","","prac","","","","","","","","","","","","","","","","","","","",""
"392.39999997615814","131205","SARL_v6","SARL_v69x6ecwcg","60cac378df202bf598c986b1","rlPractice","","","img/black_2bandit_a2.png","75","img/black_2bandit_a2.png","","prac","","","1","","","","","","","","","","","","","","","","",""
"null","131967","SARL_v6","SARL_v69x6ecwcg","60cac378df202bf598c986b1","feedback","","","<div class=""veryhighPoints""> 5 </div>","null","","na","prac","","","2","5","-5","5","","","","","","","","","","","","","",""
"null","132126","SARL_v6","SARL_v69x6ecwcg","60cac378df202bf598c986b1","fixation","","","img/fixation.png","null","","","prac","","","","","","","","","","","","","","","","","","","",""
"385.10000002384186","132515","SARL_v6","SARL_v69x6ecwcg","60cac378df202bf598c986b1","rlPractice","","","img/black_2bandit_a2.png","75","img/black_2bandit_a2.png","","prac","","","2","","","","","","","","","","","","","","","","",""
"null","133279","SARL_v6","SARL_v69x6ecwcg","60cac378df202bf598c986b1","feedback","","","<div class=""veryhighPoints""> 30 </div>","null","","na","prac","","","3","30","2","30","","","","","","","","","","","","","",""
"null","133439","SARL_v6","SARL_v69x6ecwcg","60cac378df202bf598c986b1","fixation","","","img/fixation.png","null","","","prac","","","","","","","","","","","","","","","","","","","",""
"344.89999997615814","133787","SARL_v6","SARL_v69x6ecwcg","60cac378df202bf598c986b1","rlPractice","","","img/black_2bandit_a2.png","75","img/black_2bandit_a2.png","","prac","","","3","","","","","","","","","","","","","","","","",""
"null","134551","SARL_v6","SARL_v69x6ecwcg","60cac378df202bf598c986b1","feedback","","","<div class=""verylowPoints""> -2 </div>","null","","na","prac","","","4","-2","20","-2","","","","","","","","","","","","","",""
"null","134706","SARL_v6","SARL_v69x6ecwcg","60cac378df202bf598c986b1","fixation","","","img/fixation.png","null","","","prac","","","","","","","","","","","","","","","","","","","",""
"5460.600000023842","140170","SARL_v6","SARL_v69x6ecwcg","60cac378df202bf598c986b1","","","","","","","","prac","","","","","","","","","","","","","","","","","","","",""
"536.5","140710","SARL_v6","SARL_v69x6ecwcg","60cac378df202bf598c986b1","mixAttFreqPrac","","","img/orange_2bandit_a2.png","68","img/orange_2bandit_a2.png","70","prac","","","1","","","","","","","","","","","","","","","","",""
"536.5","140983","SARL_v6","SARL_v69x6ecwcg","60cac378df202bf598c986b1","freqPrac_resp","","","img/orange_2bandit_a.png","68","img/orange_2bandit_a.png","70","prac","","","1","","","","","","","","","","","","","","","","",""
"null","141143","SARL_v6","SARL_v69x6ecwcg","60cac378df202bf598c986b1","fixation","","","img/fixation.png","null","","","prac","","","","","","","","","","","","","","","","","","","",""
"413.40000009536743","141560","SARL_v6","SARL_v69x6ecwcg","60cac378df202bf598c986b1","mixAttInfreqPrac","","","img/blue_2bandit_a2.png","68","img/blue_2bandit_a2.png","68","prac","","","2","","","","","","","","","","","","","","","","",""
"413.40000009536743","141959","SARL_v6","SARL_v69x6ecwcg","60cac378df202bf598c986b1","infreqPrac_resp","","","img/blue_2bandit_a.png","68","img/orange_2bandit_a.png","68","prac","","","2","","","","","","","","","","","","","","","","",""
"null","142119","SARL_v6","SARL_v69x6ecwcg","60cac378df202bf598c986b1","fixation","","","img/fixation.png","null","","","prac","","","","","","","","","","","","","","","","","","","",""
"398.40000009536743","142521","SARL_v6","SARL_v69x6ecwcg","60cac378df202bf598c986b1","mixAttInfreqPrac","","","img/blue_2bandit_a2.png","68","img/blue_2bandit_a2.png","68","prac","","","3","","","","","","","","","","","","","","","","",""
"398.40000009536743","142935","SARL_v6","SARL_v69x6ecwcg","60cac378df202bf598c986b1","infreqPrac_resp","","","img/blue_2bandit_a.png","68","img/orange_2bandit_a.png","68","prac","","","3","","","","","","","","","","","","","","","","",""
"null","143095","SARL_v6","SARL_v69x6ecwcg","60cac378df202bf598c986b1","fixation","","","img/fixation.png","null","","","prac","","","","","","","","","","","","","","","","","","","",""
"377.6999999284744","143476","SARL_v6","SARL_v69x6ecwcg","60cac378df202bf598c986b1","mixAttInfreqPrac","","","img/blue_2bandit_a2.png","68","img/blue_2bandit_a2.png","68","prac","","","4","","","","","","","","","","","","","","","","",""
"377.6999999284744","143907","SARL_v6","SARL_v69x6ecwcg","60cac378df202bf598c986b1","infreqPrac_resp","","","img/blue_2bandit_a.png","68","img/orange_2bandit_a.png","68","prac","","","4","","","","","","","","","","","","","","","","",""
"null","144069","SARL_v6","SARL_v69x6ecwcg","60cac378df202bf598c986b1","fixation","","","img/fixation.png","null","","","prac","","","","","","","","","","","","","","","","","","","",""
"442.60000002384186","144515","SARL_v6","SARL_v69x6ecwcg","60cac378df202bf598c986b1","mixAttFreqPrac","","","img/orange_2bandit_a2.png","70","img/orange_2bandit_a2.png","70","prac","","","5","","","","","","","","","","","","","","","","",""
"442.60000002384186","144887","SARL_v6","SARL_v69x6ecwcg","60cac378df202bf598c986b1","freqPrac_resp","","","img/orange_2bandit_a.png","70","img/orange_2bandit_a.png","70","prac","","","5","","","","","","","","","","","","","","","","",""
"null","145045","SARL_v6","SARL_v69x6ecwcg","60cac378df202bf598c986b1","fixation","","","img/fixation.png","null","","","prac","","","","","","","","","","","","","","","","","","","",""
"619.8999999761581","145668","SARL_v6","SARL_v69x6ecwcg","60cac378df202bf598c986b1","mixRLPractice","","","img/black_2bandit_a2.png","74","img/black_2bandit_a2.png","","prac","","","5","","","","","","","","","","","","","","","","",""
"null","146426","SARL_v6","SARL_v69x6ecwcg","60cac378df202bf598c986b1","feedback","","","<div class=""veryhighPoints_sq""> 10 </div>","null","","na","prac","","","6","-14","10","-14","","","","","","","","","","","","","",""
"null","146590","SARL_v6","SARL_v69x6ecwcg","60cac378df202bf598c986b1","fixation","","","img/fixation.png","null","","","prac","","","","","","","","","","","","","","","","","","","",""
"524.2000000476837","147118","SARL_v6","SARL_v69x6ecwcg","60cac378df202bf598c986b1","mixAttFreqPrac","","","img/orange_2bandit_a2.png","70","img/orange_2bandit_a2.png","70","prac","","","7","","","","","","","","","","","","","","","","",""
"524.2000000476837","147402","SARL_v6","SARL_v69x6ecwcg","60cac378df202bf598c986b1","freqPrac_resp","","","img/orange_2bandit_a.png","70","img/orange_2bandit_a.png","70","prac","","","7","","","","","","","","","","","","","","","","",""
"null","147567","SARL_v6","SARL_v69x6ecwcg","60cac378df202bf598c986b1","fixation","","","img/fixation.png","null","","","prac","","","","","","","","","","","","","","","","","","","",""
"512","148083","SARL_v6","SARL_v69x6ecwcg","60cac378df202bf598c986b1","mixAttInfreqPrac","","","img/blue_2bandit_a2.png","68","img/blue_2bandit_a2.png","68","prac","","","8","","","","","","","","","","","","","","","","",""
"512","148383","SARL_v6","SARL_v69x6ecwcg","60cac378df202bf598c986b1","infreqPrac_resp","","","img/blue_2bandit_a.png","68","img/orange_2bandit_a.png","68","prac","","","8","","","","","","","","","","","","","","","","",""
"null","148538","SARL_v6","SARL_v69x6ecwcg","60cac378df202bf598c986b1","fixation","","","img/fixation.png","null","","","prac","","","","","","","","","","","","","","","","","","","",""
"435.10000002384186","148977","SARL_v6","SARL_v69x6ecwcg","60cac378df202bf598c986b1","mixAttFreqPrac","","","img/orange_2bandit_a2.png","70","img/orange_2bandit_a2.png","70","prac","","","9","","","","","","","","","","","","","","","","",""
"435.10000002384186","149351","SARL_v6","SARL_v69x6ecwcg","60cac378df202bf598c986b1","freqPrac_resp","","","img/orange_2bandit_a.png","70","img/orange_2bandit_a.png","70","prac","","","9","","","","","","","","","","","","","","","","",""
"null","149511","SARL_v6","SARL_v69x6ecwcg","60cac378df202bf598c986b1","fixation","","","img/fixation.png","null","","","prac","","","","","","","","","","","","","","","","","","","",""
"380.5","149895","SARL_v6","SARL_v69x6ecwcg","60cac378df202bf598c986b1","mixAttFreqPrac","","","img/orange_2bandit_a2.png","70","img/orange_2bandit_a2.png","70","prac","","","10","","","","","","","","","","","","","","","","",""
"380.5","150327","SARL_v6","SARL_v69x6ecwcg","60cac378df202bf598c986b1","freqPrac_resp","","","img/orange_2bandit_a.png","70","img/orange_2bandit_a.png","70","prac","","","10","","","","","","","","","","","","","","","","",""
"null","150482","SARL_v6","SARL_v69x6ecwcg","60cac378df202bf598c986b1","fixation","","","img/fixation.png","null","","","prac","","","","","","","","","","","","","","","","","","","",""
"697.7999999523163","151184","SARL_v6","SARL_v69x6ecwcg","60cac378df202bf598c986b1","mixAttInfreqPrac","","","img/blue_2bandit_a2.png","68","img/blue_2bandit_a2.png","68","prac","","","11","","","","","","","","","","","","","","","","",""
"697.7999999523163","151290","SARL_v6","SARL_v69x6ecwcg","60cac378df202bf598c986b1","infreqPrac_resp","","","img/blue_2bandit_a.png","68","img/orange_2bandit_a.png","68","prac","","","11","","","","","","","","","","","","","","","","",""
"null","151453","SARL_v6","SARL_v69x6ecwcg","60cac378df202bf598c986b1","fixation","","","img/fixation.png","null","","","prac","","","","","","","","","","","","","","","","","","","",""
"783.6000000238419","152239","SARL_v6","SARL_v69x6ecwcg","60cac378df202bf598c986b1","mixRLPractice","","","img/black_2bandit_a2.png","75","img/black_2bandit_a2.png","","prac","","","11","","","","","","","","","","","","","","","","",""
"null","152994","SARL_v6","SARL_v69x6ecwcg","60cac378df202bf598c986b1","feedback","","","<div class=""veryhighPoints""> 5 </div>","null","","na","prac","","","12","5","-5","5","","","","","","","","","","","","","",""
"null","153153","SARL_v6","SARL_v69x6ecwcg","60cac378df202bf598c986b1","fixation","","","img/fixation.png","null","","","prac","","","","","","","","","","","","","","","","","","","",""
"20667.699999928474","173825","SARL_v6","SARL_v69x6ecwcg","60cac378df202bf598c986b1","","","","","","","","prac","","","","","","","","","","","","","","","","","","","",""
"581.7000000476837","174410","SARL_v6","SARL_v69x6ecwcg","60cac378df202bf598c986b1","freq","","","img/orange_2bandit_a2.png","70","","70","test","1","","1","","","","square","circle","1","1","1","1","","","","","","","",""
"null","174640","SARL_v6","SARL_v69x6ecwcg","60cac378df202bf598c986b1","freq_resp","","","img/orange_2bandit_a.png","70","img/orange_2bandit_a.png","70","test","","","","","","","","","","","1","","","","","","","","",""
"null","174796","SARL_v6","SARL_v69x6ecwcg","60cac378df202bf598c986b1","fixation","","","img/fixation.png","null","","","test","","","","","","","","","","","","","","","","","","","",""
"373.60000002384186","175173","SARL_v6","SARL_v69x6ecwcg","60cac378df202bf598c986b1","freq","","","img/orange_2bandit_a2.png","70","","70","test","1","","2","","","","square","circle","2","2","1","1","","","","","","","",""
"null","175615","SARL_v6","SARL_v69x6ecwcg","60cac378df202bf598c986b1","freq_resp","","","img/orange_2bandit_a.png","70","img/orange_2bandit_a.png","70","test","","","","","","","","","","","1","","","","","","","","",""
"null","175769","SARL_v6","SARL_v69x6ecwcg","60cac378df202bf598c986b1","fixation","","","img/fixation.png","null","","","test","","","","","","","","","","","","","","","","","","","",""
"360.7999999523163","176133","SARL_v6","SARL_v69x6ecwcg","60cac378df202bf598c986b1","freq","","","img/orange_2bandit_a2.png","70","","70","test","1","","3","","","","square","circle","3","3","1","1","","","","","","","",""
"null","176580","SARL_v6","SARL_v69x6ecwcg","60cac378df202bf598c986b1","freq_resp","","","img/orange_2bandit_a.png","70","img/orange_2bandit_a.png","70","test","","","","","","","","","","","1","","","","","","","","",""
"null","176737","SARL_v6","SARL_v69x6ecwcg","60cac378df202bf598c986b1","fixation","","","img/fixation.png","null","","","test","","","","","","","","","","","","","","","","","","","",""
"319.59999990463257","177060","SARL_v6","SARL_v69x6ecwcg","60cac378df202bf598c986b1","freq","","","img/orange_2bandit_a2.png","70","","70","test","1","","4","","","","square","circle","4","4","1","1","","","","","","","",""
"null","177551","SARL_v6","SARL_v69x6ecwcg","60cac378df202bf598c986b1","freq_resp","","","img/orange_2bandit_a.png","70","img/orange_2bandit_a.png","70","test","","","","","","","","","","","1","","","","","","","","",""
"null","177710","SARL_v6","SARL_v69x6ecwcg","60cac378df202bf598c986b1","fixation","","","img/fixation.png","null","","","test","","","","","","","","","","","","","","","","","","","",""
"365.2999999523163","178079","SARL_v6","SARL_v69x6ecwcg","60cac378df202bf598c986b1","freq","","","img/orange_2bandit_a2.png","70","","70","test","1","","5","","","","square","circle","5","5","1","1","","","","","","","",""
"null","178522","SARL_v6","SARL_v69x6ecwcg","60cac378df202bf598c986b1","freq_resp","","","img/orange_2bandit_a.png","70","img/orange_2bandit_a.png","70","test","","","","","","","","","","","1","","","","","","","","",""
"null","178682","SARL_v6","SARL_v69x6ecwcg","60cac378df202bf598c986b1","fixation","","","img/fixation.png","null","","","test","","","","","","","","","","","","","","","","","","","",""
"298.89999997615814","178985","SARL_v6","SARL_v69x6ecwcg","60cac378df202bf598c986b1","freq","","","img/orange_2bandit_a2.png","70","","70","test","1","","6","","","","square","circle","6","6","1","1","","","","","","","",""
"null","179495","SARL_v6","SARL_v69x6ecwcg","60cac378df202bf598c986b1","freq_resp","","","img/orange_2bandit_a.png","70","img/orange_2bandit_a.png","70","test","","","","","","","","","","","1","","","","","","","","",""
"null","179651","SARL_v6","SARL_v69x6ecwcg","60cac378df202bf598c986b1","fixation","","","img/fixation.png","null","","","test","","","","","","","","","","","","","","","","","","","",""
"330","179985","SARL_v6","SARL_v69x6ecwcg","60cac378df202bf598c986b1","freq","","","img/orange_2bandit_a2.png","70","","70","test","1","","7","","","","square","circle","7","7","1","1","","","","","","","",""
"null","180470","SARL_v6","SARL_v69x6ecwcg","60cac378df202bf598c986b1","freq_resp","","","img/orange_2bandit_a.png","70","img/orange_2bandit_a.png","70","test","","","","","","","","","","","1","","","","","","","","",""
"null","180631","SARL_v6","SARL_v69x6ecwcg","60cac378df202bf598c986b1","fixation","","","img/fixation.png","null","","","test","","","","","","","","","","","","","","","","","","","",""
"488.2000000476837","181123","SARL_v6","SARL_v69x6ecwcg","60cac378df202bf598c986b1","freq","","","img/orange_2bandit_a2.png","70","","70","test","1","","8","","","","square","circle","8","8","1","1","","","","","","","",""
"null","181447","SARL_v6","SARL_v69x6ecwcg","60cac378df202bf598c986b1","freq_resp","","","img/orange_2bandit_a.png","70","img/orange_2bandit_a.png","70","test","","","","","","","","","","","1","","","","","","","","",""
"null","181608","SARL_v6","SARL_v69x6ecwcg","60cac378df202bf598c986b1","fixation","","","img/fixation.png","null","","","test","","","","","","","","","","","","","","","","","","","",""
"328.6999999284744","181940","SARL_v6","SARL_v69x6ecwcg","60cac378df202bf598c986b1","freq","","","img/orange_2bandit_a2.png","70","","70","test","1","","9","","","","square","circle","9","9","1","1","","","","","","","",""
"null","182423","SARL_v6","SARL_v69x6ecwcg","60cac378df202bf598c986b1","freq_resp","","","img/orange_2bandit_a.png","70","img/orange_2bandit_a.png","70","test","","","","","","","","","","","1","","","","","","","","",""
"null","182583","SARL_v6","SARL_v69x6ecwcg","60cac378df202bf598c986b1","fixation","","","img/fixation.png","null","","","test","","","","","","","","","","","","","","","","","","","",""
"308","182895","SARL_v6","SARL_v69x6ecwcg","60cac378df202bf598c986b1","infreq","","","img/blue_2bandit_a2.png","70","","68","test","0","","10","","","","square","circle","10","10","1","0.9","","","","","","","",""
"null","183395","SARL_v6","SARL_v69x6ecwcg","60cac378df202bf598c986b1","infreq_resp","","","img/blue_2bandit_a.png","70","img/blue_2bandit_a.png","68","test","","","","","","","","","","","1","","","","","","","","",""
"null","183557","SARL_v6","SARL_v69x6ecwcg","60cac378df202bf598c986b1","fixation","","","img/fixation.png","null","","","test","","","","","","","","","","","","","","","","","","","",""
"577.7999999523163","184138","SARL_v6","SARL_v69x6ecwcg","60cac378df202bf598c986b1","freq","","","img/orange_2bandit_a2.png","70","","70","test","1","","11","","","","square","circle","11","11","1","0.9090909090909091","","","","","","","",""
"null","184372","SARL_v6","SARL_v69x6ecwcg","60cac378df202bf598c986b1","freq_resp","","","img/orange_2bandit_a.png","70","img/orange_2bandit_a.png","70","test","","","","","","","","","","","1","","","","","","","","",""
"null","184535","SARL_v6","SARL_v69x6ecwcg","60cac378df202bf598c986b1","fixation","","","img/fixation.png","null","","","test","","","","","","","","","","","","","","","","","","","",""
"406.7000000476837","184945","SARL_v6","SARL_v69x6ecwcg","60cac378df202bf598c986b1","freq","","","img/orange_2bandit_a2.png","70","","70","test","1","","12","","","","square","circle","12","12","1","0.9166666666666666","","","","","","","",""
"null","185351","SARL_v6","SARL_v69x6ecwcg","60cac378df202bf598c986b1","freq_resp","","","img/orange_2bandit_a.png","70","img/orange_2bandit_a.png","70","test","","","","","","","","","","","1","","","","","","","","",""
"null","185511","SARL_v6","SARL_v69x6ecwcg","60cac378df202bf598c986b1","fixation","","","img/fixation.png","null","","","test","","","","","","","","","","","","","","","","","","","",""
"370","185885","SARL_v6","SARL_v69x6ecwcg","60cac378df202bf598c986b1","freq","","","img/orange_2bandit_a2.png","70","","70","test","1","","13","","","","square","circle","13","13","1","0.9230769230769231","","","","","","","",""
"null","186327","SARL_v6","SARL_v69x6ecwcg","60cac378df202bf598c986b1","freq_resp","","","img/orange_2bandit_a.png","70","img/orange_2bandit_a.png","70","test","","","","","","","","","","","1","","","","","","","","",""
"null","186482","SARL_v6","SARL_v69x6ecwcg","60cac378df202bf598c986b1","fixation","","","img/fixation.png","null","","","test","","","","","","","","","","","","","","","","","","","",""
"384.60000002384186","186871","SARL_v6","SARL_v69x6ecwcg","60cac378df202bf598c986b1","infreq","","","img/blue_2bandit_a2.png","70","","68","test","0","","14","","","","square","circle","14","14","1","0.8571428571428571","","","","","","","",""
"null","187295","SARL_v6","SARL_v69x6ecwcg","60cac378df202bf598c986b1","infreq_resp","","","img/blue_2bandit_a.png","70","img/blue_2bandit_a.png","68","test","","","","","","","","","","","1","","","","","","","","",""
"null","187455","SARL_v6","SARL_v69x6ecwcg","60cac378df202bf598c986b1","fixation","","","img/fixation.png","null","","","test","","","","","","","","","","","","","","","","","","","",""
"363.8000000715256","187823","SARL_v6","SARL_v69x6ecwcg","60cac378df202bf598c986b1","freq","","","img/orange_2bandit_a2.png","70","","70","test","1","","15","","","","square","circle","15","15","1","0.8666666666666667","","","","","","","",""
"null","188271","SARL_v6","SARL_v69x6ecwcg","60cac378df202bf598c986b1","freq_resp","","","img/orange_2bandit_a.png","70","img/orange_2bandit_a.png","70","test","","","","","","","","","","","1","","","","","","","","",""
"null","188431","SARL_v6","SARL_v69x6ecwcg","60cac378df202bf598c986b1","fixation","","","img/fixation.png","null","","","test","","","","","","","","","","","","","","","","","","","",""
"333.39999997615814","188767","SARL_v6","SARL_v69x6ecwcg","60cac378df202bf598c986b1","freq","","","img/orange_2bandit_a2.png","70","","70","test","1","","16","","","","square","circle","16","16","1","0.875","","","","","","","",""
"null","189247","SARL_v6","SARL_v69x6ecwcg","60cac378df202bf598c986b1","freq_resp","","","img/orange_2bandit_a.png","70","img/orange_2bandit_a.png","70","test","","","","","","","","","","","1","","","","","","","","",""
"null","189402","SARL_v6","SARL_v69x6ecwcg","60cac378df202bf598c986b1","fixation","","","img/fixation.png","null","","","test","","","","","","","","","","","","","","","","","","","",""
"343.5","189748","SARL_v6","SARL_v69x6ecwcg","60cac378df202bf598c986b1","freq","","","img/orange_2bandit_a2.png","70","","70","test","1","","17","","","","square","circle","17","17","1","0.8823529411764706","","","","","","","",""
"null","190215","SARL_v6","SARL_v69x6ecwcg","60cac378df202bf598c986b1","freq_resp","","","img/orange_2bandit_a.png","70","img/orange_2bandit_a.png","70","test","","","","","","","","","","","1","","","","","","","","",""
"null","190375","SARL_v6","SARL_v69x6ecwcg","60cac378df202bf598c986b1","fixation","","","img/fixation.png","null","","","test","","","","","","","","","","","","","","","","","","","",""
"350.7000000476837","190729","SARL_v6","SARL_v69x6ecwcg","60cac378df202bf598c986b1","freq","","","img/orange_2bandit_a2.png","70","","70","test","1","","18","","","","square","circle","18","18","1","0.8888888888888888","","","","","","","",""
"null","191191","SARL_v6","SARL_v69x6ecwcg","60cac378df202bf598c986b1","freq_resp","","","img/orange_2bandit_a.png","70","img/orange_2bandit_a.png","70","test","","","","","","","","","","","1","","","","","","","","",""
"null","191346","SARL_v6","SARL_v69x6ecwcg","60cac378df202bf598c986b1","fixation","","","img/fixation.png","null","","","test","","","","","","","","","","","","","","","","","","","",""
"359.89999997615814","191709","SARL_v6","SARL_v69x6ecwcg","60cac378df202bf598c986b1","freq","","","img/orange_2bandit_a2.png","70","","70","test","1","","19","","","","square","circle","19","19","1","0.8947368421052632","","","","","","","",""
"null","192159","SARL_v6","SARL_v69x6ecwcg","60cac378df202bf598c986b1","freq_resp","","","img/orange_2bandit_a.png","70","img/orange_2bandit_a.png","70","test","","","","","","","","","","","1","","","","","","","","",""
"null","192319","SARL_v6","SARL_v69x6ecwcg","60cac378df202bf598c986b1","fixation","","","img/fixation.png","null","","","test","","","","","","","","","","","","","","","","","","","",""
"357.8000000715256","192680","SARL_v6","SARL_v69x6ecwcg","60cac378df202bf598c986b1","freq","","","img/orange_2bandit_a2.png","70","","70","test","1","","20","","","","square","circle","20","20","1","0.9","","","","","","","",""
"null","193135","SARL_v6","SARL_v69x6ecwcg","60cac378df202bf598c986b1","freq_resp","","","img/orange_2bandit_a.png","70","img/orange_2bandit_a.png","70","test","","","","","","","","","","","1","","","","","","","","",""
"null","193293","SARL_v6","SARL_v69x6ecwcg","60cac378df202bf598c986b1","fixation","","","img/fixation.png","null","","","test","","","","","","","","","","","","","","","","","","","",""
"386.60000002384186","193683","SARL_v6","SARL_v69x6ecwcg","60cac378df202bf598c986b1","freq","","","img/orange_2bandit_a2.png","70","","70","test","1","","21","","","","square","circle","21","21","1","0.9047619047619048","","","","","","","",""
"null","194111","SARL_v6","SARL_v69x6ecwcg","60cac378df202bf598c986b1","freq_resp","","","img/orange_2bandit_a.png","70","img/orange_2bandit_a.png","70","test","","","","","","","","","","","1","","","","","","","","",""
"null","194271","SARL_v6","SARL_v69x6ecwcg","60cac378df202bf598c986b1","fixation","","","img/fixation.png","null","","","test","","","","","","","","","","","","","","","","","","","",""
"973.1000000238419","195248","SARL_v6","SARL_v69x6ecwcg","60cac378df202bf598c986b1","rl","","","img/black_2bandit_a2.png","74","","0","test","","","22","","","-3","square","circle","","0","1","","74","-3","-3","-3","-3","square","1","0"
"null","196005","SARL_v6","SARL_v69x6ecwcg","60cac378df202bf598c986b1","feedback","","","<div class=""verylowPoints_sq""> -3 </div>","null","","na","test","","","NaN","","","","","","","","1","","74","","","","","","1",""
"580.2999999523163","196589","SARL_v6","SARL_v69x6ecwcg","60cac378df202bf598c986b1","freq","","","img/orange_2bandit_a2.png","70","","70","test","1","","23","","","","square","circle","22","1","2","0.9090909090909091","","","","","","","",""
"null","196819","SARL_v6","SARL_v69x6ecwcg","60cac378df202bf598c986b1","freq_resp","","","img/orange_2bandit_a.png","70","img/orange_2bandit_a.png","70","test","","","","","","","","","","","2","","","","","","","","",""
"null","196983","SARL_v6","SARL_v69x6ecwcg","60cac378df202bf598c986b1","fixation","","","img/fixation.png","null","","","test","","","","","","","","","","","","","","","","","","","",""
"495.89999997615814","197483","SARL_v6","SARL_v69x6ecwcg","60cac378df202bf598c986b1","freq","","","img/orange_2bandit_a2.png","70","","70","test","1","","24","","","","square","circle","23","2","2","0.9130434782608695","","","","","","","",""
"null","197800","SARL_v6","SARL_v69x6ecwcg","60cac378df202bf598c986b1","freq_resp","","","img/orange_2bandit_a.png","70","img/orange_2bandit_a.png","70","test","","","","","","","","","","","2","","","","","","","","",""
"null","197959","SARL_v6","SARL_v69x6ecwcg","60cac378df202bf598c986b1","fixation","","","img/fixation.png","null","","","test","","","","","","","","","","","","","","","","","","","",""
"337.7999999523163","198300","SARL_v6","SARL_v69x6ecwcg","60cac378df202bf598c986b1","freq","","","img/orange_2bandit_a2.png","70","","70","test","1","","25","","","","square","circle","24","3","2","0.9166666666666666","","","","","","","",""
"null","198775","SARL_v6","SARL_v69x6ecwcg","60cac378df202bf598c986b1","freq_resp","","","img/orange_2bandit_a.png","70","img/orange_2bandit_a.png","70","test","","","","","","","","","","","2","","","","","","","","",""
"null","198936","SARL_v6","SARL_v69x6ecwcg","60cac378df202bf598c986b1","fixation","","","img/fixation.png","null","","","test","","","","","","","","","","","","","","","","","","","",""
"374","199313","SARL_v6","SARL_v69x6ecwcg","60cac378df202bf598c986b1","freq","","","img/orange_2bandit_a2.png","70","","70","test","1","","26","","","","square","circle","25","4","2","0.92","","","","","","","",""
"null","199751","SARL_v6","SARL_v69x6ecwcg","60cac378df202bf598c986b1","freq_resp","","","img/orange_2bandit_a.png","70","img/orange_2bandit_a.png","70","test","","","","","","","","","","","2","","","","","","","","",""
"null","199908","SARL_v6","SARL_v69x6ecwcg","60cac378df202bf598c986b1","fixation","","","img/fixation.png","null","","","test","","","","","","","","","","","","","","","","","","","",""
"371.09999990463257","200283","SARL_v6","SARL_v69x6ecwcg","60cac378df202bf598c986b1","freq","","","img/orange_2bandit_a2.png","70","","70","test","1","","27","","","","square","circle","26","5","2","0.9230769230769231","","","","","","","",""
"null","200727","SARL_v6","SARL_v69x6ecwcg","60cac378df202bf598c986b1","freq_resp","","","img/orange_2bandit_a.png","70","img/orange_2bandit_a.png","70","test","","","","","","","","","","","2","","","","","","","","",""
"null","200887","SARL_v6","SARL_v69x6ecwcg","60cac378df202bf598c986b1","fixation","","","img/fixation.png","null","","","test","","","","","","","","","","","","","","","","","","","",""
"331.3000000715256","201222","SARL_v6","SARL_v69x6ecwcg","60cac378df202bf598c986b1","freq","","","img/orange_2bandit_a2.png","70","","70","test","1","","28","","","","square","circle","27","6","2","0.9259259259259259","","","","","","","",""
"null","201703","SARL_v6","SARL_v69x6ecwcg","60cac378df202bf598c986b1","freq_resp","","","img/orange_2bandit_a.png","70","img/orange_2bandit_a.png","70","test","","","","","","","","","","","2","","","","","","","","",""
"null","201864","SARL_v6","SARL_v69x6ecwcg","60cac378df202bf598c986b1","fixation","","","img/fixation.png","null","","","test","","","","","","","","","","","","","","","","","","","",""
"300.89999997615814","202168","SARL_v6","SARL_v69x6ecwcg","60cac378df202bf598c986b1","freq","","","img/orange_2bandit_a2.png","70","","70","test","1","","29","","","","square","circle","28","7","2","0.9285714285714286","","","","","","","",""
"null","202676","SARL_v6","SARL_v69x6ecwcg","60cac378df202bf598c986b1","freq_resp","","","img/orange_2bandit_a.png","70","img/orange_2bandit_a.png","70","test","","","","","","","","","","","2","","","","","","","","",""
"null","202839","SARL_v6","SARL_v69x6ecwcg","60cac378df202bf598c986b1","fixation","","","img/fixation.png","null","","","test","","","","","","","","","","","","","","","","","","","",""
"316.5","203159","SARL_v6","SARL_v69x6ecwcg","60cac378df202bf598c986b1","freq","","","img/orange_2bandit_a2.png","70","","70","test","1","","30","","","","square","circle","29","8","2","0.9310344827586207","","","","","","","",""
"null","203655","SARL_v6","SARL_v69x6ecwcg","60cac378df202bf598c986b1","freq_resp","","","img/orange_2bandit_a.png","70","img/orange_2bandit_a.png","70","test","","","","","","","","","","","2","","","","","","","","",""
"null","203813","SARL_v6","SARL_v69x6ecwcg","60cac378df202bf598c986b1","fixation","","","img/fixation.png","null","","","test","","","","","","","","","","","","","","","","","","","",""
"311.10000002384186","204127","SARL_v6","SARL_v69x6ecwcg","60cac378df202bf598c986b1","freq","","","img/orange_2bandit_a2.png","70","","70","test","1","","31","","","","square","circle","30","9","2","0.9333333333333333","","","","","","","",""
"null","204629","SARL_v6","SARL_v69x6ecwcg","60cac378df202bf598c986b1","freq_resp","","","img/orange_2bandit_a.png","70","img/orange_2bandit_a.png","70","test","","","","","","","","","","","2","","","","","","","","",""
"null","204787","SARL_v6","SARL_v69x6ecwcg","60cac378df202bf598c986b1","fixation","","","img/fixation.png","null","","","test","","","","","","","","","","","","","","","","","","","",""
"431.09999990463257","205222","SARL_v6","SARL_v69x6ecwcg","60cac378df202bf598c986b1","infreq","","","img/blue_2bandit_a2.png","68","","68","test","1","","32","","","","square","circle","31","10","2","0.9354838709677419","","","","","","","",""
"null","205599","SARL_v6","SARL_v69x6ecwcg","60cac378df202bf598c986b1","infreq_resp","","","img/blue_2bandit_a.png","68","img/blue_2bandit_a.png","68","test","","","","","","","","","","","2","","","","","","","","",""
"null","205759","SARL_v6","SARL_v69x6ecwcg","60cac378df202bf598c986b1","fixation","","","img/fixation.png","null","","","test","","","","","","","","","","","","","","","","","","","",""
"435.60000002384186","206198","SARL_v6","SARL_v69x6ecwcg","60cac378df202bf598c986b1","freq","","","img/orange_2bandit_a2.png","70","","70","test","1","","33","","","","square","circle","32","11","2","0.9375","","","","","","","",""
"null","206576","SARL_v6","SARL_v69x6ecwcg","60cac378df202bf598c986b1","freq_resp","","","img/orange_2bandit_a.png","70","img/orange_2bandit_a.png","70","test","","","","","","","","","","","2","","","","","","","","",""
"null","206734","SARL_v6","SARL_v69x6ecwcg","60cac378df202bf598c986b1","fixation","","","img/fixation.png","null","","","test","","","","","","","","","","","","","","","","","","","",""
"416.7999999523163","207154","SARL_v6","SARL_v69x6ecwcg","60cac378df202bf598c986b1","freq","","","img/orange_2bandit_a2.png","70","","70","test","1","","34","","","","square","circle","33","12","2","0.9393939393939394","","","","","","","",""
"null","207546","SARL_v6","SARL_v69x6ecwcg","60cac378df202bf598c986b1","freq_resp","","","img/orange_2bandit_a.png","70","img/orange_2bandit_a.png","70","test","","","","","","","","","","","2","","","","","","","","",""
"null","207711","SARL_v6","SARL_v69x6ecwcg","60cac378df202bf598c986b1","fixation","","","img/fixation.png","null","","","test","","","","","","","","","","","","","","","","","","","",""
"476.5","208191","SARL_v6","SARL_v69x6ecwcg","60cac378df202bf598c986b1","infreq","","","img/blue_2bandit_a2.png","68","","68","test","1","","35","","","","square","circle","34","13","2","0.9411764705882353","","","","","","","",""
"null","208527","SARL_v6","SARL_v69x6ecwcg","60cac378df202bf598c986b1","infreq_resp","","","img/blue_2bandit_a.png","68","img/blue_2bandit_a.png","68","test","","","","","","","","","","","2","","","","","","","","",""
"null","208687","SARL_v6","SARL_v69x6ecwcg","60cac378df202bf598c986b1","fixation","","","img/fixation.png","null","","","test","","","","","","","","","","","","","","","","","","","",""
"347.60000002384186","209039","SARL_v6","SARL_v69x6ecwcg","60cac378df202bf598c986b1","freq","","","img/orange_2bandit_a2.png","70","","70","test","1","","36","","","","square","circle","35","14","2","0.9428571428571428","","","","","","","",""
"null","209503","SARL_v6","SARL_v69x6ecwcg","60cac378df202bf598c986b1","freq_resp","","","img/orange_2bandit_a.png","70","img/orange_2bandit_a.png","70","test","","","","","","","","","","","2","","","","","","","","",""
"null","209660","SARL_v6","SARL_v69x6ecwcg","60cac378df202bf598c986b1","fixation","","","img/fixation.png","null","","","test","","","","","","","","","","","","","","","","","","","",""
"358.60000002384186","210022","SARL_v6","SARL_v69x6ecwcg","60cac378df202bf598c986b1","freq","","","img/orange_2bandit_a2.png","70","","70","test","1","","37","","","","square","circle","36","15","2","0.9444444444444444","","","","","","","",""
"null","210475","SARL_v6","SARL_v69x6ecwcg","60cac378df202bf598c986b1","freq_resp","","","img/orange_2bandit_a.png","70","img/orange_2bandit_a.png","70","test","","","","","","","","","","","2","","","","","","","","",""
"null","210639","SARL_v6","SARL_v69x6ecwcg","60cac378df202bf598c986b1","fixation","","","img/fixation.png","null","","","test","","","","","","","","","","","","","","","","","","","",""
"365.3000000715256","211008","SARL_v6","SARL_v69x6ecwcg","60cac378df202bf598c986b1","freq","","","img/orange_2bandit_a2.png","70","","70","test","1","","38","","","","square","circle","37","16","2","0.9459459459459459","","","","","","","",""
"null","211456","SARL_v6","SARL_v69x6ecwcg","60cac378df202bf598c986b1","freq_resp","","","img/orange_2bandit_a.png","70","img/orange_2bandit_a.png","70","test","","","","","","","","","","","2","","","","","","","","",""
"null","211615","SARL_v6","SARL_v69x6ecwcg","60cac378df202bf598c986b1","fixation","","","img/fixation.png","null","","","test","","","","","","","","","","","","","","","","","","","",""
"329.3000000715256","211948","SARL_v6","SARL_v69x6ecwcg","60cac378df202bf598c986b1","freq","","","img/orange_2bandit_a2.png","70","","70","test","1","","39","","","","square","circle","38","17","2","0.9473684210526315","","","","","","","",""
"null","212431","SARL_v6","SARL_v69x6ecwcg","60cac378df202bf598c986b1","freq_resp","","","img/orange_2bandit_a.png","70","img/orange_2bandit_a.png","70","test","","","","","","","","","","","2","","","","","","","","",""
"null","212587","SARL_v6","SARL_v69x6ecwcg","60cac378df202bf598c986b1","fixation","","","img/fixation.png","null","","","test","","","","","","","","","","","","","","","","","","","",""
"350","212940","SARL_v6","SARL_v69x6ecwcg","60cac378df202bf598c986b1","freq","","","img/orange_2bandit_a2.png","70","","70","test","1","","40","","","","square","circle","39","18","2","0.9487179487179487","","","","","","","",""
"null","213408","SARL_v6","SARL_v69x6ecwcg","60cac378df202bf598c986b1","freq_resp","","","img/orange_2bandit_a.png","70","img/orange_2bandit_a.png","70","test","","","","","","","","","","","2","","","","","","","","",""
"null","213567","SARL_v6","SARL_v69x6ecwcg","60cac378df202bf598c986b1","fixation","","","img/fixation.png","null","","","test","","","","","","","","","","","","","","","","","","","",""
"324.39999997615814","213895","SARL_v6","SARL_v69x6ecwcg","60cac378df202bf598c986b1","infreq","","","img/blue_2bandit_a2.png","70","","68","test","0","","41","","","","square","circle","40","19","2","0.925","","","","","","","",""
"null","214381","SARL_v6","SARL_v69x6ecwcg","60cac378df202bf598c986b1","infreq_resp","","","img/blue_2bandit_a.png","70","img/blue_2bandit_a.png","68","test","","","","","","","","","","","2","","","","","","","","",""
"null","214543","SARL_v6","SARL_v69x6ecwcg","60cac378df202bf598c986b1","fixation","","","img/fixation.png","null","","","test","","","","","","","","","","","","","","","","","","","",""
"334.2000000476837","214881","SARL_v6","SARL_v69x6ecwcg","60cac378df202bf598c986b1","freq","","","img/orange_2bandit_a2.png","70","","70","test","1","","42","","","","square","circle","41","20","2","0.926829268292683","","","","","","","",""
"null","215357","SARL_v6","SARL_v69x6ecwcg","60cac378df202bf598c986b1","freq_resp","","","img/orange_2bandit_a.png","70","img/orange_2bandit_a.png","70","test","","","","","","","","","","","2","","","","","","","","",""
"null","215519","SARL_v6","SARL_v69x6ecwcg","60cac378df202bf598c986b1","fixation","","","img/fixation.png","null","","","test","","","","","","","","","","","","","","","","","","","",""
"463.5","215986","SARL_v6","SARL_v69x6ecwcg","60cac378df202bf598c986b1","freq","","","img/orange_2bandit_a2.png","70","","70","test","1","","43","","","","square","circle","42","21","2","0.9285714285714286","","","","","","","",""
"null","216331","SARL_v6","SARL_v69x6ecwcg","60cac378df202bf598c986b1","freq_resp","","","img/orange_2bandit_a.png","70","img/orange_2bandit_a.png","70","test","","","","","","","","","","","2","","","","","","","","",""
"null","216495","SARL_v6","SARL_v69x6ecwcg","60cac378df202bf598c986b1","fixation","","","img/fixation.png","null","","","test","","","","","","","","","","","","","","","","","","","",""
"344.6999999284744","216843","SARL_v6","SARL_v69x6ecwcg","60cac378df202bf598c986b1","freq","","","img/orange_2bandit_a2.png","70","","70","test","1","","44","","","","square","circle","43","22","2","0.9302325581395349","","","","","","","",""
"null","217311","SARL_v6","SARL_v69x6ecwcg","60cac378df202bf598c986b1","freq_resp","","","img/orange_2bandit_a.png","70","img/orange_2bandit_a.png","70","test","","","","","","","","","","","2","","","","","","","","",""
"null","217467","SARL_v6","SARL_v69x6ecwcg","60cac378df202bf598c986b1","fixation","","","img/fixation.png","null","","","test","","","","","","","","","","","","","","","","","","","",""
"325.6999999284744","217796","SARL_v6","SARL_v69x6ecwcg","60cac378df202bf598c986b1","freq","","","img/orange_2bandit_a2.png","70","","70","test","1","","45","","","","square","circle","44","23","2","0.9318181818181818","","","","","","","",""
"null","218280","SARL_v6","SARL_v69x6ecwcg","60cac378df202bf598c986b1","freq_resp","","","img/orange_2bandit_a.png","70","img/orange_2bandit_a.png","70","test","","","","","","","","","","","2","","","","","","","","",""
"null","218439","SARL_v6","SARL_v69x6ecwcg","60cac378df202bf598c986b1","fixation","","","img/fixation.png","null","","","test","","","","","","","","","","","","","","","","","","","",""
"349.60000002384186","218792","SARL_v6","SARL_v69x6ecwcg","60cac378df202bf598c986b1","freq","","","img/orange_2bandit_a2.png","70","","70","test","1","","46","","","","square","circle","45","24","2","0.9333333333333333","","","","","","","",""
"null","219255","SARL_v6","SARL_v69x6ecwcg","60cac378df202bf598c986b1","freq_resp","","","img/orange_2bandit_a.png","70","img/orange_2bandit_a.png","70","test","","","","","","","","","","","2","","","","","","","","",""
"null","219415","SARL_v6","SARL_v69x6ecwcg","60cac378df202bf598c986b1","fixation","","","img/fixation.png","null","","","test","","","","","","","","","","","","","","","","","","","",""
"298.90000009536743","219718","SARL_v6","SARL_v69x6ecwcg","60cac378df202bf598c986b1","freq","","","img/orange_2bandit_a2.png","70","","70","test","1","","47","","","","square","circle","46","25","2","0.9347826086956522","","","","","","","",""
"null","220227","SARL_v6","SARL_v69x6ecwcg","60cac378df202bf598c986b1","freq_resp","","","img/orange_2bandit_a.png","70","img/orange_2bandit_a.png","70","test","","","","","","","","","","","2","","","","","","","","",""
"null","220388","SARL_v6","SARL_v69x6ecwcg","60cac378df202bf598c986b1","fixation","","","img/fixation.png","null","","","test","","","","","","","","","","","","","","","","","","","",""
"540.1000000238419","220932","SARL_v6","SARL_v69x6ecwcg","60cac378df202bf598c986b1","rl","","","img/black_2bandit_a2.png","74","","0","test","","","48","","","-5","square","circle","","0","2","","74","-8","-5","-5","-8","square","2","0"
"null","221695","SARL_v6","SARL_v69x6ecwcg","60cac378df202bf598c986b1","feedback","","","<div class=""verylowPoints_sq""> -5 </div>","null","","na","test","","","NaN","","","","","","","","2","","74","","","","","","2",""
"632.6000000238419","222332","SARL_v6","SARL_v69x6ecwcg","60cac378df202bf598c986b1","freq","","","img/orange_2bandit_a2.png","70","","70","test","1","","49","","","","square","circle","47","1","3","0.9361702127659575","","","","","","","",""
"null","222511","SARL_v6","SARL_v69x6ecwcg","60cac378df202bf598c986b1","freq_resp","","","img/orange_2bandit_a.png","70","img/orange_2bandit_a.png","70","test","","","","","","","","","","","3","","","","","","","","",""
"null","222668","SARL_v6","SARL_v69x6ecwcg","60cac378df202bf598c986b1","fixation","","","img/fixation.png","null","","","test","","","","","","","","","","","","","","","","","","","",""
"440.60000002384186","223112","SARL_v6","SARL_v69x6ecwcg","60cac378df202bf598c986b1","freq","","","img/orange_2bandit_a2.png","70","","70","test","1","","50","","","","square","circle","48","2","3","0.9375","","","","","","","",""
"null","223488","SARL_v6","SARL_v69x6ecwcg","60cac378df202bf598c986b1","freq_resp","","","img/orange_2bandit_a.png","70","img/orange_2bandit_a.png","70","test","","","","","","","","","","","3","","","","","","","","",""
"null","223643","SARL_v6","SARL_v69x6ecwcg","60cac378df202bf598c986b1","fixation","","","img/fixation.png","null","","","test","","","","","","","","","","","","","","","","","","","",""
"333","223980","SARL_v6","SARL_v69x6ecwcg","60cac378df202bf598c986b1","freq","","","img/orange_2bandit_a2.png","70","","70","test","1","","51","","","","square","circle","49","3","3","0.9387755102040817","","","","","","","",""
"null","224463","SARL_v6","SARL_v69x6ecwcg","60cac378df202bf598c986b1","freq_resp","","","img/orange_2bandit_a.png","70","img/orange_2bandit_a.png","70","test","","","","","","","","","","","3","","","","","","","","",""
"null","224623","SARL_v6","SARL_v69x6ecwcg","60cac378df202bf598c986b1","fixation","","","img/fixation.png","null","","","test","","","","","","","","","","","","","","","","","","","",""
"302.1999999284744","224928","SARL_v6","SARL_v69x6ecwcg","60cac378df202bf598c986b1","freq","","","img/orange_2bandit_a2.png","70","","70","test","1","","52","","","","square","circle","50","4","3","0.94","","","","","","","",""
"null","225440","SARL_v6","SARL_v69x6ecwcg","60cac378df202bf598c986b1","freq_resp","","","img/orange_2bandit_a.png","70","img/orange_2bandit_a.png","70","test","","","","","","","","","","","3","","","","","","","","",""
"null","225600","SARL_v6","SARL_v69x6ecwcg","60cac378df202bf598c986b1","fixation","","","img/fixation.png","null","","","test","","","","","","","","","","","","","","","","","","","",""
"371.40000009536743","225974","SARL_v6","SARL_v69x6ecwcg","60cac378df202bf598c986b1","infreq","","","img/blue_2bandit_a2.png","68","","68","test","1","","53","","","","square","circle","51","5","3","0.9411764705882353","","","","","","","",""
"null","226411","SARL_v6","SARL_v69x6ecwcg","60cac378df202bf598c986b1","infreq_resp","","","img/blue_2bandit_a.png","68","img/blue_2bandit_a.png","68","test","","","","","","","","","","","3","","","","","","","","",""
"null","226576","SARL_v6","SARL_v69x6ecwcg","60cac378df202bf598c986b1","fixation","","","img/fixation.png","null","","","test","","","","","","","","","","","","","","","","","","","",""
"346.60000002384186","226926","SARL_v6","SARL_v69x6ecwcg","60cac378df202bf598c986b1","freq","","","img/orange_2bandit_a2.png","68","","70","test","0","","54","","","","square","circle","52","6","3","0.9230769230769231","","","","","","","",""
"null","227386","SARL_v6","SARL_v69x6ecwcg","60cac378df202bf598c986b1","freq_resp","","","img/orange_2bandit_a.png","68","img/orange_2bandit_a.png","70","test","","","","","","","","","","","3","","","","","","","","",""
"null","227550","SARL_v6","SARL_v69x6ecwcg","60cac378df202bf598c986b1","fixation","","","img/fixation.png","null","","","test","","","","","","","","","","","","","","","","","","","",""
"345.39999997615814","227899","SARL_v6","SARL_v69x6ecwcg","60cac378df202bf598c986b1","freq","","","img/orange_2bandit_a2.png","70","","70","test","1","","55","","","","square","circle","53","7","3","0.9245283018867925","","","","","","","",""
"null","228364","SARL_v6","SARL_v69x6ecwcg","60cac378df202bf598c986b1","freq_resp","","","img/orange_2bandit_a.png","70","img/orange_2bandit_a.png","70","test","","","","","","","","","","","3","","","","","","","","",""
"null","228524","SARL_v6","SARL_v69x6ecwcg","60cac378df202bf598c986b1","fixation","","","img/fixation.png","null","","","test","","","","","","","","","","","","","","","","","","","",""
"359.39999997615814","228886","SARL_v6","SARL_v69x6ecwcg","60cac378df202bf598c986b1","freq","","","img/orange_2bandit_a2.png","70","","70","test","1","","56","","","","square","circle","54","8","3","0.9259259259259259","","","","","","","",""
"null","229330","SARL_v6","SARL_v69x6ecwcg","60cac378df202bf598c986b1","freq_resp","","","img/orange_2bandit_a.png","70","img/orange_2bandit_a.png","70","test","","","","","","","","","","","3","","","","","","","","",""
"null","229494","SARL_v6","SARL_v69x6ecwcg","60cac378df202bf598c986b1","fixation","","","img/fixation.png","null","","","test","","","","","","","","","","","","","","","","","","","",""
"326.39999997615814","229823","SARL_v6","SARL_v69x6ecwcg","60cac378df202bf598c986b1","freq","","","img/orange_2bandit_a2.png","70","","70","test","1","","57","","","","square","circle","55","9","3","0.9272727272727272","","","","","","","",""
"null","230312","SARL_v6","SARL_v69x6ecwcg","60cac378df202bf598c986b1","freq_resp","","","img/orange_2bandit_a.png","70","img/orange_2bandit_a.png","70","test","","","","","","","","","","","3","","","","","","","","",""
"null","230467","SARL_v6","SARL_v69x6ecwcg","60cac378df202bf598c986b1","fixation","","","img/fixation.png","null","","","test","","","","","","","","","","","","","","","","","","","",""
"337.2000000476837","230807","SARL_v6","SARL_v69x6ecwcg","60cac378df202bf598c986b1","freq","","","img/orange_2bandit_a2.png","70","","70","test","1","","58","","","","square","circle","56","10","3","0.9285714285714286","","","","","","","",""
"null","231280","SARL_v6","SARL_v69x6ecwcg","60cac378df202bf598c986b1","freq_resp","","","img/orange_2bandit_a.png","70","img/orange_2bandit_a.png","70","test","","","","","","","","","","","3","","","","","","","","",""
"null","231436","SARL_v6","SARL_v69x6ecwcg","60cac378df202bf598c986b1","fixation","","","img/fixation.png","null","","","test","","","","","","","","","","","","","","","","","","","",""
"560.6000000238419","232000","SARL_v6","SARL_v69x6ecwcg","60cac378df202bf598c986b1","infreq","","","img/blue_2bandit_a2.png","68","","68","test","1","","59","","","","square","circle","57","11","3","0.9298245614035088","","","","","","","",""
"null","232256","SARL_v6","SARL_v69x6ecwcg","60cac378df202bf598c986b1","infreq_resp","","","img/blue_2bandit_a.png","68","img/blue_2bandit_a.png","68","test","","","","","","","","","","","3","","","","","","","","",""
"null","232416","SARL_v6","SARL_v69x6ecwcg","60cac378df202bf598c986b1","fixation","","","img/fixation.png","null","","","test","","","","","","","","","","","","","","","","","","","",""
"421.10000002384186","232840","SARL_v6","SARL_v69x6ecwcg","60cac378df202bf598c986b1","freq","","","img/orange_2bandit_a2.png","70","","70","test","1","","60","","","","square","circle","58","12","3","0.9310344827586207","","","","","","","",""
"null","233232","SARL_v6","SARL_v69x6ecwcg","60cac378df202bf598c986b1","freq_resp","","","img/orange_2bandit_a.png","70","img/orange_2bandit_a.png","70","test","","","","","","","","","","","3","","","","","","","","",""
"null","233392","SARL_v6","SARL_v69x6ecwcg","60cac378df202bf598c986b1","fixation","","","img/fixation.png","null","","","test","","","","","","","","","","","","","","","","","","","",""
"322.2000000476837","233717","SARL_v6","SARL_v69x6ecwcg","60cac378df202bf598c986b1","freq","","","img/orange_2bandit_a2.png","70","","70","test","1","","61","","","","square","circle","59","13","3","0.9322033898305084","","","","","","","",""
"null","234208","SARL_v6","SARL_v69x6ecwcg","60cac378df202bf598c986b1","freq_resp","","","img/orange_2bandit_a.png","70","img/orange_2bandit_a.png","70","test","","","","","","","","","","","3","","","","","","","","",""
"null","234365","SARL_v6","SARL_v69x6ecwcg","60cac378df202bf598c986b1","fixation","","","img/fixation.png","null","","","test","","","","","","","","","","","","","","","","","","","",""
"448.1999999284744","234817","SARL_v6","SARL_v69x6ecwcg","60cac378df202bf598c986b1","freq","","","img/orange_2bandit_a2.png","70","","70","test","1","","62","","","","square","circle","60","14","3","0.9333333333333333","","","","","","","",""
"null","235184","SARL_v6","SARL_v69x6ecwcg","60cac378df202bf598c986b1","freq_resp","","","img/orange_2bandit_a.png","70","img/orange_2bandit_a.png","70","test","","","","","","","","","","","3","","","","","","","","",""
"null","235343","SARL_v6","SARL_v69x6ecwcg","60cac378df202bf598c986b1","fixation","","","img/fixation.png","null","","","test","","","","","","","","","","","","","","","","","","","",""
"336.2000000476837","235683","SARL_v6","SARL_v69x6ecwcg","60cac378df202bf598c986b1","freq","","","img/orange_2bandit_a2.png","70","","70","test","1","","63","","","","square","circle","61","15","3","0.9344262295081968","","","","","","","",""
"null","236159","SARL_v6","SARL_v69x6ecwcg","60cac378df202bf598c986b1","freq_resp","","","img/orange_2bandit_a.png","70","img/orange_2bandit_a.png","70","test","","","","","","","","","","","3","","","","","","","","",""
"null","236320","SARL_v6","SARL_v69x6ecwcg","60cac378df202bf598c986b1","fixation","","","img/fixation.png","null","","","test","","","","","","","","","","","","","","","","","","","",""
"352.60000002384186","236676","SARL_v6","SARL_v69x6ecwcg","60cac378df202bf598c986b1","freq","","","img/orange_2bandit_a2.png","70","","70","test","1","","64","","","","square","circle","62","16","3","0.9354838709677419","","","","","","","",""
"null","237136","SARL_v6","SARL_v69x6ecwcg","60cac378df202bf598c986b1","freq_resp","","","img/orange_2bandit_a.png","70","img/orange_2bandit_a.png","70","test","","","","","","","","","","","3","","","","","","","","",""
"null","237296","SARL_v6","SARL_v69x6ecwcg","60cac378df202bf598c986b1","fixation","","","img/fixation.png","null","","","test","","","","","","","","","","","","","","","","","","","",""
"346","237645","SARL_v6","SARL_v69x6ecwcg","60cac378df202bf598c986b1","freq","","","img/orange_2bandit_a2.png","70","","70","test","1","","65","","","","square","circle","63","17","3","0.9365079365079365","","","","","","","",""
"null","238112","SARL_v6","SARL_v69x6ecwcg","60cac378df202bf598c986b1","freq_resp","","","img/orange_2bandit_a.png","70","img/orange_2bandit_a.png","70","test","","","","","","","","","","","3","","","","","","","","",""
"null","238267","SARL_v6","SARL_v69x6ecwcg","60cac378df202bf598c986b1","fixation","","","img/fixation.png","null","","","test","","","","","","","","","","","","","","","","","","","",""
"368.6999999284744","238638","SARL_v6","SARL_v69x6ecwcg","60cac378df202bf598c986b1","freq","","","img/orange_2bandit_a2.png","70","","70","test","1","","66","","","","square","circle","64","18","3","0.9375","","","","","","","",""
"null","239080","SARL_v6","SARL_v69x6ecwcg","60cac378df202bf598c986b1","freq_resp","","","img/orange_2bandit_a.png","70","img/orange_2bandit_a.png","70","test","","","","","","","","","","","3","","","","","","","","",""
"null","239240","SARL_v6","SARL_v69x6ecwcg","60cac378df202bf598c986b1","fixation","","","img/fixation.png","null","","","test","","","","","","","","","","","","","","","","","","","",""
"347.90000009536743","239591","SARL_v6","SARL_v69x6ecwcg","60cac378df202bf598c986b1","freq","","","img/orange_2bandit_a2.png","70","","70","test","1","","67","","","","square","circle","65","19","3","0.9384615384615385","","","","","","","",""
"null","240056","SARL_v6","SARL_v69x6ecwcg","60cac378df202bf598c986b1","freq_resp","","","img/orange_2bandit_a.png","70","img/orange_2bandit_a.png","70","test","","","","","","","","","","","3","","","","","","","","",""
"null","240216","SARL_v6","SARL_v69x6ecwcg","60cac378df202bf598c986b1","fixation","","","img/fixation.png","null","","","test","","","","","","","","","","","","","","","","","","","",""
"350.60000002384186","240570","SARL_v6","SARL_v69x6ecwcg","60cac378df202bf598c986b1","freq","","","img/orange_2bandit_a2.png","70","","70","test","1","","68","","","","square","circle","66","20","3","0.9393939393939394","","","","","","","",""
"null","241032","SARL_v6","SARL_v69x6ecwcg","60cac378df202bf598c986b1","freq_resp","","","img/orange_2bandit_a.png","70","img/orange_2bandit_a.png","70","test","","","","","","","","","","","3","","","","","","","","",""
"null","241192","SARL_v6","SARL_v69x6ecwcg","60cac378df202bf598c986b1","fixation","","","img/fixation.png","null","","","test","","","","","","","","","","","","","","","","","","","",""
"621.3999999761581","241817","SARL_v6","SARL_v69x6ecwcg","60cac378df202bf598c986b1","rl","","","img/black_2bandit_a2.png","74","","0","test","","","69","","","-4","square","circle","","0","3","","74","-8","-4","-4","-8","square","3","0"
"null","242582","SARL_v6","SARL_v69x6ecwcg","60cac378df202bf598c986b1","feedback","","","<div class=""verylowPoints_sq""> -4 </div>","null","","na","test","","","NaN","","","","","","","","3","","74","","","","","","3",""
"484.6999999284744","243071","SARL_v6","SARL_v69x6ecwcg","60cac378df202bf598c986b1","freq","","","img/orange_2bandit_a2.png","70","","70","test","1","","70","","","","square","circle","67","1","4","0.9402985074626866","","","","","","","",""
"null","243397","SARL_v6","SARL_v69x6ecwcg","60cac378df202bf598c986b1","freq_resp","","","img/orange_2bandit_a.png","70","img/orange_2bandit_a.png","70","test","","","","","","","","","","","4","","","","","","","","",""
"null","243559","SARL_v6","SARL_v69x6ecwcg","60cac378df202bf598c986b1","fixation","","","img/fixation.png","null","","","test","","","","","","","","","","","","","","","","","","","",""
"319.5","243882","SARL_v6","SARL_v69x6ecwcg","60cac378df202bf598c986b1","freq","","","img/orange_2bandit_a2.png","70","","70","test","1","","71","","","","square","circle","68","2","4","0.9411764705882353","","","","","","","",""
"null","244376","SARL_v6","SARL_v69x6ecwcg","60cac378df202bf598c986b1","freq_resp","","","img/orange_2bandit_a.png","70","img/orange_2bandit_a.png","70","test","","","","","","","","","","","4","","","","","","","","",""
"null","244536","SARL_v6","SARL_v69x6ecwcg","60cac378df202bf598c986b1","fixation","","","img/fixation.png","null","","","test","","","","","","","","","","","","","","","","","","","",""
"365.40000009536743","244904","SARL_v6","SARL_v69x6ecwcg","60cac378df202bf598c986b1","freq","","","img/orange_2bandit_a2.png","70","","70","test","1","","72","","","","square","circle","69","3","4","0.9420289855072463","","","","","","","",""
"null","245351","SARL_v6","SARL_v69x6ecwcg","60cac378df202bf598c986b1","freq_resp","","","img/orange_2bandit_a.png","70","img/orange_2bandit_a.png","70","test","","","","","","","","","","","4","","","","","","","","",""
"null","245512","SARL_v6","SARL_v69x6ecwcg","60cac378df202bf598c986b1","fixation","","","img/fixation.png","null","","","test","","","","","","","","","","","","","","","","","","","",""
"454.2000000476837","245969","SARL_v6","SARL_v69x6ecwcg","60cac378df202bf598c986b1","freq","","","img/orange_2bandit_a2.png","70","","70","test","1","","73","","","","square","circle","70","4","4","0.9428571428571428","","","","","","","",""
"null","246327","SARL_v6","SARL_v69x6ecwcg","60cac378df202bf598c986b1","freq_resp","","","img/orange_2bandit_a.png","70","img/orange_2bandit_a.png","70","test","","","","","","","","","","","4","","","","","","","","",""
"null","246483","SARL_v6","SARL_v69x6ecwcg","60cac378df202bf598c986b1","fixation","","","img/fixation.png","null","","","test","","","","","","","","","","","","","","","","","","","",""
"331.5","246817","SARL_v6","SARL_v69x6ecwcg","60cac378df202bf598c986b1","freq","","","img/orange_2bandit_a2.png","70","","70","test","1","","74","","","","square","circle","71","5","4","0.9436619718309859","","","","","","","",""
"null","247296","SARL_v6","SARL_v69x6ecwcg","60cac378df202bf598c986b1","freq_resp","","","img/orange_2bandit_a.png","70","img/orange_2bandit_a.png","70","test","","","","","","","","","","","4","","","","","","","","",""
"null","247454","SARL_v6","SARL_v69x6ecwcg","60cac378df202bf598c986b1","fixation","","","img/fixation.png","null","","","test","","","","","","","","","","","","","","","","","","","",""
"346.39999997615814","247804","SARL_v6","SARL_v69x6ecwcg","60cac378df202bf598c986b1","freq","","","img/orange_2bandit_a2.png","70","","70","test","1","","75","","","","square","circle","72","6","4","0.9444444444444444","","","","","","","",""
"null","248271","SARL_v6","SARL_v69x6ecwcg","60cac378df202bf598c986b1","freq_resp","","","img/orange_2bandit_a.png","70","img/orange_2bandit_a.png","70","test","","","","","","","","","","","4","","","","","","","","",""
"null","248429","SARL_v6","SARL_v69x6ecwcg","60cac378df202bf598c986b1","fixation","","","img/fixation.png","null","","","test","","","","","","","","","","","","","","","","","","","",""
"351.1999999284744","248783","SARL_v6","SARL_v69x6ecwcg","60cac378df202bf598c986b1","infreq","","","img/blue_2bandit_a2.png","70","","68","test","0","","76","","","","square","circle","73","7","4","0.9315068493150684","","","","","","","",""
"null","249243","SARL_v6","SARL_v69x6ecwcg","60cac378df202bf598c986b1","infreq_resp","","","img/blue_2bandit_a.png","70","img/blue_2bandit_a.png","68","test","","","","","","","","","","","4","","","","","","","","",""
"null","249408","SARL_v6","SARL_v69x6ecwcg","60cac378df202bf598c986b1","fixation","","","img/fixation.png","null","","","test","","","","","","","","","","","","","","","","","","","",""
"397.10000002384186","249808","SARL_v6","SARL_v69x6ecwcg","60cac378df202bf598c986b1","freq","","","img/orange_2bandit_a2.png","70","","70","test","1","","77","","","","square","circle","74","8","4","0.9324324324324325","","","","","","","",""
"null","250219","SARL_v6","SARL_v69x6ecwcg","60cac378df202bf598c986b1","freq_resp","","","img/orange_2bandit_a.png","70","img/orange_2bandit_a.png","70","test","","","","","","","","","","","4","","","","","","","","",""
"null","250379","SARL_v6","SARL_v69x6ecwcg","60cac378df202bf598c986b1","fixation","","","img/fixation.png","null","","","test","","","","","","","","","","","","","","","","","","","",""
"307.59999990463257","250690","SARL_v6","SARL_v69x6ecwcg","60cac378df202bf598c986b1","freq","","","img/orange_2bandit_a2.png","70","","70","test","1","","78","","","","square","circle","75","9","4","0.9333333333333333","","","","","","","",""
"null","251196","SARL_v6","SARL_v69x6ecwcg","60cac378df202bf598c986b1","freq_resp","","","img/orange_2bandit_a.png","70","img/orange_2bandit_a.png","70","test","","","","","","","","","","","4","","","","","","","","",""
"null","251360","SARL_v6","SARL_v69x6ecwcg","60cac378df202bf598c986b1","fixation","","","img/fixation.png","null","","","test","","","","","","","","","","","","","","","","","","","",""
"309","251672","SARL_v6","SARL_v69x6ecwcg","60cac378df202bf598c986b1","freq","","","img/orange_2bandit_a2.png","70","","70","test","1","","79","","","","square","circle","76","10","4","0.9342105263157895","","","","","","","",""
"null","252175","SARL_v6","SARL_v69x6ecwcg","60cac378df202bf598c986b1","freq_resp","","","img/orange_2bandit_a.png","70","img/orange_2bandit_a.png","70","test","","","","","","","","","","","4","","","","","","","","",""
"null","252336","SARL_v6","SARL_v69x6ecwcg","60cac378df202bf598c986b1","fixation","","","img/fixation.png","null","","","test","","","","","","","","","","","","","","","","","","","",""
"504.8000000715256","252844","SARL_v6","SARL_v69x6ecwcg","60cac378df202bf598c986b1","freq","","","img/orange_2bandit_a2.png","70","","70","test","1","","80","","","","square","circle","77","11","4","0.935064935064935","","","","","","","",""
"null","253152","SARL_v6","SARL_v69x6ecwcg","60cac378df202bf598c986b1","freq_resp","","","img/orange_2bandit_a.png","70","img/orange_2bandit_a.png","70","test","","","","","","","","","","","4","","","","","","","","",""
"null","253311","SARL_v6","SARL_v69x6ecwcg","60cac378df202bf598c986b1","fixation","","","img/fixation.png","null","","","test","","","","","","","","","","","","","","","","","","","",""
"488.6999999284744","253803","SARL_v6","SARL_v69x6ecwcg","60cac378df202bf598c986b1","freq","","","img/orange_2bandit_a2.png","70","","70","test","1","","81","","","","square","circle","78","12","4","0.9358974358974359","","","","","","","",""
"null","254123","SARL_v6","SARL_v69x6ecwcg","60cac378df202bf598c986b1","freq_resp","","","img/orange_2bandit_a.png","70","img/orange_2bandit_a.png","70","test","","","","","","","","","","","4","","","","","","","","",""
"null","254288","SARL_v6","SARL_v69x6ecwcg","60cac378df202bf598c986b1","fixation","","","img/fixation.png","null","","","test","","","","","","","","","","","","","","","","","","","",""
"509.90000009536743","254801","SARL_v6","SARL_v69x6ecwcg","60cac378df202bf598c986b1","freq","","","img/orange_2bandit_a2.png","70","","70","test","1","","82","","","","square","circle","79","13","4","0.9367088607594937","","","","","","","",""
"null","255103","SARL_v6","SARL_v69x6ecwcg","60cac378df202bf598c986b1","freq_resp","","","img/orange_2bandit_a.png","70","img/orange_2bandit_a.png","70","test","","","","","","","","","","","4","","","","","","","","",""
"null","255258","SARL_v6","SARL_v69x6ecwcg","60cac378df202bf598c986b1","fixation","","","img/fixation.png","null","","","test","","","","","","","","","","","","","","","","","","","",""
"430","255692","SARL_v6","SARL_v69x6ecwcg","60cac378df202bf598c986b1","infreq","","","img/blue_2bandit_a2.png","68","","68","test","1","","83","","","","square","circle","80","14","4","0.9375","","","","","","","",""
"null","256072","SARL_v6","SARL_v69x6ecwcg","60cac378df202bf598c986b1","infreq_resp","","","img/blue_2bandit_a.png","68","img/blue_2bandit_a.png","68","test","","","","","","","","","","","4","","","","","","","","",""
"null","256232","SARL_v6","SARL_v69x6ecwcg","60cac378df202bf598c986b1","fixation","","","img/fixation.png","null","","","test","","","","","","","","","","","","","","","","","","","",""
"424.8000000715256","256660","SARL_v6","SARL_v69x6ecwcg","60cac378df202bf598c986b1","freq","","","img/orange_2bandit_a2.png","70","","70","test","1","","84","","","","square","circle","81","15","4","0.9382716049382716","","","","","","","",""
"null","257048","SARL_v6","SARL_v69x6ecwcg","60cac378df202bf598c986b1","freq_resp","","","img/orange_2bandit_a.png","70","img/orange_2bandit_a.png","70","test","","","","","","","","","","","4","","","","","","","","",""
"null","257208","SARL_v6","SARL_v69x6ecwcg","60cac378df202bf598c986b1","fixation","","","img/fixation.png","null","","","test","","","","","","","","","","","","","","","","","","","",""
"428.60000002384186","257640","SARL_v6","SARL_v69x6ecwcg","60cac378df202bf598c986b1","freq","","","img/orange_2bandit_a2.png","70","","70","test","1","","85","","","","square","circle","82","16","4","0.9390243902439024","","","","","","","",""
"null","258020","SARL_v6","SARL_v69x6ecwcg","60cac378df202bf598c986b1","freq_resp","","","img/orange_2bandit_a.png","70","img/orange_2bandit_a.png","70","test","","","","","","","","","","","4","","","","","","","","",""
"null","258184","SARL_v6","SARL_v69x6ecwcg","60cac378df202bf598c986b1","fixation","","","img/fixation.png","null","","","test","","","","","","","","","","","","","","","","","","","",""
"337.8000000715256","258525","SARL_v6","SARL_v69x6ecwcg","60cac378df202bf598c986b1","freq","","","img/orange_2bandit_a2.png","70","","70","test","1","","86","","","","square","circle","83","17","4","0.9397590361445783","","","","","","","",""
"null","259000","SARL_v6","SARL_v69x6ecwcg","60cac378df202bf598c986b1","freq_resp","","","img/orange_2bandit_a.png","70","img/orange_2bandit_a.png","70","test","","","","","","","","","","","4","","","","","","","","",""
"null","259159","SARL_v6","SARL_v69x6ecwcg","60cac378df202bf598c986b1","fixation","","","img/fixation.png","null","","","test","","","","","","","","","","","","","","","","","","","",""
"366.60000002384186","259529","SARL_v6","SARL_v69x6ecwcg","60cac378df202bf598c986b1","freq","","","img/orange_2bandit_a2.png","70","","70","test","1","","87","","","","square","circle","84","18","4","0.9404761904761905","","","","","","","",""
"null","259976","SARL_v6","SARL_v69x6ecwcg","60cac378df202bf598c986b1","freq_resp","","","img/orange_2bandit_a.png","70","img/orange_2bandit_a.png","70","test","","","","","","","","","","","4","","","","","","","","",""
"null","260135","SARL_v6","SARL_v69x6ecwcg","60cac378df202bf598c986b1","fixation","","","img/fixation.png","null","","","test","","","","","","","","","","","","","","","","","","","",""
"362.1999999284744","260501","SARL_v6","SARL_v69x6ecwcg","60cac378df202bf598c986b1","freq","","","img/orange_2bandit_a2.png","70","","70","test","1","","88","","","","square","circle","85","19","4","0.9411764705882353","","","","","","","",""
"null","260951","SARL_v6","SARL_v69x6ecwcg","60cac378df202bf598c986b1","freq_resp","","","img/orange_2bandit_a.png","70","img/orange_2bandit_a.png","70","test","","","","","","","","","","","4","","","","","","","","",""
"null","261112","SARL_v6","SARL_v69x6ecwcg","60cac378df202bf598c986b1","fixation","","","img/fixation.png","null","","","test","","","","","","","","","","","","","","","","","","","",""
"383.60000002384186","261499","SARL_v6","SARL_v69x6ecwcg","60cac378df202bf598c986b1","freq","","","img/orange_2bandit_a2.png","70","","70","test","1","","89","","","","square","circle","86","20","4","0.9418604651162791","","","","","","","",""
"null","261927","SARL_v6","SARL_v69x6ecwcg","60cac378df202bf598c986b1","freq_resp","","","img/orange_2bandit_a.png","70","img/orange_2bandit_a.png","70","test","","","","","","","","","","","4","","","","","","","","",""
"null","262088","SARL_v6","SARL_v69x6ecwcg","60cac378df202bf598c986b1","fixation","","","img/fixation.png","null","","","test","","","","","","","","","","","","","","","","","","","",""
"573","262664","SARL_v6","SARL_v69x6ecwcg","60cac378df202bf598c986b1","rl","","","img/black_2bandit_a2.png","74","","0","test","","","90","","","0","square","circle","","0","4","","74","-12","0","0","-12","square","4","0"
"null","263426","SARL_v6","SARL_v69x6ecwcg","60cac378df202bf598c986b1","feedback","","","<div class=""verylowPoints_sq""> 0 </div>","null","","na","test","","","NaN","","","","","","","","4","","74","","","","","","4",""
"475.5","263905","SARL_v6","SARL_v69x6ecwcg","60cac378df202bf598c986b1","freq","","","img/orange_2bandit_a2.png","70","","70","test","1","","91","","","","square","circle","87","1","5","0.9425287356321839","","","","","","","",""
"null","264240","SARL_v6","SARL_v69x6ecwcg","60cac378df202bf598c986b1","freq_resp","","","img/orange_2bandit_a.png","70","img/orange_2bandit_a.png","70","test","","","","","","","","","","","5","","","","","","","","",""
"null","264399","SARL_v6","SARL_v69x6ecwcg","60cac378df202bf598c986b1","fixation","","","img/fixation.png","null","","","test","","","","","","","","","","","","","","","","","","","",""
"470.89999997615814","264873","SARL_v6","SARL_v69x6ecwcg","60cac378df202bf598c986b1","freq","","","img/orange_2bandit_a2.png","70","","70","test","1","","92","","","","square","circle","88","2","5","0.9431818181818182","","","","","","","",""
"null","265215","SARL_v6","SARL_v69x6ecwcg","60cac378df202bf598c986b1","freq_resp","","","img/orange_2bandit_a.png","70","img/orange_2bandit_a.png","70","test","","","","","","","","","","","5","","","","","","","","",""
"null","265376","SARL_v6","SARL_v69x6ecwcg","60cac378df202bf598c986b1","fixation","","","img/fixation.png","null","","","test","","","","","","","","","","","","","","","","","","","",""
"534.2000000476837","265913","SARL_v6","SARL_v69x6ecwcg","60cac378df202bf598c986b1","freq","","","img/orange_2bandit_a2.png","70","","70","test","1","","93","","","","square","circle","89","3","5","0.9438202247191011","","","","","","","",""
"null","266189","SARL_v6","SARL_v69x6ecwcg","60cac378df202bf598c986b1","freq_resp","","","img/orange_2bandit_a.png","70","img/orange_2bandit_a.png","70","test","","","","","","","","","","","5","","","","","","","","",""
"null","266351","SARL_v6","SARL_v69x6ecwcg","60cac378df202bf598c986b1","fixation","","","img/fixation.png","null","","","test","","","","","","","","","","","","","","","","","","","",""
"639.7000000476837","266994","SARL_v6","SARL_v69x6ecwcg","60cac378df202bf598c986b1","infreq","","","img/blue_2bandit_a2.png","68","","68","test","1","","94","","","","square","circle","90","4","5","0.9444444444444444","","","","","","","",""
"null","267168","SARL_v6","SARL_v69x6ecwcg","60cac378df202bf598c986b1","infreq_resp","","","img/blue_2bandit_a.png","68","img/blue_2bandit_a.png","68","test","","","","","","","","","","","5","","","","","","","","",""
"null","267328","SARL_v6","SARL_v69x6ecwcg","60cac378df202bf598c986b1","fixation","","","img/fixation.png","null","","","test","","","","","","","","","","","","","","","","","","","",""
"619","267950","SARL_v6","SARL_v69x6ecwcg","60cac378df202bf598c986b1","freq","","","img/orange_2bandit_a2.png","70","","70","test","1","","95","","","","square","circle","91","5","5","0.945054945054945","","","","","","","",""
"null","268143","SARL_v6","SARL_v69x6ecwcg","60cac378df202bf598c986b1","freq_resp","","","img/orange_2bandit_a.png","70","img/orange_2bandit_a.png","70","test","","","","","","","","","","","5","","","","","","","","",""
"null","268304","SARL_v6","SARL_v69x6ecwcg","60cac378df202bf598c986b1","fixation","","","img/fixation.png","null","","","test","","","","","","","","","","","","","","","","","","","",""
"559.2000000476837","268866","SARL_v6","SARL_v69x6ecwcg","60cac378df202bf598c986b1","freq","","","img/orange_2bandit_a2.png","70","","70","test","1","","96","","","","square","circle","92","6","5","0.9456521739130435","","","","","","","",""
"null","269120","SARL_v6","SARL_v69x6ecwcg","60cac378df202bf598c986b1","freq_resp","","","img/orange_2bandit_a.png","70","img/orange_2bandit_a.png","70","test","","","","","","","","","","","5","","","","","","","","",""
"null","269279","SARL_v6","SARL_v69x6ecwcg","60cac378df202bf598c986b1","fixation","","","img/fixation.png","null","","","test","","","","","","","","","","","","","","","","","","","",""
"524.5","269807","SARL_v6","SARL_v69x6ecwcg","60cac378df202bf598c986b1","freq","","","img/orange_2bandit_a2.png","70","","70","test","1","","97","","","","square","circle","93","7","5","0.946236559139785","","","","","","","",""
"null","270091","SARL_v6","SARL_v69x6ecwcg","60cac378df202bf598c986b1","freq_resp","","","img/orange_2bandit_a.png","70","img/orange_2bandit_a.png","70","test","","","","","","","","","","","5","","","","","","","","",""
"null","270255","SARL_v6","SARL_v69x6ecwcg","60cac378df202bf598c986b1","fixation","","","img/fixation.png","null","","","test","","","","","","","","","","","","","","","","","","","",""
"579.6000000238419","270838","SARL_v6","SARL_v69x6ecwcg","60cac378df202bf598c986b1","freq","","","img/orange_2bandit_a2.png","70","","70","test","1","","98","","","","square","circle","94","8","5","0.9468085106382979","","","","","","","",""
"null","271072","SARL_v6","SARL_v69x6ecwcg","60cac378df202bf598c986b1","freq_resp","","","img/orange_2bandit_a.png","70","img/orange_2bandit_a.png","70","test","","","","","","","","","","","5","","","","","","","","",""
"null","271227","SARL_v6","SARL_v69x6ecwcg","60cac378df202bf598c986b1","fixation","","","img/fixation.png","null","","","test","","","","","","","","","","","","","","","","","","","",""
"504.5","271735","SARL_v6","SARL_v69x6ecwcg","60cac378df202bf598c986b1","freq","","","img/orange_2bandit_a2.png","70","","70","test","1","","99","","","","square","circle","95","9","5","0.9473684210526315","","","","","","","",""
"null","272040","SARL_v6","SARL_v69x6ecwcg","60cac378df202bf598c986b1","freq_resp","","","img/orange_2bandit_a.png","70","img/orange_2bandit_a.png","70","test","","","","","","","","","","","5","","","","","","","","",""
"null","272200","SARL_v6","SARL_v69x6ecwcg","60cac378df202bf598c986b1","fixation","","","img/fixation.png","null","","","test","","","","","","","","","","","","","","","","","","","",""
"485.5","272689","SARL_v6","SARL_v69x6ecwcg","60cac378df202bf598c986b1","freq","","","img/orange_2bandit_a2.png","70","","70","test","1","","100","","","","square","circle","96","10","5","0.9479166666666666","","","","","","","",""
"null","273014","SARL_v6","SARL_v69x6ecwcg","60cac378df202bf598c986b1","freq_resp","","","img/orange_2bandit_a.png","70","img/orange_2bandit_a.png","70","test","","","","","","","","","","","5","","","","","","","","",""
"null","273170","SARL_v6","SARL_v69x6ecwcg","60cac378df202bf598c986b1","fixation","","","img/fixation.png","null","","","test","","","","","","","","","","","","","","","","","","","",""
"453.2999999523163","273627","SARL_v6","SARL_v69x6ecwcg","60cac378df202bf598c986b1","freq","","","img/orange_2bandit_a2.png","70","","70","test","1","","101","","","","square","circle","97","11","5","0.9484536082474226","","","","","","","",""
"null","273979","SARL_v6","SARL_v69x6ecwcg","60cac378df202bf598c986b1","freq_resp","","","img/orange_2bandit_a.png","70","img/orange_2bandit_a.png","70","test","","","","","","","","","","","5","","","","","","","","",""
"null","274136","SARL_v6","SARL_v69x6ecwcg","60cac378df202bf598c986b1","fixation","","","img/fixation.png","null","","","test","","","","","","","","","","","","","","","","","","","",""
"630.5","274770","SARL_v6","SARL_v69x6ecwcg","60cac378df202bf598c986b1","infreq","","","img/blue_2bandit_a2.png","68","","68","test","1","","102","","","","square","circle","98","12","5","0.9489795918367347","","","","","","","",""
"null","274949","SARL_v6","SARL_v69x6ecwcg","60cac378df202bf598c986b1","infreq_resp","","","img/blue_2bandit_a.png","68","img/blue_2bandit_a.png","68","test","","","","","","","","","","","5","","","","","","","","",""
"null","275109","SARL_v6","SARL_v69x6ecwcg","60cac378df202bf598c986b1","fixation","","","img/fixation.png","null","","","test","","","","","","","","","","","","","","","","","","","",""
"683","275796","SARL_v6","SARL_v69x6ecwcg","60cac378df202bf598c986b1","freq","","","img/orange_2bandit_a2.png","70","","70","test","1","","103","","","","square","circle","99","13","5","0.9494949494949495","","","","","","","",""
"null","275928","SARL_v6","SARL_v69x6ecwcg","60cac378df202bf598c986b1","freq_resp","","","img/orange_2bandit_a.png","70","img/orange_2bandit_a.png","70","test","","","","","","","","","","","5","","","","","","","","",""
"null","276086","SARL_v6","SARL_v69x6ecwcg","60cac378df202bf598c986b1","fixation","","","img/fixation.png","null","","","test","","","","","","","","","","","","","","","","","","","",""
"558","276648","SARL_v6","SARL_v69x6ecwcg","60cac378df202bf598c986b1","freq","","","img/orange_2bandit_a2.png","70","","70","test","1","","104","","","","square","circle","100","14","5","0.95","","","","","","","",""
"null","276900","SARL_v6","SARL_v69x6ecwcg","60cac378df202bf598c986b1","freq_resp","","","img/orange_2bandit_a.png","70","img/orange_2bandit_a.png","70","test","","","","","","","","","","","5","","","","","","","","",""
"null","277064","SARL_v6","SARL_v69x6ecwcg","60cac378df202bf598c986b1","fixation","","","img/fixation.png","null","","","test","","","","","","","","","","","","","","","","","","","",""
"467.39999997615814","277535","SARL_v6","SARL_v69x6ecwcg","60cac378df202bf598c986b1","freq","","","img/orange_2bandit_a2.png","70","","70","test","1","","105","","","","square","circle","101","15","5","0.9504950495049505","","","","","","","",""
"null","277880","SARL_v6","SARL_v69x6ecwcg","60cac378df202bf598c986b1","freq_resp","","","img/orange_2bandit_a.png","70","img/orange_2bandit_a.png","70","test","","","","","","","","","","","5","","","","","","","","",""
"null","278036","SARL_v6","SARL_v69x6ecwcg","60cac378df202bf598c986b1","fixation","","","img/fixation.png","null","","","test","","","","","","","","","","","","","","","","","","","",""
"465.5","278505","SARL_v6","SARL_v69x6ecwcg","60cac378df202bf598c986b1","freq","","","img/orange_2bandit_a2.png","70","","70","test","1","","106","","","","square","circle","102","16","5","0.9509803921568627","","","","","","","",""
"null","278853","SARL_v6","SARL_v69x6ecwcg","60cac378df202bf598c986b1","freq_resp","","","img/orange_2bandit_a.png","70","img/orange_2bandit_a.png","70","test","","","","","","","","","","","5","","","","","","","","",""
"null","279016","SARL_v6","SARL_v69x6ecwcg","60cac378df202bf598c986b1","fixation","","","img/fixation.png","null","","","test","","","","","","","","","","","","","","","","","","","",""
"457.5","279477","SARL_v6","SARL_v69x6ecwcg","60cac378df202bf598c986b1","freq","","","img/orange_2bandit_a2.png","70","","70","test","1","","107","","","","square","circle","103","17","5","0.9514563106796117","","","","","","","",""
"null","279832","SARL_v6","SARL_v69x6ecwcg","60cac378df202bf598c986b1","freq_resp","","","img/orange_2bandit_a.png","70","img/orange_2bandit_a.png","70","test","","","","","","","","","","","5","","","","","","","","",""
"null","279988","SARL_v6","SARL_v69x6ecwcg","60cac378df202bf598c986b1","fixation","","","img/fixation.png","null","","","test","","","","","","","","","","","","","","","","","","","",""
"436.59999990463257","280428","SARL_v6","SARL_v69x6ecwcg","60cac378df202bf598c986b1","freq","","","img/orange_2bandit_a2.png","70","","70","test","1","","108","","","","square","circle","104","18","5","0.9519230769230769","","","","","","","",""
"null","280807","SARL_v6","SARL_v69x6ecwcg","60cac378df202bf598c986b1","freq_resp","","","img/orange_2bandit_a.png","70","img/orange_2bandit_a.png","70","test","","","","","","","","","","","5","","","","","","","","",""
"null","280968","SARL_v6","SARL_v69x6ecwcg","60cac378df202bf598c986b1","fixation","","","img/fixation.png","null","","","test","","","","","","","","","","","","","","","","","","","",""
"428.3000000715256","281399","SARL_v6","SARL_v69x6ecwcg","60cac378df202bf598c986b1","freq","","","img/orange_2bandit_a2.png","70","","70","test","1","","109","","","","square","circle","105","19","5","0.9523809523809523","","","","","","","",""
"null","281784","SARL_v6","SARL_v69x6ecwcg","60cac378df202bf598c986b1","freq_resp","","","img/orange_2bandit_a.png","70","img/orange_2bandit_a.png","70","test","","","","","","","","","","","5","","","","","","","","",""
"null","281939","SARL_v6","SARL_v69x6ecwcg","60cac378df202bf598c986b1","fixation","","","img/fixation.png","null","","","test","","","","","","","","","","","","","","","","","","","",""
"528.7000000476837","282471","SARL_v6","SARL_v69x6ecwcg","60cac378df202bf598c986b1","freq","","","img/orange_2bandit_a2.png","70","","70","test","1","","110","","","","square","circle","106","20","5","0.9528301886792453","","","","","","","",""
"null","282752","SARL_v6","SARL_v69x6ecwcg","60cac378df202bf598c986b1","freq_resp","","","img/orange_2bandit_a.png","70","img/orange_2bandit_a.png","70","test","","","","","","","","","","","5","","","","","","","","",""
"null","282911","SARL_v6","SARL_v69x6ecwcg","60cac378df202bf598c986b1","fixation","","","img/fixation.png","null","","","test","","","","","","","","","","","","","","","","","","","",""
"446.5","283361","SARL_v6","SARL_v69x6ecwcg","60cac378df202bf598c986b1","freq","","","img/orange_2bandit_a2.png","70","","70","test","1","","111","","","","square","circle","107","21","5","0.9532710280373832","","","","","","","",""
"null","283727","SARL_v6","SARL_v69x6ecwcg","60cac378df202bf598c986b1","freq_resp","","","img/orange_2bandit_a.png","70","img/orange_2bandit_a.png","70","test","","","","","","","","","","","5","","","","","","","","",""
"null","283885","SARL_v6","SARL_v69x6ecwcg","60cac378df202bf598c986b1","fixation","","","img/fixation.png","null","","","test","","","","","","","","","","","","","","","","","","","",""
"418.7000000476837","284307","SARL_v6","SARL_v69x6ecwcg","60cac378df202bf598c986b1","freq","","","img/orange_2bandit_a2.png","70","","70","test","1","","112","","","","square","circle","108","22","5","0.9537037037037037","","","","","","","",""
"null","284702","SARL_v6","SARL_v69x6ecwcg","60cac378df202bf598c986b1","freq_resp","","","img/orange_2bandit_a.png","70","img/orange_2bandit_a.png","70","test","","","","","","","","","","","5","","","","","","","","",""
"null","284860","SARL_v6","SARL_v69x6ecwcg","60cac378df202bf598c986b1","fixation","","","img/fixation.png","null","","","test","","","","","","","","","","","","","","","","","","","",""
"519.0999999046326","285382","SARL_v6","SARL_v69x6ecwcg","60cac378df202bf598c986b1","freq","","","img/orange_2bandit_a2.png","70","","70","test","1","","113","","","","square","circle","109","23","5","0.9541284403669725","","","","","","","",""
"null","285672","SARL_v6","SARL_v69x6ecwcg","60cac378df202bf598c986b1","freq_resp","","","img/orange_2bandit_a.png","70","img/orange_2bandit_a.png","70","test","","","","","","","","","","","5","","","","","","","","",""
"null","285828","SARL_v6","SARL_v69x6ecwcg","60cac378df202bf598c986b1","fixation","","","img/fixation.png","null","","","test","","","","","","","","","","","","","","","","","","","",""
"635","286466","SARL_v6","SARL_v69x6ecwcg","60cac378df202bf598c986b1","rl","","","img/black_2bandit_a2.png","74","","0","test","","","114","","","4","square","circle","","0","5","","74","-7","4","4","-7","square","5","0"
"null","287232","SARL_v6","SARL_v69x6ecwcg","60cac378df202bf598c986b1","feedback","","","<div class=""veryhighPoints_sq""> 4 </div>","null","","na","test","","","NaN","","","","","","","","5","","74","","","","","","5",""
"null","288048","SARL_v6","SARL_v69x6ecwcg","60cac378df202bf598c986b1","freq","","","img/orange_2bandit_a2.png","null","","70","test","0","","115","","","","square","circle","110","1","6","0.9454545454545454","","","","","","","",""
"null","288207","SARL_v6","SARL_v69x6ecwcg","60cac378df202bf598c986b1","fixation","","","img/fixation.png","null","","","test","","","","","","","","","","","","","","","","","","","",""
"514.6999999284744","288725","SARL_v6","SARL_v69x6ecwcg","60cac378df202bf598c986b1","freq","","","img/orange_2bandit_a2.png","70","","70","test","1","","116","","","","square","circle","111","2","6","0.9459459459459459","","","","","","","",""
"null","289024","SARL_v6","SARL_v69x6ecwcg","60cac378df202bf598c986b1","freq_resp","","","img/orange_2bandit_a.png","70","img/orange_2bandit_a.png","70","test","","","","","","","","","","","6","","","","","","","","",""
"null","289183","SARL_v6","SARL_v69x6ecwcg","60cac378df202bf598c986b1","fixation","","","img/fixation.png","null","","","test","","","","","","","","","","","","","","","","","","","",""
"406.7999999523163","289593","SARL_v6","SARL_v69x6ecwcg","60cac378df202bf598c986b1","freq","","","img/orange_2bandit_a2.png","70","","70","test","1","","117","","","","square","circle","112","3","6","0.9464285714285714","","","","","","","",""
"null","289999","SARL_v6","SARL_v69x6ecwcg","60cac378df202bf598c986b1","freq_resp","","","img/orange_2bandit_a.png","70","img/orange_2bandit_a.png","70","test","","","","","","","","","","","6","","","","","","","","",""
"null","290159","SARL_v6","SARL_v69x6ecwcg","60cac378df202bf598c986b1","fixation","","","img/fixation.png","null","","","test","","","","","","","","","","","","","","","","","","","",""
"437.40000009536743","290600","SARL_v6","SARL_v69x6ecwcg","60cac378df202bf598c986b1","freq","","","img/orange_2bandit_a2.png","70","","70","test","1","","118","","","","square","circle","113","4","6","0.9469026548672567","","","","","","","",""
"null","290976","SARL_v6","SARL_v69x6ecwcg","60cac378df202bf598c986b1","freq_resp","","","img/orange_2bandit_a.png","70","img/orange_2bandit_a.png","70","test","","","","","","","","","","","6","","","","","","","","",""
"null","291136","SARL_v6","SARL_v69x6ecwcg","60cac378df202bf598c986b1","fixation","","","img/fixation.png","null","","","test","","","","","","","","","","","","","","","","","","","",""
"497.89999997615814","291637","SARL_v6","SARL_v69x6ecwcg","60cac378df202bf598c986b1","freq","","","img/orange_2bandit_a2.png","70","","70","test","1","","119","","","","square","circle","114","5","6","0.9473684210526315","","","","","","","",""
"null","291952","SARL_v6","SARL_v69x6ecwcg","60cac378df202bf598c986b1","freq_resp","","","img/orange_2bandit_a.png","70","img/orange_2bandit_a.png","70","test","","","","","","","","","","","6","","","","","","","","",""
"null","292112","SARL_v6","SARL_v69x6ecwcg","60cac378df202bf598c986b1","fixation","","","img/fixation.png","null","","","test","","","","","","","","","","","","","","","","","","","",""
"510.39999997615814","292626","SARL_v6","SARL_v69x6ecwcg","60cac378df202bf598c986b1","infreq","","","img/blue_2bandit_a2.png","68","","68","test","1","","120","","","","square","circle","115","6","6","0.9478260869565217","","","","","","","",""
"null","292928","SARL_v6","SARL_v69x6ecwcg","60cac378df202bf598c986b1","infreq_resp","","","img/blue_2bandit_a.png","68","img/blue_2bandit_a.png","68","test","","","","","","","","","","","6","","","","","","","","",""
"null","293087","SARL_v6","SARL_v69x6ecwcg","60cac378df202bf598c986b1","fixation","","","img/fixation.png","null","","","test","","","","","","","","","","","","","","","","","","","",""
"528.1000000238419","293619","SARL_v6","SARL_v69x6ecwcg","60cac378df202bf598c986b1","freq","","","img/orange_2bandit_a2.png","70","","70","test","1","","121","","","","square","circle","116","7","6","0.9482758620689655","","","","","","","",""
"null","293904","SARL_v6","SARL_v69x6ecwcg","60cac378df202bf598c986b1","freq_resp","","","img/orange_2bandit_a.png","70","img/orange_2bandit_a.png","70","test","","","","","","","","","","","6","","","","","","","","",""
"null","294064","SARL_v6","SARL_v69x6ecwcg","60cac378df202bf598c986b1","fixation","","","img/fixation.png","null","","","test","","","","","","","","","","","","","","","","","","","",""
"542.7000000476837","294610","SARL_v6","SARL_v69x6ecwcg","60cac378df202bf598c986b1","freq","","","img/orange_2bandit_a2.png","70","","70","test","1","","122","","","","square","circle","117","8","6","0.9487179487179487","","","","","","","",""
"null","294880","SARL_v6","SARL_v69x6ecwcg","60cac378df202bf598c986b1","freq_resp","","","img/orange_2bandit_a.png","70","img/orange_2bandit_a.png","70","test","","","","","","","","","","","6","","","","","","","","",""
"null","295035","SARL_v6","SARL_v69x6ecwcg","60cac378df202bf598c986b1","fixation","","","img/fixation.png","null","","","test","","","","","","","","","","","","","","","","","","","",""
"483.1999999284744","295522","SARL_v6","SARL_v69x6ecwcg","60cac378df202bf598c986b1","infreq","","","img/blue_2bandit_a2.png","68","","68","test","1","","123","","","","square","circle","118","9","6","0.9491525423728814","","","","","","","",""
"null","295848","SARL_v6","SARL_v69x6ecwcg","60cac378df202bf598c986b1","infreq_resp","","","img/blue_2bandit_a.png","68","img/blue_2bandit_a.png","68","test","","","","","","","","","","","6","","","","","","","","",""
"null","296008","SARL_v6","SARL_v69x6ecwcg","60cac378df202bf598c986b1","fixation","","","img/fixation.png","null","","","test","","","","","","","","","","","","","","","","","","","",""
"428.39999997615814","296440","SARL_v6","SARL_v69x6ecwcg","60cac378df202bf598c986b1","freq","","","img/orange_2bandit_a2.png","70","","70","test","1","","124","","","","square","circle","119","10","6","0.9495798319327731","","","","","","","",""
"null","296824","SARL_v6","SARL_v69x6ecwcg","60cac378df202bf598c986b1","freq_resp","","","img/orange_2bandit_a.png","70","img/orange_2bandit_a.png","70","test","","","","","","","","","","","6","","","","","","","","",""
"null","296984","SARL_v6","SARL_v69x6ecwcg","60cac378df202bf598c986b1","fixation","","","img/fixation.png","null","","","test","","","","","","","","","","","","","","","","","","","",""
"386.10000002384186","297374","SARL_v6","SARL_v69x6ecwcg","60cac378df202bf598c986b1","freq","","","img/orange_2bandit_a2.png","70","","70","test","1","","125","","","","square","circle","120","11","6","0.95","","","","","","","",""
"null","297799","SARL_v6","SARL_v69x6ecwcg","60cac378df202bf598c986b1","freq_resp","","","img/orange_2bandit_a.png","70","img/orange_2bandit_a.png","70","test","","","","","","","","","","","6","","","","","","","","",""
"null","297959","SARL_v6","SARL_v69x6ecwcg","60cac378df202bf598c986b1","fixation","","","img/fixation.png","null","","","test","","","","","","","","","","","","","","","","","","","",""
"479","298441","SARL_v6","SARL_v69x6ecwcg","60cac378df202bf598c986b1","freq","","","img/orange_2bandit_a2.png","70","","70","test","1","","126","","","","square","circle","121","12","6","0.9504132231404959","","","","","","","",""
"null","298776","SARL_v6","SARL_v69x6ecwcg","60cac378df202bf598c986b1","freq_resp","","","img/orange_2bandit_a.png","70","img/orange_2bandit_a.png","70","test","","","","","","","","","","","6","","","","","","","","",""
"null","298932","SARL_v6","SARL_v69x6ecwcg","60cac378df202bf598c986b1","fixation","","","img/fixation.png","null","","","test","","","","","","","","","","","","","","","","","","","",""
"430.5","299365","SARL_v6","SARL_v69x6ecwcg","60cac378df202bf598c986b1","freq","","","img/orange_2bandit_a2.png","70","","70","test","1","","127","","","","square","circle","122","13","6","0.9508196721311475","","","","","","","",""
"null","299752","SARL_v6","SARL_v69x6ecwcg","60cac378df202bf598c986b1","freq_resp","","","img/orange_2bandit_a.png","70","img/orange_2bandit_a.png","70","test","","","","","","","","","","","6","","","","","","","","",""
"null","299912","SARL_v6","SARL_v69x6ecwcg","60cac378df202bf598c986b1","fixation","","","img/fixation.png","null","","","test","","","","","","","","","","","","","","","","","","","",""
"462.5","300378","SARL_v6","SARL_v69x6ecwcg","60cac378df202bf598c986b1","freq","","","img/orange_2bandit_a2.png","70","","70","test","1","","128","","","","square","circle","123","14","6","0.9512195121951219","","","","","","","",""
"null","300723","SARL_v6","SARL_v69x6ecwcg","60cac378df202bf598c986b1","freq_resp","","","img/orange_2bandit_a.png","70","img/orange_2bandit_a.png","70","test","","","","","","","","","","","6","","","","","","","","",""
"null","300888","SARL_v6","SARL_v69x6ecwcg","60cac378df202bf598c986b1","fixation","","","img/fixation.png","null","","","test","","","","","","","","","","","","","","","","","","","",""
"446","301337","SARL_v6","SARL_v69x6ecwcg","60cac378df202bf598c986b1","freq","","","img/orange_2bandit_a2.png","70","","70","test","1","","129","","","","square","circle","124","15","6","0.9516129032258065","","","","","","","",""
