"rt","time_elapsed","expId","subject","prolificID","trialType","rlType","attType","stimulus","key_press","stim","corrresp","phase","corr","pracCounter","trialNum","rewardOne","rewardTwo","reward","bandOne","bandTwo","attentionNum","attentionRunNum","blockNum","performance","bandChosen","circleVal","squareVal","bandOneVal","bandTwoVal","shapeChosen","rlNum","badFlag"
"2053.0999999996275","2060","SARL_v6","SARL_v66td2pvuv","63ed0065eb23ac3ee1726453","","","","","","","","","","","","","","","","","","","","","","","","","","","",""
"","6195","SARL_v6","SARL_v66td2pvuv","63ed0065eb23ac3ee1726453","fullscreen","fullscreen","fullscreen","","","","","","","","","","","","","","","","","","","","","","","","",""
"108632.5","114832","SARL_v6","SARL_v66td2pvuv","63ed0065eb23ac3ee1726453","","","","","","","","","","","","","","","","","","","","","","","","","","","",""
"null","115639","SARL_v6","SARL_v66td2pvuv","63ed0065eb23ac3ee1726453","freqPrac","","","img/blue_2bandit_b2.png","null","img/blue_2bandit_b2.png","70","prac","0","1","","","","","","","","","","","","","","","","","",""
"null","116642","SARL_v6","SARL_v66td2pvuv","63ed0065eb23ac3ee1726453","feedback","","","img/tooSlow.png","null","","na","prac","","","","","","","","","","","","","","","","","","","",""
"null","116795","SARL_v6","SARL_v66td2pvuv","63ed0065eb23ac3ee1726453","fixation","","","img/fixation.png","null","","","prac","","","","","","","","","","","","","","","","","","","",""
"null","117598","SARL_v6","SARL_v66td2pvuv","63ed0065eb23ac3ee1726453","infreqPrac","","","img/orange_2bandit_b2.png","null","img/orange_2bandit_b2.png","68","prac","0","2","","","","","","","","","","","","","","","","","",""
"null","118601","SARL_v6","SARL_v66td2pvuv","63ed0065eb23ac3ee1726453","feedback","","","img/tooSlow.png","null","","na","prac","","","","","","","","","","","","","","","","","","","",""
"null","118754","SARL_v6","SARL_v66td2pvuv","63ed0065eb23ac3ee1726453","fixation","","","img/fixation.png","null","","","prac","","","","","","","","","","","","","","","","","","","",""
"526","119283","SARL_v6","SARL_v66td2pvuv","63ed0065eb23ac3ee1726453","freqPrac","","","img/blue_2bandit_b2.png","70","img/blue_2bandit_b2.png","70","prac","1","2","","","","","","","","","","","","","","","","","",""
"526","119560","SARL_v6","SARL_v66td2pvuv","63ed0065eb23ac3ee1726453","freqPrac_resp","","","img/blue_2bandit_b.png","70","img/blue_2bandit_b.png","70","prac","","","","","","","","","","","","","","","","","","","",""
"null","119713","SARL_v6","SARL_v66td2pvuv","63ed0065eb23ac3ee1726453","fixation","","","img/fixation.png","null","","","prac","","","","","","","","","","","","","","","","","","","",""
"null","120516","SARL_v6","SARL_v66td2pvuv","63ed0065eb23ac3ee1726453","infreqPrac","","","img/orange_2bandit_b2.png","null","img/orange_2bandit_b2.png","68","prac","0","3","","","","","","","","","","","","","","","","","",""
"null","121520","SARL_v6","SARL_v66td2pvuv","63ed0065eb23ac3ee1726453","feedback","","","img/tooSlow.png","null","","na","prac","","","","","","","","","","","","","","","","","","","",""
"null","121672","SARL_v6","SARL_v66td2pvuv","63ed0065eb23ac3ee1726453","fixation","","","img/fixation.png","null","","","prac","","","","","","","","","","","","","","","","","","","",""
"516.2000000011176","122191","SARL_v6","SARL_v66td2pvuv","63ed0065eb23ac3ee1726453","infreqPrac","","","img/orange_2bandit_b2.png","68","img/orange_2bandit_b2.png","68","prac","1","3","","","","","","","","","","","","","","","","","",""
"516.2000000011176","122478","SARL_v6","SARL_v66td2pvuv","63ed0065eb23ac3ee1726453","infreqPrac_resp","","","img/orange_2bandit_b.png","68","img/orange_2bandit_b.png","68","prac","","","","","","","","","","","","","","","","","","","",""
"null","122631","SARL_v6","SARL_v66td2pvuv","63ed0065eb23ac3ee1726453","fixation","","","img/fixation.png","null","","","prac","","","","","","","","","","","","","","","","","","","",""
"556.6000000014901","123190","SARL_v6","SARL_v66td2pvuv","63ed0065eb23ac3ee1726453","infreqPrac","","","img/orange_2bandit_b2.png","68","img/orange_2bandit_b2.png","68","prac","1","3","","","","","","","","","","","","","","","","","",""
"556.6000000014901","123437","SARL_v6","SARL_v66td2pvuv","63ed0065eb23ac3ee1726453","infreqPrac_resp","","","img/orange_2bandit_b.png","68","img/orange_2bandit_b.png","68","prac","","","","","","","","","","","","","","","","","","","",""
"null","123591","SARL_v6","SARL_v66td2pvuv","63ed0065eb23ac3ee1726453","fixation","","","img/fixation.png","null","","","prac","","","","","","","","","","","","","","","","","","","",""
"656.3000000007451","124250","SARL_v6","SARL_v66td2pvuv","63ed0065eb23ac3ee1726453","freqPrac","","","img/blue_2bandit_b2.png","70","img/blue_2bandit_b2.png","70","prac","1","3","","","","","","","","","","","","","","","","","",""
"656.3000000007451","124396","SARL_v6","SARL_v66td2pvuv","63ed0065eb23ac3ee1726453","freqPrac_resp","","","img/blue_2bandit_b.png","70","img/blue_2bandit_b.png","70","prac","","","","","","","","","","","","","","","","","","","",""
"null","124554","SARL_v6","SARL_v66td2pvuv","63ed0065eb23ac3ee1726453","fixation","","","img/fixation.png","null","","","prac","","","","","","","","","","","","","","","","","","","",""
"563.5","125119","SARL_v6","SARL_v66td2pvuv","63ed0065eb23ac3ee1726453","infreqPrac","","","img/orange_2bandit_b2.png","68","img/orange_2bandit_b2.png","68","prac","1","3","","","","","","","","","","","","","","","","","",""
"563.5","125358","SARL_v6","SARL_v66td2pvuv","63ed0065eb23ac3ee1726453","infreqPrac_resp","","","img/orange_2bandit_b.png","68","img/orange_2bandit_b.png","68","prac","","","","","","","","","","","","","","","","","","","",""
"null","125511","SARL_v6","SARL_v66td2pvuv","63ed0065eb23ac3ee1726453","fixation","","","img/fixation.png","null","","","prac","","","","","","","","","","","","","","","","","","","",""
"445.5","125959","SARL_v6","SARL_v66td2pvuv","63ed0065eb23ac3ee1726453","freqPrac","","","img/blue_2bandit_b2.png","70","img/blue_2bandit_b2.png","70","prac","1","3","","","","","","","","","","","","","","","","","",""
"445.5","126316","SARL_v6","SARL_v66td2pvuv","63ed0065eb23ac3ee1726453","freqPrac_resp","","","img/blue_2bandit_b.png","70","img/blue_2bandit_b.png","70","prac","","","","","","","","","","","","","","","","","","","",""
"null","126469","SARL_v6","SARL_v66td2pvuv","63ed0065eb23ac3ee1726453","fixation","","","img/fixation.png","null","","","prac","","","","","","","","","","","","","","","","","","","",""
"427.2000000011176","126898","SARL_v6","SARL_v66td2pvuv","63ed0065eb23ac3ee1726453","freqPrac","","","img/blue_2bandit_b2.png","70","img/blue_2bandit_b2.png","70","prac","1","3","","","","","","","","","","","","","","","","","",""
"427.2000000011176","127274","SARL_v6","SARL_v66td2pvuv","63ed0065eb23ac3ee1726453","freqPrac_resp","","","img/blue_2bandit_b.png","70","img/blue_2bandit_b.png","70","prac","","","","","","","","","","","","","","","","","","","",""
"null","127427","SARL_v6","SARL_v66td2pvuv","63ed0065eb23ac3ee1726453","fixation","","","img/fixation.png","null","","","prac","","","","","","","","","","","","","","","","","","","",""
"32329.400000000373","159759","SARL_v6","SARL_v66td2pvuv","63ed0065eb23ac3ee1726453","","","","","","","","prac","","","","","","","","","","","","","","","","","","","",""
"null","161263","SARL_v6","SARL_v66td2pvuv","63ed0065eb23ac3ee1726453","rlPractice","","","img/black_2bandit_b2.png","null","img/black_2bandit_b2.png","","prac","","","0","","","","","","","","","","","","","","","","",""
"null","162017","SARL_v6","SARL_v66td2pvuv","63ed0065eb23ac3ee1726453","feedback","","","<div font size = 80> TOO SLOW  </div>","null","","na","prac","","","1","10","-14","10","","","","","","","","","","","","","",""
"null","162171","SARL_v6","SARL_v66td2pvuv","63ed0065eb23ac3ee1726453","fixation","","","img/fixation.png","null","","","prac","","","","","","","","","","","","","","","","","","","",""
"253.69999999925494","162426","SARL_v6","SARL_v66td2pvuv","63ed0065eb23ac3ee1726453","rlPractice","","","img/black_2bandit_b2.png","75","img/black_2bandit_b2.png","","prac","","","1","","","","","","","","","","","","","","","","",""
"null","163180","SARL_v6","SARL_v66td2pvuv","63ed0065eb23ac3ee1726453","feedback","","","<div class=""verylowPoints_sq""> -5 </div>","null","","na","prac","","","2","5","-5","5","","","","","","","","","","","","","",""
"null","163334","SARL_v6","SARL_v66td2pvuv","63ed0065eb23ac3ee1726453","fixation","","","img/fixation.png","null","","","prac","","","","","","","","","","","","","","","","","","","",""
"449.90000000037253","163786","SARL_v6","SARL_v66td2pvuv","63ed0065eb23ac3ee1726453","rlPractice","","","img/black_2bandit_b2.png","74","img/black_2bandit_b2.png","","prac","","","2","","","","","","","","","","","","","","","","",""
"null","164539","SARL_v6","SARL_v66td2pvuv","63ed0065eb23ac3ee1726453","feedback","","","<div class=""veryhighPoints""> 30 </div>","null","","na","prac","","","3","30","2","30","","","","","","","","","","","","","",""
"null","164693","SARL_v6","SARL_v66td2pvuv","63ed0065eb23ac3ee1726453","fixation","","","img/fixation.png","null","","","prac","","","","","","","","","","","","","","","","","","","",""
"189.89999999850988","164885","SARL_v6","SARL_v66td2pvuv","63ed0065eb23ac3ee1726453","rlPractice","","","img/black_2bandit_b2.png","74","img/black_2bandit_b2.png","","prac","","","3","","","","","","","","","","","","","","","","",""
"null","165638","SARL_v6","SARL_v66td2pvuv","63ed0065eb23ac3ee1726453","feedback","","","<div class=""verylowPoints""> -2 </div>","null","","na","prac","","","4","-2","20","-2","","","","","","","","","","","","","",""
"null","165792","SARL_v6","SARL_v66td2pvuv","63ed0065eb23ac3ee1726453","fixation","","","img/fixation.png","null","","","prac","","","","","","","","","","","","","","","","","","","",""
"11807.199999999255","177600","SARL_v6","SARL_v66td2pvuv","63ed0065eb23ac3ee1726453","","","","","","","","prac","","","","","","","","","","","","","","","","","","","",""
"null","178404","SARL_v6","SARL_v66td2pvuv","63ed0065eb23ac3ee1726453","mixAttFreqPrac","","","img/blue_2bandit_b2.png","null","img/blue_2bandit_b2.png","70","prac","","","1","","","","","","","","","","","","","","","","",""
"null","178556","SARL_v6","SARL_v66td2pvuv","63ed0065eb23ac3ee1726453","fixation","","","img/fixation.png","null","","","prac","","","","","","","","","","","","","","","","","","","",""
"627.0999999996275","179186","SARL_v6","SARL_v66td2pvuv","63ed0065eb23ac3ee1726453","mixAttInfreqPrac","","","img/orange_2bandit_b2.png","68","img/orange_2bandit_b2.png","68","prac","","","2","","","","","","","","","","","","","","","","",""
"627.0999999996275","179360","SARL_v6","SARL_v66td2pvuv","63ed0065eb23ac3ee1726453","infreqPrac_resp","","","img/orange_2bandit_b.png","68","img/blue_2bandit_b.png","68","prac","","","2","","","","","","","","","","","","","","","","",""
"null","179534","SARL_v6","SARL_v66td2pvuv","63ed0065eb23ac3ee1726453","fixation","","","img/fixation.png","null","","","prac","","","","","","","","","","","","","","","","","","","",""
"489","180025","SARL_v6","SARL_v66td2pvuv","63ed0065eb23ac3ee1726453","mixAttInfreqPrac","","","img/orange_2bandit_b2.png","68","img/orange_2bandit_b2.png","68","prac","","","3","","","","","","","","","","","","","","","","",""
"489","180340","SARL_v6","SARL_v66td2pvuv","63ed0065eb23ac3ee1726453","infreqPrac_resp","","","img/orange_2bandit_b.png","68","img/blue_2bandit_b.png","68","prac","","","3","","","","","","","","","","","","","","","","",""
"null","180493","SARL_v6","SARL_v66td2pvuv","63ed0065eb23ac3ee1726453","fixation","","","img/fixation.png","null","","","prac","","","","","","","","","","","","","","","","","","","",""
"599.2999999988824","181094","SARL_v6","SARL_v66td2pvuv","63ed0065eb23ac3ee1726453","mixAttInfreqPrac","","","img/orange_2bandit_b2.png","68","img/orange_2bandit_b2.png","68","prac","","","4","","","","","","","","","","","","","","","","",""
"599.2999999988824","181298","SARL_v6","SARL_v66td2pvuv","63ed0065eb23ac3ee1726453","infreqPrac_resp","","","img/orange_2bandit_b.png","68","img/blue_2bandit_b.png","68","prac","","","4","","","","","","","","","","","","","","","","",""
"null","181451","SARL_v6","SARL_v66td2pvuv","63ed0065eb23ac3ee1726453","fixation","","","img/fixation.png","null","","","prac","","","","","","","","","","","","","","","","","","","",""
"430.6000000014901","181884","SARL_v6","SARL_v66td2pvuv","63ed0065eb23ac3ee1726453","mixAttFreqPrac","","","img/blue_2bandit_b2.png","70","img/blue_2bandit_b2.png","70","prac","","","5","","","","","","","","","","","","","","","","",""
"430.6000000014901","182257","SARL_v6","SARL_v66td2pvuv","63ed0065eb23ac3ee1726453","freqPrac_resp","","","img/blue_2bandit_b.png","70","img/blue_2bandit_b.png","70","prac","","","5","","","","","","","","","","","","","","","","",""
"null","182411","SARL_v6","SARL_v66td2pvuv","63ed0065eb23ac3ee1726453","fixation","","","img/fixation.png","null","","","prac","","","","","","","","","","","","","","","","","","","",""
"720.3000000007451","183133","SARL_v6","SARL_v66td2pvuv","63ed0065eb23ac3ee1726453","mixRLPractice","","","img/black_2bandit_b2.png","75","img/black_2bandit_b2.png","","prac","","","5","","","","","","","","","","","","","","","","",""
"null","183887","SARL_v6","SARL_v66td2pvuv","63ed0065eb23ac3ee1726453","feedback","","","<div class=""veryhighPoints_sq""> 10 </div>","null","","na","prac","","","6","-14","10","-14","","","","","","","","","","","","","",""
"null","184041","SARL_v6","SARL_v66td2pvuv","63ed0065eb23ac3ee1726453","fixation","","","img/fixation.png","null","","","prac","","","","","","","","","","","","","","","","","","","",""
"null","184844","SARL_v6","SARL_v66td2pvuv","63ed0065eb23ac3ee1726453","mixAttFreqPrac","","","img/blue_2bandit_b2.png","null","img/blue_2bandit_b2.png","70","prac","","","7","","","","","","","","","","","","","","","","",""
"null","184998","SARL_v6","SARL_v66td2pvuv","63ed0065eb23ac3ee1726453","fixation","","","img/fixation.png","null","","","prac","","","","","","","","","","","","","","","","","","","",""
"182.2000000011176","185182","SARL_v6","SARL_v66td2pvuv","63ed0065eb23ac3ee1726453","mixAttInfreqPrac","","","img/orange_2bandit_b2.png","68","img/orange_2bandit_b2.png","68","prac","","","8","","","","","","","","","","","","","","","","",""
"182.2000000011176","185803","SARL_v6","SARL_v66td2pvuv","63ed0065eb23ac3ee1726453","infreqPrac_resp","","","img/orange_2bandit_b.png","68","img/blue_2bandit_b.png","68","prac","","","8","","","","","","","","","","","","","","","","",""
"126.59999999962747","185957","SARL_v6","SARL_v66td2pvuv","63ed0065eb23ac3ee1726453","fixation","","","img/fixation.png","68","","","prac","","","","","","","","","","","","","","","","","","","",""
"522.5999999996275","186481","SARL_v6","SARL_v66td2pvuv","63ed0065eb23ac3ee1726453","mixAttFreqPrac","","","img/blue_2bandit_b2.png","70","img/blue_2bandit_b2.png","70","prac","","","9","","","","","","","","","","","","","","","","",""
"522.5999999996275","186762","SARL_v6","SARL_v66td2pvuv","63ed0065eb23ac3ee1726453","freqPrac_resp","","","img/blue_2bandit_b.png","70","img/blue_2bandit_b.png","70","prac","","","9","","","","","","","","","","","","","","","","",""
"null","186915","SARL_v6","SARL_v66td2pvuv","63ed0065eb23ac3ee1726453","fixation","","","img/fixation.png","null","","","prac","","","","","","","","","","","","","","","","","","","",""
"443.80000000074506","187361","SARL_v6","SARL_v66td2pvuv","63ed0065eb23ac3ee1726453","mixAttFreqPrac","","","img/blue_2bandit_b2.png","70","img/blue_2bandit_b2.png","70","prac","","","10","","","","","","","","","","","","","","","","",""
"443.80000000074506","187721","SARL_v6","SARL_v66td2pvuv","63ed0065eb23ac3ee1726453","freqPrac_resp","","","img/blue_2bandit_b.png","70","img/blue_2bandit_b.png","70","prac","","","10","","","","","","","","","","","","","","","","",""
"null","187875","SARL_v6","SARL_v66td2pvuv","63ed0065eb23ac3ee1726453","fixation","","","img/fixation.png","null","","","prac","","","","","","","","","","","","","","","","","","","",""
"484.30000000074506","188362","SARL_v6","SARL_v66td2pvuv","63ed0065eb23ac3ee1726453","mixAttInfreqPrac","","","img/orange_2bandit_b2.png","68","img/orange_2bandit_b2.png","68","prac","","","11","","","","","","","","","","","","","","","","",""
"484.30000000074506","188680","SARL_v6","SARL_v66td2pvuv","63ed0065eb23ac3ee1726453","infreqPrac_resp","","","img/orange_2bandit_b.png","68","img/blue_2bandit_b.png","68","prac","","","11","","","","","","","","","","","","","","","","",""
"null","188837","SARL_v6","SARL_v66td2pvuv","63ed0065eb23ac3ee1726453","fixation","","","img/fixation.png","null","","","prac","","","","","","","","","","","","","","","","","","","",""
"731.1999999992549","189570","SARL_v6","SARL_v66td2pvuv","63ed0065eb23ac3ee1726453","mixRLPractice","","","img/black_2bandit_b2.png","74","img/black_2bandit_b2.png","","prac","","","11","","","","","","","","","","","","","","","","",""
"null","190323","SARL_v6","SARL_v66td2pvuv","63ed0065eb23ac3ee1726453","feedback","","","<div class=""veryhighPoints""> 5 </div>","null","","na","prac","","","12","5","-5","5","","","","","","","","","","","","","",""
"null","190477","SARL_v6","SARL_v66td2pvuv","63ed0065eb23ac3ee1726453","fixation","","","img/fixation.png","null","","","prac","","","","","","","","","","","","","","","","","","","",""
"840.2000000011176","191319","SARL_v6","SARL_v66td2pvuv","63ed0065eb23ac3ee1726453","","","","","","","","prac","","","","","","","","","","","","","","","","","","","",""
"null","192123","SARL_v6","SARL_v66td2pvuv","63ed0065eb23ac3ee1726453","freq","","","img/blue_2bandit_b2.png","null","","70","test","0","","1","","","","circle","square","1","1","1","0","","","","","","","",""
"null","192276","SARL_v6","SARL_v66td2pvuv","63ed0065eb23ac3ee1726453","fixation","","","img/fixation.png","null","","","test","","","","","","","","","","","","","","","","","","","",""
"559.6999999992549","192838","SARL_v6","SARL_v66td2pvuv","63ed0065eb23ac3ee1726453","freq","","","img/blue_2bandit_b2.png","68","","70","test","0","","2","","","","circle","square","2","2","1","0","","","","","","","",""
"null","193082","SARL_v6","SARL_v66td2pvuv","63ed0065eb23ac3ee1726453","freq_resp","","","img/blue_2bandit_b.png","68","img/blue_2bandit_b.png","70","test","","","","","","","","","","","1","","","","","","","","",""
"null","193235","SARL_v6","SARL_v66td2pvuv","63ed0065eb23ac3ee1726453","fixation","","","img/fixation.png","null","","","test","","","","","","","","","","","","","","","","","","","",""
"300.40000000037253","193537","SARL_v6","SARL_v66td2pvuv","63ed0065eb23ac3ee1726453","freq","","","img/blue_2bandit_b2.png","70","","70","test","1","","3","","","","circle","square","3","3","1","0.3333333333333333","","","","","","","",""
"null","194039","SARL_v6","SARL_v66td2pvuv","63ed0065eb23ac3ee1726453","freq_resp","","","img/blue_2bandit_b.png","70","img/blue_2bandit_b.png","70","test","","","","","","","","","","","1","","","","","","","","",""
"null","194191","SARL_v6","SARL_v66td2pvuv","63ed0065eb23ac3ee1726453","fixation","","","img/fixation.png","null","","","test","","","","","","","","","","","","","","","","","","","",""
"243.30000000074506","194437","SARL_v6","SARL_v66td2pvuv","63ed0065eb23ac3ee1726453","freq","","","img/blue_2bandit_b2.png","70","","70","test","1","","4","","","","circle","square","4","4","1","0.5","","","","","","","",""
"null","194997","SARL_v6","SARL_v66td2pvuv","63ed0065eb23ac3ee1726453","freq_resp","","","img/blue_2bandit_b.png","70","img/blue_2bandit_b.png","70","test","","","","","","","","","","","1","","","","","","","","",""
"null","195151","SARL_v6","SARL_v66td2pvuv","63ed0065eb23ac3ee1726453","fixation","","","img/fixation.png","null","","","test","","","","","","","","","","","","","","","","","","","",""
"293","195446","SARL_v6","SARL_v66td2pvuv","63ed0065eb23ac3ee1726453","freq","","","img/blue_2bandit_b2.png","70","","70","test","1","","5","","","","circle","square","5","5","1","0.6","","","","","","","",""
"null","195957","SARL_v6","SARL_v66td2pvuv","63ed0065eb23ac3ee1726453","freq_resp","","","img/blue_2bandit_b.png","70","img/blue_2bandit_b.png","70","test","","","","","","","","","","","1","","","","","","","","",""
"null","196116","SARL_v6","SARL_v66td2pvuv","63ed0065eb23ac3ee1726453","fixation","","","img/fixation.png","null","","","test","","","","","","","","","","","","","","","","","","","",""
"107.39999999850988","196226","SARL_v6","SARL_v66td2pvuv","63ed0065eb23ac3ee1726453","freq","","","img/blue_2bandit_b2.png","70","","70","test","1","","6","","","","circle","square","6","6","1","0.6666666666666666","","","","","","","",""
"null","196921","SARL_v6","SARL_v66td2pvuv","63ed0065eb23ac3ee1726453","freq_resp","","","img/blue_2bandit_b.png","70","img/blue_2bandit_b.png","70","test","","","","","","","","","","","1","","","","","","","","",""
"null","197074","SARL_v6","SARL_v66td2pvuv","63ed0065eb23ac3ee1726453","fixation","","","img/fixation.png","null","","","test","","","","","","","","","","","","","","","","","","","",""
"129.5","197205","SARL_v6","SARL_v66td2pvuv","63ed0065eb23ac3ee1726453","freq","","","img/blue_2bandit_b2.png","70","","70","test","1","","7","","","","circle","square","7","7","1","0.7142857142857143","","","","","","","",""
"null","197879","SARL_v6","SARL_v66td2pvuv","63ed0065eb23ac3ee1726453","freq_resp","","","img/blue_2bandit_b.png","70","img/blue_2bandit_b.png","70","test","","","","","","","","","","","1","","","","","","","","",""
"null","198032","SARL_v6","SARL_v66td2pvuv","63ed0065eb23ac3ee1726453","fixation","","","img/fixation.png","null","","","test","","","","","","","","","","","","","","","","","","","",""
"120.89999999850988","198155","SARL_v6","SARL_v66td2pvuv","63ed0065eb23ac3ee1726453","freq","","","img/blue_2bandit_b2.png","70","","70","test","1","","8","","","","circle","square","8","8","1","0.75","","","","","","","",""
"null","198838","SARL_v6","SARL_v66td2pvuv","63ed0065eb23ac3ee1726453","freq_resp","","","img/blue_2bandit_b.png","70","img/blue_2bandit_b.png","70","test","","","","","","","","","","","1","","","","","","","","",""
"null","198992","SARL_v6","SARL_v66td2pvuv","63ed0065eb23ac3ee1726453","fixation","","","img/fixation.png","null","","","test","","","","","","","","","","","","","","","","","","","",""
"290.5","199284","SARL_v6","SARL_v66td2pvuv","63ed0065eb23ac3ee1726453","freq","","","img/blue_2bandit_b2.png","70","","70","test","1","","9","","","","circle","square","9","9","1","0.7777777777777778","","","","","","","",""
"null","199798","SARL_v6","SARL_v66td2pvuv","63ed0065eb23ac3ee1726453","freq_resp","","","img/blue_2bandit_b.png","70","img/blue_2bandit_b.png","70","test","","","","","","","","","","","1","","","","","","","","",""
"null","199950","SARL_v6","SARL_v66td2pvuv","63ed0065eb23ac3ee1726453","fixation","","","img/fixation.png","null","","","test","","","","","","","","","","","","","","","","","","","",""
"290.80000000074506","200244","SARL_v6","SARL_v66td2pvuv","63ed0065eb23ac3ee1726453","freq","","","img/blue_2bandit_b2.png","70","","70","test","1","","10","","","","circle","square","10","10","1","0.8","","","","","","","",""
"null","200757","SARL_v6","SARL_v66td2pvuv","63ed0065eb23ac3ee1726453","freq_resp","","","img/blue_2bandit_b.png","70","img/blue_2bandit_b.png","70","test","","","","","","","","","","","1","","","","","","","","",""
"null","200909","SARL_v6","SARL_v66td2pvuv","63ed0065eb23ac3ee1726453","fixation","","","img/fixation.png","null","","","test","","","","","","","","","","","","","","","","","","","",""
"321.2000000011176","201233","SARL_v6","SARL_v66td2pvuv","63ed0065eb23ac3ee1726453","freq","","","img/blue_2bandit_b2.png","70","","70","test","1","","11","","","","circle","square","11","11","1","0.8181818181818182","","","","","","","",""
"null","201714","SARL_v6","SARL_v66td2pvuv","63ed0065eb23ac3ee1726453","freq_resp","","","img/blue_2bandit_b.png","70","img/blue_2bandit_b.png","70","test","","","","","","","","","","","1","","","","","","","","",""
"null","201867","SARL_v6","SARL_v66td2pvuv","63ed0065eb23ac3ee1726453","fixation","","","img/fixation.png","null","","","test","","","","","","","","","","","","","","","","","","","",""
"443.30000000074506","202312","SARL_v6","SARL_v66td2pvuv","63ed0065eb23ac3ee1726453","infreq","","","img/orange_2bandit_b2.png","68","","68","test","1","","12","","","","circle","square","12","12","1","0.8333333333333334","","","","","","","",""
"null","202672","SARL_v6","SARL_v66td2pvuv","63ed0065eb23ac3ee1726453","infreq_resp","","","img/orange_2bandit_b.png","68","img/orange_2bandit_b.png","68","test","","","","","","","","","","","1","","","","","","","","",""
"null","202826","SARL_v6","SARL_v66td2pvuv","63ed0065eb23ac3ee1726453","fixation","","","img/fixation.png","null","","","test","","","","","","","","","","","","","","","","","","","",""
"599.5","203432","SARL_v6","SARL_v66td2pvuv","63ed0065eb23ac3ee1726453","freq","","","img/blue_2bandit_b2.png","70","","70","test","1","","13","","","","circle","square","13","13","1","0.8461538461538461","","","","","","","",""
"null","203635","SARL_v6","SARL_v66td2pvuv","63ed0065eb23ac3ee1726453","freq_resp","","","img/blue_2bandit_b.png","70","img/blue_2bandit_b.png","70","test","","","","","","","","","","","1","","","","","","","","",""
"null","203789","SARL_v6","SARL_v66td2pvuv","63ed0065eb23ac3ee1726453","fixation","","","img/fixation.png","null","","","test","","","","","","","","","","","","","","","","","","","",""
"610.1999999992549","204401","SARL_v6","SARL_v66td2pvuv","63ed0065eb23ac3ee1726453","freq","","","img/blue_2bandit_b2.png","70","","70","test","1","","14","","","","circle","square","14","14","1","0.8571428571428571","","","","","","","",""
"null","204593","SARL_v6","SARL_v66td2pvuv","63ed0065eb23ac3ee1726453","freq_resp","","","img/blue_2bandit_b.png","70","img/blue_2bandit_b.png","70","test","","","","","","","","","","","1","","","","","","","","",""
"null","204747","SARL_v6","SARL_v66td2pvuv","63ed0065eb23ac3ee1726453","fixation","","","img/fixation.png","null","","","test","","","","","","","","","","","","","","","","","","","",""
"471.5","205221","SARL_v6","SARL_v66td2pvuv","63ed0065eb23ac3ee1726453","freq","","","img/blue_2bandit_b2.png","70","","70","test","1","","15","","","","circle","square","15","15","1","0.8666666666666667","","","","","","","",""
"null","205553","SARL_v6","SARL_v66td2pvuv","63ed0065eb23ac3ee1726453","freq_resp","","","img/blue_2bandit_b.png","70","img/blue_2bandit_b.png","70","test","","","","","","","","","","","1","","","","","","","","",""
"null","205707","SARL_v6","SARL_v66td2pvuv","63ed0065eb23ac3ee1726453","fixation","","","img/fixation.png","null","","","test","","","","","","","","","","","","","","","","","","","",""
"401.5","206110","SARL_v6","SARL_v66td2pvuv","63ed0065eb23ac3ee1726453","freq","","","img/blue_2bandit_b2.png","70","","70","test","1","","16","","","","circle","square","16","16","1","0.875","","","","","","","",""
"null","206512","SARL_v6","SARL_v66td2pvuv","63ed0065eb23ac3ee1726453","freq_resp","","","img/blue_2bandit_b.png","70","img/blue_2bandit_b.png","70","test","","","","","","","","","","","1","","","","","","","","",""
"null","206667","SARL_v6","SARL_v66td2pvuv","63ed0065eb23ac3ee1726453","fixation","","","img/fixation.png","null","","","test","","","","","","","","","","","","","","","","","","","",""
"331.5","207001","SARL_v6","SARL_v66td2pvuv","63ed0065eb23ac3ee1726453","freq","","","img/blue_2bandit_b2.png","70","","70","test","1","","17","","","","circle","square","17","17","1","0.8823529411764706","","","","","","","",""
"null","207473","SARL_v6","SARL_v66td2pvuv","63ed0065eb23ac3ee1726453","freq_resp","","","img/blue_2bandit_b.png","70","img/blue_2bandit_b.png","70","test","","","","","","","","","","","1","","","","","","","","",""
"null","207627","SARL_v6","SARL_v66td2pvuv","63ed0065eb23ac3ee1726453","fixation","","","img/fixation.png","null","","","test","","","","","","","","","","","","","","","","","","","",""
"360.2000000011176","207990","SARL_v6","SARL_v66td2pvuv","63ed0065eb23ac3ee1726453","freq","","","img/blue_2bandit_b2.png","70","","70","test","1","","18","","","","circle","square","18","18","1","0.8888888888888888","","","","","","","",""
"null","208432","SARL_v6","SARL_v66td2pvuv","63ed0065eb23ac3ee1726453","freq_resp","","","img/blue_2bandit_b.png","70","img/blue_2bandit_b.png","70","test","","","","","","","","","","","1","","","","","","","","",""
"null","208586","SARL_v6","SARL_v66td2pvuv","63ed0065eb23ac3ee1726453","fixation","","","img/fixation.png","null","","","test","","","","","","","","","","","","","","","","","","","",""
"310.7999999988824","208899","SARL_v6","SARL_v66td2pvuv","63ed0065eb23ac3ee1726453","freq","","","img/blue_2bandit_b2.png","70","","70","test","1","","19","","","","circle","square","19","19","1","0.8947368421052632","","","","","","","",""
"null","209391","SARL_v6","SARL_v66td2pvuv","63ed0065eb23ac3ee1726453","freq_resp","","","img/blue_2bandit_b.png","70","img/blue_2bandit_b.png","70","test","","","","","","","","","","","1","","","","","","","","",""
"null","209547","SARL_v6","SARL_v66td2pvuv","63ed0065eb23ac3ee1726453","fixation","","","img/fixation.png","null","","","test","","","","","","","","","","","","","","","","","","","",""
"348.2999999988824","209898","SARL_v6","SARL_v66td2pvuv","63ed0065eb23ac3ee1726453","freq","","","img/blue_2bandit_b2.png","70","","70","test","1","","20","","","","circle","square","20","20","1","0.9","","","","","","","",""
"null","210353","SARL_v6","SARL_v66td2pvuv","63ed0065eb23ac3ee1726453","freq_resp","","","img/blue_2bandit_b.png","70","img/blue_2bandit_b.png","70","test","","","","","","","","","","","1","","","","","","","","",""
"null","210506","SARL_v6","SARL_v66td2pvuv","63ed0065eb23ac3ee1726453","fixation","","","img/fixation.png","null","","","test","","","","","","","","","","","","","","","","","","","",""
"349","210858","SARL_v6","SARL_v66td2pvuv","63ed0065eb23ac3ee1726453","freq","","","img/blue_2bandit_b2.png","70","","70","test","1","","21","","","","circle","square","21","21","1","0.9047619047619048","","","","","","","",""
"null","211313","SARL_v6","SARL_v66td2pvuv","63ed0065eb23ac3ee1726453","freq_resp","","","img/blue_2bandit_b.png","70","img/blue_2bandit_b.png","70","test","","","","","","","","","","","1","","","","","","","","",""
"null","211466","SARL_v6","SARL_v66td2pvuv","63ed0065eb23ac3ee1726453","fixation","","","img/fixation.png","null","","","test","","","","","","","","","","","","","","","","","","","",""
"328.30000000074506","211797","SARL_v6","SARL_v66td2pvuv","63ed0065eb23ac3ee1726453","infreq","","","img/orange_2bandit_b2.png","70","","68","test","0","","22","","","","circle","square","22","22","1","0.8636363636363636","","","","","","","",""
"null","212271","SARL_v6","SARL_v66td2pvuv","63ed0065eb23ac3ee1726453","infreq_resp","","","img/orange_2bandit_b.png","70","img/orange_2bandit_b.png","68","test","","","","","","","","","","","1","","","","","","","","",""
"null","212425","SARL_v6","SARL_v66td2pvuv","63ed0065eb23ac3ee1726453","fixation","","","img/fixation.png","null","","","test","","","","","","","","","","","","","","","","","","","",""
"638.7999999988824","213066","SARL_v6","SARL_v66td2pvuv","63ed0065eb23ac3ee1726453","freq","","","img/blue_2bandit_b2.png","70","","70","test","1","","23","","","","circle","square","23","23","1","0.8695652173913043","","","","","","","",""
"null","213230","SARL_v6","SARL_v66td2pvuv","63ed0065eb23ac3ee1726453","freq_resp","","","img/blue_2bandit_b.png","70","img/blue_2bandit_b.png","70","test","","","","","","","","","","","1","","","","","","","","",""
"null","213384","SARL_v6","SARL_v66td2pvuv","63ed0065eb23ac3ee1726453","fixation","","","img/fixation.png","null","","","test","","","","","","","","","","","","","","","","","","","",""
"649.0999999996275","214036","SARL_v6","SARL_v66td2pvuv","63ed0065eb23ac3ee1726453","freq","","","img/blue_2bandit_b2.png","70","","70","test","1","","24","","","","circle","square","24","24","1","0.875","","","","","","","",""
"null","214189","SARL_v6","SARL_v66td2pvuv","63ed0065eb23ac3ee1726453","freq_resp","","","img/blue_2bandit_b.png","70","img/blue_2bandit_b.png","70","test","","","","","","","","","","","1","","","","","","","","",""
"null","214343","SARL_v6","SARL_v66td2pvuv","63ed0065eb23ac3ee1726453","fixation","","","img/fixation.png","null","","","test","","","","","","","","","","","","","","","","","","","",""
"430.40000000037253","214775","SARL_v6","SARL_v66td2pvuv","63ed0065eb23ac3ee1726453","freq","","","img/blue_2bandit_b2.png","70","","70","test","1","","25","","","","circle","square","25","25","1","0.88","","","","","","","",""
"null","215147","SARL_v6","SARL_v66td2pvuv","63ed0065eb23ac3ee1726453","freq_resp","","","img/blue_2bandit_b.png","70","img/blue_2bandit_b.png","70","test","","","","","","","","","","","1","","","","","","","","",""
"null","215301","SARL_v6","SARL_v66td2pvuv","63ed0065eb23ac3ee1726453","fixation","","","img/fixation.png","null","","","test","","","","","","","","","","","","","","","","","","","",""
"341.80000000074506","215645","SARL_v6","SARL_v66td2pvuv","63ed0065eb23ac3ee1726453","freq","","","img/blue_2bandit_b2.png","70","","70","test","1","","26","","","","circle","square","26","26","1","0.8846153846153846","","","","","","","",""
"null","216106","SARL_v6","SARL_v66td2pvuv","63ed0065eb23ac3ee1726453","freq_resp","","","img/blue_2bandit_b.png","70","img/blue_2bandit_b.png","70","test","","","","","","","","","","","1","","","","","","","","",""
"null","216258","SARL_v6","SARL_v66td2pvuv","63ed0065eb23ac3ee1726453","fixation","","","img/fixation.png","null","","","test","","","","","","","","","","","","","","","","","","","",""
"573.3000000007451","216834","SARL_v6","SARL_v66td2pvuv","63ed0065eb23ac3ee1726453","rl","","","img/black_2bandit_b2.png","75","","0","test","","","27","","","-3","circle","square","","0","1","","75","-3","-3","-3","-3","square","1","0"
"null","217588","SARL_v6","SARL_v66td2pvuv","63ed0065eb23ac3ee1726453","feedback","","","<div class=""verylowPoints_sq""> -3 </div>","null","","na","test","","","NaN","","","","","","","","1","","75","","","","","","1",""
"null","218391","SARL_v6","SARL_v66td2pvuv","63ed0065eb23ac3ee1726453","freq","","","img/blue_2bandit_b2.png","null","","70","test","0","","28","","","","circle","square","27","1","2","0.8518518518518519","","","","","","","",""
"null","218548","SARL_v6","SARL_v66td2pvuv","63ed0065eb23ac3ee1726453","fixation","","","img/fixation.png","null","","","test","","","","","","","","","","","","","","","","","","","",""
"42.600000001490116","218593","SARL_v6","SARL_v66td2pvuv","63ed0065eb23ac3ee1726453","freq","","","img/blue_2bandit_b2.png","70","","70","test","1","","29","","","","circle","square","28","2","2","0.8571428571428571","","","","","","","",""
"null","219354","SARL_v6","SARL_v66td2pvuv","63ed0065eb23ac3ee1726453","freq_resp","","","img/blue_2bandit_b.png","70","img/blue_2bandit_b.png","70","test","","","","","","","","","","","2","","","","","","","","",""
"null","219508","SARL_v6","SARL_v66td2pvuv","63ed0065eb23ac3ee1726453","fixation","","","img/fixation.png","null","","","test","","","","","","","","","","","","","","","","","","","",""
"712.3000000007451","220222","SARL_v6","SARL_v66td2pvuv","63ed0065eb23ac3ee1726453","freq","","","img/blue_2bandit_b2.png","70","","70","test","1","","30","","","","circle","square","29","3","2","0.8620689655172413","","","","","","","",""
"null","220313","SARL_v6","SARL_v66td2pvuv","63ed0065eb23ac3ee1726453","freq_resp","","","img/blue_2bandit_b.png","70","img/blue_2bandit_b.png","70","test","","","","","","","","","","","2","","","","","","","","",""
"null","220465","SARL_v6","SARL_v66td2pvuv","63ed0065eb23ac3ee1726453","fixation","","","img/fixation.png","null","","","test","","","","","","","","","","","","","","","","","","","",""
"633.6999999992549","221101","SARL_v6","SARL_v66td2pvuv","63ed0065eb23ac3ee1726453","freq","","","img/blue_2bandit_b2.png","70","","70","test","1","","31","","","","circle","square","30","4","2","0.8666666666666667","","","","","","","",""
"null","221270","SARL_v6","SARL_v66td2pvuv","63ed0065eb23ac3ee1726453","freq_resp","","","img/blue_2bandit_b.png","70","img/blue_2bandit_b.png","70","test","","","","","","","","","","","2","","","","","","","","",""
"null","221424","SARL_v6","SARL_v66td2pvuv","63ed0065eb23ac3ee1726453","fixation","","","img/fixation.png","null","","","test","","","","","","","","","","","","","","","","","","","",""
"464.19999999925494","221891","SARL_v6","SARL_v66td2pvuv","63ed0065eb23ac3ee1726453","freq","","","img/blue_2bandit_b2.png","70","","70","test","1","","32","","","","circle","square","31","5","2","0.8709677419354839","","","","","","","",""
"null","222229","SARL_v6","SARL_v66td2pvuv","63ed0065eb23ac3ee1726453","freq_resp","","","img/blue_2bandit_b.png","70","img/blue_2bandit_b.png","70","test","","","","","","","","","","","2","","","","","","","","",""
"null","222382","SARL_v6","SARL_v66td2pvuv","63ed0065eb23ac3ee1726453","fixation","","","img/fixation.png","null","","","test","","","","","","","","","","","","","","","","","","","",""
"415.7999999988824","222800","SARL_v6","SARL_v66td2pvuv","63ed0065eb23ac3ee1726453","freq","","","img/blue_2bandit_b2.png","70","","70","test","1","","33","","","","circle","square","32","6","2","0.875","","","","","","","",""
"null","223188","SARL_v6","SARL_v66td2pvuv","63ed0065eb23ac3ee1726453","freq_resp","","","img/blue_2bandit_b.png","70","img/blue_2bandit_b.png","70","test","","","","","","","","","","","2","","","","","","","","",""
"null","223366","SARL_v6","SARL_v66td2pvuv","63ed0065eb23ac3ee1726453","fixation","","","img/fixation.png","null","","","test","","","","","","","","","","","","","","","","","","","",""
"511","223880","SARL_v6","SARL_v66td2pvuv","63ed0065eb23ac3ee1726453","freq","","","img/blue_2bandit_b2.png","70","","70","test","1","","34","","","","circle","square","33","7","2","0.8787878787878788","","","","","","","",""
"null","224172","SARL_v6","SARL_v66td2pvuv","63ed0065eb23ac3ee1726453","freq_resp","","","img/blue_2bandit_b.png","70","img/blue_2bandit_b.png","70","test","","","","","","","","","","","2","","","","","","","","",""
"null","224326","SARL_v6","SARL_v66td2pvuv","63ed0065eb23ac3ee1726453","fixation","","","img/fixation.png","null","","","test","","","","","","","","","","","","","","","","","","","",""
"530.8999999985099","224859","SARL_v6","SARL_v66td2pvuv","63ed0065eb23ac3ee1726453","infreq","","","img/orange_2bandit_b2.png","68","","68","test","1","","35","","","","circle","square","34","8","2","0.8823529411764706","","","","","","","",""
"null","225131","SARL_v6","SARL_v66td2pvuv","63ed0065eb23ac3ee1726453","infreq_resp","","","img/orange_2bandit_b.png","68","img/orange_2bandit_b.png","68","test","","","","","","","","","","","2","","","","","","","","",""
"null","225285","SARL_v6","SARL_v66td2pvuv","63ed0065eb23ac3ee1726453","fixation","","","img/fixation.png","null","","","test","","","","","","","","","","","","","","","","","","","",""
"541.5","225828","SARL_v6","SARL_v66td2pvuv","63ed0065eb23ac3ee1726453","freq","","","img/blue_2bandit_b2.png","70","","70","test","1","","36","","","","circle","square","35","9","2","0.8857142857142857","","","","","","","",""
"null","226089","SARL_v6","SARL_v66td2pvuv","63ed0065eb23ac3ee1726453","freq_resp","","","img/blue_2bandit_b.png","70","img/blue_2bandit_b.png","70","test","","","","","","","","","","","2","","","","","","","","",""
"null","226242","SARL_v6","SARL_v66td2pvuv","63ed0065eb23ac3ee1726453","fixation","","","img/fixation.png","null","","","test","","","","","","","","","","","","","","","","","","","",""
"313.19999999925494","226558","SARL_v6","SARL_v66td2pvuv","63ed0065eb23ac3ee1726453","freq","","","img/blue_2bandit_b2.png","70","","70","test","1","","37","","","","circle","square","36","10","2","0.8888888888888888","","","","","","","",""
"null","227047","SARL_v6","SARL_v66td2pvuv","63ed0065eb23ac3ee1726453","freq_resp","","","img/blue_2bandit_b.png","70","img/blue_2bandit_b.png","70","test","","","","","","","","","","","2","","","","","","","","",""
"null","227200","SARL_v6","SARL_v66td2pvuv","63ed0065eb23ac3ee1726453","fixation","","","img/fixation.png","null","","","test","","","","","","","","","","","","","","","","","","","",""
"334.40000000037253","227537","SARL_v6","SARL_v66td2pvuv","63ed0065eb23ac3ee1726453","freq","","","img/blue_2bandit_b2.png","70","","70","test","1","","38","","","","circle","square","37","11","2","0.8918918918918919","","","","","","","",""
"null","228005","SARL_v6","SARL_v66td2pvuv","63ed0065eb23ac3ee1726453","freq_resp","","","img/blue_2bandit_b.png","70","img/blue_2bandit_b.png","70","test","","","","","","","","","","","2","","","","","","","","",""
"null","228159","SARL_v6","SARL_v66td2pvuv","63ed0065eb23ac3ee1726453","fixation","","","img/fixation.png","null","","","test","","","","","","","","","","","","","","","","","","","",""
"325.2000000011176","228486","SARL_v6","SARL_v66td2pvuv","63ed0065eb23ac3ee1726453","freq","","","img/blue_2bandit_b2.png","70","","70","test","1","","39","","","","circle","square","38","12","2","0.8947368421052632","","","","","","","",""
"null","228967","SARL_v6","SARL_v66td2pvuv","63ed0065eb23ac3ee1726453","freq_resp","","","img/blue_2bandit_b.png","70","img/blue_2bandit_b.png","70","test","","","","","","","","","","","2","","","","","","","","",""
"null","229120","SARL_v6","SARL_v66td2pvuv","63ed0065eb23ac3ee1726453","fixation","","","img/fixation.png","null","","","test","","","","","","","","","","","","","","","","","","","",""
"323.7000000011176","229446","SARL_v6","SARL_v66td2pvuv","63ed0065eb23ac3ee1726453","freq","","","img/blue_2bandit_b2.png","70","","70","test","1","","40","","","","circle","square","39","13","2","0.8974358974358975","","","","","","","",""
"null","229925","SARL_v6","SARL_v66td2pvuv","63ed0065eb23ac3ee1726453","freq_resp","","","img/blue_2bandit_b.png","70","img/blue_2bandit_b.png","70","test","","","","","","","","","","","2","","","","","","","","",""
"null","230077","SARL_v6","SARL_v66td2pvuv","63ed0065eb23ac3ee1726453","fixation","","","img/fixation.png","null","","","test","","","","","","","","","","","","","","","","","","","",""
"296","230376","SARL_v6","SARL_v66td2pvuv","63ed0065eb23ac3ee1726453","freq","","","img/blue_2bandit_b2.png","70","","70","test","1","","41","","","","circle","square","40","14","2","0.9","","","","","","","",""
"null","230885","SARL_v6","SARL_v66td2pvuv","63ed0065eb23ac3ee1726453","freq_resp","","","img/blue_2bandit_b.png","70","img/blue_2bandit_b.png","70","test","","","","","","","","","","","2","","","","","","","","",""
"null","231038","SARL_v6","SARL_v66td2pvuv","63ed0065eb23ac3ee1726453","fixation","","","img/fixation.png","null","","","test","","","","","","","","","","","","","","","","","","","",""
"464.6000000014901","231505","SARL_v6","SARL_v66td2pvuv","63ed0065eb23ac3ee1726453","infreq","","","img/orange_2bandit_b2.png","68","","68","test","1","","42","","","","circle","square","41","15","2","0.9024390243902439","","","","","","","",""
"null","231844","SARL_v6","SARL_v66td2pvuv","63ed0065eb23ac3ee1726453","infreq_resp","","","img/orange_2bandit_b.png","68","img/orange_2bandit_b.png","68","test","","","","","","","","","","","2","","","","","","","","",""
"null","231997","SARL_v6","SARL_v66td2pvuv","63ed0065eb23ac3ee1726453","fixation","","","img/fixation.png","null","","","test","","","","","","","","","","","","","","","","","","","",""
"485.09999999962747","232484","SARL_v6","SARL_v66td2pvuv","63ed0065eb23ac3ee1726453","freq","","","img/blue_2bandit_b2.png","70","","70","test","1","","43","","","","circle","square","42","16","2","0.9047619047619048","","","","","","","",""
"null","232802","SARL_v6","SARL_v66td2pvuv","63ed0065eb23ac3ee1726453","freq_resp","","","img/blue_2bandit_b.png","70","img/blue_2bandit_b.png","70","test","","","","","","","","","","","2","","","","","","","","",""
"null","232956","SARL_v6","SARL_v66td2pvuv","63ed0065eb23ac3ee1726453","fixation","","","img/fixation.png","null","","","test","","","","","","","","","","","","","","","","","","","",""
"315","233274","SARL_v6","SARL_v66td2pvuv","63ed0065eb23ac3ee1726453","freq","","","img/blue_2bandit_b2.png","70","","70","test","1","","44","","","","circle","square","43","17","2","0.9069767441860465","","","","","","","",""
"null","233763","SARL_v6","SARL_v66td2pvuv","63ed0065eb23ac3ee1726453","freq_resp","","","img/blue_2bandit_b.png","70","img/blue_2bandit_b.png","70","test","","","","","","","","","","","2","","","","","","","","",""
"null","233916","SARL_v6","SARL_v66td2pvuv","63ed0065eb23ac3ee1726453","fixation","","","img/fixation.png","null","","","test","","","","","","","","","","","","","","","","","","","",""
"175.19999999925494","234093","SARL_v6","SARL_v66td2pvuv","63ed0065eb23ac3ee1726453","freq","","","img/blue_2bandit_b2.png","70","","70","test","1","","45","","","","circle","square","44","18","2","0.9090909090909091","","","","","","","",""
"null","234721","SARL_v6","SARL_v66td2pvuv","63ed0065eb23ac3ee1726453","freq_resp","","","img/blue_2bandit_b.png","70","img/blue_2bandit_b.png","70","test","","","","","","","","","","","2","","","","","","","","",""
"null","234875","SARL_v6","SARL_v66td2pvuv","63ed0065eb23ac3ee1726453","fixation","","","img/fixation.png","null","","","test","","","","","","","","","","","","","","","","","","","",""
"195.10000000149012","235073","SARL_v6","SARL_v66td2pvuv","63ed0065eb23ac3ee1726453","freq","","","img/blue_2bandit_b2.png","70","","70","test","1","","46","","","","circle","square","45","19","2","0.9111111111111111","","","","","","","",""
"null","235681","SARL_v6","SARL_v66td2pvuv","63ed0065eb23ac3ee1726453","freq_resp","","","img/blue_2bandit_b.png","70","img/blue_2bandit_b.png","70","test","","","","","","","","","","","2","","","","","","","","",""
"null","235835","SARL_v6","SARL_v66td2pvuv","63ed0065eb23ac3ee1726453","fixation","","","img/fixation.png","null","","","test","","","","","","","","","","","","","","","","","","","",""
"294.80000000074506","236132","SARL_v6","SARL_v66td2pvuv","63ed0065eb23ac3ee1726453","freq","","","img/blue_2bandit_b2.png","70","","70","test","1","","47","","","","circle","square","46","20","2","0.9130434782608695","","","","","","","",""
"null","236641","SARL_v6","SARL_v66td2pvuv","63ed0065eb23ac3ee1726453","freq_resp","","","img/blue_2bandit_b.png","70","img/blue_2bandit_b.png","70","test","","","","","","","","","","","2","","","","","","","","",""
"null","236795","SARL_v6","SARL_v66td2pvuv","63ed0065eb23ac3ee1726453","fixation","","","img/fixation.png","null","","","test","","","","","","","","","","","","","","","","","","","",""
"313.7999999988824","237111","SARL_v6","SARL_v66td2pvuv","63ed0065eb23ac3ee1726453","freq","","","img/blue_2bandit_b2.png","70","","70","test","1","","48","","","","circle","square","47","21","2","0.9148936170212766","","","","","","","",""
"null","237601","SARL_v6","SARL_v66td2pvuv","63ed0065eb23ac3ee1726453","freq_resp","","","img/blue_2bandit_b.png","70","img/blue_2bandit_b.png","70","test","","","","","","","","","","","2","","","","","","","","",""
"null","237755","SARL_v6","SARL_v66td2pvuv","63ed0065eb23ac3ee1726453","fixation","","","img/fixation.png","null","","","test","","","","","","","","","","","","","","","","","","","",""
"402.40000000037253","238160","SARL_v6","SARL_v66td2pvuv","63ed0065eb23ac3ee1726453","freq","","","img/blue_2bandit_b2.png","70","","70","test","1","","49","","","","circle","square","48","22","2","0.9166666666666666","","","","","","","",""
"null","238560","SARL_v6","SARL_v66td2pvuv","63ed0065eb23ac3ee1726453","freq_resp","","","img/blue_2bandit_b.png","70","img/blue_2bandit_b.png","70","test","","","","","","","","","","","2","","","","","","","","",""
"null","238714","SARL_v6","SARL_v66td2pvuv","63ed0065eb23ac3ee1726453","fixation","","","img/fixation.png","null","","","test","","","","","","","","","","","","","","","","","","","",""
"343","239060","SARL_v6","SARL_v66td2pvuv","63ed0065eb23ac3ee1726453","freq","","","img/blue_2bandit_b2.png","70","","70","test","1","","50","","","","circle","square","49","23","2","0.9183673469387755","","","","","","","",""
"null","239527","SARL_v6","SARL_v66td2pvuv","63ed0065eb23ac3ee1726453","freq_resp","","","img/blue_2bandit_b.png","70","img/blue_2bandit_b.png","70","test","","","","","","","","","","","2","","","","","","","","",""
"null","239680","SARL_v6","SARL_v66td2pvuv","63ed0065eb23ac3ee1726453","fixation","","","img/fixation.png","null","","","test","","","","","","","","","","","","","","","","","","","",""
"337","240019","SARL_v6","SARL_v66td2pvuv","63ed0065eb23ac3ee1726453","freq","","","img/blue_2bandit_b2.png","70","","70","test","1","","51","","","","circle","square","50","24","2","0.92","","","","","","","",""
"null","240485","SARL_v6","SARL_v66td2pvuv","63ed0065eb23ac3ee1726453","freq_resp","","","img/blue_2bandit_b.png","70","img/blue_2bandit_b.png","70","test","","","","","","","","","","","2","","","","","","","","",""
"null","240639","SARL_v6","SARL_v66td2pvuv","63ed0065eb23ac3ee1726453","fixation","","","img/fixation.png","null","","","test","","","","","","","","","","","","","","","","","","","",""
"627.0999999996275","241268","SARL_v6","SARL_v66td2pvuv","63ed0065eb23ac3ee1726453","rl","","","img/black_2bandit_b2.png","75","","0","test","","","52","","","-5","circle","square","","0","2","","75","-8","-5","-8","-5","square","2","0"
"null","242021","SARL_v6","SARL_v66td2pvuv","63ed0065eb23ac3ee1726453","feedback","","","<div class=""verylowPoints_sq""> -5 </div>","null","","na","test","","","NaN","","","","","","","","2","","75","","","","","","2",""
"null","242836","SARL_v6","SARL_v66td2pvuv","63ed0065eb23ac3ee1726453","freq","","","img/blue_2bandit_b2.png","null","","70","test","0","","53","","","","circle","square","51","1","3","0.9019607843137255","","","","","","","",""
"null","242990","SARL_v6","SARL_v66td2pvuv","63ed0065eb23ac3ee1726453","fixation","","","img/fixation.png","null","","","test","","","","","","","","","","","","","","","","","","","",""
"763.6999999992549","243757","SARL_v6","SARL_v66td2pvuv","63ed0065eb23ac3ee1726453","freq","","","img/blue_2bandit_b2.png","70","","70","test","1","","54","","","","circle","square","52","2","3","0.9038461538461539","","","","","","","",""
"null","243796","SARL_v6","SARL_v66td2pvuv","63ed0065eb23ac3ee1726453","freq_resp","","","img/blue_2bandit_b.png","70","img/blue_2bandit_b.png","70","test","","","","","","","","","","","3","","","","","","","","",""
"null","243951","SARL_v6","SARL_v66td2pvuv","63ed0065eb23ac3ee1726453","fixation","","","img/fixation.png","null","","","test","","","","","","","","","","","","","","","","","","","",""
"452.80000000074506","244406","SARL_v6","SARL_v66td2pvuv","63ed0065eb23ac3ee1726453","freq","","","img/blue_2bandit_b2.png","70","","70","test","1","","55","","","","circle","square","53","3","3","0.9056603773584906","","","","","","","",""
"null","244756","SARL_v6","SARL_v66td2pvuv","63ed0065eb23ac3ee1726453","freq_resp","","","img/blue_2bandit_b.png","70","img/blue_2bandit_b.png","70","test","","","","","","","","","","","3","","","","","","","","",""
"null","244910","SARL_v6","SARL_v66td2pvuv","63ed0065eb23ac3ee1726453","fixation","","","img/fixation.png","null","","","test","","","","","","","","","","","","","","","","","","","",""
"352.40000000037253","245265","SARL_v6","SARL_v66td2pvuv","63ed0065eb23ac3ee1726453","freq","","","img/blue_2bandit_b2.png","70","","70","test","1","","56","","","","circle","square","54","4","3","0.9074074074074074","","","","","","","",""
"null","245715","SARL_v6","SARL_v66td2pvuv","63ed0065eb23ac3ee1726453","freq_resp","","","img/blue_2bandit_b.png","70","img/blue_2bandit_b.png","70","test","","","","","","","","","","","3","","","","","","","","",""
"null","245869","SARL_v6","SARL_v66td2pvuv","63ed0065eb23ac3ee1726453","fixation","","","img/fixation.png","null","","","test","","","","","","","","","","","","","","","","","","","",""
"312.90000000037253","246184","SARL_v6","SARL_v66td2pvuv","63ed0065eb23ac3ee1726453","freq","","","img/blue_2bandit_b2.png","70","","70","test","1","","57","","","","circle","square","55","5","3","0.9090909090909091","","","","","","","",""
"null","246675","SARL_v6","SARL_v66td2pvuv","63ed0065eb23ac3ee1726453","freq_resp","","","img/blue_2bandit_b.png","70","img/blue_2bandit_b.png","70","test","","","","","","","","","","","3","","","","","","","","",""
"null","246831","SARL_v6","SARL_v66td2pvuv","63ed0065eb23ac3ee1726453","fixation","","","img/fixation.png","null","","","test","","","","","","","","","","","","","","","","","","","",""
"270.69999999925494","247104","SARL_v6","SARL_v66td2pvuv","63ed0065eb23ac3ee1726453","freq","","","img/blue_2bandit_b2.png","70","","70","test","1","","58","","","","circle","square","56","6","3","0.9107142857142857","","","","","","","",""
"null","247636","SARL_v6","SARL_v66td2pvuv","63ed0065eb23ac3ee1726453","freq_resp","","","img/blue_2bandit_b.png","70","img/blue_2bandit_b.png","70","test","","","","","","","","","","","3","","","","","","","","",""
"null","247790","SARL_v6","SARL_v66td2pvuv","63ed0065eb23ac3ee1726453","fixation","","","img/fixation.png","null","","","test","","","","","","","","","","","","","","","","","","","",""
"150.5","247943","SARL_v6","SARL_v66td2pvuv","63ed0065eb23ac3ee1726453","freq","","","img/blue_2bandit_b2.png","70","","70","test","1","","59","","","","circle","square","57","7","3","0.9122807017543859","","","","","","","",""
"null","248596","SARL_v6","SARL_v66td2pvuv","63ed0065eb23ac3ee1726453","freq_resp","","","img/blue_2bandit_b.png","70","img/blue_2bandit_b.png","70","test","","","","","","","","","","","3","","","","","","","","",""
"null","248750","SARL_v6","SARL_v66td2pvuv","63ed0065eb23ac3ee1726453","fixation","","","img/fixation.png","null","","","test","","","","","","","","","","","","","","","","","","","",""
"150","248903","SARL_v6","SARL_v66td2pvuv","63ed0065eb23ac3ee1726453","infreq","","","img/orange_2bandit_b2.png","70","","68","test","0","","60","","","","circle","square","58","8","3","0.896551724137931","","","","","","","",""
"null","249556","SARL_v6","SARL_v66td2pvuv","63ed0065eb23ac3ee1726453","infreq_resp","","","img/orange_2bandit_b.png","70","img/orange_2bandit_b.png","68","test","","","","","","","","","","","3","","","","","","","","",""
"null","249709","SARL_v6","SARL_v66td2pvuv","63ed0065eb23ac3ee1726453","fixation","","","img/fixation.png","null","","","test","","","","","","","","","","","","","","","","","","","",""
"440.2000000011176","250152","SARL_v6","SARL_v66td2pvuv","63ed0065eb23ac3ee1726453","infreq","","","img/orange_2bandit_b2.png","68","","68","test","1","","61","","","","circle","square","59","9","3","0.8983050847457628","","","","","","","",""
"null","250514","SARL_v6","SARL_v66td2pvuv","63ed0065eb23ac3ee1726453","infreq_resp","","","img/orange_2bandit_b.png","68","img/orange_2bandit_b.png","68","test","","","","","","","","","","","3","","","","","","","","",""
"null","250668","SARL_v6","SARL_v66td2pvuv","63ed0065eb23ac3ee1726453","fixation","","","img/fixation.png","null","","","test","","","","","","","","","","","","","","","","","","","",""
"450.7999999988824","251121","SARL_v6","SARL_v66td2pvuv","63ed0065eb23ac3ee1726453","freq","","","img/blue_2bandit_b2.png","70","","70","test","1","","62","","","","circle","square","60","10","3","0.9","","","","","","","",""
"null","251476","SARL_v6","SARL_v66td2pvuv","63ed0065eb23ac3ee1726453","freq_resp","","","img/blue_2bandit_b.png","70","img/blue_2bandit_b.png","70","test","","","","","","","","","","","3","","","","","","","","",""
"null","251630","SARL_v6","SARL_v66td2pvuv","63ed0065eb23ac3ee1726453","fixation","","","img/fixation.png","null","","","test","","","","","","","","","","","","","","","","","","","",""
"319.5","251951","SARL_v6","SARL_v66td2pvuv","63ed0065eb23ac3ee1726453","freq","","","img/blue_2bandit_b2.png","70","","70","test","1","","63","","","","circle","square","61","11","3","0.9016393442622951","","","","","","","",""
"null","252435","SARL_v6","SARL_v66td2pvuv","63ed0065eb23ac3ee1726453","freq_resp","","","img/blue_2bandit_b.png","70","img/blue_2bandit_b.png","70","test","","","","","","","","","","","3","","","","","","","","",""
"null","252589","SARL_v6","SARL_v66td2pvuv","63ed0065eb23ac3ee1726453","fixation","","","img/fixation.png","null","","","test","","","","","","","","","","","","","","","","","","","",""
"259.1000000014901","252851","SARL_v6","SARL_v66td2pvuv","63ed0065eb23ac3ee1726453","freq","","","img/blue_2bandit_b2.png","70","","70","test","1","","64","","","","circle","square","62","12","3","0.9032258064516129","","","","","","","",""
"null","253394","SARL_v6","SARL_v66td2pvuv","63ed0065eb23ac3ee1726453","freq_resp","","","img/blue_2bandit_b.png","70","img/blue_2bandit_b.png","70","test","","","","","","","","","","","3","","","","","","","","",""
"null","253548","SARL_v6","SARL_v66td2pvuv","63ed0065eb23ac3ee1726453","fixation","","","img/fixation.png","null","","","test","","","","","","","","","","","","","","","","","","","",""
"339.90000000037253","253890","SARL_v6","SARL_v66td2pvuv","63ed0065eb23ac3ee1726453","freq","","","img/blue_2bandit_b2.png","70","","70","test","1","","65","","","","circle","square","63","13","3","0.9047619047619048","","","","","","","",""
"null","254353","SARL_v6","SARL_v66td2pvuv","63ed0065eb23ac3ee1726453","freq_resp","","","img/blue_2bandit_b.png","70","img/blue_2bandit_b.png","70","test","","","","","","","","","","","3","","","","","","","","",""
"null","254506","SARL_v6","SARL_v66td2pvuv","63ed0065eb23ac3ee1726453","fixation","","","img/fixation.png","null","","","test","","","","","","","","","","","","","","","","","","","",""
"371.40000000037253","254879","SARL_v6","SARL_v66td2pvuv","63ed0065eb23ac3ee1726453","freq","","","img/blue_2bandit_b2.png","70","","70","test","1","","66","","","","circle","square","64","14","3","0.90625","","","","","","","",""
"null","255311","SARL_v6","SARL_v66td2pvuv","63ed0065eb23ac3ee1726453","freq_resp","","","img/blue_2bandit_b.png","70","img/blue_2bandit_b.png","70","test","","","","","","","","","","","3","","","","","","","","",""
"null","255465","SARL_v6","SARL_v66td2pvuv","63ed0065eb23ac3ee1726453","fixation","","","img/fixation.png","null","","","test","","","","","","","","","","","","","","","","","","","",""
"382","255849","SARL_v6","SARL_v66td2pvuv","63ed0065eb23ac3ee1726453","freq","","","img/blue_2bandit_b2.png","70","","70","test","1","","67","","","","circle","square","65","15","3","0.9076923076923077","","","","","","","",""
"null","256273","SARL_v6","SARL_v66td2pvuv","63ed0065eb23ac3ee1726453","freq_resp","","","img/blue_2bandit_b.png","70","img/blue_2bandit_b.png","70","test","","","","","","","","","","","3","","","","","","","","",""
"null","256427","SARL_v6","SARL_v66td2pvuv","63ed0065eb23ac3ee1726453","fixation","","","img/fixation.png","null","","","test","","","","","","","","","","","","","","","","","","","",""
"448.40000000037253","256878","SARL_v6","SARL_v66td2pvuv","63ed0065eb23ac3ee1726453","freq","","","img/blue_2bandit_b2.png","70","","70","test","1","","68","","","","circle","square","66","16","3","0.9090909090909091","","","","","","","",""
"null","257233","SARL_v6","SARL_v66td2pvuv","63ed0065eb23ac3ee1726453","freq_resp","","","img/blue_2bandit_b.png","70","img/blue_2bandit_b.png","70","test","","","","","","","","","","","3","","","","","","","","",""
"null","257386","SARL_v6","SARL_v66td2pvuv","63ed0065eb23ac3ee1726453","fixation","","","img/fixation.png","null","","","test","","","","","","","","","","","","","","","","","","","",""
"548.7999999988824","257937","SARL_v6","SARL_v66td2pvuv","63ed0065eb23ac3ee1726453","freq","","","img/blue_2bandit_b2.png","70","","70","test","1","","69","","","","circle","square","67","17","3","0.9104477611940298","","","","","","","",""
"null","258195","SARL_v6","SARL_v66td2pvuv","63ed0065eb23ac3ee1726453","freq_resp","","","img/blue_2bandit_b.png","70","img/blue_2bandit_b.png","70","test","","","","","","","","","","","3","","","","","","","","",""
"null","258349","SARL_v6","SARL_v66td2pvuv","63ed0065eb23ac3ee1726453","fixation","","","img/fixation.png","null","","","test","","","","","","","","","","","","","","","","","","","",""
"null","259153","SARL_v6","SARL_v66td2pvuv","63ed0065eb23ac3ee1726453","freq","","","img/blue_2bandit_b2.png","null","","70","test","0","","70","","","","circle","square","68","18","3","0.8970588235294118","","","","","","","",""
"null","259314","SARL_v6","SARL_v66td2pvuv","63ed0065eb23ac3ee1726453","fixation","","","img/fixation.png","null","","","test","","","","","","","","","","","","","","","","","","","",""
"800","260116","SARL_v6","SARL_v66td2pvuv","63ed0065eb23ac3ee1726453","freq","","","img/blue_2bandit_b2.png","70","","70","test","1","","71","","","","circle","square","69","19","3","0.8985507246376812","","","","","","","",""
"null","260269","SARL_v6","SARL_v66td2pvuv","63ed0065eb23ac3ee1726453","fixation","","","img/fixation.png","null","","","test","","","","","","","","","","","","","","","","","","","",""
"464","260736","SARL_v6","SARL_v66td2pvuv","63ed0065eb23ac3ee1726453","freq","","","img/blue_2bandit_b2.png","70","","70","test","1","","72","","","","circle","square","70","20","3","0.9","","","","","","","",""
"null","261074","SARL_v6","SARL_v66td2pvuv","63ed0065eb23ac3ee1726453","freq_resp","","","img/blue_2bandit_b.png","70","img/blue_2bandit_b.png","70","test","","","","","","","","","","","3","","","","","","","","",""
"null","261227","SARL_v6","SARL_v66td2pvuv","63ed0065eb23ac3ee1726453","fixation","","","img/fixation.png","null","","","test","","","","","","","","","","","","","","","","","","","",""
"355.40000000037253","261585","SARL_v6","SARL_v66td2pvuv","63ed0065eb23ac3ee1726453","freq","","","img/blue_2bandit_b2.png","70","","70","test","1","","73","","","","circle","square","71","21","3","0.9014084507042254","","","","","","","",""
"null","262033","SARL_v6","SARL_v66td2pvuv","63ed0065eb23ac3ee1726453","freq_resp","","","img/blue_2bandit_b.png","70","img/blue_2bandit_b.png","70","test","","","","","","","","","","","3","","","","","","","","",""
"null","262186","SARL_v6","SARL_v66td2pvuv","63ed0065eb23ac3ee1726453","fixation","","","img/fixation.png","null","","","test","","","","","","","","","","","","","","","","","","","",""
"226.2999999988824","262415","SARL_v6","SARL_v66td2pvuv","63ed0065eb23ac3ee1726453","freq","","","img/blue_2bandit_b2.png","70","","70","test","1","","74","","","","circle","square","72","22","3","0.9027777777777778","","","","","","","",""
"null","262991","SARL_v6","SARL_v66td2pvuv","63ed0065eb23ac3ee1726453","freq_resp","","","img/blue_2bandit_b.png","70","img/blue_2bandit_b.png","70","test","","","","","","","","","","","3","","","","","","","","",""
"null","263144","SARL_v6","SARL_v66td2pvuv","63ed0065eb23ac3ee1726453","fixation","","","img/fixation.png","null","","","test","","","","","","","","","","","","","","","","","","","",""
"658","263804","SARL_v6","SARL_v66td2pvuv","63ed0065eb23ac3ee1726453","rl","","","img/black_2bandit_b2.png","75","","0","test","","","75","","","-4","circle","square","","0","3","","75","-8","-4","-8","-4","square","3","0"
"null","264557","SARL_v6","SARL_v66td2pvuv","63ed0065eb23ac3ee1726453","feedback","","","<div class=""verylowPoints_sq""> -4 </div>","null","","na","test","","","NaN","","","","","","","","3","","75","","","","","","3",""
"773.4000000003725","265333","SARL_v6","SARL_v66td2pvuv","63ed0065eb23ac3ee1726453","freq","","","img/blue_2bandit_b2.png","70","","70","test","1","","76","","","","circle","square","73","1","4","0.9041095890410958","","","","","","","",""
"null","265362","SARL_v6","SARL_v66td2pvuv","63ed0065eb23ac3ee1726453","freq_resp","","","img/blue_2bandit_b.png","70","img/blue_2bandit_b.png","70","test","","","","","","","","","","","4","","","","","","","","",""
"null","265516","SARL_v6","SARL_v66td2pvuv","63ed0065eb23ac3ee1726453","fixation","","","img/fixation.png","null","","","test","","","","","","","","","","","","","","","","","","","",""
"644.0999999996275","266163","SARL_v6","SARL_v66td2pvuv","63ed0065eb23ac3ee1726453","freq","","","img/blue_2bandit_b2.png","70","","70","test","1","","77","","","","circle","square","74","2","4","0.9054054054054054","","","","","","","",""
"null","266321","SARL_v6","SARL_v66td2pvuv","63ed0065eb23ac3ee1726453","freq_resp","","","img/blue_2bandit_b.png","70","img/blue_2bandit_b.png","70","test","","","","","","","","","","","4","","","","","","","","",""
"null","266474","SARL_v6","SARL_v66td2pvuv","63ed0065eb23ac3ee1726453","fixation","","","img/fixation.png","null","","","test","","","","","","","","","","","","","","","","","","","",""
"655.9000000003725","267133","SARL_v6","SARL_v66td2pvuv","63ed0065eb23ac3ee1726453","freq","","","img/blue_2bandit_b2.png","70","","70","test","1","","78","","","","circle","square","75","3","4","0.9066666666666666","","","","","","","",""
"null","267280","SARL_v6","SARL_v66td2pvuv","63ed0065eb23ac3ee1726453","freq_resp","","","img/blue_2bandit_b.png","70","img/blue_2bandit_b.png","70","test","","","","","","","","","","","4","","","","","","","","",""
"null","267434","SARL_v6","SARL_v66td2pvuv","63ed0065eb23ac3ee1726453","fixation","","","img/fixation.png","null","","","test","","","","","","","","","","","","","","","","","","","",""
"566","268002","SARL_v6","SARL_v66td2pvuv","63ed0065eb23ac3ee1726453","freq","","","img/blue_2bandit_b2.png","70","","70","test","1","","79","","","","circle","square","76","4","4","0.9078947368421053","","","","","","","",""
"null","268240","SARL_v6","SARL_v66td2pvuv","63ed0065eb23ac3ee1726453","freq_resp","","","img/blue_2bandit_b.png","70","img/blue_2bandit_b.png","70","test","","","","","","","","","","","4","","","","","","","","",""
"null","268393","SARL_v6","SARL_v66td2pvuv","63ed0065eb23ac3ee1726453","fixation","","","img/fixation.png","null","","","test","","","","","","","","","","","","","","","","","","","",""
"428.30000000074506","268823","SARL_v6","SARL_v66td2pvuv","63ed0065eb23ac3ee1726453","freq","","","img/blue_2bandit_b2.png","70","","70","test","1","","80","","","","circle","square","77","5","4","0.9090909090909091","","","","","","","",""
"null","269198","SARL_v6","SARL_v66td2pvuv","63ed0065eb23ac3ee1726453","freq_resp","","","img/blue_2bandit_b.png","70","img/blue_2bandit_b.png","70","test","","","","","","","","","","","4","","","","","","","","",""
"null","269352","SARL_v6","SARL_v66td2pvuv","63ed0065eb23ac3ee1726453","fixation","","","img/fixation.png","null","","","test","","","","","","","","","","","","","","","","","","","",""
"656.5","270011","SARL_v6","SARL_v66td2pvuv","63ed0065eb23ac3ee1726453","infreq","","","img/orange_2bandit_b2.png","68","","68","test","1","","81","","","","circle","square","78","6","4","0.9102564102564102","","","","","","","",""
"null","270157","SARL_v6","SARL_v66td2pvuv","63ed0065eb23ac3ee1726453","infreq_resp","","","img/orange_2bandit_b.png","68","img/orange_2bandit_b.png","68","test","","","","","","","","","","","4","","","","","","","","",""
"null","270311","SARL_v6","SARL_v66td2pvuv","63ed0065eb23ac3ee1726453","fixation","","","img/fixation.png","null","","","test","","","","","","","","","","","","","","","","","","","",""
"746.4000000003725","271060","SARL_v6","SARL_v66td2pvuv","63ed0065eb23ac3ee1726453","freq","","","img/blue_2bandit_b2.png","70","","70","test","1","","82","","","","circle","square","79","7","4","0.9113924050632911","","","","","","","",""
"null","271117","SARL_v6","SARL_v66td2pvuv","63ed0065eb23ac3ee1726453","freq_resp","","","img/blue_2bandit_b.png","70","img/blue_2bandit_b.png","70","test","","","","","","","","","","","4","","","","","","","","",""
"null","271270","SARL_v6","SARL_v66td2pvuv","63ed0065eb23ac3ee1726453","fixation","","","img/fixation.png","null","","","test","","","","","","","","","","","","","","","","","","","",""
"647.4000000003725","271920","SARL_v6","SARL_v66td2pvuv","63ed0065eb23ac3ee1726453","freq","","","img/blue_2bandit_b2.png","70","","70","test","1","","83","","","","circle","square","80","8","4","0.9125","","","","","","","",""
"null","272075","SARL_v6","SARL_v66td2pvuv","63ed0065eb23ac3ee1726453","freq_resp","","","img/blue_2bandit_b.png","70","img/blue_2bandit_b.png","70","test","","","","","","","","","","","4","","","","","","","","",""
"null","272229","SARL_v6","SARL_v66td2pvuv","63ed0065eb23ac3ee1726453","fixation","","","img/fixation.png","null","","","test","","","","","","","","","","","","","","","","","","","",""
"548","272780","SARL_v6","SARL_v66td2pvuv","63ed0065eb23ac3ee1726453","freq","","","img/blue_2bandit_b2.png","70","","70","test","1","","84","","","","circle","square","81","9","4","0.9135802469135802","","","","","","","",""
"null","273034","SARL_v6","SARL_v66td2pvuv","63ed0065eb23ac3ee1726453","freq_resp","","","img/blue_2bandit_b.png","70","img/blue_2bandit_b.png","70","test","","","","","","","","","","","4","","","","","","","","",""
"null","273187","SARL_v6","SARL_v66td2pvuv","63ed0065eb23ac3ee1726453","fixation","","","img/fixation.png","null","","","test","","","","","","","","","","","","","","","","","","","",""
"549.2000000011176","273738","SARL_v6","SARL_v66td2pvuv","63ed0065eb23ac3ee1726453","freq","","","img/blue_2bandit_b2.png","70","","70","test","1","","85","","","","circle","square","82","10","4","0.9146341463414634","","","","","","","",""
"null","273992","SARL_v6","SARL_v66td2pvuv","63ed0065eb23ac3ee1726453","freq_resp","","","img/blue_2bandit_b.png","70","img/blue_2bandit_b.png","70","test","","","","","","","","","","","4","","","","","","","","",""
"null","274145","SARL_v6","SARL_v66td2pvuv","63ed0065eb23ac3ee1726453","fixation","","","img/fixation.png","null","","","test","","","","","","","","","","","","","","","","","","","",""
"360.30000000074506","274508","SARL_v6","SARL_v66td2pvuv","63ed0065eb23ac3ee1726453","freq","","","img/blue_2bandit_b2.png","70","","70","test","1","","86","","","","circle","square","83","11","4","0.9156626506024096","","","","","","","",""
"null","274950","SARL_v6","SARL_v66td2pvuv","63ed0065eb23ac3ee1726453","freq_resp","","","img/blue_2bandit_b.png","70","img/blue_2bandit_b.png","70","test","","","","","","","","","","","4","","","","","","","","",""
"null","275103","SARL_v6","SARL_v66td2pvuv","63ed0065eb23ac3ee1726453","fixation","","","img/fixation.png","null","","","test","","","","","","","","","","","","","","","","","","","",""
"361.69999999925494","275467","SARL_v6","SARL_v66td2pvuv","63ed0065eb23ac3ee1726453","freq","","","img/blue_2bandit_b2.png","70","","70","test","1","","87","","","","circle","square","84","12","4","0.9166666666666666","","","","","","","",""
"null","275908","SARL_v6","SARL_v66td2pvuv","63ed0065eb23ac3ee1726453","freq_resp","","","img/blue_2bandit_b.png","70","img/blue_2bandit_b.png","70","test","","","","","","","","","","","4","","","","","","","","",""
"null","276062","SARL_v6","SARL_v66td2pvuv","63ed0065eb23ac3ee1726453","fixation","","","img/fixation.png","null","","","test","","","","","","","","","","","","","","","","","","","",""
"482.19999999925494","276547","SARL_v6","SARL_v66td2pvuv","63ed0065eb23ac3ee1726453","infreq","","","img/orange_2bandit_b2.png","68","","68","test","1","","88","","","","circle","square","85","13","4","0.9176470588235294","","","","","","","",""
"null","276867","SARL_v6","SARL_v66td2pvuv","63ed0065eb23ac3ee1726453","infreq_resp","","","img/orange_2bandit_b.png","68","img/orange_2bandit_b.png","68","test","","","","","","","","","","","4","","","","","","","","",""
"null","277020","SARL_v6","SARL_v66td2pvuv","63ed0065eb23ac3ee1726453","fixation","","","img/fixation.png","null","","","test","","","","","","","","","","","","","","","","","","","",""
"485.7000000011176","277508","SARL_v6","SARL_v66td2pvuv","63ed0065eb23ac3ee1726453","freq","","","img/blue_2bandit_b2.png","70","","70","test","1","","89","","","","circle","square","86","14","4","0.9186046511627907","","","","","","","",""
"null","277827","SARL_v6","SARL_v66td2pvuv","63ed0065eb23ac3ee1726453","freq_resp","","","img/blue_2bandit_b.png","70","img/blue_2bandit_b.png","70","test","","","","","","","","","","","4","","","","","","","","",""
"null","277995","SARL_v6","SARL_v66td2pvuv","63ed0065eb23ac3ee1726453","fixation","","","img/fixation.png","null","","","test","","","","","","","","","","","","","","","","","","","",""
"398.7000000011176","278395","SARL_v6","SARL_v66td2pvuv","63ed0065eb23ac3ee1726453","freq","","","img/blue_2bandit_b2.png","70","","70","test","1","","90","","","","circle","square","87","15","4","0.9195402298850575","","","","","","","",""
"null","278800","SARL_v6","SARL_v66td2pvuv","63ed0065eb23ac3ee1726453","freq_resp","","","img/blue_2bandit_b.png","70","img/blue_2bandit_b.png","70","test","","","","","","","","","","","4","","","","","","","","",""
"null","278954","SARL_v6","SARL_v66td2pvuv","63ed0065eb23ac3ee1726453","fixation","","","img/fixation.png","null","","","test","","","","","","","","","","","","","","","","","","","",""
"478.40000000037253","279435","SARL_v6","SARL_v66td2pvuv","63ed0065eb23ac3ee1726453","freq","","","img/blue_2bandit_b2.png","70","","70","test","1","","91","","","","circle","square","88","16","4","0.9204545454545454","","","","","","","",""
"null","279759","SARL_v6","SARL_v66td2pvuv","63ed0065eb23ac3ee1726453","freq_resp","","","img/blue_2bandit_b.png","70","img/blue_2bandit_b.png","70","test","","","","","","","","","","","4","","","","","","","","",""
"null","279913","SARL_v6","SARL_v66td2pvuv","63ed0065eb23ac3ee1726453","fixation","","","img/fixation.png","null","","","test","","","","","","","","","","","","","","","","","","","",""
"339.5","280254","SARL_v6","SARL_v66td2pvuv","63ed0065eb23ac3ee1726453","freq","","","img/blue_2bandit_b2.png","70","","70","test","1","","92","","","","circle","square","89","17","4","0.9213483146067416","","","","","","","",""
"null","280717","SARL_v6","SARL_v66td2pvuv","63ed0065eb23ac3ee1726453","freq_resp","","","img/blue_2bandit_b.png","70","img/blue_2bandit_b.png","70","test","","","","","","","","","","","4","","","","","","","","",""
"null","280871","SARL_v6","SARL_v66td2pvuv","63ed0065eb23ac3ee1726453","fixation","","","img/fixation.png","null","","","test","","","","","","","","","","","","","","","","","","","",""
"309.90000000037253","281184","SARL_v6","SARL_v66td2pvuv","63ed0065eb23ac3ee1726453","freq","","","img/blue_2bandit_b2.png","70","","70","test","1","","93","","","","circle","square","90","18","4","0.9222222222222223","","","","","","","",""
"null","281676","SARL_v6","SARL_v66td2pvuv","63ed0065eb23ac3ee1726453","freq_resp","","","img/blue_2bandit_b.png","70","img/blue_2bandit_b.png","70","test","","","","","","","","","","","4","","","","","","","","",""
"null","281830","SARL_v6","SARL_v66td2pvuv","63ed0065eb23ac3ee1726453","fixation","","","img/fixation.png","null","","","test","","","","","","","","","","","","","","","","","","","",""
"420.5","282253","SARL_v6","SARL_v66td2pvuv","63ed0065eb23ac3ee1726453","freq","","","img/blue_2bandit_b2.png","70","","70","test","1","","94","","","","circle","square","91","19","4","0.9230769230769231","","","","","","","",""
"null","282638","SARL_v6","SARL_v66td2pvuv","63ed0065eb23ac3ee1726453","freq_resp","","","img/blue_2bandit_b.png","70","img/blue_2bandit_b.png","70","test","","","","","","","","","","","4","","","","","","","","",""
"null","282796","SARL_v6","SARL_v66td2pvuv","63ed0065eb23ac3ee1726453","fixation","","","img/fixation.png","null","","","test","","","","","","","","","","","","","","","","","","","",""
"964.2000000011176","283762","SARL_v6","SARL_v66td2pvuv","63ed0065eb23ac3ee1726453","rl","","","img/black_2bandit_b2.png","74","","0","test","","","95","","","-12","circle","square","","0","4","","74","-12","0","-12","0","circle","4","0"
"null","284516","SARL_v6","SARL_v66td2pvuv","63ed0065eb23ac3ee1726453","feedback","","","<div class=""verylowPoints""> -12 </div>","null","","na","test","","","NaN","","","","","","","","4","","74","","","","","","4",""
"null","285320","SARL_v6","SARL_v66td2pvuv","63ed0065eb23ac3ee1726453","freq","","","img/blue_2bandit_b2.png","null","","70","test","0","","96","","","","circle","square","92","1","5","0.9130434782608695","","","","","","","",""
"null","285474","SARL_v6","SARL_v66td2pvuv","63ed0065eb23ac3ee1726453","fixation","","","img/fixation.png","null","","","test","","","","","","","","","","","","","","","","","","","",""
"684.0999999996275","286161","SARL_v6","SARL_v66td2pvuv","63ed0065eb23ac3ee1726453","freq","","","img/blue_2bandit_b2.png","70","","70","test","1","","97","","","","circle","square","93","2","5","0.9139784946236559","","","","","","","",""
"null","286279","SARL_v6","SARL_v66td2pvuv","63ed0065eb23ac3ee1726453","freq_resp","","","img/blue_2bandit_b.png","70","img/blue_2bandit_b.png","70","test","","","","","","","","","","","5","","","","","","","","",""
"null","286433","SARL_v6","SARL_v66td2pvuv","63ed0065eb23ac3ee1726453","fixation","","","img/fixation.png","null","","","test","","","","","","","","","","","","","","","","","","","",""
"568.4000000003725","287005","SARL_v6","SARL_v66td2pvuv","63ed0065eb23ac3ee1726453","freq","","","img/blue_2bandit_b2.png","70","","70","test","1","","98","","","","circle","square","94","3","5","0.9148936170212766","","","","","","","",""
"null","287239","SARL_v6","SARL_v66td2pvuv","63ed0065eb23ac3ee1726453","freq_resp","","","img/blue_2bandit_b.png","70","img/blue_2bandit_b.png","70","test","","","","","","","","","","","5","","","","","","","","",""
"null","287393","SARL_v6","SARL_v66td2pvuv","63ed0065eb23ac3ee1726453","fixation","","","img/fixation.png","null","","","test","","","","","","","","","","","","","","","","","","","",""
"364.30000000074506","287759","SARL_v6","SARL_v66td2pvuv","63ed0065eb23ac3ee1726453","freq","","","img/blue_2bandit_b2.png","70","","70","test","1","","99","","","","circle","square","95","4","5","0.9157894736842105","","","","","","","",""
"null","288197","SARL_v6","SARL_v66td2pvuv","63ed0065eb23ac3ee1726453","freq_resp","","","img/blue_2bandit_b.png","70","img/blue_2bandit_b.png","70","test","","","","","","","","","","","5","","","","","","","","",""
"null","288351","SARL_v6","SARL_v66td2pvuv","63ed0065eb23ac3ee1726453","fixation","","","img/fixation.png","null","","","test","","","","","","","","","","","","","","","","","","","",""
"374.7999999988824","288728","SARL_v6","SARL_v66td2pvuv","63ed0065eb23ac3ee1726453","freq","","","img/blue_2bandit_b2.png","70","","70","test","1","","100","","","","circle","square","96","5","5","0.9166666666666666","","","","","","","",""
"null","289157","SARL_v6","SARL_v66td2pvuv","63ed0065eb23ac3ee1726453","freq_resp","","","img/blue_2bandit_b.png","70","img/blue_2bandit_b.png","70","test","","","","","","","","","","","5","","","","","","","","",""
"null","289311","SARL_v6","SARL_v66td2pvuv","63ed0065eb23ac3ee1726453","fixation","","","img/fixation.png","null","","","test","","","","","","","","","","","","","","","","","","","",""
"337.7999999988824","289651","SARL_v6","SARL_v66td2pvuv","63ed0065eb23ac3ee1726453","freq","","","img/blue_2bandit_b2.png","70","","70","test","1","","101","","","","circle","square","97","6","5","0.9175257731958762","","","","","","","",""
"null","290117","SARL_v6","SARL_v66td2pvuv","63ed0065eb23ac3ee1726453","freq_resp","","","img/blue_2bandit_b.png","70","img/blue_2bandit_b.png","70","test","","","","","","","","","","","5","","","","","","","","",""
"null","290270","SARL_v6","SARL_v66td2pvuv","63ed0065eb23ac3ee1726453","fixation","","","img/fixation.png","null","","","test","","","","","","","","","","","","","","","","","","","",""
"324.7000000011176","290597","SARL_v6","SARL_v66td2pvuv","63ed0065eb23ac3ee1726453","freq","","","img/blue_2bandit_b2.png","70","","70","test","1","","102","","","","circle","square","98","7","5","0.9183673469387755","","","","","","","",""
"null","291076","SARL_v6","SARL_v66td2pvuv","63ed0065eb23ac3ee1726453","freq_resp","","","img/blue_2bandit_b.png","70","img/blue_2bandit_b.png","70","test","","","","","","","","","","","5","","","","","","","","",""
"null","291229","SARL_v6","SARL_v66td2pvuv","63ed0065eb23ac3ee1726453","fixation","","","img/fixation.png","null","","","test","","","","","","","","","","","","","","","","","","","",""
"325.09999999962747","291556","SARL_v6","SARL_v66td2pvuv","63ed0065eb23ac3ee1726453","freq","","","img/blue_2bandit_b2.png","70","","70","test","1","","103","","","","circle","square","99","8","5","0.9191919191919192","","","","","","","",""
"null","292034","SARL_v6","SARL_v66td2pvuv","63ed0065eb23ac3ee1726453","freq_resp","","","img/blue_2bandit_b.png","70","img/blue_2bandit_b.png","70","test","","","","","","","","","","","5","","","","","","","","",""
"null","292187","SARL_v6","SARL_v66td2pvuv","63ed0065eb23ac3ee1726453","fixation","","","img/fixation.png","null","","","test","","","","","","","","","","","","","","","","","","","",""
"326.5","292516","SARL_v6","SARL_v66td2pvuv","63ed0065eb23ac3ee1726453","freq","","","img/blue_2bandit_b2.png","70","","70","test","1","","104","","","","circle","square","100","9","5","0.92","","","","","","","",""
"null","292993","SARL_v6","SARL_v66td2pvuv","63ed0065eb23ac3ee1726453","freq_resp","","","img/blue_2bandit_b.png","70","img/blue_2bandit_b.png","70","test","","","","","","","","","","","5","","","","","","","","",""
"null","293145","SARL_v6","SARL_v66td2pvuv","63ed0065eb23ac3ee1726453","fixation","","","img/fixation.png","null","","","test","","","","","","","","","","","","","","","","","","","",""
"317.19999999925494","293465","SARL_v6","SARL_v66td2pvuv","63ed0065eb23ac3ee1726453","freq","","","img/blue_2bandit_b2.png","70","","70","test","1","","105","","","","circle","square","101","10","5","0.9207920792079208","","","","","","","",""
"null","293950","SARL_v6","SARL_v66td2pvuv","63ed0065eb23ac3ee1726453","freq_resp","","","img/blue_2bandit_b.png","70","img/blue_2bandit_b.png","70","test","","","","","","","","","","","5","","","","","","","","",""
"null","294103","SARL_v6","SARL_v66td2pvuv","63ed0065eb23ac3ee1726453","fixation","","","img/fixation.png","null","","","test","","","","","","","","","","","","","","","","","","","",""
"618.5","294724","SARL_v6","SARL_v66td2pvuv","63ed0065eb23ac3ee1726453","infreq","","","img/orange_2bandit_b2.png","68","","68","test","1","","106","","","","circle","square","102","11","5","0.9215686274509803","","","","","","","",""
"null","294908","SARL_v6","SARL_v66td2pvuv","63ed0065eb23ac3ee1726453","infreq_resp","","","img/orange_2bandit_b.png","68","img/orange_2bandit_b.png","68","test","","","","","","","","","","","5","","","","","","","","",""
"null","295061","SARL_v6","SARL_v66td2pvuv","63ed0065eb23ac3ee1726453","fixation","","","img/fixation.png","null","","","test","","","","","","","","","","","","","","","","","","","",""
"509.80000000074506","295573","SARL_v6","SARL_v66td2pvuv","63ed0065eb23ac3ee1726453","freq","","","img/blue_2bandit_b2.png","70","","70","test","1","","107","","","","circle","square","103","12","5","0.9223300970873787","","","","","","","",""
"null","295867","SARL_v6","SARL_v66td2pvuv","63ed0065eb23ac3ee1726453","freq_resp","","","img/blue_2bandit_b.png","70","img/blue_2bandit_b.png","70","test","","","","","","","","","","","5","","","","","","","","",""
"null","296020","SARL_v6","SARL_v66td2pvuv","63ed0065eb23ac3ee1726453","fixation","","","img/fixation.png","null","","","test","","","","","","","","","","","","","","","","","","","",""
"500.19999999925494","296523","SARL_v6","SARL_v66td2pvuv","63ed0065eb23ac3ee1726453","freq","","","img/blue_2bandit_b2.png","70","","70","test","1","","108","","","","circle","square","104","13","5","0.9230769230769231","","","","","","","",""
"null","296825","SARL_v6","SARL_v66td2pvuv","63ed0065eb23ac3ee1726453","freq_resp","","","img/blue_2bandit_b.png","70","img/blue_2bandit_b.png","70","test","","","","","","","","","","","5","","","","","","","","",""
"null","296978","SARL_v6","SARL_v66td2pvuv","63ed0065eb23ac3ee1726453","fixation","","","img/fixation.png","null","","","test","","","","","","","","","","","","","","","","","","","",""
"381.5","297362","SARL_v6","SARL_v66td2pvuv","63ed0065eb23ac3ee1726453","freq","","","img/blue_2bandit_b2.png","70","","70","test","1","","109","","","","circle","square","105","14","5","0.9238095238095239","","","","","","","",""
"null","297784","SARL_v6","SARL_v66td2pvuv","63ed0065eb23ac3ee1726453","freq_resp","","","img/blue_2bandit_b.png","70","img/blue_2bandit_b.png","70","test","","","","","","","","","","","5","","","","","","","","",""
"null","297938","SARL_v6","SARL_v66td2pvuv","63ed0065eb23ac3ee1726453","fixation","","","img/fixation.png","null","","","test","","","","","","","","","","","","","","","","","","","",""
"371.09999999962747","298311","SARL_v6","SARL_v66td2pvuv","63ed0065eb23ac3ee1726453","freq","","","img/blue_2bandit_b2.png","70","","70","test","1","","110","","","","circle","square","106","15","5","0.9245283018867925","","","","","","","",""
"null","298743","SARL_v6","SARL_v66td2pvuv","63ed0065eb23ac3ee1726453","freq_resp","","","img/blue_2bandit_b.png","70","img/blue_2bandit_b.png","70","test","","","","","","","","","","","5","","","","","","","","",""
"null","298897","SARL_v6","SARL_v66td2pvuv","63ed0065eb23ac3ee1726453","fixation","","","img/fixation.png","null","","","test","","","","","","","","","","","","","","","","","","","",""
"711.5999999996275","299611","SARL_v6","SARL_v66td2pvuv","63ed0065eb23ac3ee1726453","infreq","","","img/orange_2bandit_b2.png","68","","68","test","1","","111","","","","circle","square","107","16","5","0.9252336448598131","","","","","","","",""
"null","299702","SARL_v6","SARL_v66td2pvuv","63ed0065eb23ac3ee1726453","infreq_resp","","","img/orange_2bandit_b.png","68","img/orange_2bandit_b.png","68","test","","","","","","","","","","","5","","","","","","","","",""
"null","299855","SARL_v6","SARL_v66td2pvuv","63ed0065eb23ac3ee1726453","fixation","","","img/fixation.png","null","","","test","","","","","","","","","","","","","","","","","","","",""
"512.0999999996275","300370","SARL_v6","SARL_v66td2pvuv","63ed0065eb23ac3ee1726453","freq","","","img/blue_2bandit_b2.png","70","","70","test","1","","112","","","","circle","square","108","17","5","0.9259259259259259","","","","","","","",""
"null","300660","SARL_v6","SARL_v66td2pvuv","63ed0065eb23ac3ee1726453","freq_resp","","","img/blue_2bandit_b.png","70","img/blue_2bandit_b.png","70","test","","","","","","","","","","","5","","","","","","","","",""
"null","300815","SARL_v6","SARL_v66td2pvuv","63ed0065eb23ac3ee1726453","fixation","","","img/fixation.png","null","","","test","","","","","","","","","","","","","","","","","","","",""
"382.5","301199","SARL_v6","SARL_v66td2pvuv","63ed0065eb23ac3ee1726453","freq","","","img/blue_2bandit_b2.png","70","","70","test","1","","113","","","","circle","square","109","18","5","0.926605504587156","","","","","","","",""
"null","301620","SARL_v6","SARL_v66td2pvuv","63ed0065eb23ac3ee1726453","freq_resp","","","img/blue_2bandit_b.png","70","img/blue_2bandit_b.png","70","test","","","","","","","","","","","5","","","","","","","","",""
"null","301774","SARL_v6","SARL_v66td2pvuv","63ed0065eb23ac3ee1726453","fixation","","","img/fixation.png","null","","","test","","","","","","","","","","","","","","","","","","","",""
"322.09999999962747","302099","SARL_v6","SARL_v66td2pvuv","63ed0065eb23ac3ee1726453","freq","","","img/blue_2bandit_b2.png","70","","70","test","1","","114","","","","circle","square","110","19","5","0.9272727272727272","","","","","","","",""
"null","302579","SARL_v6","SARL_v66td2pvuv","63ed0065eb23ac3ee1726453","freq_resp","","","img/blue_2bandit_b.png","70","img/blue_2bandit_b.png","70","test","","","","","","","","","","","5","","","","","","","","",""
"null","302732","SARL_v6","SARL_v66td2pvuv","63ed0065eb23ac3ee1726453","fixation","","","img/fixation.png","null","","","test","","","","","","","","","","","","","","","","","","","",""
"323.5","303058","SARL_v6","SARL_v66td2pvuv","63ed0065eb23ac3ee1726453","freq","","","img/blue_2bandit_b2.png","70","","70","test","1","","115","","","","circle","square","111","20","5","0.9279279279279279","","","","","","","",""
"null","303537","SARL_v6","SARL_v66td2pvuv","63ed0065eb23ac3ee1726453","freq_resp","","","img/blue_2bandit_b.png","70","img/blue_2bandit_b.png","70","test","","","","","","","","","","","5","","","","","","","","",""
"null","303691","SARL_v6","SARL_v66td2pvuv","63ed0065eb23ac3ee1726453","fixation","","","img/fixation.png","null","","","test","","","","","","","","","","","","","","","","","","","",""
"293.90000000037253","303988","SARL_v6","SARL_v66td2pvuv","63ed0065eb23ac3ee1726453","freq","","","img/blue_2bandit_b2.png","70","","70","test","1","","116","","","","circle","square","112","21","5","0.9285714285714286","","","","","","","",""
"null","304497","SARL_v6","SARL_v66td2pvuv","63ed0065eb23ac3ee1726453","freq_resp","","","img/blue_2bandit_b.png","70","img/blue_2bandit_b.png","70","test","","","","","","","","","","","5","","","","","","","","",""
"null","304651","SARL_v6","SARL_v66td2pvuv","63ed0065eb23ac3ee1726453","fixation","","","img/fixation.png","null","","","test","","","","","","","","","","","","","","","","","","","",""
"303.7999999988824","304957","SARL_v6","SARL_v66td2pvuv","63ed0065eb23ac3ee1726453","freq","","","img/blue_2bandit_b2.png","70","","70","test","1","","117","","","","circle","square","113","22","5","0.9292035398230089","","","","","","","",""
"null","305457","SARL_v6","SARL_v66td2pvuv","63ed0065eb23ac3ee1726453","freq_resp","","","img/blue_2bandit_b.png","70","img/blue_2bandit_b.png","70","test","","","","","","","","","","","5","","","","","","","","",""
"null","305609","SARL_v6","SARL_v66td2pvuv","63ed0065eb23ac3ee1726453","fixation","","","img/fixation.png","null","","","test","","","","","","","","","","","","","","","","","","","",""
"294.6000000014901","305906","SARL_v6","SARL_v66td2pvuv","63ed0065eb23ac3ee1726453","freq","","","img/blue_2bandit_b2.png","70","","70","test","1","","118","","","","circle","square","114","23","5","0.9298245614035088","","","","","","","",""
"null","306415","SARL_v6","SARL_v66td2pvuv","63ed0065eb23ac3ee1726453","freq_resp","","","img/blue_2bandit_b.png","70","img/blue_2bandit_b.png","70","test","","","","","","","","","","","5","","","","","","","","",""
"null","306568","SARL_v6","SARL_v66td2pvuv","63ed0065eb23ac3ee1726453","fixation","","","img/fixation.png","null","","","test","","","","","","","","","","","","","","","","","","","",""
"545","307115","SARL_v6","SARL_v66td2pvuv","63ed0065eb23ac3ee1726453","rl","","","img/black_2bandit_b2.png","75","","0","test","","","119","","","4","circle","square","","0","5","","75","-7","4","-7","4","square","5","0"
"null","307869","SARL_v6","SARL_v66td2pvuv","63ed0065eb23ac3ee1726453","feedback","","","<div class=""veryhighPoints_sq""> 4 </div>","null","","na","test","","","NaN","","","","","","","","5","","75","","","","","","5",""
"653.0999999996275","308524","SARL_v6","SARL_v66td2pvuv","63ed0065eb23ac3ee1726453","freq","","","img/blue_2bandit_b2.png","70","","70","test","1","","120","","","","circle","square","115","1","6","0.9304347826086956","","","","","","","",""
"null","308674","SARL_v6","SARL_v66td2pvuv","63ed0065eb23ac3ee1726453","freq_resp","","","img/blue_2bandit_b.png","70","img/blue_2bandit_b.png","70","test","","","","","","","","","","","6","","","","","","","","",""
"null","308829","SARL_v6","SARL_v66td2pvuv","63ed0065eb23ac3ee1726453","fixation","","","img/fixation.png","null","","","test","","","","","","","","","","","","","","","","","","","",""
"502.2000000011176","309334","SARL_v6","SARL_v66td2pvuv","63ed0065eb23ac3ee1726453","freq","","","img/blue_2bandit_b2.png","70","","70","test","1","","121","","","","circle","square","116","2","6","0.9310344827586207","","","","","","","",""
"null","309634","SARL_v6","SARL_v66td2pvuv","63ed0065eb23ac3ee1726453","freq_resp","","","img/blue_2bandit_b.png","70","img/blue_2bandit_b.png","70","test","","","","","","","","","","","6","","","","","","","","",""
"null","309787","SARL_v6","SARL_v66td2pvuv","63ed0065eb23ac3ee1726453","fixation","","","img/fixation.png","null","","","test","","","","","","","","","","","","","","","","","","","",""
"433.59999999962747","310223","SARL_v6","SARL_v66td2pvuv","63ed0065eb23ac3ee1726453","freq","","","img/blue_2bandit_b2.png","70","","70","test","1","","122","","","","circle","square","117","3","6","0.9316239316239316","","","","","","","",""
"null","310592","SARL_v6","SARL_v66td2pvuv","63ed0065eb23ac3ee1726453","freq_resp","","","img/blue_2bandit_b.png","70","img/blue_2bandit_b.png","70","test","","","","","","","","","","","6","","","","","","","","",""
"null","310746","SARL_v6","SARL_v66td2pvuv","63ed0065eb23ac3ee1726453","fixation","","","img/fixation.png","null","","","test","","","","","","","","","","","","","","","","","","","",""
"363.8999999985099","311113","SARL_v6","SARL_v66td2pvuv","63ed0065eb23ac3ee1726453","freq","","","img/blue_2bandit_b2.png","70","","70","test","1","","123","","","","circle","square","118","4","6","0.9322033898305084","","","","","","","",""
"null","311552","SARL_v6","SARL_v66td2pvuv","63ed0065eb23ac3ee1726453","freq_resp","","","img/blue_2bandit_b.png","70","img/blue_2bandit_b.png","70","test","","","","","","","","","","","6","","","","","","","","",""
"null","311706","SARL_v6","SARL_v66td2pvuv","63ed0065eb23ac3ee1726453","fixation","","","img/fixation.png","null","","","test","","","","","","","","","","","","","","","","","","","",""
"303.5","312012","SARL_v6","SARL_v66td2pvuv","63ed0065eb23ac3ee1726453","freq","","","img/blue_2bandit_b2.png","70","","70","test","1","","124","","","","circle","square","119","5","6","0.9327731092436975","","","","","","","",""
"null","312511","SARL_v6","SARL_v66td2pvuv","63ed0065eb23ac3ee1726453","freq_resp","","","img/blue_2bandit_b.png","70","img/blue_2bandit_b.png","70","test","","","","","","","","","","","6","","","","","","","","",""
"null","312664","SARL_v6","SARL_v66td2pvuv","63ed0065eb23ac3ee1726453","fixation","","","img/fixation.png","null","","","test","","","","","","","","","","","","","","","","","","","",""
"244.7000000011176","312911","SARL_v6","SARL_v66td2pvuv","63ed0065eb23ac3ee1726453","freq","","","img/blue_2bandit_b2.png","70","","70","test","1","","125","","","","circle","square","120","6","6","0.9333333333333333","","","","","","","",""
"null","313470","SARL_v6","SARL_v66td2pvuv","63ed0065eb23ac3ee1726453","freq_resp","","","img/blue_2bandit_b.png","70","img/blue_2bandit_b.png","70","test","","","","","","","","","","","6","","","","","","","","",""
"null","313624","SARL_v6","SARL_v66td2pvuv","63ed0065eb23ac3ee1726453","fixation","","","img/fixation.png","null","","","test","","","","","","","","","","","","","","","","","","","",""
"264.30000000074506","313890","SARL_v6","SARL_v66td2pvuv","63ed0065eb23ac3ee1726453","freq","","","img/blue_2bandit_b2.png","70","","70","test","1","","126","","","","circle","square","121","7","6","0.9338842975206612","","","","","","","",""
"null","314430","SARL_v6","SARL_v66td2pvuv","63ed0065eb23ac3ee1726453","freq_resp","","","img/blue_2bandit_b.png","70","img/blue_2bandit_b.png","70","test","","","","","","","","","","","6","","","","","","","","",""
"null","314586","SARL_v6","SARL_v66td2pvuv","63ed0065eb23ac3ee1726453","fixation","","","img/fixation.png","null","","","test","","","","","","","","","","","","","","","","","","","",""
"81.59999999962747","314670","SARL_v6","SARL_v66td2pvuv","63ed0065eb23ac3ee1726453","freq","","","img/blue_2bandit_b2.png","70","","70","test","1","","127","","","","circle","square","122","8","6","0.9344262295081968","","","","","","","",""
"null","315393","SARL_v6","SARL_v66td2pvuv","63ed0065eb23ac3ee1726453","freq_resp","","","img/blue_2bandit_b.png","70","img/blue_2bandit_b.png","70","test","","","","","","","","","","","6","","","","","","","","",""
"null","315547","SARL_v6","SARL_v66td2pvuv","63ed0065eb23ac3ee1726453","fixation","","","img/fixation.png","null","","","test","","","","","","","","","","","","","","","","","","","",""
"50.29999999888241","315600","SARL_v6","SARL_v66td2pvuv","63ed0065eb23ac3ee1726453","freq","","","img/blue_2bandit_b2.png","70","","70","test","1","","128","","","","circle","square","123","9","6","0.9349593495934959","","","","","","","",""
"null","316354","SARL_v6","SARL_v66td2pvuv","63ed0065eb23ac3ee1726453","freq_resp","","","img/blue_2bandit_b.png","70","img/blue_2bandit_b.png","70","test","","","","","","","","","","","6","","","","","","","","",""
"null","316508","SARL_v6","SARL_v66td2pvuv","63ed0065eb23ac3ee1726453","fixation","","","img/fixation.png","null","","","test","","","","","","","","","","","","","","","","","","","",""
"28","316539","SARL_v6","SARL_v66td2pvuv","63ed0065eb23ac3ee1726453","infreq","","","img/orange_2bandit_b2.png","70","","68","test","0","","129","","","","circle","square","124","10","6","0.9274193548387096","","","","","","","",""
"null","317315","SARL_v6","SARL_v66td2pvuv","63ed0065eb23ac3ee1726453","infreq_resp","","","img/orange_2bandit_b.png","70","img/orange_2bandit_b.png","68","test","","","","","","","","","","","6","","","","","","","","",""
"null","317468","SARL_v6","SARL_v66td2pvuv","63ed0065eb23ac3ee1726453","fixation","","","img/fixation.png","null","","","test","","","","","","","","","","","","","","","","","","","",""
"478","317948","SARL_v6","SARL_v66td2pvuv","63ed0065eb23ac3ee1726453","freq","","","img/blue_2bandit_b2.png","70","","70","test","1","","130","","","","circle","square","125","11","6","0.928","","","","","","","",""
"null","318274","SARL_v6","SARL_v66td2pvuv","63ed0065eb23ac3ee1726453","freq_resp","","","img/blue_2bandit_b.png","70","img/blue_2bandit_b.png","70","test","","","","","","","","","","","6","","","","","","","","",""
"null","318426","SARL_v6","SARL_v66td2pvuv","63ed0065eb23ac3ee1726453","fixation","","","img/fixation.png","null","","","test","","","","","","","","","","","","","","","","","","","",""
"388.7999999988824","318817","SARL_v6","SARL_v66td2pvuv","63ed0065eb23ac3ee1726453","freq","","","img/blue_2bandit_b2.png","70","","70","test","1","","131","","","","circle","square","126","12","6","0.9285714285714286","","","","","","","",""
"null","319232","SARL_v6","SARL_v66td2pvuv","63ed0065eb23ac3ee1726453","freq_resp","","","img/blue_2bandit_b.png","70","img/blue_2bandit_b.png","70","test","","","","","","","","","","","6","","","","","","","","",""
"null","319386","SARL_v6","SARL_v66td2pvuv","63ed0065eb23ac3ee1726453","fixation","","","img/fixation.png","null","","","test","","","","","","","","","","","","","","","","","","","",""
"258.3999999985099","319647","SARL_v6","SARL_v66td2pvuv","63ed0065eb23ac3ee1726453","freq","","","img/blue_2bandit_b2.png","70","","70","test","1","","132","","","","circle","square","127","13","6","0.9291338582677166","","","","","","","",""
"null","320192","SARL_v6","SARL_v66td2pvuv","63ed0065eb23ac3ee1726453","freq_resp","","","img/blue_2bandit_b.png","70","img/blue_2bandit_b.png","70","test","","","","","","","","","","","6","","","","","","","","",""
"null","320345","SARL_v6","SARL_v66td2pvuv","63ed0065eb23ac3ee1726453","fixation","","","img/fixation.png","null","","","test","","","","","","","","","","","","","","","","","","","",""
