"rt","time_elapsed","expId","subject","prolificID","trialType","rlType","attType","stimulus","key_press","stim","corrresp","phase","corr","pracCounter","trialNum","rewardOne","rewardTwo","reward","bandOne","bandTwo","attentionNum","attentionRunNum","blockNum","performance","bandChosen","circleVal","squareVal","bandOneVal","bandTwoVal","shapeChosen","rlNum","badFlag"
"2636.5","2641","SARL_v6","SARL_v6eq32tk8x","56f9364e895094000c8f4967","","","","","","","","","","","","","","","","","","","","","","","","","","","",""
"","5511","SARL_v6","SARL_v6eq32tk8x","56f9364e895094000c8f4967","fullscreen","fullscreen","fullscreen","","","","","","","","","","","","","","","","","","","","","","","","",""
"42862.19999999972","48377","SARL_v6","SARL_v6eq32tk8x","56f9364e895094000c8f4967","","","","","","","","","","","","","","","","","","","","","","","","","","","",""
"null","49184","SARL_v6","SARL_v6eq32tk8x","56f9364e895094000c8f4967","freqPrac","","","img/blue_2bandit_a2.png","null","img/blue_2bandit_a2.png","70","prac","0","1","","","","","","","","","","","","","","","","","",""
"null","50192","SARL_v6","SARL_v6eq32tk8x","56f9364e895094000c8f4967","feedback","","","img/tooSlow.png","null","","na","prac","","","","","","","","","","","","","","","","","","","",""
"null","50352","SARL_v6","SARL_v6eq32tk8x","56f9364e895094000c8f4967","fixation","","","img/fixation.png","null","","","prac","","","","","","","","","","","","","","","","","","","",""
"null","51160","SARL_v6","SARL_v6eq32tk8x","56f9364e895094000c8f4967","infreqPrac","","","img/orange_2bandit_a2.png","null","img/orange_2bandit_a2.png","68","prac","0","2","","","","","","","","","","","","","","","","","",""
"null","52166","SARL_v6","SARL_v6eq32tk8x","56f9364e895094000c8f4967","feedback","","","img/tooSlow.png","null","","na","prac","","","","","","","","","","","","","","","","","","","",""
"null","52321","SARL_v6","SARL_v6eq32tk8x","56f9364e895094000c8f4967","fixation","","","img/fixation.png","null","","","prac","","","","","","","","","","","","","","","","","","","",""
"null","53128","SARL_v6","SARL_v6eq32tk8x","56f9364e895094000c8f4967","freqPrac","","","img/blue_2bandit_a2.png","null","img/blue_2bandit_a2.png","70","prac","0","3","","","","","","","","","","","","","","","","","",""
"null","54136","SARL_v6","SARL_v6eq32tk8x","56f9364e895094000c8f4967","feedback","","","img/tooSlow.png","null","","na","prac","","","","","","","","","","","","","","","","","","","",""
"null","54288","SARL_v6","SARL_v6eq32tk8x","56f9364e895094000c8f4967","fixation","","","img/fixation.png","null","","","prac","","","","","","","","","","","","","","","","","","","",""
"495.79999999981374","54786","SARL_v6","SARL_v6eq32tk8x","56f9364e895094000c8f4967","infreqPrac","","","img/orange_2bandit_a2.png","68","img/orange_2bandit_a2.png","68","prac","1","3","","","","","","","","","","","","","","","","","",""
"495.79999999981374","55096","SARL_v6","SARL_v6eq32tk8x","56f9364e895094000c8f4967","infreqPrac_resp","","","img/orange_2bandit_a.png","68","img/orange_2bandit_a.png","68","prac","","","","","","","","","","","","","","","","","","","",""
"null","55256","SARL_v6","SARL_v6eq32tk8x","56f9364e895094000c8f4967","fixation","","","img/fixation.png","null","","","prac","","","","","","","","","","","","","","","","","","","",""
"612.5","55870","SARL_v6","SARL_v6eq32tk8x","56f9364e895094000c8f4967","infreqPrac","","","img/orange_2bandit_a2.png","68","img/orange_2bandit_a2.png","68","prac","1","3","","","","","","","","","","","","","","","","","",""
"612.5","56064","SARL_v6","SARL_v6eq32tk8x","56f9364e895094000c8f4967","infreqPrac_resp","","","img/orange_2bandit_a.png","68","img/orange_2bandit_a.png","68","prac","","","","","","","","","","","","","","","","","","","",""
"null","56224","SARL_v6","SARL_v6eq32tk8x","56f9364e895094000c8f4967","fixation","","","img/fixation.png","null","","","prac","","","","","","","","","","","","","","","","","","","",""
"468","56694","SARL_v6","SARL_v6eq32tk8x","56f9364e895094000c8f4967","infreqPrac","","","img/orange_2bandit_a2.png","68","img/orange_2bandit_a2.png","68","prac","1","3","","","","","","","","","","","","","","","","","",""
"468","57032","SARL_v6","SARL_v6eq32tk8x","56f9364e895094000c8f4967","infreqPrac_resp","","","img/orange_2bandit_a.png","68","img/orange_2bandit_a.png","68","prac","","","","","","","","","","","","","","","","","","","",""
"null","57192","SARL_v6","SARL_v6eq32tk8x","56f9364e895094000c8f4967","fixation","","","img/fixation.png","null","","","prac","","","","","","","","","","","","","","","","","","","",""
"560","57754","SARL_v6","SARL_v6eq32tk8x","56f9364e895094000c8f4967","freqPrac","","","img/blue_2bandit_a2.png","70","img/blue_2bandit_a2.png","70","prac","1","3","","","","","","","","","","","","","","","","","",""
"560","58000","SARL_v6","SARL_v6eq32tk8x","56f9364e895094000c8f4967","freqPrac_resp","","","img/blue_2bandit_a.png","70","img/blue_2bandit_a.png","70","prac","","","","","","","","","","","","","","","","","","","",""
"null","58160","SARL_v6","SARL_v6eq32tk8x","56f9364e895094000c8f4967","fixation","","","img/fixation.png","null","","","prac","","","","","","","","","","","","","","","","","","","",""
"788.2999999998137","58950","SARL_v6","SARL_v6eq32tk8x","56f9364e895094000c8f4967","infreqPrac","","","img/orange_2bandit_a2.png","70","img/orange_2bandit_a2.png","68","prac","0","4","","","","","","","","","","","","","","","","","",""
"788.2999999998137","58968","SARL_v6","SARL_v6eq32tk8x","56f9364e895094000c8f4967","infreqPrac_resp","","","img/orange_2bandit_a.png","70","img/orange_2bandit_a.png","68","prac","","","","","","","","","","","","","","","","","","","",""
"null","59976","SARL_v6","SARL_v6eq32tk8x","56f9364e895094000c8f4967","feedback","","","img/wrongKey.png","null","","na","prac","","","","","","","","","","","","","","","","","","","",""
"null","60136","SARL_v6","SARL_v6eq32tk8x","56f9364e895094000c8f4967","fixation","","","img/fixation.png","null","","","prac","","","","","","","","","","","","","","","","","","","",""
"431.29999999981374","60570","SARL_v6","SARL_v6eq32tk8x","56f9364e895094000c8f4967","freqPrac","","","img/blue_2bandit_a2.png","70","img/blue_2bandit_a2.png","70","prac","1","4","","","","","","","","","","","","","","","","","",""
"431.29999999981374","60944","SARL_v6","SARL_v6eq32tk8x","56f9364e895094000c8f4967","freqPrac_resp","","","img/blue_2bandit_a.png","70","img/blue_2bandit_a.png","70","prac","","","","","","","","","","","","","","","","","","","",""
"null","61104","SARL_v6","SARL_v6eq32tk8x","56f9364e895094000c8f4967","fixation","","","img/fixation.png","null","","","prac","","","","","","","","","","","","","","","","","","","",""
"452.39999999990687","61558","SARL_v6","SARL_v6eq32tk8x","56f9364e895094000c8f4967","freqPrac","","","img/blue_2bandit_a2.png","70","img/blue_2bandit_a2.png","70","prac","1","4","","","","","","","","","","","","","","","","","",""
"452.39999999990687","61912","SARL_v6","SARL_v6eq32tk8x","56f9364e895094000c8f4967","freqPrac_resp","","","img/blue_2bandit_a.png","70","img/blue_2bandit_a.png","70","prac","","","","","","","","","","","","","","","","","","","",""
"null","62064","SARL_v6","SARL_v6eq32tk8x","56f9364e895094000c8f4967","fixation","","","img/fixation.png","null","","","prac","","","","","","","","","","","","","","","","","","","",""
"27008.099999999627","89074","SARL_v6","SARL_v6eq32tk8x","56f9364e895094000c8f4967","","","","","","","","prac","","","","","","","","","","","","","","","","","","","",""
"null","90584","SARL_v6","SARL_v6eq32tk8x","56f9364e895094000c8f4967","rlPractice","","","img/black_2bandit_a2.png","null","img/black_2bandit_a2.png","","prac","","","0","","","","","","","","","","","","","","","","",""
"null","91344","SARL_v6","SARL_v6eq32tk8x","56f9364e895094000c8f4967","feedback","","","<div font size = 80> TOO SLOW  </div>","null","","na","prac","","","1","10","-14","10","","","","","","","","","","","","","",""
"null","91504","SARL_v6","SARL_v6eq32tk8x","56f9364e895094000c8f4967","fixation","","","img/fixation.png","null","","","prac","","","","","","","","","","","","","","","","","","","",""
"652.2000000001863","92158","SARL_v6","SARL_v6eq32tk8x","56f9364e895094000c8f4967","rlPractice","","","img/black_2bandit_a2.png","74","img/black_2bandit_a2.png","","prac","","","1","","","","","","","","","","","","","","","","",""
"null","92912","SARL_v6","SARL_v6eq32tk8x","56f9364e895094000c8f4967","feedback","","","<div class=""verylowPoints_sq""> -5 </div>","null","","na","prac","","","2","5","-5","5","","","","","","","","","","","","","",""
"null","93072","SARL_v6","SARL_v6eq32tk8x","56f9364e895094000c8f4967","fixation","","","img/fixation.png","null","","","prac","","","","","","","","","","","","","","","","","","","",""
"null","94576","SARL_v6","SARL_v6eq32tk8x","56f9364e895094000c8f4967","rlPractice","","","img/black_2bandit_a2.png","null","img/black_2bandit_a2.png","","prac","","","2","","","","","","","","","","","","","","","","",""
"null","95336","SARL_v6","SARL_v6eq32tk8x","56f9364e895094000c8f4967","feedback","","","<div font size = 80> TOO SLOW  </div>","null","","na","prac","","","3","30","2","30","","","","","","","","","","","","","",""
"null","95496","SARL_v6","SARL_v6eq32tk8x","56f9364e895094000c8f4967","fixation","","","img/fixation.png","null","","","prac","","","","","","","","","","","","","","","","","","","",""
"679.6999999997206","96178","SARL_v6","SARL_v6eq32tk8x","56f9364e895094000c8f4967","rlPractice","","","img/black_2bandit_a2.png","75","img/black_2bandit_a2.png","","prac","","","3","","","","","","","","","","","","","","","","",""
"null","96935","SARL_v6","SARL_v6eq32tk8x","56f9364e895094000c8f4967","feedback","","","<div class=""verylowPoints""> -2 </div>","null","","na","prac","","","4","-2","20","-2","","","","","","","","","","","","","",""
"null","97096","SARL_v6","SARL_v6eq32tk8x","56f9364e895094000c8f4967","fixation","","","img/fixation.png","null","","","prac","","","","","","","","","","","","","","","","","","","",""
"12697.200000000186","109795","SARL_v6","SARL_v6eq32tk8x","56f9364e895094000c8f4967","","","","","","","","prac","","","","","","","","","","","","","","","","","","","",""
"null","110601","SARL_v6","SARL_v6eq32tk8x","56f9364e895094000c8f4967","mixAttFreqPrac","","","img/blue_2bandit_a2.png","null","img/blue_2bandit_a2.png","70","prac","","","1","","","","","","","","","","","","","","","","",""
"null","110761","SARL_v6","SARL_v6eq32tk8x","56f9364e895094000c8f4967","fixation","","","img/fixation.png","null","","","prac","","","","","","","","","","","","","","","","","","","",""
"195.5","110958","SARL_v6","SARL_v6eq32tk8x","56f9364e895094000c8f4967","mixAttInfreqPrac","","","img/orange_2bandit_a2.png","70","img/orange_2bandit_a2.png","68","prac","","","2","","","","","","","","","","","","","","","","",""
"195.5","111569","SARL_v6","SARL_v6eq32tk8x","56f9364e895094000c8f4967","infreqPrac_resp","","","img/orange_2bandit_a.png","70","img/blue_2bandit_a.png","68","prac","","","2","","","","","","","","","","","","","","","","",""
"null","111729","SARL_v6","SARL_v6eq32tk8x","56f9364e895094000c8f4967","fixation","","","img/fixation.png","null","","","prac","","","","","","","","","","","","","","","","","","","",""
"58.8000000002794","111790","SARL_v6","SARL_v6eq32tk8x","56f9364e895094000c8f4967","mixAttInfreqPrac","","","img/orange_2bandit_a2.png","68","img/orange_2bandit_a2.png","68","prac","","","3","","","","","","","","","","","","","","","","",""
"58.8000000002794","112537","SARL_v6","SARL_v6eq32tk8x","56f9364e895094000c8f4967","infreqPrac_resp","","","img/orange_2bandit_a.png","68","img/blue_2bandit_a.png","68","prac","","","3","","","","","","","","","","","","","","","","",""
"null","112697","SARL_v6","SARL_v6eq32tk8x","56f9364e895094000c8f4967","fixation","","","img/fixation.png","null","","","prac","","","","","","","","","","","","","","","","","","","",""
"310.60000000009313","113010","SARL_v6","SARL_v6eq32tk8x","56f9364e895094000c8f4967","mixAttInfreqPrac","","","img/orange_2bandit_a2.png","68","img/orange_2bandit_a2.png","68","prac","","","4","","","","","","","","","","","","","","","","",""
"310.60000000009313","113504","SARL_v6","SARL_v6eq32tk8x","56f9364e895094000c8f4967","infreqPrac_resp","","","img/orange_2bandit_a.png","68","img/blue_2bandit_a.png","68","prac","","","4","","","","","","","","","","","","","","","","",""
"null","113664","SARL_v6","SARL_v6eq32tk8x","56f9364e895094000c8f4967","fixation","","","img/fixation.png","null","","","prac","","","","","","","","","","","","","","","","","","","",""
"499","114165","SARL_v6","SARL_v6eq32tk8x","56f9364e895094000c8f4967","mixAttFreqPrac","","","img/blue_2bandit_a2.png","68","img/blue_2bandit_a2.png","70","prac","","","5","","","","","","","","","","","","","","","","",""
"499","114473","SARL_v6","SARL_v6eq32tk8x","56f9364e895094000c8f4967","freqPrac_resp","","","img/blue_2bandit_a.png","68","img/blue_2bandit_a.png","70","prac","","","5","","","","","","","","","","","","","","","","",""
"null","114632","SARL_v6","SARL_v6eq32tk8x","56f9364e895094000c8f4967","fixation","","","img/fixation.png","null","","","prac","","","","","","","","","","","","","","","","","","","",""
"1334.5","115969","SARL_v6","SARL_v6eq32tk8x","56f9364e895094000c8f4967","mixRLPractice","","","img/black_2bandit_a2.png","75","img/black_2bandit_a2.png","","prac","","","5","","","","","","","","","","","","","","","","",""
"null","116728","SARL_v6","SARL_v6eq32tk8x","56f9364e895094000c8f4967","feedback","","","<div class=""verylowPoints""> -14 </div>","null","","na","prac","","","6","-14","10","-14","","","","","","","","","","","","","",""
"null","116888","SARL_v6","SARL_v6eq32tk8x","56f9364e895094000c8f4967","fixation","","","img/fixation.png","null","","","prac","","","","","","","","","","","","","","","","","","","",""
"507.39999999990687","117398","SARL_v6","SARL_v6eq32tk8x","56f9364e895094000c8f4967","mixAttFreqPrac","","","img/blue_2bandit_a2.png","68","img/blue_2bandit_a2.png","70","prac","","","7","","","","","","","","","","","","","","","","",""
"507.39999999990687","117696","SARL_v6","SARL_v6eq32tk8x","56f9364e895094000c8f4967","freqPrac_resp","","","img/blue_2bandit_a.png","68","img/blue_2bandit_a.png","70","prac","","","7","","","","","","","","","","","","","","","","",""
"null","117857","SARL_v6","SARL_v6eq32tk8x","56f9364e895094000c8f4967","fixation","","","img/fixation.png","null","","","prac","","","","","","","","","","","","","","","","","","","",""
"762.2000000001863","118621","SARL_v6","SARL_v6eq32tk8x","56f9364e895094000c8f4967","mixAttInfreqPrac","","","img/orange_2bandit_a2.png","68","img/orange_2bandit_a2.png","68","prac","","","8","","","","","","","","","","","","","","","","",""
"762.2000000001863","118660","SARL_v6","SARL_v6eq32tk8x","56f9364e895094000c8f4967","infreqPrac_resp","","","img/orange_2bandit_a.png","68","img/blue_2bandit_a.png","68","prac","","","8","","","","","","","","","","","","","","","","",""
"null","118817","SARL_v6","SARL_v6eq32tk8x","56f9364e895094000c8f4967","fixation","","","img/fixation.png","null","","","prac","","","","","","","","","","","","","","","","","","","",""
"734.4000000003725","119553","SARL_v6","SARL_v6eq32tk8x","56f9364e895094000c8f4967","mixAttFreqPrac","","","img/blue_2bandit_a2.png","70","img/blue_2bandit_a2.png","70","prac","","","9","","","","","","","","","","","","","","","","",""
"734.4000000003725","119625","SARL_v6","SARL_v6eq32tk8x","56f9364e895094000c8f4967","freqPrac_resp","","","img/blue_2bandit_a.png","70","img/blue_2bandit_a.png","70","prac","","","9","","","","","","","","","","","","","","","","",""
"null","119784","SARL_v6","SARL_v6eq32tk8x","56f9364e895094000c8f4967","fixation","","","img/fixation.png","null","","","prac","","","","","","","","","","","","","","","","","","","",""
"746.6999999997206","120533","SARL_v6","SARL_v6eq32tk8x","56f9364e895094000c8f4967","mixAttFreqPrac","","","img/blue_2bandit_a2.png","70","img/blue_2bandit_a2.png","70","prac","","","10","","","","","","","","","","","","","","","","",""
"746.6999999997206","120593","SARL_v6","SARL_v6eq32tk8x","56f9364e895094000c8f4967","freqPrac_resp","","","img/blue_2bandit_a.png","70","img/blue_2bandit_a.png","70","prac","","","10","","","","","","","","","","","","","","","","",""
"null","120753","SARL_v6","SARL_v6eq32tk8x","56f9364e895094000c8f4967","fixation","","","img/fixation.png","null","","","prac","","","","","","","","","","","","","","","","","","","",""
"658.3000000002794","121413","SARL_v6","SARL_v6eq32tk8x","56f9364e895094000c8f4967","mixAttInfreqPrac","","","img/orange_2bandit_a2.png","68","img/orange_2bandit_a2.png","68","prac","","","11","","","","","","","","","","","","","","","","",""
"658.3000000002794","121557","SARL_v6","SARL_v6eq32tk8x","56f9364e895094000c8f4967","infreqPrac_resp","","","img/orange_2bandit_a.png","68","img/blue_2bandit_a.png","68","prac","","","11","","","","","","","","","","","","","","","","",""
"null","121713","SARL_v6","SARL_v6eq32tk8x","56f9364e895094000c8f4967","fixation","","","img/fixation.png","null","","","prac","","","","","","","","","","","","","","","","","","","",""
"630.2000000001863","122345","SARL_v6","SARL_v6eq32tk8x","56f9364e895094000c8f4967","mixRLPractice","","","img/black_2bandit_a2.png","74","img/black_2bandit_a2.png","","prac","","","11","","","","","","","","","","","","","","","","",""
"null","123105","SARL_v6","SARL_v6eq32tk8x","56f9364e895094000c8f4967","feedback","","","<div class=""verylowPoints_sq""> -5 </div>","null","","na","prac","","","12","5","-5","5","","","","","","","","","","","","","",""
"null","123265","SARL_v6","SARL_v6eq32tk8x","56f9364e895094000c8f4967","fixation","","","img/fixation.png","null","","","prac","","","","","","","","","","","","","","","","","","","",""
"12570.099999999627","135836","SARL_v6","SARL_v6eq32tk8x","56f9364e895094000c8f4967","","","","","","","","prac","","","","","","","","","","","","","","","","","","","",""
"782.0999999996275","136620","SARL_v6","SARL_v6eq32tk8x","56f9364e895094000c8f4967","freq","","","img/blue_2bandit_a2.png","70","","70","test","1","","1","","","","square","circle","1","1","1","1","","","","","","","",""
"null","136641","SARL_v6","SARL_v6eq32tk8x","56f9364e895094000c8f4967","freq_resp","","","img/blue_2bandit_a.png","70","img/blue_2bandit_a.png","70","test","","","","","","","","","","","1","","","","","","","","",""
"null","136800","SARL_v6","SARL_v6eq32tk8x","56f9364e895094000c8f4967","fixation","","","img/fixation.png","null","","","test","","","","","","","","","","","","","","","","","","","",""
"598.1000000000931","137400","SARL_v6","SARL_v6eq32tk8x","56f9364e895094000c8f4967","freq","","","img/blue_2bandit_a2.png","70","","70","test","1","","2","","","","square","circle","2","2","1","1","","","","","","","",""
"null","137609","SARL_v6","SARL_v6eq32tk8x","56f9364e895094000c8f4967","freq_resp","","","img/blue_2bandit_a.png","70","img/blue_2bandit_a.png","70","test","","","","","","","","","","","1","","","","","","","","",""
"null","137768","SARL_v6","SARL_v6eq32tk8x","56f9364e895094000c8f4967","fixation","","","img/fixation.png","null","","","test","","","","","","","","","","","","","","","","","","","",""
"null","138576","SARL_v6","SARL_v6eq32tk8x","56f9364e895094000c8f4967","freq","","","img/blue_2bandit_a2.png","null","","70","test","0","","3","","","","square","circle","3","3","1","0.6666666666666666","","","","","","","",""
"null","138736","SARL_v6","SARL_v6eq32tk8x","56f9364e895094000c8f4967","fixation","","","img/fixation.png","null","","","test","","","","","","","","","","","","","","","","","","","",""
"null","139544","SARL_v6","SARL_v6eq32tk8x","56f9364e895094000c8f4967","freq","","","img/blue_2bandit_a2.png","null","","70","test","0","","4","","","","square","circle","4","4","1","0.5","","","","","","","",""
"null","139696","SARL_v6","SARL_v6eq32tk8x","56f9364e895094000c8f4967","fixation","","","img/fixation.png","null","","","test","","","","","","","","","","","","","","","","","","","",""
"766.3000000002794","140464","SARL_v6","SARL_v6eq32tk8x","56f9364e895094000c8f4967","freq","","","img/blue_2bandit_a2.png","70","","70","test","1","","5","","","","square","circle","5","5","1","0.6","","","","","","","",""
"null","140504","SARL_v6","SARL_v6eq32tk8x","56f9364e895094000c8f4967","freq_resp","","","img/blue_2bandit_a.png","70","img/blue_2bandit_a.png","70","test","","","","","","","","","","","1","","","","","","","","",""
"null","140656","SARL_v6","SARL_v6eq32tk8x","56f9364e895094000c8f4967","fixation","","","img/fixation.png","null","","","test","","","","","","","","","","","","","","","","","","","",""
"null","141464","SARL_v6","SARL_v6eq32tk8x","56f9364e895094000c8f4967","freq","","","img/blue_2bandit_a2.png","null","","70","test","0","","6","","","","square","circle","6","6","1","0.5","","","","","","","",""
"null","141624","SARL_v6","SARL_v6eq32tk8x","56f9364e895094000c8f4967","fixation","","","img/fixation.png","null","","","test","","","","","","","","","","","","","","","","","","","",""
"262.10000000009313","141888","SARL_v6","SARL_v6eq32tk8x","56f9364e895094000c8f4967","freq","","","img/blue_2bandit_a2.png","70","","70","test","1","","7","","","","square","circle","7","7","1","0.5714285714285714","","","","","","","",""
"null","142433","SARL_v6","SARL_v6eq32tk8x","56f9364e895094000c8f4967","freq_resp","","","img/blue_2bandit_a.png","70","img/blue_2bandit_a.png","70","test","","","","","","","","","","","1","","","","","","","","",""
"null","142593","SARL_v6","SARL_v6eq32tk8x","56f9364e895094000c8f4967","fixation","","","img/fixation.png","null","","","test","","","","","","","","","","","","","","","","","","","",""
"554.2000000001863","143148","SARL_v6","SARL_v6eq32tk8x","56f9364e895094000c8f4967","freq","","","img/blue_2bandit_a2.png","70","","70","test","1","","8","","","","square","circle","8","8","1","0.625","","","","","","","",""
"null","143400","SARL_v6","SARL_v6eq32tk8x","56f9364e895094000c8f4967","freq_resp","","","img/blue_2bandit_a.png","70","img/blue_2bandit_a.png","70","test","","","","","","","","","","","1","","","","","","","","",""
"null","143552","SARL_v6","SARL_v6eq32tk8x","56f9364e895094000c8f4967","fixation","","","img/fixation.png","null","","","test","","","","","","","","","","","","","","","","","","","",""
"614.1000000000931","144168","SARL_v6","SARL_v6eq32tk8x","56f9364e895094000c8f4967","freq","","","img/blue_2bandit_a2.png","70","","70","test","1","","9","","","","square","circle","9","9","1","0.6666666666666666","","","","","","","",""
"null","144360","SARL_v6","SARL_v6eq32tk8x","56f9364e895094000c8f4967","freq_resp","","","img/blue_2bandit_a.png","70","img/blue_2bandit_a.png","70","test","","","","","","","","","","","1","","","","","","","","",""
"null","144520","SARL_v6","SARL_v6eq32tk8x","56f9364e895094000c8f4967","fixation","","","img/fixation.png","null","","","test","","","","","","","","","","","","","","","","","","","",""
"633.8999999999069","145156","SARL_v6","SARL_v6eq32tk8x","56f9364e895094000c8f4967","infreq","","","img/orange_2bandit_a2.png","68","","68","test","1","","10","","","","square","circle","10","10","1","0.7","","","","","","","",""
"null","145328","SARL_v6","SARL_v6eq32tk8x","56f9364e895094000c8f4967","infreq_resp","","","img/orange_2bandit_a.png","68","img/orange_2bandit_a.png","68","test","","","","","","","","","","","1","","","","","","","","",""
"null","145488","SARL_v6","SARL_v6eq32tk8x","56f9364e895094000c8f4967","fixation","","","img/fixation.png","null","","","test","","","","","","","","","","","","","","","","","","","",""
"769.5999999996275","146260","SARL_v6","SARL_v6eq32tk8x","56f9364e895094000c8f4967","freq","","","img/blue_2bandit_a2.png","68","","70","test","0","","11","","","","square","circle","11","11","1","0.6363636363636364","","","","","","","",""
"null","146296","SARL_v6","SARL_v6eq32tk8x","56f9364e895094000c8f4967","freq_resp","","","img/blue_2bandit_a.png","68","img/blue_2bandit_a.png","70","test","","","","","","","","","","","1","","","","","","","","",""
"null","146457","SARL_v6","SARL_v6eq32tk8x","56f9364e895094000c8f4967","fixation","","","img/fixation.png","null","","","test","","","","","","","","","","","","","","","","","","","",""
"781.7000000001863","147240","SARL_v6","SARL_v6eq32tk8x","56f9364e895094000c8f4967","freq","","","img/blue_2bandit_a2.png","70","","70","test","1","","12","","","","square","circle","12","12","1","0.6666666666666666","","","","","","","",""
"null","147265","SARL_v6","SARL_v6eq32tk8x","56f9364e895094000c8f4967","freq_resp","","","img/blue_2bandit_a.png","70","img/blue_2bandit_a.png","70","test","","","","","","","","","","","1","","","","","","","","",""
"null","147425","SARL_v6","SARL_v6eq32tk8x","56f9364e895094000c8f4967","fixation","","","img/fixation.png","null","","","test","","","","","","","","","","","","","","","","","","","",""
"null","148233","SARL_v6","SARL_v6eq32tk8x","56f9364e895094000c8f4967","freq","","","img/blue_2bandit_a2.png","null","","70","test","0","","13","","","","square","circle","13","13","1","0.6153846153846154","","","","","","","",""
"null","148393","SARL_v6","SARL_v6eq32tk8x","56f9364e895094000c8f4967","fixation","","","img/fixation.png","null","","","test","","","","","","","","","","","","","","","","","","","",""
"668.1999999997206","149064","SARL_v6","SARL_v6eq32tk8x","56f9364e895094000c8f4967","infreq","","","img/orange_2bandit_a2.png","68","","68","test","1","","14","","","","square","circle","14","14","1","0.6428571428571429","","","","","","","",""
"null","149201","SARL_v6","SARL_v6eq32tk8x","56f9364e895094000c8f4967","infreq_resp","","","img/orange_2bandit_a.png","68","img/orange_2bandit_a.png","68","test","","","","","","","","","","","1","","","","","","","","",""
"null","149361","SARL_v6","SARL_v6eq32tk8x","56f9364e895094000c8f4967","fixation","","","img/fixation.png","null","","","test","","","","","","","","","","","","","","","","","","","",""
"609.5","149972","SARL_v6","SARL_v6eq32tk8x","56f9364e895094000c8f4967","freq","","","img/blue_2bandit_a2.png","68","","70","test","0","","15","","","","square","circle","15","15","1","0.6","","","","","","","",""
"null","150169","SARL_v6","SARL_v6eq32tk8x","56f9364e895094000c8f4967","freq_resp","","","img/blue_2bandit_a.png","68","img/blue_2bandit_a.png","70","test","","","","","","","","","","","1","","","","","","","","",""
"null","150329","SARL_v6","SARL_v6eq32tk8x","56f9364e895094000c8f4967","fixation","","","img/fixation.png","null","","","test","","","","","","","","","","","","","","","","","","","",""
"525.2999999998137","150856","SARL_v6","SARL_v6eq32tk8x","56f9364e895094000c8f4967","freq","","","img/blue_2bandit_a2.png","70","","70","test","1","","16","","","","square","circle","16","16","1","0.625","","","","","","","",""
"null","151137","SARL_v6","SARL_v6eq32tk8x","56f9364e895094000c8f4967","freq_resp","","","img/blue_2bandit_a.png","70","img/blue_2bandit_a.png","70","test","","","","","","","","","","","1","","","","","","","","",""
"null","151297","SARL_v6","SARL_v6eq32tk8x","56f9364e895094000c8f4967","fixation","","","img/fixation.png","null","","","test","","","","","","","","","","","","","","","","","","","",""
"625.3999999999069","151924","SARL_v6","SARL_v6eq32tk8x","56f9364e895094000c8f4967","freq","","","img/blue_2bandit_a2.png","70","","70","test","1","","17","","","","square","circle","17","17","1","0.6470588235294118","","","","","","","",""
"null","152105","SARL_v6","SARL_v6eq32tk8x","56f9364e895094000c8f4967","freq_resp","","","img/blue_2bandit_a.png","70","img/blue_2bandit_a.png","70","test","","","","","","","","","","","1","","","","","","","","",""
"null","152265","SARL_v6","SARL_v6eq32tk8x","56f9364e895094000c8f4967","fixation","","","img/fixation.png","null","","","test","","","","","","","","","","","","","","","","","","","",""
"724.8999999999069","152992","SARL_v6","SARL_v6eq32tk8x","56f9364e895094000c8f4967","freq","","","img/blue_2bandit_a2.png","70","","70","test","1","","18","","","","square","circle","18","18","1","0.6666666666666666","","","","","","","",""
"null","153073","SARL_v6","SARL_v6eq32tk8x","56f9364e895094000c8f4967","freq_resp","","","img/blue_2bandit_a.png","70","img/blue_2bandit_a.png","70","test","","","","","","","","","","","1","","","","","","","","",""
"null","153233","SARL_v6","SARL_v6eq32tk8x","56f9364e895094000c8f4967","fixation","","","img/fixation.png","null","","","test","","","","","","","","","","","","","","","","","","","",""
"745.2000000001863","153980","SARL_v6","SARL_v6eq32tk8x","56f9364e895094000c8f4967","freq","","","img/blue_2bandit_a2.png","70","","70","test","1","","19","","","","square","circle","19","19","1","0.6842105263157895","","","","","","","",""
"null","154041","SARL_v6","SARL_v6eq32tk8x","56f9364e895094000c8f4967","freq_resp","","","img/blue_2bandit_a.png","70","img/blue_2bandit_a.png","70","test","","","","","","","","","","","1","","","","","","","","",""
"null","154201","SARL_v6","SARL_v6eq32tk8x","56f9364e895094000c8f4967","fixation","","","img/fixation.png","null","","","test","","","","","","","","","","","","","","","","","","","",""
"713.0999999996275","154916","SARL_v6","SARL_v6eq32tk8x","56f9364e895094000c8f4967","freq","","","img/blue_2bandit_a2.png","70","","70","test","1","","20","","","","square","circle","20","20","1","0.7","","","","","","","",""
"null","155009","SARL_v6","SARL_v6eq32tk8x","56f9364e895094000c8f4967","freq_resp","","","img/blue_2bandit_a.png","70","img/blue_2bandit_a.png","70","test","","","","","","","","","","","1","","","","","","","","",""
"null","155169","SARL_v6","SARL_v6eq32tk8x","56f9364e895094000c8f4967","fixation","","","img/fixation.png","null","","","test","","","","","","","","","","","","","","","","","","","",""
"null","155977","SARL_v6","SARL_v6eq32tk8x","56f9364e895094000c8f4967","freq","","","img/blue_2bandit_a2.png","null","","70","test","0","","21","","","","square","circle","21","21","1","0.6666666666666666","","","","","","","",""
"null","156137","SARL_v6","SARL_v6eq32tk8x","56f9364e895094000c8f4967","fixation","","","img/fixation.png","null","","","test","","","","","","","","","","","","","","","","","","","",""
"1196.7999999998137","157336","SARL_v6","SARL_v6eq32tk8x","56f9364e895094000c8f4967","rl","","","img/black_2bandit_a2.png","74","","0","test","","","22","","","-3","square","circle","","0","1","","74","-3","-3","-3","-3","square","1","0"
"null","158089","SARL_v6","SARL_v6eq32tk8x","56f9364e895094000c8f4967","feedback","","","<div class=""verylowPoints_sq""> -3 </div>","null","","na","test","","","NaN","","","","","","","","1","","74","","","","","","1",""
"696.3000000002794","158788","SARL_v6","SARL_v6eq32tk8x","56f9364e895094000c8f4967","freq","","","img/blue_2bandit_a2.png","70","","70","test","1","","23","","","","square","circle","22","1","2","0.6818181818181818","","","","","","","",""
"null","158897","SARL_v6","SARL_v6eq32tk8x","56f9364e895094000c8f4967","freq_resp","","","img/blue_2bandit_a.png","70","img/blue_2bandit_a.png","70","test","","","","","","","","","","","2","","","","","","","","",""
"null","159057","SARL_v6","SARL_v6eq32tk8x","56f9364e895094000c8f4967","fixation","","","img/fixation.png","null","","","test","","","","","","","","","","","","","","","","","","","",""
"753","159812","SARL_v6","SARL_v6eq32tk8x","56f9364e895094000c8f4967","freq","","","img/blue_2bandit_a2.png","70","","70","test","1","","24","","","","square","circle","23","2","2","0.6956521739130435","","","","","","","",""
"null","159865","SARL_v6","SARL_v6eq32tk8x","56f9364e895094000c8f4967","freq_resp","","","img/blue_2bandit_a.png","70","img/blue_2bandit_a.png","70","test","","","","","","","","","","","2","","","","","","","","",""
"null","160024","SARL_v6","SARL_v6eq32tk8x","56f9364e895094000c8f4967","fixation","","","img/fixation.png","null","","","test","","","","","","","","","","","","","","","","","","","",""
"797.2999999998137","160824","SARL_v6","SARL_v6eq32tk8x","56f9364e895094000c8f4967","freq","","","img/blue_2bandit_a2.png","70","","70","test","1","","25","","","","square","circle","24","3","2","0.7083333333333334","","","","","","","",""
"null","160828","SARL_v6","SARL_v6eq32tk8x","56f9364e895094000c8f4967","freq_resp","","","img/blue_2bandit_a.png","70","img/blue_2bandit_a.png","70","test","","","","","","","","","","","2","","","","","","","","",""
"null","160985","SARL_v6","SARL_v6eq32tk8x","56f9364e895094000c8f4967","fixation","","","img/fixation.png","null","","","test","","","","","","","","","","","","","","","","","","","",""
"773.1000000000931","161760","SARL_v6","SARL_v6eq32tk8x","56f9364e895094000c8f4967","freq","","","img/blue_2bandit_a2.png","70","","70","test","1","","26","","","","square","circle","25","4","2","0.72","","","","","","","",""
"null","161793","SARL_v6","SARL_v6eq32tk8x","56f9364e895094000c8f4967","freq_resp","","","img/blue_2bandit_a.png","70","img/blue_2bandit_a.png","70","test","","","","","","","","","","","2","","","","","","","","",""
"null","161948","SARL_v6","SARL_v6eq32tk8x","56f9364e895094000c8f4967","fixation","","","img/fixation.png","null","","","test","","","","","","","","","","","","","","","","","","","",""
"686.2000000001863","162636","SARL_v6","SARL_v6eq32tk8x","56f9364e895094000c8f4967","freq","","","img/blue_2bandit_a2.png","70","","70","test","1","","27","","","","square","circle","26","5","2","0.7307692307692307","","","","","","","",""
"null","162752","SARL_v6","SARL_v6eq32tk8x","56f9364e895094000c8f4967","freq_resp","","","img/blue_2bandit_a.png","70","img/blue_2bandit_a.png","70","test","","","","","","","","","","","2","","","","","","","","",""
"null","162912","SARL_v6","SARL_v6eq32tk8x","56f9364e895094000c8f4967","fixation","","","img/fixation.png","null","","","test","","","","","","","","","","","","","","","","","","","",""
"685.6999999997206","163600","SARL_v6","SARL_v6eq32tk8x","56f9364e895094000c8f4967","freq","","","img/blue_2bandit_a2.png","70","","70","test","1","","28","","","","square","circle","27","6","2","0.7407407407407407","","","","","","","",""
"null","163721","SARL_v6","SARL_v6eq32tk8x","56f9364e895094000c8f4967","freq_resp","","","img/blue_2bandit_a.png","70","img/blue_2bandit_a.png","70","test","","","","","","","","","","","2","","","","","","","","",""
"null","163881","SARL_v6","SARL_v6eq32tk8x","56f9364e895094000c8f4967","fixation","","","img/fixation.png","null","","","test","","","","","","","","","","","","","","","","","","","",""
"658.2000000001863","164541","SARL_v6","SARL_v6eq32tk8x","56f9364e895094000c8f4967","freq","","","img/blue_2bandit_a2.png","70","","70","test","1","","29","","","","square","circle","28","7","2","0.75","","","","","","","",""
"null","164689","SARL_v6","SARL_v6eq32tk8x","56f9364e895094000c8f4967","freq_resp","","","img/blue_2bandit_a.png","70","img/blue_2bandit_a.png","70","test","","","","","","","","","","","2","","","","","","","","",""
"null","164841","SARL_v6","SARL_v6eq32tk8x","56f9364e895094000c8f4967","fixation","","","img/fixation.png","null","","","test","","","","","","","","","","","","","","","","","","","",""
"621.5","165464","SARL_v6","SARL_v6eq32tk8x","56f9364e895094000c8f4967","freq","","","img/blue_2bandit_a2.png","70","","70","test","1","","30","","","","square","circle","29","8","2","0.7586206896551724","","","","","","","",""
"null","165649","SARL_v6","SARL_v6eq32tk8x","56f9364e895094000c8f4967","freq_resp","","","img/blue_2bandit_a.png","70","img/blue_2bandit_a.png","70","test","","","","","","","","","","","2","","","","","","","","",""
"null","165809","SARL_v6","SARL_v6eq32tk8x","56f9364e895094000c8f4967","fixation","","","img/fixation.png","null","","","test","","","","","","","","","","","","","","","","","","","",""
"625.5","166436","SARL_v6","SARL_v6eq32tk8x","56f9364e895094000c8f4967","freq","","","img/blue_2bandit_a2.png","70","","70","test","1","","31","","","","square","circle","30","9","2","0.7666666666666667","","","","","","","",""
"null","166617","SARL_v6","SARL_v6eq32tk8x","56f9364e895094000c8f4967","freq_resp","","","img/blue_2bandit_a.png","70","img/blue_2bandit_a.png","70","test","","","","","","","","","","","2","","","","","","","","",""
"null","166777","SARL_v6","SARL_v6eq32tk8x","56f9364e895094000c8f4967","fixation","","","img/fixation.png","null","","","test","","","","","","","","","","","","","","","","","","","",""
"616.8999999999069","167396","SARL_v6","SARL_v6eq32tk8x","56f9364e895094000c8f4967","infreq","","","img/orange_2bandit_a2.png","68","","68","test","1","","32","","","","square","circle","31","10","2","0.7741935483870968","","","","","","","",""
"null","167585","SARL_v6","SARL_v6eq32tk8x","56f9364e895094000c8f4967","infreq_resp","","","img/orange_2bandit_a.png","68","img/orange_2bandit_a.png","68","test","","","","","","","","","","","2","","","","","","","","",""
"null","167737","SARL_v6","SARL_v6eq32tk8x","56f9364e895094000c8f4967","fixation","","","img/fixation.png","null","","","test","","","","","","","","","","","","","","","","","","","",""
"633.6999999997206","168373","SARL_v6","SARL_v6eq32tk8x","56f9364e895094000c8f4967","freq","","","img/blue_2bandit_a2.png","70","","70","test","1","","33","","","","square","circle","32","11","2","0.78125","","","","","","","",""
"null","168540","SARL_v6","SARL_v6eq32tk8x","56f9364e895094000c8f4967","freq_resp","","","img/blue_2bandit_a.png","70","img/blue_2bandit_a.png","70","test","","","","","","","","","","","2","","","","","","","","",""
"null","168697","SARL_v6","SARL_v6eq32tk8x","56f9364e895094000c8f4967","fixation","","","img/fixation.png","null","","","test","","","","","","","","","","","","","","","","","","","",""
"625.2999999998137","169324","SARL_v6","SARL_v6eq32tk8x","56f9364e895094000c8f4967","freq","","","img/blue_2bandit_a2.png","70","","70","test","1","","34","","","","square","circle","33","12","2","0.7878787878787878","","","","","","","",""
"null","169505","SARL_v6","SARL_v6eq32tk8x","56f9364e895094000c8f4967","freq_resp","","","img/blue_2bandit_a.png","70","img/blue_2bandit_a.png","70","test","","","","","","","","","","","2","","","","","","","","",""
"null","169666","SARL_v6","SARL_v6eq32tk8x","56f9364e895094000c8f4967","fixation","","","img/fixation.png","null","","","test","","","","","","","","","","","","","","","","","","","",""
"573","170240","SARL_v6","SARL_v6eq32tk8x","56f9364e895094000c8f4967","infreq","","","img/orange_2bandit_a2.png","68","","68","test","1","","35","","","","square","circle","34","13","2","0.7941176470588235","","","","","","","",""
"null","170474","SARL_v6","SARL_v6eq32tk8x","56f9364e895094000c8f4967","infreq_resp","","","img/orange_2bandit_a.png","68","img/orange_2bandit_a.png","68","test","","","","","","","","","","","2","","","","","","","","",""
"null","170634","SARL_v6","SARL_v6eq32tk8x","56f9364e895094000c8f4967","fixation","","","img/fixation.png","null","","","test","","","","","","","","","","","","","","","","","","","",""
"597.2000000001863","171233","SARL_v6","SARL_v6eq32tk8x","56f9364e895094000c8f4967","freq","","","img/blue_2bandit_a2.png","70","","70","test","1","","36","","","","square","circle","35","14","2","0.8","","","","","","","",""
"null","171442","SARL_v6","SARL_v6eq32tk8x","56f9364e895094000c8f4967","freq_resp","","","img/blue_2bandit_a.png","70","img/blue_2bandit_a.png","70","test","","","","","","","","","","","2","","","","","","","","",""
"null","171602","SARL_v6","SARL_v6eq32tk8x","56f9364e895094000c8f4967","fixation","","","img/fixation.png","null","","","test","","","","","","","","","","","","","","","","","","","",""
"692.6000000000931","172296","SARL_v6","SARL_v6eq32tk8x","56f9364e895094000c8f4967","freq","","","img/blue_2bandit_a2.png","70","","70","test","1","","37","","","","square","circle","36","15","2","0.8055555555555556","","","","","","","",""
"null","172410","SARL_v6","SARL_v6eq32tk8x","56f9364e895094000c8f4967","freq_resp","","","img/blue_2bandit_a.png","70","img/blue_2bandit_a.png","70","test","","","","","","","","","","","2","","","","","","","","",""
"null","172569","SARL_v6","SARL_v6eq32tk8x","56f9364e895094000c8f4967","fixation","","","img/fixation.png","null","","","test","","","","","","","","","","","","","","","","","","","",""
"749","173320","SARL_v6","SARL_v6eq32tk8x","56f9364e895094000c8f4967","freq","","","img/blue_2bandit_a2.png","70","","70","test","1","","38","","","","square","circle","37","16","2","0.8108108108108109","","","","","","","",""
"null","173378","SARL_v6","SARL_v6eq32tk8x","56f9364e895094000c8f4967","freq_resp","","","img/blue_2bandit_a.png","70","img/blue_2bandit_a.png","70","test","","","","","","","","","","","2","","","","","","","","",""
"null","173538","SARL_v6","SARL_v6eq32tk8x","56f9364e895094000c8f4967","fixation","","","img/fixation.png","null","","","test","","","","","","","","","","","","","","","","","","","",""
"703.7000000001863","174244","SARL_v6","SARL_v6eq32tk8x","56f9364e895094000c8f4967","freq","","","img/blue_2bandit_a2.png","70","","70","test","1","","39","","","","square","circle","38","17","2","0.8157894736842105","","","","","","","",""
"null","174346","SARL_v6","SARL_v6eq32tk8x","56f9364e895094000c8f4967","freq_resp","","","img/blue_2bandit_a.png","70","img/blue_2bandit_a.png","70","test","","","","","","","","","","","2","","","","","","","","",""
"null","174505","SARL_v6","SARL_v6eq32tk8x","56f9364e895094000c8f4967","fixation","","","img/fixation.png","null","","","test","","","","","","","","","","","","","","","","","","","",""
"704.9000000003725","175213","SARL_v6","SARL_v6eq32tk8x","56f9364e895094000c8f4967","freq","","","img/blue_2bandit_a2.png","70","","70","test","1","","40","","","","square","circle","39","18","2","0.8205128205128205","","","","","","","",""
"null","175314","SARL_v6","SARL_v6eq32tk8x","56f9364e895094000c8f4967","freq_resp","","","img/blue_2bandit_a.png","70","img/blue_2bandit_a.png","70","test","","","","","","","","","","","2","","","","","","","","",""
"null","175467","SARL_v6","SARL_v6eq32tk8x","56f9364e895094000c8f4967","fixation","","","img/fixation.png","null","","","test","","","","","","","","","","","","","","","","","","","",""
"634.5","176104","SARL_v6","SARL_v6eq32tk8x","56f9364e895094000c8f4967","infreq","","","img/orange_2bandit_a2.png","68","","68","test","1","","41","","","","square","circle","40","19","2","0.825","","","","","","","",""
"null","176274","SARL_v6","SARL_v6eq32tk8x","56f9364e895094000c8f4967","infreq_resp","","","img/orange_2bandit_a.png","68","img/orange_2bandit_a.png","68","test","","","","","","","","","","","2","","","","","","","","",""
"null","176434","SARL_v6","SARL_v6eq32tk8x","56f9364e895094000c8f4967","fixation","","","img/fixation.png","null","","","test","","","","","","","","","","","","","","","","","","","",""
"620","177056","SARL_v6","SARL_v6eq32tk8x","56f9364e895094000c8f4967","freq","","","img/blue_2bandit_a2.png","70","","70","test","1","","42","","","","square","circle","41","20","2","0.8292682926829268","","","","","","","",""
"null","177242","SARL_v6","SARL_v6eq32tk8x","56f9364e895094000c8f4967","freq_resp","","","img/blue_2bandit_a.png","70","img/blue_2bandit_a.png","70","test","","","","","","","","","","","2","","","","","","","","",""
"null","177402","SARL_v6","SARL_v6eq32tk8x","56f9364e895094000c8f4967","fixation","","","img/fixation.png","null","","","test","","","","","","","","","","","","","","","","","","","",""
"null","178210","SARL_v6","SARL_v6eq32tk8x","56f9364e895094000c8f4967","freq","","","img/blue_2bandit_a2.png","null","","70","test","0","","43","","","","square","circle","42","21","2","0.8095238095238095","","","","","","","",""
"null","178369","SARL_v6","SARL_v6eq32tk8x","56f9364e895094000c8f4967","fixation","","","img/fixation.png","null","","","test","","","","","","","","","","","","","","","","","","","",""
"760.5","179133","SARL_v6","SARL_v6eq32tk8x","56f9364e895094000c8f4967","freq","","","img/blue_2bandit_a2.png","70","","70","test","1","","44","","","","square","circle","43","22","2","0.813953488372093","","","","","","","",""
"null","179178","SARL_v6","SARL_v6eq32tk8x","56f9364e895094000c8f4967","freq_resp","","","img/blue_2bandit_a.png","70","img/blue_2bandit_a.png","70","test","","","","","","","","","","","2","","","","","","","","",""
"null","179338","SARL_v6","SARL_v6eq32tk8x","56f9364e895094000c8f4967","fixation","","","img/fixation.png","null","","","test","","","","","","","","","","","","","","","","","","","",""
"732.2000000001863","180073","SARL_v6","SARL_v6eq32tk8x","56f9364e895094000c8f4967","freq","","","img/blue_2bandit_a2.png","70","","70","test","1","","45","","","","square","circle","44","23","2","0.8181818181818182","","","","","","","",""
"null","180146","SARL_v6","SARL_v6eq32tk8x","56f9364e895094000c8f4967","freq_resp","","","img/blue_2bandit_a.png","70","img/blue_2bandit_a.png","70","test","","","","","","","","","","","2","","","","","","","","",""
"null","180306","SARL_v6","SARL_v6eq32tk8x","56f9364e895094000c8f4967","fixation","","","img/fixation.png","null","","","test","","","","","","","","","","","","","","","","","","","",""
"770.8000000002794","181079","SARL_v6","SARL_v6eq32tk8x","56f9364e895094000c8f4967","freq","","","img/blue_2bandit_a2.png","70","","70","test","1","","46","","","","square","circle","45","24","2","0.8222222222222222","","","","","","","",""
"null","181114","SARL_v6","SARL_v6eq32tk8x","56f9364e895094000c8f4967","freq_resp","","","img/blue_2bandit_a.png","70","img/blue_2bandit_a.png","70","test","","","","","","","","","","","2","","","","","","","","",""
"null","181274","SARL_v6","SARL_v6eq32tk8x","56f9364e895094000c8f4967","fixation","","","img/fixation.png","null","","","test","","","","","","","","","","","","","","","","","","","",""
"736.1000000000931","182012","SARL_v6","SARL_v6eq32tk8x","56f9364e895094000c8f4967","freq","","","img/blue_2bandit_a2.png","70","","70","test","1","","47","","","","square","circle","46","25","2","0.8260869565217391","","","","","","","",""
"null","182082","SARL_v6","SARL_v6eq32tk8x","56f9364e895094000c8f4967","freq_resp","","","img/blue_2bandit_a.png","70","img/blue_2bandit_a.png","70","test","","","","","","","","","","","2","","","","","","","","",""
"null","182242","SARL_v6","SARL_v6eq32tk8x","56f9364e895094000c8f4967","fixation","","","img/fixation.png","null","","","test","","","","","","","","","","","","","","","","","","","",""
"708","182952","SARL_v6","SARL_v6eq32tk8x","56f9364e895094000c8f4967","rl","","","img/black_2bandit_a2.png","74","","0","test","","","48","","","-5","square","circle","","0","2","","74","-8","-5","-5","-8","square","2","0"
"null","183705","SARL_v6","SARL_v6eq32tk8x","56f9364e895094000c8f4967","feedback","","","<div class=""verylowPoints_sq""> -5 </div>","null","","na","test","","","NaN","","","","","","","","2","","74","","","","","","2",""
"764","184471","SARL_v6","SARL_v6eq32tk8x","56f9364e895094000c8f4967","freq","","","img/blue_2bandit_a2.png","70","","70","test","1","","49","","","","square","circle","47","1","3","0.8297872340425532","","","","","","","",""
"null","184513","SARL_v6","SARL_v6eq32tk8x","56f9364e895094000c8f4967","freq_resp","","","img/blue_2bandit_a.png","70","img/blue_2bandit_a.png","70","test","","","","","","","","","","","3","","","","","","","","",""
"null","184665","SARL_v6","SARL_v6eq32tk8x","56f9364e895094000c8f4967","fixation","","","img/fixation.png","null","","","test","","","","","","","","","","","","","","","","","","","",""
"804.5","185471","SARL_v6","SARL_v6eq32tk8x","56f9364e895094000c8f4967","freq","","","img/blue_2bandit_a2.png","70","","70","test","1","","50","","","","square","circle","48","2","3","0.8333333333333334","","","","","","","",""
"null","185625","SARL_v6","SARL_v6eq32tk8x","56f9364e895094000c8f4967","fixation","","","img/fixation.png","null","","","test","","","","","","","","","","","","","","","","","","","",""
"736.3999999999069","186363","SARL_v6","SARL_v6eq32tk8x","56f9364e895094000c8f4967","freq","","","img/blue_2bandit_a2.png","70","","70","test","1","","51","","","","square","circle","49","3","3","0.8367346938775511","","","","","","","",""
"null","186433","SARL_v6","SARL_v6eq32tk8x","56f9364e895094000c8f4967","freq_resp","","","img/blue_2bandit_a.png","70","img/blue_2bandit_a.png","70","test","","","","","","","","","","","3","","","","","","","","",""
"null","186585","SARL_v6","SARL_v6eq32tk8x","56f9364e895094000c8f4967","fixation","","","img/fixation.png","null","","","test","","","","","","","","","","","","","","","","","","","",""
"799.3999999999069","187386","SARL_v6","SARL_v6eq32tk8x","56f9364e895094000c8f4967","freq","","","img/blue_2bandit_a2.png","70","","70","test","1","","52","","","","square","circle","50","4","3","0.84","","","","","","","",""
"null","187389","SARL_v6","SARL_v6eq32tk8x","56f9364e895094000c8f4967","freq_resp","","","img/blue_2bandit_a.png","70","img/blue_2bandit_a.png","70","test","","","","","","","","","","","3","","","","","","","","",""
"null","187545","SARL_v6","SARL_v6eq32tk8x","56f9364e895094000c8f4967","fixation","","","img/fixation.png","null","","","test","","","","","","","","","","","","","","","","","","","",""
"724","188271","SARL_v6","SARL_v6eq32tk8x","56f9364e895094000c8f4967","infreq","","","img/orange_2bandit_a2.png","68","","68","test","1","","53","","","","square","circle","51","5","3","0.8431372549019608","","","","","","","",""
"null","188353","SARL_v6","SARL_v6eq32tk8x","56f9364e895094000c8f4967","infreq_resp","","","img/orange_2bandit_a.png","68","img/orange_2bandit_a.png","68","test","","","","","","","","","","","3","","","","","","","","",""
"null","188513","SARL_v6","SARL_v6eq32tk8x","56f9364e895094000c8f4967","fixation","","","img/fixation.png","null","","","test","","","","","","","","","","","","","","","","","","","",""
"604","189119","SARL_v6","SARL_v6eq32tk8x","56f9364e895094000c8f4967","freq","","","img/blue_2bandit_a2.png","70","","70","test","1","","54","","","","square","circle","52","6","3","0.8461538461538461","","","","","","","",""
"null","189321","SARL_v6","SARL_v6eq32tk8x","56f9364e895094000c8f4967","freq_resp","","","img/blue_2bandit_a.png","70","img/blue_2bandit_a.png","70","test","","","","","","","","","","","3","","","","","","","","",""
"null","189481","SARL_v6","SARL_v6eq32tk8x","56f9364e895094000c8f4967","fixation","","","img/fixation.png","null","","","test","","","","","","","","","","","","","","","","","","","",""
"568","190051","SARL_v6","SARL_v6eq32tk8x","56f9364e895094000c8f4967","freq","","","img/blue_2bandit_a2.png","70","","70","test","1","","55","","","","square","circle","53","7","3","0.8490566037735849","","","","","","","",""
"null","190289","SARL_v6","SARL_v6eq32tk8x","56f9364e895094000c8f4967","freq_resp","","","img/blue_2bandit_a.png","70","img/blue_2bandit_a.png","70","test","","","","","","","","","","","3","","","","","","","","",""
"null","190447","SARL_v6","SARL_v6eq32tk8x","56f9364e895094000c8f4967","fixation","","","img/fixation.png","null","","","test","","","","","","","","","","","","","","","","","","","",""
"573.7000000001863","191023","SARL_v6","SARL_v6eq32tk8x","56f9364e895094000c8f4967","freq","","","img/blue_2bandit_a2.png","70","","70","test","1","","56","","","","square","circle","54","8","3","0.8518518518518519","","","","","","","",""
"null","191257","SARL_v6","SARL_v6eq32tk8x","56f9364e895094000c8f4967","freq_resp","","","img/blue_2bandit_a.png","70","img/blue_2bandit_a.png","70","test","","","","","","","","","","","3","","","","","","","","",""
"null","191409","SARL_v6","SARL_v6eq32tk8x","56f9364e895094000c8f4967","fixation","","","img/fixation.png","null","","","test","","","","","","","","","","","","","","","","","","","",""
"651.7000000001863","192063","SARL_v6","SARL_v6eq32tk8x","56f9364e895094000c8f4967","freq","","","img/blue_2bandit_a2.png","70","","70","test","1","","57","","","","square","circle","55","9","3","0.8545454545454545","","","","","","","",""
"null","192217","SARL_v6","SARL_v6eq32tk8x","56f9364e895094000c8f4967","freq_resp","","","img/blue_2bandit_a.png","70","img/blue_2bandit_a.png","70","test","","","","","","","","","","","3","","","","","","","","",""
"null","192377","SARL_v6","SARL_v6eq32tk8x","56f9364e895094000c8f4967","fixation","","","img/fixation.png","null","","","test","","","","","","","","","","","","","","","","","","","",""
"602.7000000001863","192982","SARL_v6","SARL_v6eq32tk8x","56f9364e895094000c8f4967","freq","","","img/blue_2bandit_a2.png","70","","70","test","1","","58","","","","square","circle","56","10","3","0.8571428571428571","","","","","","","",""
"null","193185","SARL_v6","SARL_v6eq32tk8x","56f9364e895094000c8f4967","freq_resp","","","img/blue_2bandit_a.png","70","img/blue_2bandit_a.png","70","test","","","","","","","","","","","3","","","","","","","","",""
"null","193345","SARL_v6","SARL_v6eq32tk8x","56f9364e895094000c8f4967","fixation","","","img/fixation.png","null","","","test","","","","","","","","","","","","","","","","","","","",""
"526.8999999999069","193874","SARL_v6","SARL_v6eq32tk8x","56f9364e895094000c8f4967","infreq","","","img/orange_2bandit_a2.png","68","","68","test","1","","59","","","","square","circle","57","11","3","0.8596491228070176","","","","","","","",""
"null","194153","SARL_v6","SARL_v6eq32tk8x","56f9364e895094000c8f4967","infreq_resp","","","img/orange_2bandit_a.png","68","img/orange_2bandit_a.png","68","test","","","","","","","","","","","3","","","","","","","","",""
"null","194313","SARL_v6","SARL_v6eq32tk8x","56f9364e895094000c8f4967","fixation","","","img/fixation.png","null","","","test","","","","","","","","","","","","","","","","","","","",""
"519.7000000001863","194835","SARL_v6","SARL_v6eq32tk8x","56f9364e895094000c8f4967","freq","","","img/blue_2bandit_a2.png","70","","70","test","1","","60","","","","square","circle","58","12","3","0.8620689655172413","","","","","","","",""
"null","195121","SARL_v6","SARL_v6eq32tk8x","56f9364e895094000c8f4967","freq_resp","","","img/blue_2bandit_a.png","70","img/blue_2bandit_a.png","70","test","","","","","","","","","","","3","","","","","","","","",""
"null","195281","SARL_v6","SARL_v6eq32tk8x","56f9364e895094000c8f4967","fixation","","","img/fixation.png","null","","","test","","","","","","","","","","","","","","","","","","","",""
"720.1000000000931","196003","SARL_v6","SARL_v6eq32tk8x","56f9364e895094000c8f4967","freq","","","img/blue_2bandit_a2.png","70","","70","test","1","","61","","","","square","circle","59","13","3","0.864406779661017","","","","","","","",""
"null","196089","SARL_v6","SARL_v6eq32tk8x","56f9364e895094000c8f4967","freq_resp","","","img/blue_2bandit_a.png","70","img/blue_2bandit_a.png","70","test","","","","","","","","","","","3","","","","","","","","",""
"null","196250","SARL_v6","SARL_v6eq32tk8x","56f9364e895094000c8f4967","fixation","","","img/fixation.png","null","","","test","","","","","","","","","","","","","","","","","","","",""
"687.3999999999069","196938","SARL_v6","SARL_v6eq32tk8x","56f9364e895094000c8f4967","freq","","","img/blue_2bandit_a2.png","70","","70","test","1","","62","","","","square","circle","60","14","3","0.8666666666666667","","","","","","","",""
"null","197057","SARL_v6","SARL_v6eq32tk8x","56f9364e895094000c8f4967","freq_resp","","","img/blue_2bandit_a.png","70","img/blue_2bandit_a.png","70","test","","","","","","","","","","","3","","","","","","","","",""
"null","197217","SARL_v6","SARL_v6eq32tk8x","56f9364e895094000c8f4967","fixation","","","img/fixation.png","null","","","test","","","","","","","","","","","","","","","","","","","",""
"671.7999999998137","197891","SARL_v6","SARL_v6eq32tk8x","56f9364e895094000c8f4967","freq","","","img/blue_2bandit_a2.png","70","","70","test","1","","63","","","","square","circle","61","15","3","0.8688524590163934","","","","","","","",""
"null","198026","SARL_v6","SARL_v6eq32tk8x","56f9364e895094000c8f4967","freq_resp","","","img/blue_2bandit_a.png","70","img/blue_2bandit_a.png","70","test","","","","","","","","","","","3","","","","","","","","",""
"null","198185","SARL_v6","SARL_v6eq32tk8x","56f9364e895094000c8f4967","fixation","","","img/fixation.png","null","","","test","","","","","","","","","","","","","","","","","","","",""
"619.3000000002794","198807","SARL_v6","SARL_v6eq32tk8x","56f9364e895094000c8f4967","freq","","","img/blue_2bandit_a2.png","70","","70","test","1","","64","","","","square","circle","62","16","3","0.8709677419354839","","","","","","","",""
"null","198994","SARL_v6","SARL_v6eq32tk8x","56f9364e895094000c8f4967","freq_resp","","","img/blue_2bandit_a.png","70","img/blue_2bandit_a.png","70","test","","","","","","","","","","","3","","","","","","","","",""
"null","199154","SARL_v6","SARL_v6eq32tk8x","56f9364e895094000c8f4967","fixation","","","img/fixation.png","null","","","test","","","","","","","","","","","","","","","","","","","",""
"622.8999999999069","199779","SARL_v6","SARL_v6eq32tk8x","56f9364e895094000c8f4967","freq","","","img/blue_2bandit_a2.png","70","","70","test","1","","65","","","","square","circle","63","17","3","0.873015873015873","","","","","","","",""
"null","199959","SARL_v6","SARL_v6eq32tk8x","56f9364e895094000c8f4967","freq_resp","","","img/blue_2bandit_a.png","70","img/blue_2bandit_a.png","70","test","","","","","","","","","","","3","","","","","","","","",""
"null","200114","SARL_v6","SARL_v6eq32tk8x","56f9364e895094000c8f4967","fixation","","","img/fixation.png","null","","","test","","","","","","","","","","","","","","","","","","","",""
"627.6000000000931","200743","SARL_v6","SARL_v6eq32tk8x","56f9364e895094000c8f4967","freq","","","img/blue_2bandit_a2.png","70","","70","test","1","","66","","","","square","circle","64","18","3","0.875","","","","","","","",""
"null","200922","SARL_v6","SARL_v6eq32tk8x","56f9364e895094000c8f4967","freq_resp","","","img/blue_2bandit_a.png","70","img/blue_2bandit_a.png","70","test","","","","","","","","","","","3","","","","","","","","",""
"null","201082","SARL_v6","SARL_v6eq32tk8x","56f9364e895094000c8f4967","fixation","","","img/fixation.png","null","","","test","","","","","","","","","","","","","","","","","","","",""
"583.1999999997206","201667","SARL_v6","SARL_v6eq32tk8x","56f9364e895094000c8f4967","freq","","","img/blue_2bandit_a2.png","70","","70","test","1","","67","","","","square","circle","65","19","3","0.8769230769230769","","","","","","","",""
"null","201890","SARL_v6","SARL_v6eq32tk8x","56f9364e895094000c8f4967","freq_resp","","","img/blue_2bandit_a.png","70","img/blue_2bandit_a.png","70","test","","","","","","","","","","","3","","","","","","","","",""
"null","202050","SARL_v6","SARL_v6eq32tk8x","56f9364e895094000c8f4967","fixation","","","img/fixation.png","null","","","test","","","","","","","","","","","","","","","","","","","",""
"630.2999999998137","202682","SARL_v6","SARL_v6eq32tk8x","56f9364e895094000c8f4967","freq","","","img/blue_2bandit_a2.png","70","","70","test","1","","68","","","","square","circle","66","20","3","0.8787878787878788","","","","","","","",""
"null","202858","SARL_v6","SARL_v6eq32tk8x","56f9364e895094000c8f4967","freq_resp","","","img/blue_2bandit_a.png","70","img/blue_2bandit_a.png","70","test","","","","","","","","","","","3","","","","","","","","",""
"null","203018","SARL_v6","SARL_v6eq32tk8x","56f9364e895094000c8f4967","fixation","","","img/fixation.png","null","","","test","","","","","","","","","","","","","","","","","","","",""
"934.9000000003725","203954","SARL_v6","SARL_v6eq32tk8x","56f9364e895094000c8f4967","rl","","","img/black_2bandit_a2.png","74","","0","test","","","69","","","-4","square","circle","","0","3","","74","-8","-4","-4","-8","square","3","0"
"null","204714","SARL_v6","SARL_v6eq32tk8x","56f9364e895094000c8f4967","feedback","","","<div class=""verylowPoints_sq""> -4 </div>","null","","na","test","","","NaN","","","","","","","","3","","74","","","","","","3",""
"435","205150","SARL_v6","SARL_v6eq32tk8x","56f9364e895094000c8f4967","freq","","","img/blue_2bandit_a2.png","70","","70","test","1","","70","","","","square","circle","67","1","4","0.8805970149253731","","","","","","","",""
"null","205521","SARL_v6","SARL_v6eq32tk8x","56f9364e895094000c8f4967","freq_resp","","","img/blue_2bandit_a.png","70","img/blue_2bandit_a.png","70","test","","","","","","","","","","","4","","","","","","","","",""
"null","205674","SARL_v6","SARL_v6eq32tk8x","56f9364e895094000c8f4967","fixation","","","img/fixation.png","null","","","test","","","","","","","","","","","","","","","","","","","",""
"491.39999999990687","206167","SARL_v6","SARL_v6eq32tk8x","56f9364e895094000c8f4967","freq","","","img/blue_2bandit_a2.png","70","","70","test","1","","71","","","","square","circle","68","2","4","0.8823529411764706","","","","","","","",""
"null","206482","SARL_v6","SARL_v6eq32tk8x","56f9364e895094000c8f4967","freq_resp","","","img/blue_2bandit_a.png","70","img/blue_2bandit_a.png","70","test","","","","","","","","","","","4","","","","","","","","",""
"null","206641","SARL_v6","SARL_v6eq32tk8x","56f9364e895094000c8f4967","fixation","","","img/fixation.png","null","","","test","","","","","","","","","","","","","","","","","","","",""
"603.1000000000931","207246","SARL_v6","SARL_v6eq32tk8x","56f9364e895094000c8f4967","freq","","","img/blue_2bandit_a2.png","70","","70","test","1","","72","","","","square","circle","69","3","4","0.8840579710144928","","","","","","","",""
"null","207449","SARL_v6","SARL_v6eq32tk8x","56f9364e895094000c8f4967","freq_resp","","","img/blue_2bandit_a.png","70","img/blue_2bandit_a.png","70","test","","","","","","","","","","","4","","","","","","","","",""
"null","207601","SARL_v6","SARL_v6eq32tk8x","56f9364e895094000c8f4967","fixation","","","img/fixation.png","null","","","test","","","","","","","","","","","","","","","","","","","",""
"723.6000000000931","208326","SARL_v6","SARL_v6eq32tk8x","56f9364e895094000c8f4967","freq","","","img/blue_2bandit_a2.png","70","","70","test","1","","73","","","","square","circle","70","4","4","0.8857142857142857","","","","","","","",""
"null","208409","SARL_v6","SARL_v6eq32tk8x","56f9364e895094000c8f4967","freq_resp","","","img/blue_2bandit_a.png","70","img/blue_2bandit_a.png","70","test","","","","","","","","","","","4","","","","","","","","",""
"null","208569","SARL_v6","SARL_v6eq32tk8x","56f9364e895094000c8f4967","fixation","","","img/fixation.png","null","","","test","","","","","","","","","","","","","","","","","","","",""
"null","209378","SARL_v6","SARL_v6eq32tk8x","56f9364e895094000c8f4967","freq","","","img/blue_2bandit_a2.png","null","","70","test","0","","74","","","","square","circle","71","5","4","0.8732394366197183","","","","","","","",""
"null","209537","SARL_v6","SARL_v6eq32tk8x","56f9364e895094000c8f4967","fixation","","","img/fixation.png","null","","","test","","","","","","","","","","","","","","","","","","","",""
"null","210345","SARL_v6","SARL_v6eq32tk8x","56f9364e895094000c8f4967","freq","","","img/blue_2bandit_a2.png","null","","70","test","0","","75","","","","square","circle","72","6","4","0.8611111111111112","","","","","","","",""
"null","210505","SARL_v6","SARL_v6eq32tk8x","56f9364e895094000c8f4967","fixation","","","img/fixation.png","null","","","test","","","","","","","","","","","","","","","","","","","",""
"539.5","211047","SARL_v6","SARL_v6eq32tk8x","56f9364e895094000c8f4967","infreq","","","img/orange_2bandit_a2.png","68","","68","test","1","","76","","","","square","circle","73","7","4","0.863013698630137","","","","","","","",""
"null","211313","SARL_v6","SARL_v6eq32tk8x","56f9364e895094000c8f4967","infreq_resp","","","img/orange_2bandit_a.png","68","img/orange_2bandit_a.png","68","test","","","","","","","","","","","4","","","","","","","","",""
"null","211465","SARL_v6","SARL_v6eq32tk8x","56f9364e895094000c8f4967","fixation","","","img/fixation.png","null","","","test","","","","","","","","","","","","","","","","","","","",""
"527","211994","SARL_v6","SARL_v6eq32tk8x","56f9364e895094000c8f4967","freq","","","img/blue_2bandit_a2.png","70","","70","test","1","","77","","","","square","circle","74","8","4","0.8648648648648649","","","","","","","",""
"null","212273","SARL_v6","SARL_v6eq32tk8x","56f9364e895094000c8f4967","freq_resp","","","img/blue_2bandit_a.png","70","img/blue_2bandit_a.png","70","test","","","","","","","","","","","4","","","","","","","","",""
"null","212433","SARL_v6","SARL_v6eq32tk8x","56f9364e895094000c8f4967","fixation","","","img/fixation.png","null","","","test","","","","","","","","","","","","","","","","","","","",""
"495.39999999990687","212930","SARL_v6","SARL_v6eq32tk8x","56f9364e895094000c8f4967","freq","","","img/blue_2bandit_a2.png","70","","70","test","1","","78","","","","square","circle","75","9","4","0.8666666666666667","","","","","","","",""
"null","213241","SARL_v6","SARL_v6eq32tk8x","56f9364e895094000c8f4967","freq_resp","","","img/blue_2bandit_a.png","70","img/blue_2bandit_a.png","70","test","","","","","","","","","","","4","","","","","","","","",""
"null","213401","SARL_v6","SARL_v6eq32tk8x","56f9364e895094000c8f4967","fixation","","","img/fixation.png","null","","","test","","","","","","","","","","","","","","","","","","","",""
"483.5","213887","SARL_v6","SARL_v6eq32tk8x","56f9364e895094000c8f4967","freq","","","img/blue_2bandit_a2.png","70","","70","test","1","","79","","","","square","circle","76","10","4","0.868421052631579","","","","","","","",""
"null","214210","SARL_v6","SARL_v6eq32tk8x","56f9364e895094000c8f4967","freq_resp","","","img/blue_2bandit_a.png","70","img/blue_2bandit_a.png","70","test","","","","","","","","","","","4","","","","","","","","",""
"null","214369","SARL_v6","SARL_v6eq32tk8x","56f9364e895094000c8f4967","fixation","","","img/fixation.png","null","","","test","","","","","","","","","","","","","","","","","","","",""
"495","214866","SARL_v6","SARL_v6eq32tk8x","56f9364e895094000c8f4967","freq","","","img/blue_2bandit_a2.png","70","","70","test","1","","80","","","","square","circle","77","11","4","0.8701298701298701","","","","","","","",""
"null","215178","SARL_v6","SARL_v6eq32tk8x","56f9364e895094000c8f4967","freq_resp","","","img/blue_2bandit_a.png","70","img/blue_2bandit_a.png","70","test","","","","","","","","","","","4","","","","","","","","",""
"null","215337","SARL_v6","SARL_v6eq32tk8x","56f9364e895094000c8f4967","fixation","","","img/fixation.png","null","","","test","","","","","","","","","","","","","","","","","","","",""
"442.59999999962747","215782","SARL_v6","SARL_v6eq32tk8x","56f9364e895094000c8f4967","freq","","","img/blue_2bandit_a2.png","70","","70","test","1","","81","","","","square","circle","78","12","4","0.8717948717948718","","","","","","","",""
"null","216145","SARL_v6","SARL_v6eq32tk8x","56f9364e895094000c8f4967","freq_resp","","","img/blue_2bandit_a.png","70","img/blue_2bandit_a.png","70","test","","","","","","","","","","","4","","","","","","","","",""
"null","216305","SARL_v6","SARL_v6eq32tk8x","56f9364e895094000c8f4967","fixation","","","img/fixation.png","null","","","test","","","","","","","","","","","","","","","","","","","",""
"431","216739","SARL_v6","SARL_v6eq32tk8x","56f9364e895094000c8f4967","freq","","","img/blue_2bandit_a2.png","70","","70","test","1","","82","","","","square","circle","79","13","4","0.8734177215189873","","","","","","","",""
"null","217113","SARL_v6","SARL_v6eq32tk8x","56f9364e895094000c8f4967","freq_resp","","","img/blue_2bandit_a.png","70","img/blue_2bandit_a.png","70","test","","","","","","","","","","","4","","","","","","","","",""
"null","217274","SARL_v6","SARL_v6eq32tk8x","56f9364e895094000c8f4967","fixation","","","img/fixation.png","null","","","test","","","","","","","","","","","","","","","","","","","",""
"482.79999999981374","217759","SARL_v6","SARL_v6eq32tk8x","56f9364e895094000c8f4967","infreq","","","img/orange_2bandit_a2.png","68","","68","test","1","","83","","","","square","circle","80","14","4","0.875","","","","","","","",""
"null","218081","SARL_v6","SARL_v6eq32tk8x","56f9364e895094000c8f4967","infreq_resp","","","img/orange_2bandit_a.png","68","img/orange_2bandit_a.png","68","test","","","","","","","","","","","4","","","","","","","","",""
"null","218242","SARL_v6","SARL_v6eq32tk8x","56f9364e895094000c8f4967","fixation","","","img/fixation.png","null","","","test","","","","","","","","","","","","","","","","","","","",""
"466.5","218710","SARL_v6","SARL_v6eq32tk8x","56f9364e895094000c8f4967","freq","","","img/blue_2bandit_a2.png","70","","70","test","1","","84","","","","square","circle","81","15","4","0.8765432098765432","","","","","","","",""
"null","219049","SARL_v6","SARL_v6eq32tk8x","56f9364e895094000c8f4967","freq_resp","","","img/blue_2bandit_a.png","70","img/blue_2bandit_a.png","70","test","","","","","","","","","","","4","","","","","","","","",""
"null","219210","SARL_v6","SARL_v6eq32tk8x","56f9364e895094000c8f4967","fixation","","","img/fixation.png","null","","","test","","","","","","","","","","","","","","","","","","","",""
"526.7000000001863","219738","SARL_v6","SARL_v6eq32tk8x","56f9364e895094000c8f4967","freq","","","img/blue_2bandit_a2.png","70","","70","test","1","","85","","","","square","circle","82","16","4","0.8780487804878049","","","","","","","",""
"null","220017","SARL_v6","SARL_v6eq32tk8x","56f9364e895094000c8f4967","freq_resp","","","img/blue_2bandit_a.png","70","img/blue_2bandit_a.png","70","test","","","","","","","","","","","4","","","","","","","","",""
"null","220179","SARL_v6","SARL_v6eq32tk8x","56f9364e895094000c8f4967","fixation","","","img/fixation.png","null","","","test","","","","","","","","","","","","","","","","","","","",""
"541.2999999998137","220723","SARL_v6","SARL_v6eq32tk8x","56f9364e895094000c8f4967","freq","","","img/blue_2bandit_a2.png","70","","70","test","1","","86","","","","square","circle","83","17","4","0.8795180722891566","","","","","","","",""
"null","220986","SARL_v6","SARL_v6eq32tk8x","56f9364e895094000c8f4967","freq_resp","","","img/blue_2bandit_a.png","70","img/blue_2bandit_a.png","70","test","","","","","","","","","","","4","","","","","","","","",""
"null","221145","SARL_v6","SARL_v6eq32tk8x","56f9364e895094000c8f4967","fixation","","","img/fixation.png","null","","","test","","","","","","","","","","","","","","","","","","","",""
"582.5","221730","SARL_v6","SARL_v6eq32tk8x","56f9364e895094000c8f4967","freq","","","img/blue_2bandit_a2.png","70","","70","test","1","","87","","","","square","circle","84","18","4","0.8809523809523809","","","","","","","",""
"null","221953","SARL_v6","SARL_v6eq32tk8x","56f9364e895094000c8f4967","freq_resp","","","img/blue_2bandit_a.png","70","img/blue_2bandit_a.png","70","test","","","","","","","","","","","4","","","","","","","","",""
"null","222113","SARL_v6","SARL_v6eq32tk8x","56f9364e895094000c8f4967","fixation","","","img/fixation.png","null","","","test","","","","","","","","","","","","","","","","","","","",""
"556.7000000001863","222673","SARL_v6","SARL_v6eq32tk8x","56f9364e895094000c8f4967","freq","","","img/blue_2bandit_a2.png","70","","70","test","1","","88","","","","square","circle","85","19","4","0.8823529411764706","","","","","","","",""
"null","222921","SARL_v6","SARL_v6eq32tk8x","56f9364e895094000c8f4967","freq_resp","","","img/blue_2bandit_a.png","70","img/blue_2bandit_a.png","70","test","","","","","","","","","","","4","","","","","","","","",""
"null","223081","SARL_v6","SARL_v6eq32tk8x","56f9364e895094000c8f4967","fixation","","","img/fixation.png","null","","","test","","","","","","","","","","","","","","","","","","","",""
"582.6000000000931","223666","SARL_v6","SARL_v6eq32tk8x","56f9364e895094000c8f4967","freq","","","img/blue_2bandit_a2.png","70","","70","test","1","","89","","","","square","circle","86","20","4","0.8837209302325582","","","","","","","",""
"null","223891","SARL_v6","SARL_v6eq32tk8x","56f9364e895094000c8f4967","freq_resp","","","img/blue_2bandit_a.png","70","img/blue_2bandit_a.png","70","test","","","","","","","","","","","4","","","","","","","","",""
"null","224050","SARL_v6","SARL_v6eq32tk8x","56f9364e895094000c8f4967","fixation","","","img/fixation.png","null","","","test","","","","","","","","","","","","","","","","","","","",""
"554.1000000000931","224606","SARL_v6","SARL_v6eq32tk8x","56f9364e895094000c8f4967","rl","","","img/black_2bandit_a2.png","74","","0","test","","","90","","","0","square","circle","","0","4","","74","-12","0","0","-12","square","4","0"
"null","225363","SARL_v6","SARL_v6eq32tk8x","56f9364e895094000c8f4967","feedback","","","<div class=""verylowPoints_sq""> 0 </div>","null","","na","test","","","NaN","","","","","","","","4","","74","","","","","","4",""
"362.09999999962747","225727","SARL_v6","SARL_v6eq32tk8x","56f9364e895094000c8f4967","freq","","","img/blue_2bandit_a2.png","70","","70","test","1","","91","","","","square","circle","87","1","5","0.8850574712643678","","","","","","","",""
"null","226171","SARL_v6","SARL_v6eq32tk8x","56f9364e895094000c8f4967","freq_resp","","","img/blue_2bandit_a.png","70","img/blue_2bandit_a.png","70","test","","","","","","","","","","","5","","","","","","","","",""
"null","226331","SARL_v6","SARL_v6eq32tk8x","56f9364e895094000c8f4967","fixation","","","img/fixation.png","null","","","test","","","","","","","","","","","","","","","","","","","",""
"435.10000000009313","226768","SARL_v6","SARL_v6eq32tk8x","56f9364e895094000c8f4967","freq","","","img/blue_2bandit_a2.png","70","","70","test","1","","92","","","","square","circle","88","2","5","0.8863636363636364","","","","","","","",""
"null","227139","SARL_v6","SARL_v6eq32tk8x","56f9364e895094000c8f4967","freq_resp","","","img/blue_2bandit_a.png","70","img/blue_2bandit_a.png","70","test","","","","","","","","","","","5","","","","","","","","",""
"null","227299","SARL_v6","SARL_v6eq32tk8x","56f9364e895094000c8f4967","fixation","","","img/fixation.png","null","","","test","","","","","","","","","","","","","","","","","","","",""
"470.70000000018626","227771","SARL_v6","SARL_v6eq32tk8x","56f9364e895094000c8f4967","freq","","","img/blue_2bandit_a2.png","70","","70","test","1","","93","","","","square","circle","89","3","5","0.8876404494382022","","","","","","","",""
"null","228107","SARL_v6","SARL_v6eq32tk8x","56f9364e895094000c8f4967","freq_resp","","","img/blue_2bandit_a.png","70","img/blue_2bandit_a.png","70","test","","","","","","","","","","","5","","","","","","","","",""
"null","228267","SARL_v6","SARL_v6eq32tk8x","56f9364e895094000c8f4967","fixation","","","img/fixation.png","null","","","test","","","","","","","","","","","","","","","","","","","",""
"494.20000000018626","228763","SARL_v6","SARL_v6eq32tk8x","56f9364e895094000c8f4967","infreq","","","img/orange_2bandit_a2.png","68","","68","test","1","","94","","","","square","circle","90","4","5","0.8888888888888888","","","","","","","",""
"null","229075","SARL_v6","SARL_v6eq32tk8x","56f9364e895094000c8f4967","infreq_resp","","","img/orange_2bandit_a.png","68","img/orange_2bandit_a.png","68","test","","","","","","","","","","","5","","","","","","","","",""
"null","229235","SARL_v6","SARL_v6eq32tk8x","56f9364e895094000c8f4967","fixation","","","img/fixation.png","null","","","test","","","","","","","","","","","","","","","","","","","",""
"545.5","229783","SARL_v6","SARL_v6eq32tk8x","56f9364e895094000c8f4967","freq","","","img/blue_2bandit_a2.png","70","","70","test","1","","95","","","","square","circle","91","5","5","0.8901098901098901","","","","","","","",""
"null","230042","SARL_v6","SARL_v6eq32tk8x","56f9364e895094000c8f4967","freq_resp","","","img/blue_2bandit_a.png","70","img/blue_2bandit_a.png","70","test","","","","","","","","","","","5","","","","","","","","",""
"null","230202","SARL_v6","SARL_v6eq32tk8x","56f9364e895094000c8f4967","fixation","","","img/fixation.png","null","","","test","","","","","","","","","","","","","","","","","","","",""
"511.20000000018626","230715","SARL_v6","SARL_v6eq32tk8x","56f9364e895094000c8f4967","freq","","","img/blue_2bandit_a2.png","70","","70","test","1","","96","","","","square","circle","92","6","5","0.8913043478260869","","","","","","","",""
"null","231010","SARL_v6","SARL_v6eq32tk8x","56f9364e895094000c8f4967","freq_resp","","","img/blue_2bandit_a.png","70","img/blue_2bandit_a.png","70","test","","","","","","","","","","","5","","","","","","","","",""
"null","231170","SARL_v6","SARL_v6eq32tk8x","56f9364e895094000c8f4967","fixation","","","img/fixation.png","null","","","test","","","","","","","","","","","","","","","","","","","",""
"543.0999999996275","231715","SARL_v6","SARL_v6eq32tk8x","56f9364e895094000c8f4967","freq","","","img/blue_2bandit_a2.png","70","","70","test","1","","97","","","","square","circle","93","7","5","0.8924731182795699","","","","","","","",""
"null","231978","SARL_v6","SARL_v6eq32tk8x","56f9364e895094000c8f4967","freq_resp","","","img/blue_2bandit_a.png","70","img/blue_2bandit_a.png","70","test","","","","","","","","","","","5","","","","","","","","",""
"null","232138","SARL_v6","SARL_v6eq32tk8x","56f9364e895094000c8f4967","fixation","","","img/fixation.png","null","","","test","","","","","","","","","","","","","","","","","","","",""
"590.7000000001863","232731","SARL_v6","SARL_v6eq32tk8x","56f9364e895094000c8f4967","freq","","","img/blue_2bandit_a2.png","70","","70","test","1","","98","","","","square","circle","94","8","5","0.8936170212765957","","","","","","","",""
"null","232946","SARL_v6","SARL_v6eq32tk8x","56f9364e895094000c8f4967","freq_resp","","","img/blue_2bandit_a.png","70","img/blue_2bandit_a.png","70","test","","","","","","","","","","","5","","","","","","","","",""
"null","233106","SARL_v6","SARL_v6eq32tk8x","56f9364e895094000c8f4967","fixation","","","img/fixation.png","null","","","test","","","","","","","","","","","","","","","","","","","",""
"643","233751","SARL_v6","SARL_v6eq32tk8x","56f9364e895094000c8f4967","freq","","","img/blue_2bandit_a2.png","70","","70","test","1","","99","","","","square","circle","95","9","5","0.8947368421052632","","","","","","","",""
"null","233914","SARL_v6","SARL_v6eq32tk8x","56f9364e895094000c8f4967","freq_resp","","","img/blue_2bandit_a.png","70","img/blue_2bandit_a.png","70","test","","","","","","","","","","","5","","","","","","","","",""
"null","234066","SARL_v6","SARL_v6eq32tk8x","56f9364e895094000c8f4967","fixation","","","img/fixation.png","null","","","test","","","","","","","","","","","","","","","","","","","",""
"746.6000000000931","234815","SARL_v6","SARL_v6eq32tk8x","56f9364e895094000c8f4967","freq","","","img/blue_2bandit_a2.png","70","","70","test","1","","100","","","","square","circle","96","10","5","0.8958333333333334","","","","","","","",""
"null","234874","SARL_v6","SARL_v6eq32tk8x","56f9364e895094000c8f4967","freq_resp","","","img/blue_2bandit_a.png","70","img/blue_2bandit_a.png","70","test","","","","","","","","","","","5","","","","","","","","",""
"null","235035","SARL_v6","SARL_v6eq32tk8x","56f9364e895094000c8f4967","fixation","","","img/fixation.png","null","","","test","","","","","","","","","","","","","","","","","","","",""
"717.8999999999069","235755","SARL_v6","SARL_v6eq32tk8x","56f9364e895094000c8f4967","freq","","","img/blue_2bandit_a2.png","70","","70","test","1","","101","","","","square","circle","97","11","5","0.8969072164948454","","","","","","","",""
"null","235842","SARL_v6","SARL_v6eq32tk8x","56f9364e895094000c8f4967","freq_resp","","","img/blue_2bandit_a.png","70","img/blue_2bandit_a.png","70","test","","","","","","","","","","","5","","","","","","","","",""
"null","236002","SARL_v6","SARL_v6eq32tk8x","56f9364e895094000c8f4967","fixation","","","img/fixation.png","null","","","test","","","","","","","","","","","","","","","","","","","",""
"574.7000000001863","236578","SARL_v6","SARL_v6eq32tk8x","56f9364e895094000c8f4967","infreq","","","img/orange_2bandit_a2.png","68","","68","test","1","","102","","","","square","circle","98","12","5","0.8979591836734694","","","","","","","",""
"null","236810","SARL_v6","SARL_v6eq32tk8x","56f9364e895094000c8f4967","infreq_resp","","","img/orange_2bandit_a.png","68","img/orange_2bandit_a.png","68","test","","","","","","","","","","","5","","","","","","","","",""
"null","236970","SARL_v6","SARL_v6eq32tk8x","56f9364e895094000c8f4967","fixation","","","img/fixation.png","null","","","test","","","","","","","","","","","","","","","","","","","",""
"467.39999999990687","237439","SARL_v6","SARL_v6eq32tk8x","56f9364e895094000c8f4967","freq","","","img/blue_2bandit_a2.png","70","","70","test","1","","103","","","","square","circle","99","13","5","0.898989898989899","","","","","","","",""
"null","237779","SARL_v6","SARL_v6eq32tk8x","56f9364e895094000c8f4967","freq_resp","","","img/blue_2bandit_a.png","70","img/blue_2bandit_a.png","70","test","","","","","","","","","","","5","","","","","","","","",""
"null","237938","SARL_v6","SARL_v6eq32tk8x","56f9364e895094000c8f4967","fixation","","","img/fixation.png","null","","","test","","","","","","","","","","","","","","","","","","","",""
"542.1000000000931","238482","SARL_v6","SARL_v6eq32tk8x","56f9364e895094000c8f4967","freq","","","img/blue_2bandit_a2.png","70","","70","test","1","","104","","","","square","circle","100","14","5","0.9","","","","","","","",""
"null","238746","SARL_v6","SARL_v6eq32tk8x","56f9364e895094000c8f4967","freq_resp","","","img/blue_2bandit_a.png","70","img/blue_2bandit_a.png","70","test","","","","","","","","","","","5","","","","","","","","",""
"null","238906","SARL_v6","SARL_v6eq32tk8x","56f9364e895094000c8f4967","fixation","","","img/fixation.png","null","","","test","","","","","","","","","","","","","","","","","","","",""
"582.3999999999069","239491","SARL_v6","SARL_v6eq32tk8x","56f9364e895094000c8f4967","freq","","","img/blue_2bandit_a2.png","70","","70","test","1","","105","","","","square","circle","101","15","5","0.900990099009901","","","","","","","",""
"null","239714","SARL_v6","SARL_v6eq32tk8x","56f9364e895094000c8f4967","freq_resp","","","img/blue_2bandit_a.png","70","img/blue_2bandit_a.png","70","test","","","","","","","","","","","5","","","","","","","","",""
"null","239875","SARL_v6","SARL_v6eq32tk8x","56f9364e895094000c8f4967","fixation","","","img/fixation.png","null","","","test","","","","","","","","","","","","","","","","","","","",""
"593.7999999998137","240471","SARL_v6","SARL_v6eq32tk8x","56f9364e895094000c8f4967","freq","","","img/blue_2bandit_a2.png","70","","70","test","1","","106","","","","square","circle","102","16","5","0.9019607843137255","","","","","","","",""
"null","240682","SARL_v6","SARL_v6eq32tk8x","56f9364e895094000c8f4967","freq_resp","","","img/blue_2bandit_a.png","70","img/blue_2bandit_a.png","70","test","","","","","","","","","","","5","","","","","","","","",""
"null","240843","SARL_v6","SARL_v6eq32tk8x","56f9364e895094000c8f4967","fixation","","","img/fixation.png","null","","","test","","","","","","","","","","","","","","","","","","","",""
"646.7000000001863","241491","SARL_v6","SARL_v6eq32tk8x","56f9364e895094000c8f4967","freq","","","img/blue_2bandit_a2.png","70","","70","test","1","","107","","","","square","circle","103","17","5","0.9029126213592233","","","","","","","",""
"null","241651","SARL_v6","SARL_v6eq32tk8x","56f9364e895094000c8f4967","freq_resp","","","img/blue_2bandit_a.png","70","img/blue_2bandit_a.png","70","test","","","","","","","","","","","5","","","","","","","","",""
"null","241810","SARL_v6","SARL_v6eq32tk8x","56f9364e895094000c8f4967","fixation","","","img/fixation.png","null","","","test","","","","","","","","","","","","","","","","","","","",""
"610.3999999999069","242423","SARL_v6","SARL_v6eq32tk8x","56f9364e895094000c8f4967","freq","","","img/blue_2bandit_a2.png","70","","70","test","1","","108","","","","square","circle","104","18","5","0.9038461538461539","","","","","","","",""
"null","242618","SARL_v6","SARL_v6eq32tk8x","56f9364e895094000c8f4967","freq_resp","","","img/blue_2bandit_a.png","70","img/blue_2bandit_a.png","70","test","","","","","","","","","","","5","","","","","","","","",""
"null","242779","SARL_v6","SARL_v6eq32tk8x","56f9364e895094000c8f4967","fixation","","","img/fixation.png","null","","","test","","","","","","","","","","","","","","","","","","","",""
"613.6000000000931","243394","SARL_v6","SARL_v6eq32tk8x","56f9364e895094000c8f4967","freq","","","img/blue_2bandit_a2.png","70","","70","test","1","","109","","","","square","circle","105","19","5","0.9047619047619048","","","","","","","",""
"null","243586","SARL_v6","SARL_v6eq32tk8x","56f9364e895094000c8f4967","freq_resp","","","img/blue_2bandit_a.png","70","img/blue_2bandit_a.png","70","test","","","","","","","","","","","5","","","","","","","","",""
"null","243747","SARL_v6","SARL_v6eq32tk8x","56f9364e895094000c8f4967","fixation","","","img/fixation.png","null","","","test","","","","","","","","","","","","","","","","","","","",""
"690.1999999997206","244439","SARL_v6","SARL_v6eq32tk8x","56f9364e895094000c8f4967","freq","","","img/blue_2bandit_a2.png","70","","70","test","1","","110","","","","square","circle","106","20","5","0.9056603773584906","","","","","","","",""
"null","244555","SARL_v6","SARL_v6eq32tk8x","56f9364e895094000c8f4967","freq_resp","","","img/blue_2bandit_a.png","70","img/blue_2bandit_a.png","70","test","","","","","","","","","","","5","","","","","","","","",""
"null","244715","SARL_v6","SARL_v6eq32tk8x","56f9364e895094000c8f4967","fixation","","","img/fixation.png","null","","","test","","","","","","","","","","","","","","","","","","","",""
"653.3999999999069","245370","SARL_v6","SARL_v6eq32tk8x","56f9364e895094000c8f4967","freq","","","img/blue_2bandit_a2.png","70","","70","test","1","","111","","","","square","circle","107","21","5","0.9065420560747663","","","","","","","",""
"null","245523","SARL_v6","SARL_v6eq32tk8x","56f9364e895094000c8f4967","freq_resp","","","img/blue_2bandit_a.png","70","img/blue_2bandit_a.png","70","test","","","","","","","","","","","5","","","","","","","","",""
"null","245683","SARL_v6","SARL_v6eq32tk8x","56f9364e895094000c8f4967","fixation","","","img/fixation.png","null","","","test","","","","","","","","","","","","","","","","","","","",""
"674.3000000002794","246359","SARL_v6","SARL_v6eq32tk8x","56f9364e895094000c8f4967","freq","","","img/blue_2bandit_a2.png","70","","70","test","1","","112","","","","square","circle","108","22","5","0.9074074074074074","","","","","","","",""
"null","246490","SARL_v6","SARL_v6eq32tk8x","56f9364e895094000c8f4967","freq_resp","","","img/blue_2bandit_a.png","70","img/blue_2bandit_a.png","70","test","","","","","","","","","","","5","","","","","","","","",""
"null","246651","SARL_v6","SARL_v6eq32tk8x","56f9364e895094000c8f4967","fixation","","","img/fixation.png","null","","","test","","","","","","","","","","","","","","","","","","","",""
"685.1999999997206","247337","SARL_v6","SARL_v6eq32tk8x","56f9364e895094000c8f4967","freq","","","img/blue_2bandit_a2.png","70","","70","test","1","","113","","","","square","circle","109","23","5","0.908256880733945","","","","","","","",""
"null","247459","SARL_v6","SARL_v6eq32tk8x","56f9364e895094000c8f4967","freq_resp","","","img/blue_2bandit_a.png","70","img/blue_2bandit_a.png","70","test","","","","","","","","","","","5","","","","","","","","",""
"null","247619","SARL_v6","SARL_v6eq32tk8x","56f9364e895094000c8f4967","fixation","","","img/fixation.png","null","","","test","","","","","","","","","","","","","","","","","","","",""
"726.2000000001863","248347","SARL_v6","SARL_v6eq32tk8x","56f9364e895094000c8f4967","rl","","","img/black_2bandit_a2.png","74","","0","test","","","114","","","4","square","circle","","0","5","","74","-7","4","4","-7","square","5","0"
"null","249107","SARL_v6","SARL_v6eq32tk8x","56f9364e895094000c8f4967","feedback","","","<div class=""veryhighPoints_sq""> 4 </div>","null","","na","test","","","NaN","","","","","","","","5","","74","","","","","","5",""
"409","249518","SARL_v6","SARL_v6eq32tk8x","56f9364e895094000c8f4967","freq","","","img/blue_2bandit_a2.png","70","","70","test","1","","115","","","","square","circle","110","1","6","0.9090909090909091","","","","","","","",""
"null","249915","SARL_v6","SARL_v6eq32tk8x","56f9364e895094000c8f4967","freq_resp","","","img/blue_2bandit_a.png","70","img/blue_2bandit_a.png","70","test","","","","","","","","","","","6","","","","","","","","",""
"null","250075","SARL_v6","SARL_v6eq32tk8x","56f9364e895094000c8f4967","fixation","","","img/fixation.png","null","","","test","","","","","","","","","","","","","","","","","","","",""
"516.2000000001863","250594","SARL_v6","SARL_v6eq32tk8x","56f9364e895094000c8f4967","freq","","","img/blue_2bandit_a2.png","70","","70","test","1","","116","","","","square","circle","111","2","6","0.9099099099099099","","","","","","","",""
"null","250883","SARL_v6","SARL_v6eq32tk8x","56f9364e895094000c8f4967","freq_resp","","","img/blue_2bandit_a.png","70","img/blue_2bandit_a.png","70","test","","","","","","","","","","","6","","","","","","","","",""
"null","251043","SARL_v6","SARL_v6eq32tk8x","56f9364e895094000c8f4967","fixation","","","img/fixation.png","null","","","test","","","","","","","","","","","","","","","","","","","",""
"516.6999999997206","251562","SARL_v6","SARL_v6eq32tk8x","56f9364e895094000c8f4967","freq","","","img/blue_2bandit_a2.png","70","","70","test","1","","117","","","","square","circle","112","3","6","0.9107142857142857","","","","","","","",""
"null","251851","SARL_v6","SARL_v6eq32tk8x","56f9364e895094000c8f4967","freq_resp","","","img/blue_2bandit_a.png","70","img/blue_2bandit_a.png","70","test","","","","","","","","","","","6","","","","","","","","",""
"null","252011","SARL_v6","SARL_v6eq32tk8x","56f9364e895094000c8f4967","fixation","","","img/fixation.png","null","","","test","","","","","","","","","","","","","","","","","","","",""
"660.8000000002794","252674","SARL_v6","SARL_v6eq32tk8x","56f9364e895094000c8f4967","freq","","","img/blue_2bandit_a2.png","70","","70","test","1","","118","","","","square","circle","113","4","6","0.911504424778761","","","","","","","",""
"null","252819","SARL_v6","SARL_v6eq32tk8x","56f9364e895094000c8f4967","freq_resp","","","img/blue_2bandit_a.png","70","img/blue_2bandit_a.png","70","test","","","","","","","","","","","6","","","","","","","","",""
"null","252979","SARL_v6","SARL_v6eq32tk8x","56f9364e895094000c8f4967","fixation","","","img/fixation.png","null","","","test","","","","","","","","","","","","","","","","","","","",""
"644.7999999998137","253626","SARL_v6","SARL_v6eq32tk8x","56f9364e895094000c8f4967","freq","","","img/blue_2bandit_a2.png","70","","70","test","1","","119","","","","square","circle","114","5","6","0.9122807017543859","","","","","","","",""
"null","253787","SARL_v6","SARL_v6eq32tk8x","56f9364e895094000c8f4967","freq_resp","","","img/blue_2bandit_a.png","70","img/blue_2bandit_a.png","70","test","","","","","","","","","","","6","","","","","","","","",""
"null","253946","SARL_v6","SARL_v6eq32tk8x","56f9364e895094000c8f4967","fixation","","","img/fixation.png","null","","","test","","","","","","","","","","","","","","","","","","","",""
"705.6000000000931","254654","SARL_v6","SARL_v6eq32tk8x","56f9364e895094000c8f4967","infreq","","","img/orange_2bandit_a2.png","68","","68","test","1","","120","","","","square","circle","115","6","6","0.9130434782608695","","","","","","","",""
"null","254754","SARL_v6","SARL_v6eq32tk8x","56f9364e895094000c8f4967","infreq_resp","","","img/orange_2bandit_a.png","68","img/orange_2bandit_a.png","68","test","","","","","","","","","","","6","","","","","","","","",""
"null","254914","SARL_v6","SARL_v6eq32tk8x","56f9364e895094000c8f4967","fixation","","","img/fixation.png","null","","","test","","","","","","","","","","","","","","","","","","","",""
"625.5","255542","SARL_v6","SARL_v6eq32tk8x","56f9364e895094000c8f4967","freq","","","img/blue_2bandit_a2.png","70","","70","test","1","","121","","","","square","circle","116","7","6","0.9137931034482759","","","","","","","",""
"null","255722","SARL_v6","SARL_v6eq32tk8x","56f9364e895094000c8f4967","freq_resp","","","img/blue_2bandit_a.png","70","img/blue_2bandit_a.png","70","test","","","","","","","","","","","6","","","","","","","","",""
"null","255882","SARL_v6","SARL_v6eq32tk8x","56f9364e895094000c8f4967","fixation","","","img/fixation.png","null","","","test","","","","","","","","","","","","","","","","","","","",""
"713.2999999998137","256597","SARL_v6","SARL_v6eq32tk8x","56f9364e895094000c8f4967","freq","","","img/blue_2bandit_a2.png","70","","70","test","1","","122","","","","square","circle","117","8","6","0.9145299145299145","","","","","","","",""
"null","256690","SARL_v6","SARL_v6eq32tk8x","56f9364e895094000c8f4967","freq_resp","","","img/blue_2bandit_a.png","70","img/blue_2bandit_a.png","70","test","","","","","","","","","","","6","","","","","","","","",""
"null","256850","SARL_v6","SARL_v6eq32tk8x","56f9364e895094000c8f4967","fixation","","","img/fixation.png","null","","","test","","","","","","","","","","","","","","","","","","","",""
"633","257485","SARL_v6","SARL_v6eq32tk8x","56f9364e895094000c8f4967","infreq","","","img/orange_2bandit_a2.png","68","","68","test","1","","123","","","","square","circle","118","9","6","0.9152542372881356","","","","","","","",""
"null","257658","SARL_v6","SARL_v6eq32tk8x","56f9364e895094000c8f4967","infreq_resp","","","img/orange_2bandit_a.png","68","img/orange_2bandit_a.png","68","test","","","","","","","","","","","6","","","","","","","","",""
"null","257818","SARL_v6","SARL_v6eq32tk8x","56f9364e895094000c8f4967","fixation","","","img/fixation.png","null","","","test","","","","","","","","","","","","","","","","","","","",""
"481.10000000009313","258301","SARL_v6","SARL_v6eq32tk8x","56f9364e895094000c8f4967","freq","","","img/blue_2bandit_a2.png","70","","70","test","1","","124","","","","square","circle","119","10","6","0.9159663865546218","","","","","","","",""
"null","258626","SARL_v6","SARL_v6eq32tk8x","56f9364e895094000c8f4967","freq_resp","","","img/blue_2bandit_a.png","70","img/blue_2bandit_a.png","70","test","","","","","","","","","","","6","","","","","","","","",""
"null","258786","SARL_v6","SARL_v6eq32tk8x","56f9364e895094000c8f4967","fixation","","","img/fixation.png","null","","","test","","","","","","","","","","","","","","","","","","","",""
"554.1000000000931","259342","SARL_v6","SARL_v6eq32tk8x","56f9364e895094000c8f4967","freq","","","img/blue_2bandit_a2.png","70","","70","test","1","","125","","","","square","circle","120","11","6","0.9166666666666666","","","","","","","",""
"null","259594","SARL_v6","SARL_v6eq32tk8x","56f9364e895094000c8f4967","freq_resp","","","img/blue_2bandit_a.png","70","img/blue_2bandit_a.png","70","test","","","","","","","","","","","6","","","","","","","","",""
"null","259754","SARL_v6","SARL_v6eq32tk8x","56f9364e895094000c8f4967","fixation","","","img/fixation.png","null","","","test","","","","","","","","","","","","","","","","","","","",""
"577","260333","SARL_v6","SARL_v6eq32tk8x","56f9364e895094000c8f4967","freq","","","img/blue_2bandit_a2.png","70","","70","test","1","","126","","","","square","circle","121","12","6","0.9173553719008265","","","","","","","",""
"null","260562","SARL_v6","SARL_v6eq32tk8x","56f9364e895094000c8f4967","freq_resp","","","img/blue_2bandit_a.png","70","img/blue_2bandit_a.png","70","test","","","","","","","","","","","6","","","","","","","","",""
"null","260722","SARL_v6","SARL_v6eq32tk8x","56f9364e895094000c8f4967","fixation","","","img/fixation.png","null","","","test","","","","","","","","","","","","","","","","","","","",""
"597.7000000001863","261322","SARL_v6","SARL_v6eq32tk8x","56f9364e895094000c8f4967","freq","","","img/blue_2bandit_a2.png","70","","70","test","1","","127","","","","square","circle","122","13","6","0.9180327868852459","","","","","","","",""
"null","261530","SARL_v6","SARL_v6eq32tk8x","56f9364e895094000c8f4967","freq_resp","","","img/blue_2bandit_a.png","70","img/blue_2bandit_a.png","70","test","","","","","","","","","","","6","","","","","","","","",""
"null","261691","SARL_v6","SARL_v6eq32tk8x","56f9364e895094000c8f4967","fixation","","","img/fixation.png","null","","","test","","","","","","","","","","","","","","","","","","","",""
"616.6999999997206","262310","SARL_v6","SARL_v6eq32tk8x","56f9364e895094000c8f4967","freq","","","img/blue_2bandit_a2.png","70","","70","test","1","","128","","","","square","circle","123","14","6","0.9186991869918699","","","","","","","",""
"null","262498","SARL_v6","SARL_v6eq32tk8x","56f9364e895094000c8f4967","freq_resp","","","img/blue_2bandit_a.png","70","img/blue_2bandit_a.png","70","test","","","","","","","","","","","6","","","","","","","","",""
"null","262659","SARL_v6","SARL_v6eq32tk8x","56f9364e895094000c8f4967","fixation","","","img/fixation.png","null","","","test","","","","","","","","","","","","","","","","","","","",""
"704.8999999999069","263366","SARL_v6","SARL_v6eq32tk8x","56f9364e895094000c8f4967","freq","","","img/blue_2bandit_a2.png","70","","70","test","1","","129","","","","square","circle","124","15","6","0.9193548387096774","","","","","","","",""
"null","263467","SARL_v6","SARL_v6eq32tk8x","56f9364e895094000c8f4967","freq_resp","","","img/blue_2bandit_a.png","70","img/blue_2bandit_a.png","70","test","","","","","","","","","","","6","","","","","","","","",""
"null","263626","SARL_v6","SARL_v6eq32tk8x","56f9364e895094000c8f4967","fixation","","","img/fixation.png","null","","","test","","","","","","","","","","","","","","","","","","","",""
"641.1000000000931","264269","SARL_v6","SARL_v6eq32tk8x","56f9364e895094000c8f4967","freq","","","img/blue_2bandit_a2.png","70","","70","test","1","","130","","","","square","circle","125","16","6","0.92","","","","","","","",""
"null","264434","SARL_v6","SARL_v6eq32tk8x","56f9364e895094000c8f4967","freq_resp","","","img/blue_2bandit_a.png","70","img/blue_2bandit_a.png","70","test","","","","","","","","","","","6","","","","","","","","",""
"null","264594","SARL_v6","SARL_v6eq32tk8x","56f9364e895094000c8f4967","fixation","","","img/fixation.png","null","","","test","","","","","","","","","","","","","","","","","","","",""
"564.9000000003725","265161","SARL_v6","SARL_v6eq32tk8x","56f9364e895094000c8f4967","infreq","","","img/orange_2bandit_a2.png","68","","68","test","1","","131","","","","square","circle","126","17","6","0.9206349206349206","","","","","","","",""
"null","265402","SARL_v6","SARL_v6eq32tk8x","56f9364e895094000c8f4967","infreq_resp","","","img/orange_2bandit_a.png","68","img/orange_2bandit_a.png","68","test","","","","","","","","","","","6","","","","","","","","",""
"null","265562","SARL_v6","SARL_v6eq32tk8x","56f9364e895094000c8f4967","fixation","","","img/fixation.png","null","","","test","","","","","","","","","","","","","","","","","","","",""
"380.5","265945","SARL_v6","SARL_v6eq32tk8x","56f9364e895094000c8f4967","freq","","","img/blue_2bandit_a2.png","70","","70","test","1","","132","","","","square","circle","127","18","6","0.9212598425196851","","","","","","","",""
"null","266370","SARL_v6","SARL_v6eq32tk8x","56f9364e895094000c8f4967","freq_resp","","","img/blue_2bandit_a.png","70","img/blue_2bandit_a.png","70","test","","","","","","","","","","","6","","","","","","","","",""
"null","266530","SARL_v6","SARL_v6eq32tk8x","56f9364e895094000c8f4967","fixation","","","img/fixation.png","null","","","test","","","","","","","","","","","","","","","","","","","",""
"344.59999999962747","266878","SARL_v6","SARL_v6eq32tk8x","56f9364e895094000c8f4967","freq","","","img/blue_2bandit_a2.png","70","","70","test","1","","133","","","","square","circle","128","19","6","0.921875","","","","","","","",""
