"rt","time_elapsed","expId","subject","prolificID","trialType","rlType","attType","stimulus","key_press","stim","corrresp","phase","corr","pracCounter","trialNum","rewardOne","rewardTwo","reward","bandOne","bandTwo","attentionNum","attentionRunNum","blockNum","performance","bandChosen","circleVal","squareVal","bandOneVal","bandTwoVal","shapeChosen","rlNum","badFlag"
"8303","8316","SARL_v6","SARL_v68s6c9ll1","612bb0204ad8e7e8bed041eb","","","","","","","","","","","","","","","","","","","","","","","","","","","",""
"","10914","SARL_v6","SARL_v68s6c9ll1","612bb0204ad8e7e8bed041eb","fullscreen","fullscreen","fullscreen","","","","","","","","","","","","","","","","","","","","","","","","",""
"50843","61761","SARL_v6","SARL_v68s6c9ll1","612bb0204ad8e7e8bed041eb","","","","","","","","","","","","","","","","","","","","","","","","","","","",""
"null","62580","SARL_v6","SARL_v68s6c9ll1","612bb0204ad8e7e8bed041eb","freqPrac","","","img/orange_2bandit_b2.png","null","img/orange_2bandit_b2.png","70","prac","0","1","","","","","","","","","","","","","","","","","",""
"null","63598","SARL_v6","SARL_v68s6c9ll1","612bb0204ad8e7e8bed041eb","feedback","","","img/tooSlow.png","null","","na","prac","","","","","","","","","","","","","","","","","","","",""
"null","63761","SARL_v6","SARL_v68s6c9ll1","612bb0204ad8e7e8bed041eb","fixation","","","img/fixation.png","null","","","prac","","","","","","","","","","","","","","","","","","","",""
"662","64427","SARL_v6","SARL_v68s6c9ll1","612bb0204ad8e7e8bed041eb","infreqPrac","","","img/blue_2bandit_b2.png","68","img/blue_2bandit_b2.png","68","prac","1","1","","","","","","","","","","","","","","","","","",""
"662","64574","SARL_v6","SARL_v68s6c9ll1","612bb0204ad8e7e8bed041eb","infreqPrac_resp","","","img/blue_2bandit_b.png","68","img/blue_2bandit_b.png","68","prac","","","","","","","","","","","","","","","","","","","",""
"null","64739","SARL_v6","SARL_v68s6c9ll1","612bb0204ad8e7e8bed041eb","fixation","","","img/fixation.png","null","","","prac","","","","","","","","","","","","","","","","","","","",""
"514","65257","SARL_v6","SARL_v68s6c9ll1","612bb0204ad8e7e8bed041eb","freqPrac","","","img/orange_2bandit_b2.png","70","img/orange_2bandit_b2.png","70","prac","1","1","","","","","","","","","","","","","","","","","",""
"514","65547","SARL_v6","SARL_v68s6c9ll1","612bb0204ad8e7e8bed041eb","freqPrac_resp","","","img/orange_2bandit_b.png","70","img/orange_2bandit_b.png","70","prac","","","","","","","","","","","","","","","","","","","",""
"null","65706","SARL_v6","SARL_v68s6c9ll1","612bb0204ad8e7e8bed041eb","fixation","","","img/fixation.png","null","","","prac","","","","","","","","","","","","","","","","","","","",""
"422","66131","SARL_v6","SARL_v68s6c9ll1","612bb0204ad8e7e8bed041eb","infreqPrac","","","img/blue_2bandit_b2.png","68","img/blue_2bandit_b2.png","68","prac","1","1","","","","","","","","","","","","","","","","","",""
"422","66517","SARL_v6","SARL_v68s6c9ll1","612bb0204ad8e7e8bed041eb","infreqPrac_resp","","","img/blue_2bandit_b.png","68","img/blue_2bandit_b.png","68","prac","","","","","","","","","","","","","","","","","","","",""
"null","66684","SARL_v6","SARL_v68s6c9ll1","612bb0204ad8e7e8bed041eb","fixation","","","img/fixation.png","null","","","prac","","","","","","","","","","","","","","","","","","","",""
"604","67293","SARL_v6","SARL_v68s6c9ll1","612bb0204ad8e7e8bed041eb","infreqPrac","","","img/blue_2bandit_b2.png","68","img/blue_2bandit_b2.png","68","prac","1","1","","","","","","","","","","","","","","","","","",""
"604","67503","SARL_v6","SARL_v68s6c9ll1","612bb0204ad8e7e8bed041eb","infreqPrac_resp","","","img/blue_2bandit_b.png","68","img/blue_2bandit_b.png","68","prac","","","","","","","","","","","","","","","","","","","",""
"null","67669","SARL_v6","SARL_v68s6c9ll1","612bb0204ad8e7e8bed041eb","fixation","","","img/fixation.png","null","","","prac","","","","","","","","","","","","","","","","","","","",""
"339","68012","SARL_v6","SARL_v68s6c9ll1","612bb0204ad8e7e8bed041eb","infreqPrac","","","img/blue_2bandit_b2.png","68","img/blue_2bandit_b2.png","68","prac","1","1","","","","","","","","","","","","","","","","","",""
"339","68489","SARL_v6","SARL_v68s6c9ll1","612bb0204ad8e7e8bed041eb","infreqPrac_resp","","","img/blue_2bandit_b.png","68","img/blue_2bandit_b.png","68","prac","","","","","","","","","","","","","","","","","","","",""
"null","68644","SARL_v6","SARL_v68s6c9ll1","612bb0204ad8e7e8bed041eb","fixation","","","img/fixation.png","null","","","prac","","","","","","","","","","","","","","","","","","","",""
"398","69046","SARL_v6","SARL_v68s6c9ll1","612bb0204ad8e7e8bed041eb","freqPrac","","","img/orange_2bandit_b2.png","70","img/orange_2bandit_b2.png","70","prac","1","1","","","","","","","","","","","","","","","","","",""
"398","69460","SARL_v6","SARL_v68s6c9ll1","612bb0204ad8e7e8bed041eb","freqPrac_resp","","","img/orange_2bandit_b.png","70","img/orange_2bandit_b.png","70","prac","","","","","","","","","","","","","","","","","","","",""
"null","69618","SARL_v6","SARL_v68s6c9ll1","612bb0204ad8e7e8bed041eb","fixation","","","img/fixation.png","null","","","prac","","","","","","","","","","","","","","","","","","","",""
"745","70367","SARL_v6","SARL_v68s6c9ll1","612bb0204ad8e7e8bed041eb","infreqPrac","","","img/blue_2bandit_b2.png","68","img/blue_2bandit_b2.png","68","prac","1","1","","","","","","","","","","","","","","","","","",""
"745","70438","SARL_v6","SARL_v68s6c9ll1","612bb0204ad8e7e8bed041eb","infreqPrac_resp","","","img/blue_2bandit_b.png","68","img/blue_2bandit_b.png","68","prac","","","","","","","","","","","","","","","","","","","",""
"null","70597","SARL_v6","SARL_v68s6c9ll1","612bb0204ad8e7e8bed041eb","fixation","","","img/fixation.png","null","","","prac","","","","","","","","","","","","","","","","","","","",""
"null","71419","SARL_v6","SARL_v68s6c9ll1","612bb0204ad8e7e8bed041eb","freqPrac","","","img/orange_2bandit_b2.png","null","img/orange_2bandit_b2.png","70","prac","0","2","","","","","","","","","","","","","","","","","",""
"null","72434","SARL_v6","SARL_v68s6c9ll1","612bb0204ad8e7e8bed041eb","feedback","","","img/tooSlow.png","null","","na","prac","","","","","","","","","","","","","","","","","","","",""
"null","72597","SARL_v6","SARL_v68s6c9ll1","612bb0204ad8e7e8bed041eb","fixation","","","img/fixation.png","null","","","prac","","","","","","","","","","","","","","","","","","","",""
"472","73072","SARL_v6","SARL_v68s6c9ll1","612bb0204ad8e7e8bed041eb","freqPrac","","","img/orange_2bandit_b2.png","70","img/orange_2bandit_b2.png","70","prac","1","2","","","","","","","","","","","","","","","","","",""
"472","73415","SARL_v6","SARL_v68s6c9ll1","612bb0204ad8e7e8bed041eb","freqPrac_resp","","","img/orange_2bandit_b.png","70","img/orange_2bandit_b.png","70","prac","","","","","","","","","","","","","","","","","","","",""
"null","73574","SARL_v6","SARL_v68s6c9ll1","612bb0204ad8e7e8bed041eb","fixation","","","img/fixation.png","null","","","prac","","","","","","","","","","","","","","","","","","","",""
"35941","109518","SARL_v6","SARL_v68s6c9ll1","612bb0204ad8e7e8bed041eb","","","","","","","","prac","","","","","","","","","","","","","","","","","","","",""
"675","110197","SARL_v6","SARL_v68s6c9ll1","612bb0204ad8e7e8bed041eb","rlPractice","","","img/black_2bandit_b2.png","75","img/black_2bandit_b2.png","","prac","","","0","","","","","","","","","","","","","","","","",""
"null","110963","SARL_v6","SARL_v68s6c9ll1","612bb0204ad8e7e8bed041eb","feedback","","","<div class=""verylowPoints_sq""> -14 </div>","null","","na","prac","","","1","10","-14","10","","","","","","","","","","","","","",""
"null","111120","SARL_v6","SARL_v68s6c9ll1","612bb0204ad8e7e8bed041eb","fixation","","","img/fixation.png","null","","","prac","","","","","","","","","","","","","","","","","","","",""
"598","111723","SARL_v6","SARL_v68s6c9ll1","612bb0204ad8e7e8bed041eb","rlPractice","","","img/black_2bandit_b2.png","74","img/black_2bandit_b2.png","","prac","","","1","","","","","","","","","","","","","","","","",""
"null","112484","SARL_v6","SARL_v68s6c9ll1","612bb0204ad8e7e8bed041eb","feedback","","","<div class=""veryhighPoints""> 5 </div>","null","","na","prac","","","2","5","-5","5","","","","","","","","","","","","","",""
"null","112640","SARL_v6","SARL_v68s6c9ll1","612bb0204ad8e7e8bed041eb","fixation","","","img/fixation.png","null","","","prac","","","","","","","","","","","","","","","","","","","",""
"443","113087","SARL_v6","SARL_v68s6c9ll1","612bb0204ad8e7e8bed041eb","rlPractice","","","img/black_2bandit_b2.png","74","img/black_2bandit_b2.png","","prac","","","2","","","","","","","","","","","","","","","","",""
"null","113842","SARL_v6","SARL_v68s6c9ll1","612bb0204ad8e7e8bed041eb","feedback","","","<div class=""veryhighPoints""> 30 </div>","null","","na","prac","","","3","30","2","30","","","","","","","","","","","","","",""
"null","113996","SARL_v6","SARL_v68s6c9ll1","612bb0204ad8e7e8bed041eb","fixation","","","img/fixation.png","null","","","prac","","","","","","","","","","","","","","","","","","","",""
"347","114346","SARL_v6","SARL_v68s6c9ll1","612bb0204ad8e7e8bed041eb","rlPractice","","","img/black_2bandit_b2.png","74","img/black_2bandit_b2.png","","prac","","","3","","","","","","","","","","","","","","","","",""
"null","115101","SARL_v6","SARL_v68s6c9ll1","612bb0204ad8e7e8bed041eb","feedback","","","<div class=""verylowPoints""> -2 </div>","null","","na","prac","","","4","-2","20","-2","","","","","","","","","","","","","",""
"null","115256","SARL_v6","SARL_v68s6c9ll1","612bb0204ad8e7e8bed041eb","fixation","","","img/fixation.png","null","","","prac","","","","","","","","","","","","","","","","","","","",""
"25828","141087","SARL_v6","SARL_v68s6c9ll1","612bb0204ad8e7e8bed041eb","","","","","","","","prac","","","","","","","","","","","","","","","","","","","",""
"null","141897","SARL_v6","SARL_v68s6c9ll1","612bb0204ad8e7e8bed041eb","mixAttFreqPrac","","","img/orange_2bandit_b2.png","null","img/orange_2bandit_b2.png","70","prac","","","1","","","","","","","","","","","","","","","","",""
"null","142055","SARL_v6","SARL_v68s6c9ll1","612bb0204ad8e7e8bed041eb","fixation","","","img/fixation.png","null","","","prac","","","","","","","","","","","","","","","","","","","",""
"85","142143","SARL_v6","SARL_v68s6c9ll1","612bb0204ad8e7e8bed041eb","mixAttInfreqPrac","","","img/blue_2bandit_b2.png","68","img/blue_2bandit_b2.png","68","prac","","","2","","","","","","","","","","","","","","","","",""
"85","142862","SARL_v6","SARL_v68s6c9ll1","612bb0204ad8e7e8bed041eb","infreqPrac_resp","","","img/blue_2bandit_b.png","68","img/orange_2bandit_b.png","68","prac","","","2","","","","","","","","","","","","","","","","",""
"null","143017","SARL_v6","SARL_v68s6c9ll1","612bb0204ad8e7e8bed041eb","fixation","","","img/fixation.png","null","","","prac","","","","","","","","","","","","","","","","","","","",""
"405","143424","SARL_v6","SARL_v68s6c9ll1","612bb0204ad8e7e8bed041eb","mixAttInfreqPrac","","","img/blue_2bandit_b2.png","68","img/blue_2bandit_b2.png","68","prac","","","3","","","","","","","","","","","","","","","","",""
"405","143823","SARL_v6","SARL_v68s6c9ll1","612bb0204ad8e7e8bed041eb","infreqPrac_resp","","","img/blue_2bandit_b.png","68","img/orange_2bandit_b.png","68","prac","","","3","","","","","","","","","","","","","","","","",""
"null","143976","SARL_v6","SARL_v68s6c9ll1","612bb0204ad8e7e8bed041eb","fixation","","","img/fixation.png","null","","","prac","","","","","","","","","","","","","","","","","","","",""
"693","144672","SARL_v6","SARL_v68s6c9ll1","612bb0204ad8e7e8bed041eb","mixAttInfreqPrac","","","img/blue_2bandit_b2.png","68","img/blue_2bandit_b2.png","68","prac","","","4","","","","","","","","","","","","","","","","",""
"693","144787","SARL_v6","SARL_v68s6c9ll1","612bb0204ad8e7e8bed041eb","infreqPrac_resp","","","img/blue_2bandit_b.png","68","img/orange_2bandit_b.png","68","prac","","","4","","","","","","","","","","","","","","","","",""
"null","144944","SARL_v6","SARL_v68s6c9ll1","612bb0204ad8e7e8bed041eb","fixation","","","img/fixation.png","null","","","prac","","","","","","","","","","","","","","","","","","","",""
"699","145647","SARL_v6","SARL_v68s6c9ll1","612bb0204ad8e7e8bed041eb","mixAttFreqPrac","","","img/orange_2bandit_b2.png","70","img/orange_2bandit_b2.png","70","prac","","","5","","","","","","","","","","","","","","","","",""
"699","145757","SARL_v6","SARL_v68s6c9ll1","612bb0204ad8e7e8bed041eb","freqPrac_resp","","","img/orange_2bandit_b.png","70","img/orange_2bandit_b.png","70","prac","","","5","","","","","","","","","","","","","","","","",""
"null","145922","SARL_v6","SARL_v68s6c9ll1","612bb0204ad8e7e8bed041eb","fixation","","","img/fixation.png","null","","","prac","","","","","","","","","","","","","","","","","","","",""
"602","146526","SARL_v6","SARL_v68s6c9ll1","612bb0204ad8e7e8bed041eb","mixRLPractice","","","img/black_2bandit_b2.png","74","img/black_2bandit_b2.png","","prac","","","5","","","","","","","","","","","","","","","","",""
"null","147287","SARL_v6","SARL_v68s6c9ll1","612bb0204ad8e7e8bed041eb","feedback","","","<div class=""verylowPoints""> -14 </div>","null","","na","prac","","","6","-14","10","-14","","","","","","","","","","","","","",""
"null","147445","SARL_v6","SARL_v68s6c9ll1","612bb0204ad8e7e8bed041eb","fixation","","","img/fixation.png","null","","","prac","","","","","","","","","","","","","","","","","","","",""
"null","148255","SARL_v6","SARL_v68s6c9ll1","612bb0204ad8e7e8bed041eb","mixAttFreqPrac","","","img/orange_2bandit_b2.png","null","img/orange_2bandit_b2.png","70","prac","","","7","","","","","","","","","","","","","","","","",""
"null","148415","SARL_v6","SARL_v68s6c9ll1","612bb0204ad8e7e8bed041eb","fixation","","","img/fixation.png","null","","","prac","","","","","","","","","","","","","","","","","","","",""
"187","148606","SARL_v6","SARL_v68s6c9ll1","612bb0204ad8e7e8bed041eb","mixAttInfreqPrac","","","img/blue_2bandit_b2.png","70","img/blue_2bandit_b2.png","68","prac","","","8","","","","","","","","","","","","","","","","",""
"187","149225","SARL_v6","SARL_v68s6c9ll1","612bb0204ad8e7e8bed041eb","infreqPrac_resp","","","img/blue_2bandit_b.png","70","img/orange_2bandit_b.png","68","prac","","","8","","","","","","","","","","","","","","","","",""
"null","149384","SARL_v6","SARL_v68s6c9ll1","612bb0204ad8e7e8bed041eb","fixation","","","img/fixation.png","null","","","prac","","","","","","","","","","","","","","","","","","","",""
"null","150200","SARL_v6","SARL_v68s6c9ll1","612bb0204ad8e7e8bed041eb","mixAttFreqPrac","","","img/orange_2bandit_b2.png","null","img/orange_2bandit_b2.png","70","prac","","","9","","","","","","","","","","","","","","","","",""
"null","150360","SARL_v6","SARL_v68s6c9ll1","612bb0204ad8e7e8bed041eb","fixation","","","img/fixation.png","null","","","prac","","","","","","","","","","","","","","","","","","","",""
"4","150368","SARL_v6","SARL_v68s6c9ll1","612bb0204ad8e7e8bed041eb","mixAttFreqPrac","","","img/orange_2bandit_b2.png","70","img/orange_2bandit_b2.png","70","prac","","","10","","","","","","","","","","","","","","","","",""
"4","151180","SARL_v6","SARL_v68s6c9ll1","612bb0204ad8e7e8bed041eb","freqPrac_resp","","","img/orange_2bandit_b.png","70","img/orange_2bandit_b.png","70","prac","","","10","","","","","","","","","","","","","","","","",""
"null","151338","SARL_v6","SARL_v68s6c9ll1","612bb0204ad8e7e8bed041eb","fixation","","","img/fixation.png","null","","","prac","","","","","","","","","","","","","","","","","","","",""
"430","151771","SARL_v6","SARL_v68s6c9ll1","612bb0204ad8e7e8bed041eb","mixAttInfreqPrac","","","img/blue_2bandit_b2.png","68","img/blue_2bandit_b2.png","68","prac","","","11","","","","","","","","","","","","","","","","",""
"430","152154","SARL_v6","SARL_v68s6c9ll1","612bb0204ad8e7e8bed041eb","infreqPrac_resp","","","img/blue_2bandit_b.png","68","img/orange_2bandit_b.png","68","prac","","","11","","","","","","","","","","","","","","","","",""
"null","152313","SARL_v6","SARL_v68s6c9ll1","612bb0204ad8e7e8bed041eb","fixation","","","img/fixation.png","null","","","prac","","","","","","","","","","","","","","","","","","","",""
"389","152707","SARL_v6","SARL_v68s6c9ll1","612bb0204ad8e7e8bed041eb","mixRLPractice","","","img/black_2bandit_b2.png","74","img/black_2bandit_b2.png","","prac","","","11","","","","","","","","","","","","","","","","",""
"null","153464","SARL_v6","SARL_v68s6c9ll1","612bb0204ad8e7e8bed041eb","feedback","","","<div class=""veryhighPoints""> 5 </div>","null","","na","prac","","","12","5","-5","5","","","","","","","","","","","","","",""
"null","153624","SARL_v6","SARL_v68s6c9ll1","612bb0204ad8e7e8bed041eb","fixation","","","img/fixation.png","null","","","prac","","","","","","","","","","","","","","","","","","","",""
"3439","157066","SARL_v6","SARL_v68s6c9ll1","612bb0204ad8e7e8bed041eb","","","","","","","","prac","","","","","","","","","","","","","","","","","","","",""
"737","157806","SARL_v6","SARL_v68s6c9ll1","612bb0204ad8e7e8bed041eb","freq","","","img/orange_2bandit_b2.png","70","","70","test","1","","1","","","","circle","square","1","1","1","1","","","","","","","",""
"null","157876","SARL_v6","SARL_v68s6c9ll1","612bb0204ad8e7e8bed041eb","freq_resp","","","img/orange_2bandit_b.png","70","img/orange_2bandit_b.png","70","test","","","","","","","","","","","1","","","","","","","","",""
"null","158039","SARL_v6","SARL_v68s6c9ll1","612bb0204ad8e7e8bed041eb","fixation","","","img/fixation.png","null","","","test","","","","","","","","","","","","","","","","","","","",""
"349","158392","SARL_v6","SARL_v68s6c9ll1","612bb0204ad8e7e8bed041eb","freq","","","img/orange_2bandit_b2.png","70","","70","test","1","","2","","","","circle","square","2","2","1","1","","","","","","","",""
"null","158855","SARL_v6","SARL_v68s6c9ll1","612bb0204ad8e7e8bed041eb","freq_resp","","","img/orange_2bandit_b.png","70","img/orange_2bandit_b.png","70","test","","","","","","","","","","","1","","","","","","","","",""
"null","159017","SARL_v6","SARL_v68s6c9ll1","612bb0204ad8e7e8bed041eb","fixation","","","img/fixation.png","null","","","test","","","","","","","","","","","","","","","","","","","",""
"280","159301","SARL_v6","SARL_v68s6c9ll1","612bb0204ad8e7e8bed041eb","freq","","","img/orange_2bandit_b2.png","70","","70","test","1","","3","","","","circle","square","3","3","1","1","","","","","","","",""
"null","159830","SARL_v6","SARL_v68s6c9ll1","612bb0204ad8e7e8bed041eb","freq_resp","","","img/orange_2bandit_b.png","70","img/orange_2bandit_b.png","70","test","","","","","","","","","","","1","","","","","","","","",""
"null","159997","SARL_v6","SARL_v68s6c9ll1","612bb0204ad8e7e8bed041eb","fixation","","","img/fixation.png","null","","","test","","","","","","","","","","","","","","","","","","","",""
"376","160376","SARL_v6","SARL_v68s6c9ll1","612bb0204ad8e7e8bed041eb","infreq","","","img/blue_2bandit_b2.png","68","","68","test","1","","4","","","","circle","square","4","4","1","1","","","","","","","",""
"null","160804","SARL_v6","SARL_v68s6c9ll1","612bb0204ad8e7e8bed041eb","infreq_resp","","","img/blue_2bandit_b.png","68","img/blue_2bandit_b.png","68","test","","","","","","","","","","","1","","","","","","","","",""
"null","160958","SARL_v6","SARL_v68s6c9ll1","612bb0204ad8e7e8bed041eb","fixation","","","img/fixation.png","null","","","test","","","","","","","","","","","","","","","","","","","",""
"510","161472","SARL_v6","SARL_v68s6c9ll1","612bb0204ad8e7e8bed041eb","freq","","","img/orange_2bandit_b2.png","70","","70","test","1","","5","","","","circle","square","5","5","1","1","","","","","","","",""
"null","161777","SARL_v6","SARL_v68s6c9ll1","612bb0204ad8e7e8bed041eb","freq_resp","","","img/orange_2bandit_b.png","70","img/orange_2bandit_b.png","70","test","","","","","","","","","","","1","","","","","","","","",""
"null","161936","SARL_v6","SARL_v68s6c9ll1","612bb0204ad8e7e8bed041eb","fixation","","","img/fixation.png","null","","","test","","","","","","","","","","","","","","","","","","","",""
"507","162446","SARL_v6","SARL_v68s6c9ll1","612bb0204ad8e7e8bed041eb","freq","","","img/orange_2bandit_b2.png","70","","70","test","1","","6","","","","circle","square","6","6","1","1","","","","","","","",""
"null","162748","SARL_v6","SARL_v68s6c9ll1","612bb0204ad8e7e8bed041eb","freq_resp","","","img/orange_2bandit_b.png","70","img/orange_2bandit_b.png","70","test","","","","","","","","","","","1","","","","","","","","",""
"null","162910","SARL_v6","SARL_v68s6c9ll1","612bb0204ad8e7e8bed041eb","fixation","","","img/fixation.png","null","","","test","","","","","","","","","","","","","","","","","","","",""
"667","163581","SARL_v6","SARL_v68s6c9ll1","612bb0204ad8e7e8bed041eb","infreq","","","img/blue_2bandit_b2.png","68","","68","test","1","","7","","","","circle","square","7","7","1","1","","","","","","","",""
"null","163731","SARL_v6","SARL_v68s6c9ll1","612bb0204ad8e7e8bed041eb","infreq_resp","","","img/blue_2bandit_b.png","68","img/blue_2bandit_b.png","68","test","","","","","","","","","","","1","","","","","","","","",""
"null","163886","SARL_v6","SARL_v68s6c9ll1","612bb0204ad8e7e8bed041eb","fixation","","","img/fixation.png","null","","","test","","","","","","","","","","","","","","","","","","","",""
"476","164367","SARL_v6","SARL_v68s6c9ll1","612bb0204ad8e7e8bed041eb","freq","","","img/orange_2bandit_b2.png","70","","70","test","1","","8","","","","circle","square","8","8","1","1","","","","","","","",""
"null","164707","SARL_v6","SARL_v68s6c9ll1","612bb0204ad8e7e8bed041eb","freq_resp","","","img/orange_2bandit_b.png","70","img/orange_2bandit_b.png","70","test","","","","","","","","","","","1","","","","","","","","",""
"null","164872","SARL_v6","SARL_v68s6c9ll1","612bb0204ad8e7e8bed041eb","fixation","","","img/fixation.png","null","","","test","","","","","","","","","","","","","","","","","","","",""
"598","165471","SARL_v6","SARL_v68s6c9ll1","612bb0204ad8e7e8bed041eb","freq","","","img/orange_2bandit_b2.png","70","","70","test","1","","9","","","","circle","square","9","9","1","1","","","","","","","",""
"null","165679","SARL_v6","SARL_v68s6c9ll1","612bb0204ad8e7e8bed041eb","freq_resp","","","img/orange_2bandit_b.png","70","img/orange_2bandit_b.png","70","test","","","","","","","","","","","1","","","","","","","","",""
"null","165833","SARL_v6","SARL_v68s6c9ll1","612bb0204ad8e7e8bed041eb","fixation","","","img/fixation.png","null","","","test","","","","","","","","","","","","","","","","","","","",""
"341","166178","SARL_v6","SARL_v68s6c9ll1","612bb0204ad8e7e8bed041eb","freq","","","img/orange_2bandit_b2.png","70","","70","test","1","","10","","","","circle","square","10","10","1","1","","","","","","","",""
"null","166647","SARL_v6","SARL_v68s6c9ll1","612bb0204ad8e7e8bed041eb","freq_resp","","","img/orange_2bandit_b.png","70","img/orange_2bandit_b.png","70","test","","","","","","","","","","","1","","","","","","","","",""
"null","166806","SARL_v6","SARL_v68s6c9ll1","612bb0204ad8e7e8bed041eb","fixation","","","img/fixation.png","null","","","test","","","","","","","","","","","","","","","","","","","",""
"297","167107","SARL_v6","SARL_v68s6c9ll1","612bb0204ad8e7e8bed041eb","freq","","","img/orange_2bandit_b2.png","70","","70","test","1","","11","","","","circle","square","11","11","1","1","","","","","","","",""
"null","167617","SARL_v6","SARL_v68s6c9ll1","612bb0204ad8e7e8bed041eb","freq_resp","","","img/orange_2bandit_b.png","70","img/orange_2bandit_b.png","70","test","","","","","","","","","","","1","","","","","","","","",""
"null","167780","SARL_v6","SARL_v68s6c9ll1","612bb0204ad8e7e8bed041eb","fixation","","","img/fixation.png","null","","","test","","","","","","","","","","","","","","","","","","","",""
"417","168201","SARL_v6","SARL_v68s6c9ll1","612bb0204ad8e7e8bed041eb","freq","","","img/orange_2bandit_b2.png","70","","70","test","1","","12","","","","circle","square","12","12","1","1","","","","","","","",""
"null","168591","SARL_v6","SARL_v68s6c9ll1","612bb0204ad8e7e8bed041eb","freq_resp","","","img/orange_2bandit_b.png","70","img/orange_2bandit_b.png","70","test","","","","","","","","","","","1","","","","","","","","",""
"null","168759","SARL_v6","SARL_v68s6c9ll1","612bb0204ad8e7e8bed041eb","fixation","","","img/fixation.png","null","","","test","","","","","","","","","","","","","","","","","","","",""
"394","169156","SARL_v6","SARL_v68s6c9ll1","612bb0204ad8e7e8bed041eb","freq","","","img/orange_2bandit_b2.png","70","","70","test","1","","13","","","","circle","square","13","13","1","1","","","","","","","",""
"null","169574","SARL_v6","SARL_v68s6c9ll1","612bb0204ad8e7e8bed041eb","freq_resp","","","img/orange_2bandit_b.png","70","img/orange_2bandit_b.png","70","test","","","","","","","","","","","1","","","","","","","","",""
"null","169738","SARL_v6","SARL_v68s6c9ll1","612bb0204ad8e7e8bed041eb","fixation","","","img/fixation.png","null","","","test","","","","","","","","","","","","","","","","","","","",""
"415","170156","SARL_v6","SARL_v68s6c9ll1","612bb0204ad8e7e8bed041eb","freq","","","img/orange_2bandit_b2.png","70","","70","test","1","","14","","","","circle","square","14","14","1","1","","","","","","","",""
"null","170548","SARL_v6","SARL_v68s6c9ll1","612bb0204ad8e7e8bed041eb","freq_resp","","","img/orange_2bandit_b.png","70","img/orange_2bandit_b.png","70","test","","","","","","","","","","","1","","","","","","","","",""
"null","170716","SARL_v6","SARL_v68s6c9ll1","612bb0204ad8e7e8bed041eb","fixation","","","img/fixation.png","null","","","test","","","","","","","","","","","","","","","","","","","",""
"null","171524","SARL_v6","SARL_v68s6c9ll1","612bb0204ad8e7e8bed041eb","freq","","","img/orange_2bandit_b2.png","null","","70","test","0","","15","","","","circle","square","15","15","1","0.9333333333333333","","","","","","","",""
"null","171686","SARL_v6","SARL_v68s6c9ll1","612bb0204ad8e7e8bed041eb","fixation","","","img/fixation.png","null","","","test","","","","","","","","","","","","","","","","","","","",""
"592","172280","SARL_v6","SARL_v68s6c9ll1","612bb0204ad8e7e8bed041eb","infreq","","","img/blue_2bandit_b2.png","68","","68","test","1","","16","","","","circle","square","16","16","1","0.9375","","","","","","","",""
"null","172502","SARL_v6","SARL_v68s6c9ll1","612bb0204ad8e7e8bed041eb","infreq_resp","","","img/blue_2bandit_b.png","68","img/blue_2bandit_b.png","68","test","","","","","","","","","","","1","","","","","","","","",""
"null","172663","SARL_v6","SARL_v68s6c9ll1","612bb0204ad8e7e8bed041eb","fixation","","","img/fixation.png","null","","","test","","","","","","","","","","","","","","","","","","","",""
"498","173163","SARL_v6","SARL_v68s6c9ll1","612bb0204ad8e7e8bed041eb","freq","","","img/orange_2bandit_b2.png","70","","70","test","1","","17","","","","circle","square","17","17","1","0.9411764705882353","","","","","","","",""
"null","173477","SARL_v6","SARL_v68s6c9ll1","612bb0204ad8e7e8bed041eb","freq_resp","","","img/orange_2bandit_b.png","70","img/orange_2bandit_b.png","70","test","","","","","","","","","","","1","","","","","","","","",""
"null","173646","SARL_v6","SARL_v68s6c9ll1","612bb0204ad8e7e8bed041eb","fixation","","","img/fixation.png","null","","","test","","","","","","","","","","","","","","","","","","","",""
"327","173976","SARL_v6","SARL_v68s6c9ll1","612bb0204ad8e7e8bed041eb","freq","","","img/orange_2bandit_b2.png","70","","70","test","1","","18","","","","circle","square","18","18","1","0.9444444444444444","","","","","","","",""
"null","174459","SARL_v6","SARL_v68s6c9ll1","612bb0204ad8e7e8bed041eb","freq_resp","","","img/orange_2bandit_b.png","70","img/orange_2bandit_b.png","70","test","","","","","","","","","","","1","","","","","","","","",""
"null","174617","SARL_v6","SARL_v68s6c9ll1","612bb0204ad8e7e8bed041eb","fixation","","","img/fixation.png","null","","","test","","","","","","","","","","","","","","","","","","","",""
"485","175105","SARL_v6","SARL_v68s6c9ll1","612bb0204ad8e7e8bed041eb","freq","","","img/orange_2bandit_b2.png","70","","70","test","1","","19","","","","circle","square","19","19","1","0.9473684210526315","","","","","","","",""
"null","175432","SARL_v6","SARL_v68s6c9ll1","612bb0204ad8e7e8bed041eb","freq_resp","","","img/orange_2bandit_b.png","70","img/orange_2bandit_b.png","70","test","","","","","","","","","","","1","","","","","","","","",""
"null","175591","SARL_v6","SARL_v68s6c9ll1","612bb0204ad8e7e8bed041eb","fixation","","","img/fixation.png","null","","","test","","","","","","","","","","","","","","","","","","","",""
"356","175951","SARL_v6","SARL_v68s6c9ll1","612bb0204ad8e7e8bed041eb","freq","","","img/orange_2bandit_b2.png","70","","70","test","1","","20","","","","circle","square","20","20","1","0.95","","","","","","","",""
"null","176407","SARL_v6","SARL_v68s6c9ll1","612bb0204ad8e7e8bed041eb","freq_resp","","","img/orange_2bandit_b.png","70","img/orange_2bandit_b.png","70","test","","","","","","","","","","","1","","","","","","","","",""
"null","176573","SARL_v6","SARL_v68s6c9ll1","612bb0204ad8e7e8bed041eb","fixation","","","img/fixation.png","null","","","test","","","","","","","","","","","","","","","","","","","",""
"709","177285","SARL_v6","SARL_v68s6c9ll1","612bb0204ad8e7e8bed041eb","rl","","","img/black_2bandit_b2.png","74","","0","test","","","21","","","-3","circle","square","","0","1","","74","-3","-3","-3","-3","circle","1","0"
"null","178046","SARL_v6","SARL_v68s6c9ll1","612bb0204ad8e7e8bed041eb","feedback","","","<div class=""verylowPoints""> -3 </div>","null","","na","test","","","NaN","","","","","","","","1","","74","","","","","","1",""
"560","178610","SARL_v6","SARL_v68s6c9ll1","612bb0204ad8e7e8bed041eb","freq","","","img/orange_2bandit_b2.png","70","","70","test","1","","22","","","","circle","square","21","1","2","0.9523809523809523","","","","","","","",""
"null","178862","SARL_v6","SARL_v68s6c9ll1","612bb0204ad8e7e8bed041eb","freq_resp","","","img/orange_2bandit_b.png","70","img/orange_2bandit_b.png","70","test","","","","","","","","","","","2","","","","","","","","",""
"null","179020","SARL_v6","SARL_v68s6c9ll1","612bb0204ad8e7e8bed041eb","fixation","","","img/fixation.png","null","","","test","","","","","","","","","","","","","","","","","","","",""
"387","179410","SARL_v6","SARL_v68s6c9ll1","612bb0204ad8e7e8bed041eb","freq","","","img/orange_2bandit_b2.png","70","","70","test","1","","23","","","","circle","square","22","2","2","0.9545454545454546","","","","","","","",""
"null","179833","SARL_v6","SARL_v68s6c9ll1","612bb0204ad8e7e8bed041eb","freq_resp","","","img/orange_2bandit_b.png","70","img/orange_2bandit_b.png","70","test","","","","","","","","","","","2","","","","","","","","",""
"null","179990","SARL_v6","SARL_v68s6c9ll1","612bb0204ad8e7e8bed041eb","fixation","","","img/fixation.png","null","","","test","","","","","","","","","","","","","","","","","","","",""
"311","180305","SARL_v6","SARL_v68s6c9ll1","612bb0204ad8e7e8bed041eb","freq","","","img/orange_2bandit_b2.png","70","","70","test","1","","24","","","","circle","square","23","3","2","0.9565217391304348","","","","","","","",""
"null","180808","SARL_v6","SARL_v68s6c9ll1","612bb0204ad8e7e8bed041eb","freq_resp","","","img/orange_2bandit_b.png","70","img/orange_2bandit_b.png","70","test","","","","","","","","","","","2","","","","","","","","",""
"null","180966","SARL_v6","SARL_v68s6c9ll1","612bb0204ad8e7e8bed041eb","fixation","","","img/fixation.png","null","","","test","","","","","","","","","","","","","","","","","","","",""
"327","181296","SARL_v6","SARL_v68s6c9ll1","612bb0204ad8e7e8bed041eb","freq","","","img/orange_2bandit_b2.png","70","","70","test","1","","25","","","","circle","square","24","4","2","0.9583333333333334","","","","","","","",""
"null","181772","SARL_v6","SARL_v68s6c9ll1","612bb0204ad8e7e8bed041eb","freq_resp","","","img/orange_2bandit_b.png","70","img/orange_2bandit_b.png","70","test","","","","","","","","","","","2","","","","","","","","",""
"null","181935","SARL_v6","SARL_v68s6c9ll1","612bb0204ad8e7e8bed041eb","fixation","","","img/fixation.png","null","","","test","","","","","","","","","","","","","","","","","","","",""
"352","182290","SARL_v6","SARL_v68s6c9ll1","612bb0204ad8e7e8bed041eb","freq","","","img/orange_2bandit_b2.png","70","","70","test","1","","26","","","","circle","square","25","5","2","0.96","","","","","","","",""
"null","182741","SARL_v6","SARL_v68s6c9ll1","612bb0204ad8e7e8bed041eb","freq_resp","","","img/orange_2bandit_b.png","70","img/orange_2bandit_b.png","70","test","","","","","","","","","","","2","","","","","","","","",""
"null","182894","SARL_v6","SARL_v68s6c9ll1","612bb0204ad8e7e8bed041eb","fixation","","","img/fixation.png","null","","","test","","","","","","","","","","","","","","","","","","","",""
"338","183237","SARL_v6","SARL_v68s6c9ll1","612bb0204ad8e7e8bed041eb","freq","","","img/orange_2bandit_b2.png","70","","70","test","1","","27","","","","circle","square","26","6","2","0.9615384615384616","","","","","","","",""
"null","183714","SARL_v6","SARL_v68s6c9ll1","612bb0204ad8e7e8bed041eb","freq_resp","","","img/orange_2bandit_b.png","70","img/orange_2bandit_b.png","70","test","","","","","","","","","","","2","","","","","","","","",""
"null","183870","SARL_v6","SARL_v68s6c9ll1","612bb0204ad8e7e8bed041eb","fixation","","","img/fixation.png","null","","","test","","","","","","","","","","","","","","","","","","","",""
"323","184195","SARL_v6","SARL_v68s6c9ll1","612bb0204ad8e7e8bed041eb","freq","","","img/orange_2bandit_b2.png","70","","70","test","1","","28","","","","circle","square","27","7","2","0.9629629629629629","","","","","","","",""
"null","184685","SARL_v6","SARL_v68s6c9ll1","612bb0204ad8e7e8bed041eb","freq_resp","","","img/orange_2bandit_b.png","70","img/orange_2bandit_b.png","70","test","","","","","","","","","","","2","","","","","","","","",""
"null","184852","SARL_v6","SARL_v68s6c9ll1","612bb0204ad8e7e8bed041eb","fixation","","","img/fixation.png","null","","","test","","","","","","","","","","","","","","","","","","","",""
"322","185178","SARL_v6","SARL_v68s6c9ll1","612bb0204ad8e7e8bed041eb","freq","","","img/orange_2bandit_b2.png","70","","70","test","1","","29","","","","circle","square","28","8","2","0.9642857142857143","","","","","","","",""
"null","185660","SARL_v6","SARL_v68s6c9ll1","612bb0204ad8e7e8bed041eb","freq_resp","","","img/orange_2bandit_b.png","70","img/orange_2bandit_b.png","70","test","","","","","","","","","","","2","","","","","","","","",""
"null","185827","SARL_v6","SARL_v68s6c9ll1","612bb0204ad8e7e8bed041eb","fixation","","","img/fixation.png","null","","","test","","","","","","","","","","","","","","","","","","","",""
"295","186125","SARL_v6","SARL_v68s6c9ll1","612bb0204ad8e7e8bed041eb","freq","","","img/orange_2bandit_b2.png","70","","70","test","1","","30","","","","circle","square","29","9","2","0.9655172413793104","","","","","","","",""
"null","186645","SARL_v6","SARL_v68s6c9ll1","612bb0204ad8e7e8bed041eb","freq_resp","","","img/orange_2bandit_b.png","70","img/orange_2bandit_b.png","70","test","","","","","","","","","","","2","","","","","","","","",""
"null","186799","SARL_v6","SARL_v68s6c9ll1","612bb0204ad8e7e8bed041eb","fixation","","","img/fixation.png","null","","","test","","","","","","","","","","","","","","","","","","","",""
"277","187080","SARL_v6","SARL_v68s6c9ll1","612bb0204ad8e7e8bed041eb","freq","","","img/orange_2bandit_b2.png","70","","70","test","1","","31","","","","circle","square","30","10","2","0.9666666666666667","","","","","","","",""
"null","187619","SARL_v6","SARL_v68s6c9ll1","612bb0204ad8e7e8bed041eb","freq_resp","","","img/orange_2bandit_b.png","70","img/orange_2bandit_b.png","70","test","","","","","","","","","","","2","","","","","","","","",""
"null","187774","SARL_v6","SARL_v68s6c9ll1","612bb0204ad8e7e8bed041eb","fixation","","","img/fixation.png","null","","","test","","","","","","","","","","","","","","","","","","","",""
"283","188061","SARL_v6","SARL_v68s6c9ll1","612bb0204ad8e7e8bed041eb","freq","","","img/orange_2bandit_b2.png","70","","70","test","1","","32","","","","circle","square","31","11","2","0.967741935483871","","","","","","","",""
"null","188596","SARL_v6","SARL_v68s6c9ll1","612bb0204ad8e7e8bed041eb","freq_resp","","","img/orange_2bandit_b.png","70","img/orange_2bandit_b.png","70","test","","","","","","","","","","","2","","","","","","","","",""
"null","188752","SARL_v6","SARL_v68s6c9ll1","612bb0204ad8e7e8bed041eb","fixation","","","img/fixation.png","null","","","test","","","","","","","","","","","","","","","","","","","",""
"289","189045","SARL_v6","SARL_v68s6c9ll1","612bb0204ad8e7e8bed041eb","freq","","","img/orange_2bandit_b2.png","70","","70","test","1","","33","","","","circle","square","32","12","2","0.96875","","","","","","","",""
"null","189561","SARL_v6","SARL_v68s6c9ll1","612bb0204ad8e7e8bed041eb","freq_resp","","","img/orange_2bandit_b.png","70","img/orange_2bandit_b.png","70","test","","","","","","","","","","","2","","","","","","","","",""
"null","189715","SARL_v6","SARL_v68s6c9ll1","612bb0204ad8e7e8bed041eb","fixation","","","img/fixation.png","null","","","test","","","","","","","","","","","","","","","","","","","",""
"282","190000","SARL_v6","SARL_v68s6c9ll1","612bb0204ad8e7e8bed041eb","freq","","","img/orange_2bandit_b2.png","70","","70","test","1","","34","","","","circle","square","33","13","2","0.9696969696969697","","","","","","","",""
"null","190525","SARL_v6","SARL_v68s6c9ll1","612bb0204ad8e7e8bed041eb","freq_resp","","","img/orange_2bandit_b.png","70","img/orange_2bandit_b.png","70","test","","","","","","","","","","","2","","","","","","","","",""
"null","190681","SARL_v6","SARL_v68s6c9ll1","612bb0204ad8e7e8bed041eb","fixation","","","img/fixation.png","null","","","test","","","","","","","","","","","","","","","","","","","",""
"335","191020","SARL_v6","SARL_v68s6c9ll1","612bb0204ad8e7e8bed041eb","freq","","","img/orange_2bandit_b2.png","70","","70","test","1","","35","","","","circle","square","34","14","2","0.9705882352941176","","","","","","","",""
"null","191500","SARL_v6","SARL_v68s6c9ll1","612bb0204ad8e7e8bed041eb","freq_resp","","","img/orange_2bandit_b.png","70","img/orange_2bandit_b.png","70","test","","","","","","","","","","","2","","","","","","","","",""
"null","191654","SARL_v6","SARL_v68s6c9ll1","612bb0204ad8e7e8bed041eb","fixation","","","img/fixation.png","null","","","test","","","","","","","","","","","","","","","","","","","",""
"307","191966","SARL_v6","SARL_v68s6c9ll1","612bb0204ad8e7e8bed041eb","freq","","","img/orange_2bandit_b2.png","70","","70","test","1","","36","","","","circle","square","35","15","2","0.9714285714285714","","","","","","","",""
"null","192464","SARL_v6","SARL_v68s6c9ll1","612bb0204ad8e7e8bed041eb","freq_resp","","","img/orange_2bandit_b.png","70","img/orange_2bandit_b.png","70","test","","","","","","","","","","","2","","","","","","","","",""
"null","192621","SARL_v6","SARL_v68s6c9ll1","612bb0204ad8e7e8bed041eb","fixation","","","img/fixation.png","null","","","test","","","","","","","","","","","","","","","","","","","",""
"321","192945","SARL_v6","SARL_v68s6c9ll1","612bb0204ad8e7e8bed041eb","freq","","","img/orange_2bandit_b2.png","70","","70","test","1","","37","","","","circle","square","36","16","2","0.9722222222222222","","","","","","","",""
"null","193430","SARL_v6","SARL_v68s6c9ll1","612bb0204ad8e7e8bed041eb","freq_resp","","","img/orange_2bandit_b.png","70","img/orange_2bandit_b.png","70","test","","","","","","","","","","","2","","","","","","","","",""
"null","193585","SARL_v6","SARL_v68s6c9ll1","612bb0204ad8e7e8bed041eb","fixation","","","img/fixation.png","null","","","test","","","","","","","","","","","","","","","","","","","",""
"543","194131","SARL_v6","SARL_v68s6c9ll1","612bb0204ad8e7e8bed041eb","infreq","","","img/blue_2bandit_b2.png","68","","68","test","1","","38","","","","circle","square","37","17","2","0.972972972972973","","","","","","","",""
"null","194393","SARL_v6","SARL_v68s6c9ll1","612bb0204ad8e7e8bed041eb","infreq_resp","","","img/blue_2bandit_b.png","68","img/blue_2bandit_b.png","68","test","","","","","","","","","","","2","","","","","","","","",""
"null","194549","SARL_v6","SARL_v68s6c9ll1","612bb0204ad8e7e8bed041eb","fixation","","","img/fixation.png","null","","","test","","","","","","","","","","","","","","","","","","","",""
"418","194971","SARL_v6","SARL_v68s6c9ll1","612bb0204ad8e7e8bed041eb","freq","","","img/orange_2bandit_b2.png","70","","70","test","1","","39","","","","circle","square","38","18","2","0.9736842105263158","","","","","","","",""
"null","195357","SARL_v6","SARL_v68s6c9ll1","612bb0204ad8e7e8bed041eb","freq_resp","","","img/orange_2bandit_b.png","70","img/orange_2bandit_b.png","70","test","","","","","","","","","","","2","","","","","","","","",""
"null","195514","SARL_v6","SARL_v68s6c9ll1","612bb0204ad8e7e8bed041eb","fixation","","","img/fixation.png","null","","","test","","","","","","","","","","","","","","","","","","","",""
"325","195841","SARL_v6","SARL_v68s6c9ll1","612bb0204ad8e7e8bed041eb","freq","","","img/orange_2bandit_b2.png","70","","70","test","1","","40","","","","circle","square","39","19","2","0.9743589743589743","","","","","","","",""
"null","196325","SARL_v6","SARL_v68s6c9ll1","612bb0204ad8e7e8bed041eb","freq_resp","","","img/orange_2bandit_b.png","70","img/orange_2bandit_b.png","70","test","","","","","","","","","","","2","","","","","","","","",""
"null","196482","SARL_v6","SARL_v68s6c9ll1","612bb0204ad8e7e8bed041eb","fixation","","","img/fixation.png","null","","","test","","","","","","","","","","","","","","","","","","","",""
"268","196755","SARL_v6","SARL_v68s6c9ll1","612bb0204ad8e7e8bed041eb","freq","","","img/orange_2bandit_b2.png","70","","70","test","1","","41","","","","circle","square","40","20","2","0.975","","","","","","","",""
"null","197303","SARL_v6","SARL_v68s6c9ll1","612bb0204ad8e7e8bed041eb","freq_resp","","","img/orange_2bandit_b.png","70","img/orange_2bandit_b.png","70","test","","","","","","","","","","","2","","","","","","","","",""
"null","197456","SARL_v6","SARL_v68s6c9ll1","612bb0204ad8e7e8bed041eb","fixation","","","img/fixation.png","null","","","test","","","","","","","","","","","","","","","","","","","",""
"185","197645","SARL_v6","SARL_v68s6c9ll1","612bb0204ad8e7e8bed041eb","freq","","","img/orange_2bandit_b2.png","70","","70","test","1","","42","","","","circle","square","41","21","2","0.975609756097561","","","","","","","",""
"null","198266","SARL_v6","SARL_v68s6c9ll1","612bb0204ad8e7e8bed041eb","freq_resp","","","img/orange_2bandit_b.png","70","img/orange_2bandit_b.png","70","test","","","","","","","","","","","2","","","","","","","","",""
"null","198423","SARL_v6","SARL_v68s6c9ll1","612bb0204ad8e7e8bed041eb","fixation","","","img/fixation.png","null","","","test","","","","","","","","","","","","","","","","","","","",""
"199","198624","SARL_v6","SARL_v68s6c9ll1","612bb0204ad8e7e8bed041eb","freq","","","img/orange_2bandit_b2.png","70","","70","test","1","","43","","","","circle","square","42","22","2","0.9761904761904762","","","","","","","",""
"null","199231","SARL_v6","SARL_v68s6c9ll1","612bb0204ad8e7e8bed041eb","freq_resp","","","img/orange_2bandit_b.png","70","img/orange_2bandit_b.png","70","test","","","","","","","","","","","2","","","","","","","","",""
"null","199387","SARL_v6","SARL_v68s6c9ll1","612bb0204ad8e7e8bed041eb","fixation","","","img/fixation.png","null","","","test","","","","","","","","","","","","","","","","","","","",""
"249","199640","SARL_v6","SARL_v68s6c9ll1","612bb0204ad8e7e8bed041eb","freq","","","img/orange_2bandit_b2.png","70","","70","test","1","","44","","","","circle","square","43","23","2","0.9767441860465116","","","","","","","",""
"null","200195","SARL_v6","SARL_v68s6c9ll1","612bb0204ad8e7e8bed041eb","freq_resp","","","img/orange_2bandit_b.png","70","img/orange_2bandit_b.png","70","test","","","","","","","","","","","2","","","","","","","","",""
"null","200352","SARL_v6","SARL_v68s6c9ll1","612bb0204ad8e7e8bed041eb","fixation","","","img/fixation.png","null","","","test","","","","","","","","","","","","","","","","","","","",""
"204","200560","SARL_v6","SARL_v68s6c9ll1","612bb0204ad8e7e8bed041eb","freq","","","img/orange_2bandit_b2.png","70","","70","test","1","","45","","","","circle","square","44","24","2","0.9772727272727273","","","","","","","",""
"null","201161","SARL_v6","SARL_v68s6c9ll1","612bb0204ad8e7e8bed041eb","freq_resp","","","img/orange_2bandit_b.png","70","img/orange_2bandit_b.png","70","test","","","","","","","","","","","2","","","","","","","","",""
"null","201314","SARL_v6","SARL_v68s6c9ll1","612bb0204ad8e7e8bed041eb","fixation","","","img/fixation.png","null","","","test","","","","","","","","","","","","","","","","","","","",""
"null","202126","SARL_v6","SARL_v68s6c9ll1","612bb0204ad8e7e8bed041eb","infreq","","","img/blue_2bandit_b2.png","null","","68","test","0","","46","","","","circle","square","45","25","2","0.9555555555555556","","","","","","","",""
"null","202282","SARL_v6","SARL_v68s6c9ll1","612bb0204ad8e7e8bed041eb","fixation","","","img/fixation.png","null","","","test","","","","","","","","","","","","","","","","","","","",""
"551","202836","SARL_v6","SARL_v68s6c9ll1","612bb0204ad8e7e8bed041eb","freq","","","img/orange_2bandit_b2.png","70","","70","test","1","","47","","","","circle","square","46","26","2","0.9565217391304348","","","","","","","",""
"null","203102","SARL_v6","SARL_v68s6c9ll1","612bb0204ad8e7e8bed041eb","freq_resp","","","img/orange_2bandit_b.png","70","img/orange_2bandit_b.png","70","test","","","","","","","","","","","2","","","","","","","","",""
"null","203258","SARL_v6","SARL_v68s6c9ll1","612bb0204ad8e7e8bed041eb","fixation","","","img/fixation.png","null","","","test","","","","","","","","","","","","","","","","","","","",""
"648","203910","SARL_v6","SARL_v68s6c9ll1","612bb0204ad8e7e8bed041eb","rl","","","img/black_2bandit_b2.png","74","","0","test","","","48","","","-8","circle","square","","0","2","","74","-8","-5","-8","-5","circle","2","0"
"null","204667","SARL_v6","SARL_v68s6c9ll1","612bb0204ad8e7e8bed041eb","feedback","","","<div class=""verylowPoints""> -8 </div>","null","","na","test","","","NaN","","","","","","","","2","","74","","","","","","2",""
"759","205429","SARL_v6","SARL_v68s6c9ll1","612bb0204ad8e7e8bed041eb","freq","","","img/orange_2bandit_b2.png","70","","70","test","1","","49","","","","circle","square","47","1","3","0.9574468085106383","","","","","","","",""
"null","205489","SARL_v6","SARL_v68s6c9ll1","612bb0204ad8e7e8bed041eb","freq_resp","","","img/orange_2bandit_b.png","70","img/orange_2bandit_b.png","70","test","","","","","","","","","","","3","","","","","","","","",""
"null","205645","SARL_v6","SARL_v68s6c9ll1","612bb0204ad8e7e8bed041eb","fixation","","","img/fixation.png","null","","","test","","","","","","","","","","","","","","","","","","","",""
"541","206190","SARL_v6","SARL_v68s6c9ll1","612bb0204ad8e7e8bed041eb","freq","","","img/orange_2bandit_b2.png","70","","70","test","1","","50","","","","circle","square","48","2","3","0.9583333333333334","","","","","","","",""
"null","206455","SARL_v6","SARL_v68s6c9ll1","612bb0204ad8e7e8bed041eb","freq_resp","","","img/orange_2bandit_b.png","70","img/orange_2bandit_b.png","70","test","","","","","","","","","","","3","","","","","","","","",""
"null","206611","SARL_v6","SARL_v68s6c9ll1","612bb0204ad8e7e8bed041eb","fixation","","","img/fixation.png","null","","","test","","","","","","","","","","","","","","","","","","","",""
"305","206921","SARL_v6","SARL_v68s6c9ll1","612bb0204ad8e7e8bed041eb","freq","","","img/orange_2bandit_b2.png","70","","70","test","1","","51","","","","circle","square","49","3","3","0.9591836734693877","","","","","","","",""
"null","207421","SARL_v6","SARL_v68s6c9ll1","612bb0204ad8e7e8bed041eb","freq_resp","","","img/orange_2bandit_b.png","70","img/orange_2bandit_b.png","70","test","","","","","","","","","","","3","","","","","","","","",""
"null","207576","SARL_v6","SARL_v68s6c9ll1","612bb0204ad8e7e8bed041eb","fixation","","","img/fixation.png","null","","","test","","","","","","","","","","","","","","","","","","","",""
"280","207860","SARL_v6","SARL_v68s6c9ll1","612bb0204ad8e7e8bed041eb","freq","","","img/orange_2bandit_b2.png","70","","70","test","1","","52","","","","circle","square","50","4","3","0.96","","","","","","","",""
"null","208396","SARL_v6","SARL_v68s6c9ll1","612bb0204ad8e7e8bed041eb","freq_resp","","","img/orange_2bandit_b.png","70","img/orange_2bandit_b.png","70","test","","","","","","","","","","","3","","","","","","","","",""
"null","208552","SARL_v6","SARL_v68s6c9ll1","612bb0204ad8e7e8bed041eb","fixation","","","img/fixation.png","null","","","test","","","","","","","","","","","","","","","","","","","",""
"310","208865","SARL_v6","SARL_v68s6c9ll1","612bb0204ad8e7e8bed041eb","freq","","","img/orange_2bandit_b2.png","70","","70","test","1","","53","","","","circle","square","51","5","3","0.9607843137254902","","","","","","","",""
"null","209360","SARL_v6","SARL_v68s6c9ll1","612bb0204ad8e7e8bed041eb","freq_resp","","","img/orange_2bandit_b.png","70","img/orange_2bandit_b.png","70","test","","","","","","","","","","","3","","","","","","","","",""
"null","209515","SARL_v6","SARL_v68s6c9ll1","612bb0204ad8e7e8bed041eb","fixation","","","img/fixation.png","null","","","test","","","","","","","","","","","","","","","","","","","",""
"402","209921","SARL_v6","SARL_v68s6c9ll1","612bb0204ad8e7e8bed041eb","freq","","","img/orange_2bandit_b2.png","70","","70","test","1","","54","","","","circle","square","52","6","3","0.9615384615384616","","","","","","","",""
"null","210336","SARL_v6","SARL_v68s6c9ll1","612bb0204ad8e7e8bed041eb","freq_resp","","","img/orange_2bandit_b.png","70","img/orange_2bandit_b.png","70","test","","","","","","","","","","","3","","","","","","","","",""
"null","210491","SARL_v6","SARL_v68s6c9ll1","612bb0204ad8e7e8bed041eb","fixation","","","img/fixation.png","null","","","test","","","","","","","","","","","","","","","","","","","",""
"356","210850","SARL_v6","SARL_v68s6c9ll1","612bb0204ad8e7e8bed041eb","freq","","","img/orange_2bandit_b2.png","70","","70","test","1","","55","","","","circle","square","53","7","3","0.9622641509433962","","","","","","","",""
"null","211312","SARL_v6","SARL_v68s6c9ll1","612bb0204ad8e7e8bed041eb","freq_resp","","","img/orange_2bandit_b.png","70","img/orange_2bandit_b.png","70","test","","","","","","","","","","","3","","","","","","","","",""
"null","211465","SARL_v6","SARL_v68s6c9ll1","612bb0204ad8e7e8bed041eb","fixation","","","img/fixation.png","null","","","test","","","","","","","","","","","","","","","","","","","",""
"751","212220","SARL_v6","SARL_v68s6c9ll1","612bb0204ad8e7e8bed041eb","infreq","","","img/blue_2bandit_b2.png","68","","68","test","1","","56","","","","circle","square","54","8","3","0.9629629629629629","","","","","","","",""
"null","212273","SARL_v6","SARL_v68s6c9ll1","612bb0204ad8e7e8bed041eb","infreq_resp","","","img/blue_2bandit_b.png","68","img/blue_2bandit_b.png","68","test","","","","","","","","","","","3","","","","","","","","",""
"null","212431","SARL_v6","SARL_v68s6c9ll1","612bb0204ad8e7e8bed041eb","fixation","","","img/fixation.png","null","","","test","","","","","","","","","","","","","","","","","","","",""
"471","212904","SARL_v6","SARL_v68s6c9ll1","612bb0204ad8e7e8bed041eb","freq","","","img/orange_2bandit_b2.png","70","","70","test","1","","57","","","","circle","square","55","9","3","0.9636363636363636","","","","","","","",""
"null","213242","SARL_v6","SARL_v68s6c9ll1","612bb0204ad8e7e8bed041eb","freq_resp","","","img/orange_2bandit_b.png","70","img/orange_2bandit_b.png","70","test","","","","","","","","","","","3","","","","","","","","",""
"null","213397","SARL_v6","SARL_v68s6c9ll1","612bb0204ad8e7e8bed041eb","fixation","","","img/fixation.png","null","","","test","","","","","","","","","","","","","","","","","","","",""
"335","213735","SARL_v6","SARL_v68s6c9ll1","612bb0204ad8e7e8bed041eb","freq","","","img/orange_2bandit_b2.png","70","","70","test","1","","58","","","","circle","square","56","10","3","0.9642857142857143","","","","","","","",""
"null","214204","SARL_v6","SARL_v68s6c9ll1","612bb0204ad8e7e8bed041eb","freq_resp","","","img/orange_2bandit_b.png","70","img/orange_2bandit_b.png","70","test","","","","","","","","","","","3","","","","","","","","",""
"null","214361","SARL_v6","SARL_v68s6c9ll1","612bb0204ad8e7e8bed041eb","fixation","","","img/fixation.png","null","","","test","","","","","","","","","","","","","","","","","","","",""
"296","214659","SARL_v6","SARL_v68s6c9ll1","612bb0204ad8e7e8bed041eb","freq","","","img/orange_2bandit_b2.png","70","","70","test","1","","59","","","","circle","square","57","11","3","0.9649122807017544","","","","","","","",""
"null","215170","SARL_v6","SARL_v68s6c9ll1","612bb0204ad8e7e8bed041eb","freq_resp","","","img/orange_2bandit_b.png","70","img/orange_2bandit_b.png","70","test","","","","","","","","","","","3","","","","","","","","",""
"null","215327","SARL_v6","SARL_v68s6c9ll1","612bb0204ad8e7e8bed041eb","fixation","","","img/fixation.png","null","","","test","","","","","","","","","","","","","","","","","","","",""
"469","215800","SARL_v6","SARL_v68s6c9ll1","612bb0204ad8e7e8bed041eb","freq","","","img/orange_2bandit_b2.png","70","","70","test","1","","60","","","","circle","square","58","12","3","0.9655172413793104","","","","","","","",""
"null","216148","SARL_v6","SARL_v68s6c9ll1","612bb0204ad8e7e8bed041eb","freq_resp","","","img/orange_2bandit_b.png","70","img/orange_2bandit_b.png","70","test","","","","","","","","","","","3","","","","","","","","",""
"null","216304","SARL_v6","SARL_v68s6c9ll1","612bb0204ad8e7e8bed041eb","fixation","","","img/fixation.png","null","","","test","","","","","","","","","","","","","","","","","","","",""
"327","216636","SARL_v6","SARL_v68s6c9ll1","612bb0204ad8e7e8bed041eb","freq","","","img/orange_2bandit_b2.png","70","","70","test","1","","61","","","","circle","square","59","13","3","0.9661016949152542","","","","","","","",""
"null","217117","SARL_v6","SARL_v68s6c9ll1","612bb0204ad8e7e8bed041eb","freq_resp","","","img/orange_2bandit_b.png","70","img/orange_2bandit_b.png","70","test","","","","","","","","","","","3","","","","","","","","",""
"null","217273","SARL_v6","SARL_v68s6c9ll1","612bb0204ad8e7e8bed041eb","fixation","","","img/fixation.png","null","","","test","","","","","","","","","","","","","","","","","","","",""
"328","217604","SARL_v6","SARL_v68s6c9ll1","612bb0204ad8e7e8bed041eb","freq","","","img/orange_2bandit_b2.png","70","","70","test","1","","62","","","","circle","square","60","14","3","0.9666666666666667","","","","","","","",""
"null","218084","SARL_v6","SARL_v68s6c9ll1","612bb0204ad8e7e8bed041eb","freq_resp","","","img/orange_2bandit_b.png","70","img/orange_2bandit_b.png","70","test","","","","","","","","","","","3","","","","","","","","",""
"null","218239","SARL_v6","SARL_v68s6c9ll1","612bb0204ad8e7e8bed041eb","fixation","","","img/fixation.png","null","","","test","","","","","","","","","","","","","","","","","","","",""
"257","218501","SARL_v6","SARL_v68s6c9ll1","612bb0204ad8e7e8bed041eb","freq","","","img/orange_2bandit_b2.png","70","","70","test","1","","63","","","","circle","square","61","15","3","0.9672131147540983","","","","","","","",""
"null","219050","SARL_v6","SARL_v68s6c9ll1","612bb0204ad8e7e8bed041eb","freq_resp","","","img/orange_2bandit_b.png","70","img/orange_2bandit_b.png","70","test","","","","","","","","","","","3","","","","","","","","",""
"null","219205","SARL_v6","SARL_v68s6c9ll1","612bb0204ad8e7e8bed041eb","fixation","","","img/fixation.png","null","","","test","","","","","","","","","","","","","","","","","","","",""
"306","219514","SARL_v6","SARL_v68s6c9ll1","612bb0204ad8e7e8bed041eb","freq","","","img/orange_2bandit_b2.png","70","","70","test","1","","64","","","","circle","square","62","16","3","0.967741935483871","","","","","","","",""
"null","220027","SARL_v6","SARL_v68s6c9ll1","612bb0204ad8e7e8bed041eb","freq_resp","","","img/orange_2bandit_b.png","70","img/orange_2bandit_b.png","70","test","","","","","","","","","","","3","","","","","","","","",""
"null","220182","SARL_v6","SARL_v68s6c9ll1","612bb0204ad8e7e8bed041eb","fixation","","","img/fixation.png","null","","","test","","","","","","","","","","","","","","","","","","","",""
"325","220509","SARL_v6","SARL_v68s6c9ll1","612bb0204ad8e7e8bed041eb","freq","","","img/orange_2bandit_b2.png","70","","70","test","1","","65","","","","circle","square","63","17","3","0.9682539682539683","","","","","","","",""
"null","220990","SARL_v6","SARL_v68s6c9ll1","612bb0204ad8e7e8bed041eb","freq_resp","","","img/orange_2bandit_b.png","70","img/orange_2bandit_b.png","70","test","","","","","","","","","","","3","","","","","","","","",""
"null","221145","SARL_v6","SARL_v68s6c9ll1","612bb0204ad8e7e8bed041eb","fixation","","","img/fixation.png","null","","","test","","","","","","","","","","","","","","","","","","","",""
"292","221440","SARL_v6","SARL_v68s6c9ll1","612bb0204ad8e7e8bed041eb","freq","","","img/orange_2bandit_b2.png","70","","70","test","1","","66","","","","circle","square","64","18","3","0.96875","","","","","","","",""
"null","221955","SARL_v6","SARL_v68s6c9ll1","612bb0204ad8e7e8bed041eb","freq_resp","","","img/orange_2bandit_b.png","70","img/orange_2bandit_b.png","70","test","","","","","","","","","","","3","","","","","","","","",""
"null","222108","SARL_v6","SARL_v68s6c9ll1","612bb0204ad8e7e8bed041eb","fixation","","","img/fixation.png","null","","","test","","","","","","","","","","","","","","","","","","","",""
"317","222429","SARL_v6","SARL_v68s6c9ll1","612bb0204ad8e7e8bed041eb","freq","","","img/orange_2bandit_b2.png","70","","70","test","1","","67","","","","circle","square","65","19","3","0.9692307692307692","","","","","","","",""
"null","222917","SARL_v6","SARL_v68s6c9ll1","612bb0204ad8e7e8bed041eb","freq_resp","","","img/orange_2bandit_b.png","70","img/orange_2bandit_b.png","70","test","","","","","","","","","","","3","","","","","","","","",""
"null","223073","SARL_v6","SARL_v68s6c9ll1","612bb0204ad8e7e8bed041eb","fixation","","","img/fixation.png","null","","","test","","","","","","","","","","","","","","","","","","","",""
"359","223435","SARL_v6","SARL_v68s6c9ll1","612bb0204ad8e7e8bed041eb","freq","","","img/orange_2bandit_b2.png","70","","70","test","1","","68","","","","circle","square","66","20","3","0.9696969696969697","","","","","","","",""
"null","223885","SARL_v6","SARL_v68s6c9ll1","612bb0204ad8e7e8bed041eb","freq_resp","","","img/orange_2bandit_b.png","70","img/orange_2bandit_b.png","70","test","","","","","","","","","","","3","","","","","","","","",""
"null","224042","SARL_v6","SARL_v68s6c9ll1","612bb0204ad8e7e8bed041eb","fixation","","","img/fixation.png","null","","","test","","","","","","","","","","","","","","","","","","","",""
"639","224684","SARL_v6","SARL_v68s6c9ll1","612bb0204ad8e7e8bed041eb","infreq","","","img/blue_2bandit_b2.png","68","","68","test","1","","69","","","","circle","square","67","21","3","0.9701492537313433","","","","","","","",""
"null","224861","SARL_v6","SARL_v68s6c9ll1","612bb0204ad8e7e8bed041eb","infreq_resp","","","img/blue_2bandit_b.png","68","img/blue_2bandit_b.png","68","test","","","","","","","","","","","3","","","","","","","","",""
"null","225015","SARL_v6","SARL_v68s6c9ll1","612bb0204ad8e7e8bed041eb","fixation","","","img/fixation.png","null","","","test","","","","","","","","","","","","","","","","","","","",""
"418","225436","SARL_v6","SARL_v68s6c9ll1","612bb0204ad8e7e8bed041eb","freq","","","img/orange_2bandit_b2.png","70","","70","test","1","","70","","","","circle","square","68","22","3","0.9705882352941176","","","","","","","",""
"null","225826","SARL_v6","SARL_v68s6c9ll1","612bb0204ad8e7e8bed041eb","freq_resp","","","img/orange_2bandit_b.png","70","img/orange_2bandit_b.png","70","test","","","","","","","","","","","3","","","","","","","","",""
"null","225983","SARL_v6","SARL_v68s6c9ll1","612bb0204ad8e7e8bed041eb","fixation","","","img/fixation.png","null","","","test","","","","","","","","","","","","","","","","","","","",""
"293","226279","SARL_v6","SARL_v68s6c9ll1","612bb0204ad8e7e8bed041eb","freq","","","img/orange_2bandit_b2.png","70","","70","test","1","","71","","","","circle","square","69","23","3","0.9710144927536232","","","","","","","",""
"null","226804","SARL_v6","SARL_v68s6c9ll1","612bb0204ad8e7e8bed041eb","freq_resp","","","img/orange_2bandit_b.png","70","img/orange_2bandit_b.png","70","test","","","","","","","","","","","3","","","","","","","","",""
"null","226959","SARL_v6","SARL_v68s6c9ll1","612bb0204ad8e7e8bed041eb","fixation","","","img/fixation.png","null","","","test","","","","","","","","","","","","","","","","","","","",""
"847","227809","SARL_v6","SARL_v68s6c9ll1","612bb0204ad8e7e8bed041eb","rl","","","img/black_2bandit_b2.png","75","","0","test","","","72","","","-4","circle","square","","0","3","","75","-8","-4","-8","-4","square","3","0"
"null","228575","SARL_v6","SARL_v68s6c9ll1","612bb0204ad8e7e8bed041eb","feedback","","","<div class=""verylowPoints_sq""> -4 </div>","null","","na","test","","","NaN","","","","","","","","3","","75","","","","","","3",""
"550","229129","SARL_v6","SARL_v68s6c9ll1","612bb0204ad8e7e8bed041eb","freq","","","img/orange_2bandit_b2.png","70","","70","test","1","","73","","","","circle","square","70","1","4","0.9714285714285714","","","","","","","",""
"null","229386","SARL_v6","SARL_v68s6c9ll1","612bb0204ad8e7e8bed041eb","freq_resp","","","img/orange_2bandit_b.png","70","img/orange_2bandit_b.png","70","test","","","","","","","","","","","4","","","","","","","","",""
"null","229542","SARL_v6","SARL_v68s6c9ll1","612bb0204ad8e7e8bed041eb","fixation","","","img/fixation.png","null","","","test","","","","","","","","","","","","","","","","","","","",""
"383","229929","SARL_v6","SARL_v68s6c9ll1","612bb0204ad8e7e8bed041eb","freq","","","img/orange_2bandit_b2.png","70","","70","test","1","","74","","","","circle","square","71","2","4","0.971830985915493","","","","","","","",""
"null","230351","SARL_v6","SARL_v68s6c9ll1","612bb0204ad8e7e8bed041eb","freq_resp","","","img/orange_2bandit_b.png","70","img/orange_2bandit_b.png","70","test","","","","","","","","","","","4","","","","","","","","",""
"null","230508","SARL_v6","SARL_v68s6c9ll1","612bb0204ad8e7e8bed041eb","fixation","","","img/fixation.png","null","","","test","","","","","","","","","","","","","","","","","","","",""
"293","230804","SARL_v6","SARL_v68s6c9ll1","612bb0204ad8e7e8bed041eb","freq","","","img/orange_2bandit_b2.png","70","","70","test","1","","75","","","","circle","square","72","3","4","0.9722222222222222","","","","","","","",""
"null","231328","SARL_v6","SARL_v68s6c9ll1","612bb0204ad8e7e8bed041eb","freq_resp","","","img/orange_2bandit_b.png","70","img/orange_2bandit_b.png","70","test","","","","","","","","","","","4","","","","","","","","",""
"null","231485","SARL_v6","SARL_v68s6c9ll1","612bb0204ad8e7e8bed041eb","fixation","","","img/fixation.png","null","","","test","","","","","","","","","","","","","","","","","","","",""
"270","231756","SARL_v6","SARL_v68s6c9ll1","612bb0204ad8e7e8bed041eb","freq","","","img/orange_2bandit_b2.png","70","","70","test","1","","76","","","","circle","square","73","4","4","0.9726027397260274","","","","","","","",""
"null","232302","SARL_v6","SARL_v68s6c9ll1","612bb0204ad8e7e8bed041eb","freq_resp","","","img/orange_2bandit_b.png","70","img/orange_2bandit_b.png","70","test","","","","","","","","","","","4","","","","","","","","",""
"null","232462","SARL_v6","SARL_v68s6c9ll1","612bb0204ad8e7e8bed041eb","fixation","","","img/fixation.png","null","","","test","","","","","","","","","","","","","","","","","","","",""
"278","232744","SARL_v6","SARL_v68s6c9ll1","612bb0204ad8e7e8bed041eb","freq","","","img/orange_2bandit_b2.png","70","","70","test","1","","77","","","","circle","square","74","5","4","0.972972972972973","","","","","","","",""
"null","233274","SARL_v6","SARL_v68s6c9ll1","612bb0204ad8e7e8bed041eb","freq_resp","","","img/orange_2bandit_b.png","70","img/orange_2bandit_b.png","70","test","","","","","","","","","","","4","","","","","","","","",""
"null","233430","SARL_v6","SARL_v68s6c9ll1","612bb0204ad8e7e8bed041eb","fixation","","","img/fixation.png","null","","","test","","","","","","","","","","","","","","","","","","","",""
"266","233699","SARL_v6","SARL_v68s6c9ll1","612bb0204ad8e7e8bed041eb","freq","","","img/orange_2bandit_b2.png","70","","70","test","1","","78","","","","circle","square","75","6","4","0.9733333333333334","","","","","","","",""
"null","234242","SARL_v6","SARL_v68s6c9ll1","612bb0204ad8e7e8bed041eb","freq_resp","","","img/orange_2bandit_b.png","70","img/orange_2bandit_b.png","70","test","","","","","","","","","","","4","","","","","","","","",""
"null","234401","SARL_v6","SARL_v68s6c9ll1","612bb0204ad8e7e8bed041eb","fixation","","","img/fixation.png","null","","","test","","","","","","","","","","","","","","","","","","","",""
"264","234669","SARL_v6","SARL_v68s6c9ll1","612bb0204ad8e7e8bed041eb","freq","","","img/orange_2bandit_b2.png","70","","70","test","1","","79","","","","circle","square","76","7","4","0.9736842105263158","","","","","","","",""
"null","235213","SARL_v6","SARL_v68s6c9ll1","612bb0204ad8e7e8bed041eb","freq_resp","","","img/orange_2bandit_b.png","70","img/orange_2bandit_b.png","70","test","","","","","","","","","","","4","","","","","","","","",""
"null","235381","SARL_v6","SARL_v68s6c9ll1","612bb0204ad8e7e8bed041eb","fixation","","","img/fixation.png","null","","","test","","","","","","","","","","","","","","","","","","","",""
"655","236038","SARL_v6","SARL_v68s6c9ll1","612bb0204ad8e7e8bed041eb","infreq","","","img/blue_2bandit_b2.png","68","","68","test","1","","80","","","","circle","square","77","8","4","0.974025974025974","","","","","","","",""
"null","236192","SARL_v6","SARL_v68s6c9ll1","612bb0204ad8e7e8bed041eb","infreq_resp","","","img/blue_2bandit_b.png","68","img/blue_2bandit_b.png","68","test","","","","","","","","","","","4","","","","","","","","",""
"null","236359","SARL_v6","SARL_v68s6c9ll1","612bb0204ad8e7e8bed041eb","fixation","","","img/fixation.png","null","","","test","","","","","","","","","","","","","","","","","","","",""
"416","236779","SARL_v6","SARL_v68s6c9ll1","612bb0204ad8e7e8bed041eb","freq","","","img/orange_2bandit_b2.png","70","","70","test","1","","81","","","","circle","square","78","9","4","0.9743589743589743","","","","","","","",""
"null","237170","SARL_v6","SARL_v68s6c9ll1","612bb0204ad8e7e8bed041eb","freq_resp","","","img/orange_2bandit_b.png","70","img/orange_2bandit_b.png","70","test","","","","","","","","","","","4","","","","","","","","",""
"null","237337","SARL_v6","SARL_v68s6c9ll1","612bb0204ad8e7e8bed041eb","fixation","","","img/fixation.png","null","","","test","","","","","","","","","","","","","","","","","","","",""
"354","237694","SARL_v6","SARL_v68s6c9ll1","612bb0204ad8e7e8bed041eb","freq","","","img/orange_2bandit_b2.png","70","","70","test","1","","82","","","","circle","square","79","10","4","0.9746835443037974","","","","","","","",""
"null","238155","SARL_v6","SARL_v68s6c9ll1","612bb0204ad8e7e8bed041eb","freq_resp","","","img/orange_2bandit_b.png","70","img/orange_2bandit_b.png","70","test","","","","","","","","","","","4","","","","","","","","",""
"null","238311","SARL_v6","SARL_v68s6c9ll1","612bb0204ad8e7e8bed041eb","fixation","","","img/fixation.png","null","","","test","","","","","","","","","","","","","","","","","","","",""
"254","238569","SARL_v6","SARL_v68s6c9ll1","612bb0204ad8e7e8bed041eb","freq","","","img/orange_2bandit_b2.png","70","","70","test","1","","83","","","","circle","square","80","11","4","0.975","","","","","","","",""
"null","239134","SARL_v6","SARL_v68s6c9ll1","612bb0204ad8e7e8bed041eb","freq_resp","","","img/orange_2bandit_b.png","70","img/orange_2bandit_b.png","70","test","","","","","","","","","","","4","","","","","","","","",""
"null","239295","SARL_v6","SARL_v68s6c9ll1","612bb0204ad8e7e8bed041eb","fixation","","","img/fixation.png","null","","","test","","","","","","","","","","","","","","","","","","","",""
"261","239558","SARL_v6","SARL_v68s6c9ll1","612bb0204ad8e7e8bed041eb","freq","","","img/orange_2bandit_b2.png","70","","70","test","1","","84","","","","circle","square","81","12","4","0.9753086419753086","","","","","","","",""
"null","240108","SARL_v6","SARL_v68s6c9ll1","612bb0204ad8e7e8bed041eb","freq_resp","","","img/orange_2bandit_b.png","70","img/orange_2bandit_b.png","70","test","","","","","","","","","","","4","","","","","","","","",""
"null","240266","SARL_v6","SARL_v68s6c9ll1","612bb0204ad8e7e8bed041eb","fixation","","","img/fixation.png","null","","","test","","","","","","","","","","","","","","","","","","","",""
"299","240569","SARL_v6","SARL_v68s6c9ll1","612bb0204ad8e7e8bed041eb","freq","","","img/orange_2bandit_b2.png","70","","70","test","1","","85","","","","circle","square","82","13","4","0.975609756097561","","","","","","","",""
"null","241087","SARL_v6","SARL_v68s6c9ll1","612bb0204ad8e7e8bed041eb","freq_resp","","","img/orange_2bandit_b.png","70","img/orange_2bandit_b.png","70","test","","","","","","","","","","","4","","","","","","","","",""
"null","241251","SARL_v6","SARL_v68s6c9ll1","612bb0204ad8e7e8bed041eb","fixation","","","img/fixation.png","null","","","test","","","","","","","","","","","","","","","","","","","",""
"279","241534","SARL_v6","SARL_v68s6c9ll1","612bb0204ad8e7e8bed041eb","freq","","","img/orange_2bandit_b2.png","70","","70","test","1","","86","","","","circle","square","83","14","4","0.9759036144578314","","","","","","","",""
"null","242066","SARL_v6","SARL_v68s6c9ll1","612bb0204ad8e7e8bed041eb","freq_resp","","","img/orange_2bandit_b.png","70","img/orange_2bandit_b.png","70","test","","","","","","","","","","","4","","","","","","","","",""
"null","242232","SARL_v6","SARL_v68s6c9ll1","612bb0204ad8e7e8bed041eb","fixation","","","img/fixation.png","null","","","test","","","","","","","","","","","","","","","","","","","",""
"312","242548","SARL_v6","SARL_v68s6c9ll1","612bb0204ad8e7e8bed041eb","freq","","","img/orange_2bandit_b2.png","70","","70","test","1","","87","","","","circle","square","84","15","4","0.9761904761904762","","","","","","","",""
"null","243047","SARL_v6","SARL_v68s6c9ll1","612bb0204ad8e7e8bed041eb","freq_resp","","","img/orange_2bandit_b.png","70","img/orange_2bandit_b.png","70","test","","","","","","","","","","","4","","","","","","","","",""
"null","243210","SARL_v6","SARL_v68s6c9ll1","612bb0204ad8e7e8bed041eb","fixation","","","img/fixation.png","null","","","test","","","","","","","","","","","","","","","","","","","",""
"495","243708","SARL_v6","SARL_v68s6c9ll1","612bb0204ad8e7e8bed041eb","infreq","","","img/blue_2bandit_b2.png","68","","68","test","1","","88","","","","circle","square","85","16","4","0.9764705882352941","","","","","","","",""
"null","244028","SARL_v6","SARL_v68s6c9ll1","612bb0204ad8e7e8bed041eb","infreq_resp","","","img/blue_2bandit_b.png","68","img/blue_2bandit_b.png","68","test","","","","","","","","","","","4","","","","","","","","",""
"null","244197","SARL_v6","SARL_v68s6c9ll1","612bb0204ad8e7e8bed041eb","fixation","","","img/fixation.png","null","","","test","","","","","","","","","","","","","","","","","","","",""
"339","244538","SARL_v6","SARL_v68s6c9ll1","612bb0204ad8e7e8bed041eb","freq","","","img/orange_2bandit_b2.png","70","","70","test","1","","89","","","","circle","square","86","17","4","0.9767441860465116","","","","","","","",""
"null","245017","SARL_v6","SARL_v68s6c9ll1","612bb0204ad8e7e8bed041eb","freq_resp","","","img/orange_2bandit_b.png","70","img/orange_2bandit_b.png","70","test","","","","","","","","","","","4","","","","","","","","",""
"null","245175","SARL_v6","SARL_v68s6c9ll1","612bb0204ad8e7e8bed041eb","fixation","","","img/fixation.png","null","","","test","","","","","","","","","","","","","","","","","","","",""
"329","245508","SARL_v6","SARL_v68s6c9ll1","612bb0204ad8e7e8bed041eb","freq","","","img/orange_2bandit_b2.png","70","","70","test","1","","90","","","","circle","square","87","18","4","0.9770114942528736","","","","","","","",""
"null","245990","SARL_v6","SARL_v68s6c9ll1","612bb0204ad8e7e8bed041eb","freq_resp","","","img/orange_2bandit_b.png","70","img/orange_2bandit_b.png","70","test","","","","","","","","","","","4","","","","","","","","",""
"null","246159","SARL_v6","SARL_v68s6c9ll1","612bb0204ad8e7e8bed041eb","fixation","","","img/fixation.png","null","","","test","","","","","","","","","","","","","","","","","","","",""
"425","246588","SARL_v6","SARL_v68s6c9ll1","612bb0204ad8e7e8bed041eb","freq","","","img/orange_2bandit_b2.png","70","","70","test","1","","91","","","","circle","square","88","19","4","0.9772727272727273","","","","","","","",""
"null","246970","SARL_v6","SARL_v68s6c9ll1","612bb0204ad8e7e8bed041eb","freq_resp","","","img/orange_2bandit_b.png","70","img/orange_2bandit_b.png","70","test","","","","","","","","","","","4","","","","","","","","",""
"null","247132","SARL_v6","SARL_v68s6c9ll1","612bb0204ad8e7e8bed041eb","fixation","","","img/fixation.png","null","","","test","","","","","","","","","","","","","","","","","","","",""
"287","247423","SARL_v6","SARL_v68s6c9ll1","612bb0204ad8e7e8bed041eb","freq","","","img/orange_2bandit_b2.png","70","","70","test","1","","92","","","","circle","square","89","20","4","0.9775280898876404","","","","","","","",""
"null","247951","SARL_v6","SARL_v68s6c9ll1","612bb0204ad8e7e8bed041eb","freq_resp","","","img/orange_2bandit_b.png","70","img/orange_2bandit_b.png","70","test","","","","","","","","","","","4","","","","","","","","",""
"null","248110","SARL_v6","SARL_v68s6c9ll1","612bb0204ad8e7e8bed041eb","fixation","","","img/fixation.png","null","","","test","","","","","","","","","","","","","","","","","","","",""
"656","248769","SARL_v6","SARL_v68s6c9ll1","612bb0204ad8e7e8bed041eb","rl","","","img/black_2bandit_b2.png","74","","0","test","","","93","","","-12","circle","square","","0","4","","74","-12","0","-12","0","circle","4","0"
"null","249530","SARL_v6","SARL_v68s6c9ll1","612bb0204ad8e7e8bed041eb","feedback","","","<div class=""verylowPoints""> -12 </div>","null","","na","test","","","NaN","","","","","","","","4","","74","","","","","","4",""
"444","249979","SARL_v6","SARL_v68s6c9ll1","612bb0204ad8e7e8bed041eb","freq","","","img/orange_2bandit_b2.png","68","","70","test","0","","94","","","","circle","square","90","1","5","0.9666666666666667","","","","","","","",""
"null","250348","SARL_v6","SARL_v68s6c9ll1","612bb0204ad8e7e8bed041eb","freq_resp","","","img/orange_2bandit_b.png","68","img/orange_2bandit_b.png","70","test","","","","","","","","","","","5","","","","","","","","",""
"null","250512","SARL_v6","SARL_v68s6c9ll1","612bb0204ad8e7e8bed041eb","fixation","","","img/fixation.png","null","","","test","","","","","","","","","","","","","","","","","","","",""
"332","250848","SARL_v6","SARL_v68s6c9ll1","612bb0204ad8e7e8bed041eb","freq","","","img/orange_2bandit_b2.png","70","","70","test","1","","95","","","","circle","square","91","2","5","0.967032967032967","","","","","","","",""
"null","251334","SARL_v6","SARL_v68s6c9ll1","612bb0204ad8e7e8bed041eb","freq_resp","","","img/orange_2bandit_b.png","70","img/orange_2bandit_b.png","70","test","","","","","","","","","","","5","","","","","","","","",""
"null","251489","SARL_v6","SARL_v68s6c9ll1","612bb0204ad8e7e8bed041eb","fixation","","","img/fixation.png","null","","","test","","","","","","","","","","","","","","","","","","","",""
"324","251817","SARL_v6","SARL_v68s6c9ll1","612bb0204ad8e7e8bed041eb","freq","","","img/orange_2bandit_b2.png","70","","70","test","1","","96","","","","circle","square","92","3","5","0.967391304347826","","","","","","","",""
"null","252303","SARL_v6","SARL_v68s6c9ll1","612bb0204ad8e7e8bed041eb","freq_resp","","","img/orange_2bandit_b.png","70","img/orange_2bandit_b.png","70","test","","","","","","","","","","","5","","","","","","","","",""
"null","252460","SARL_v6","SARL_v68s6c9ll1","612bb0204ad8e7e8bed041eb","fixation","","","img/fixation.png","null","","","test","","","","","","","","","","","","","","","","","","","",""
"264","252727","SARL_v6","SARL_v68s6c9ll1","612bb0204ad8e7e8bed041eb","freq","","","img/orange_2bandit_b2.png","70","","70","test","1","","97","","","","circle","square","93","4","5","0.967741935483871","","","","","","","",""
"null","253269","SARL_v6","SARL_v68s6c9ll1","612bb0204ad8e7e8bed041eb","freq_resp","","","img/orange_2bandit_b.png","70","img/orange_2bandit_b.png","70","test","","","","","","","","","","","5","","","","","","","","",""
"null","253437","SARL_v6","SARL_v68s6c9ll1","612bb0204ad8e7e8bed041eb","fixation","","","img/fixation.png","null","","","test","","","","","","","","","","","","","","","","","","","",""
"270","253709","SARL_v6","SARL_v68s6c9ll1","612bb0204ad8e7e8bed041eb","freq","","","img/orange_2bandit_b2.png","70","","70","test","1","","98","","","","circle","square","94","5","5","0.9680851063829787","","","","","","","",""
"null","254248","SARL_v6","SARL_v68s6c9ll1","612bb0204ad8e7e8bed041eb","freq_resp","","","img/orange_2bandit_b.png","70","img/orange_2bandit_b.png","70","test","","","","","","","","","","","5","","","","","","","","",""
"null","254404","SARL_v6","SARL_v68s6c9ll1","612bb0204ad8e7e8bed041eb","fixation","","","img/fixation.png","null","","","test","","","","","","","","","","","","","","","","","","","",""
"281","254688","SARL_v6","SARL_v68s6c9ll1","612bb0204ad8e7e8bed041eb","freq","","","img/orange_2bandit_b2.png","70","","70","test","1","","99","","","","circle","square","95","6","5","0.968421052631579","","","","","","","",""
"null","255211","SARL_v6","SARL_v68s6c9ll1","612bb0204ad8e7e8bed041eb","freq_resp","","","img/orange_2bandit_b.png","70","img/orange_2bandit_b.png","70","test","","","","","","","","","","","5","","","","","","","","",""
"null","255367","SARL_v6","SARL_v68s6c9ll1","612bb0204ad8e7e8bed041eb","fixation","","","img/fixation.png","null","","","test","","","","","","","","","","","","","","","","","","","",""
"271","255643","SARL_v6","SARL_v68s6c9ll1","612bb0204ad8e7e8bed041eb","freq","","","img/orange_2bandit_b2.png","70","","70","test","1","","100","","","","circle","square","96","7","5","0.96875","","","","","","","",""
"null","256184","SARL_v6","SARL_v68s6c9ll1","612bb0204ad8e7e8bed041eb","freq_resp","","","img/orange_2bandit_b.png","70","img/orange_2bandit_b.png","70","test","","","","","","","","","","","5","","","","","","","","",""
"null","256348","SARL_v6","SARL_v68s6c9ll1","612bb0204ad8e7e8bed041eb","fixation","","","img/fixation.png","null","","","test","","","","","","","","","","","","","","","","","","","",""
"256","256608","SARL_v6","SARL_v68s6c9ll1","612bb0204ad8e7e8bed041eb","freq","","","img/orange_2bandit_b2.png","70","","70","test","1","","101","","","","circle","square","97","8","5","0.9690721649484536","","","","","","","",""
"null","257169","SARL_v6","SARL_v68s6c9ll1","612bb0204ad8e7e8bed041eb","freq_resp","","","img/orange_2bandit_b.png","70","img/orange_2bandit_b.png","70","test","","","","","","","","","","","5","","","","","","","","",""
"null","257322","SARL_v6","SARL_v68s6c9ll1","612bb0204ad8e7e8bed041eb","fixation","","","img/fixation.png","null","","","test","","","","","","","","","","","","","","","","","","","",""
"282","257608","SARL_v6","SARL_v68s6c9ll1","612bb0204ad8e7e8bed041eb","freq","","","img/orange_2bandit_b2.png","70","","70","test","1","","102","","","","circle","square","98","9","5","0.9693877551020408","","","","","","","",""
"null","258143","SARL_v6","SARL_v68s6c9ll1","612bb0204ad8e7e8bed041eb","freq_resp","","","img/orange_2bandit_b.png","70","img/orange_2bandit_b.png","70","test","","","","","","","","","","","5","","","","","","","","",""
"null","258310","SARL_v6","SARL_v68s6c9ll1","612bb0204ad8e7e8bed041eb","fixation","","","img/fixation.png","null","","","test","","","","","","","","","","","","","","","","","","","",""
"229","258543","SARL_v6","SARL_v68s6c9ll1","612bb0204ad8e7e8bed041eb","freq","","","img/orange_2bandit_b2.png","70","","70","test","1","","103","","","","circle","square","99","10","5","0.9696969696969697","","","","","","","",""
"null","259118","SARL_v6","SARL_v68s6c9ll1","612bb0204ad8e7e8bed041eb","freq_resp","","","img/orange_2bandit_b.png","70","img/orange_2bandit_b.png","70","test","","","","","","","","","","","5","","","","","","","","",""
"null","259278","SARL_v6","SARL_v68s6c9ll1","612bb0204ad8e7e8bed041eb","fixation","","","img/fixation.png","null","","","test","","","","","","","","","","","","","","","","","","","",""
"171","259454","SARL_v6","SARL_v68s6c9ll1","612bb0204ad8e7e8bed041eb","freq","","","img/orange_2bandit_b2.png","70","","70","test","1","","104","","","","circle","square","100","11","5","0.97","","","","","","","",""
"null","260095","SARL_v6","SARL_v68s6c9ll1","612bb0204ad8e7e8bed041eb","freq_resp","","","img/orange_2bandit_b.png","70","img/orange_2bandit_b.png","70","test","","","","","","","","","","","5","","","","","","","","",""
"null","260258","SARL_v6","SARL_v68s6c9ll1","612bb0204ad8e7e8bed041eb","fixation","","","img/fixation.png","null","","","test","","","","","","","","","","","","","","","","","","","",""
"127","260388","SARL_v6","SARL_v68s6c9ll1","612bb0204ad8e7e8bed041eb","freq","","","img/orange_2bandit_b2.png","70","","70","test","1","","105","","","","circle","square","101","12","5","0.9702970297029703","","","","","","","",""
"null","261079","SARL_v6","SARL_v68s6c9ll1","612bb0204ad8e7e8bed041eb","freq_resp","","","img/orange_2bandit_b.png","70","img/orange_2bandit_b.png","70","test","","","","","","","","","","","5","","","","","","","","",""
"null","261241","SARL_v6","SARL_v68s6c9ll1","612bb0204ad8e7e8bed041eb","fixation","","","img/fixation.png","null","","","test","","","","","","","","","","","","","","","","","","","",""
"109","261352","SARL_v6","SARL_v68s6c9ll1","612bb0204ad8e7e8bed041eb","freq","","","img/orange_2bandit_b2.png","70","","70","test","1","","106","","","","circle","square","102","13","5","0.9705882352941176","","","","","","","",""
"null","262057","SARL_v6","SARL_v68s6c9ll1","612bb0204ad8e7e8bed041eb","freq_resp","","","img/orange_2bandit_b.png","70","img/orange_2bandit_b.png","70","test","","","","","","","","","","","5","","","","","","","","",""
"null","262215","SARL_v6","SARL_v68s6c9ll1","612bb0204ad8e7e8bed041eb","fixation","","","img/fixation.png","null","","","test","","","","","","","","","","","","","","","","","","","",""
"239","262457","SARL_v6","SARL_v68s6c9ll1","612bb0204ad8e7e8bed041eb","freq","","","img/orange_2bandit_b2.png","70","","70","test","1","","107","","","","circle","square","103","14","5","0.970873786407767","","","","","","","",""
"null","263032","SARL_v6","SARL_v68s6c9ll1","612bb0204ad8e7e8bed041eb","freq_resp","","","img/orange_2bandit_b.png","70","img/orange_2bandit_b.png","70","test","","","","","","","","","","","5","","","","","","","","",""
"null","263196","SARL_v6","SARL_v68s6c9ll1","612bb0204ad8e7e8bed041eb","fixation","","","img/fixation.png","null","","","test","","","","","","","","","","","","","","","","","","","",""
"254","263453","SARL_v6","SARL_v68s6c9ll1","612bb0204ad8e7e8bed041eb","freq","","","img/orange_2bandit_b2.png","70","","70","test","1","","108","","","","circle","square","104","15","5","0.9711538461538461","","","","","","","",""
"null","264009","SARL_v6","SARL_v68s6c9ll1","612bb0204ad8e7e8bed041eb","freq_resp","","","img/orange_2bandit_b.png","70","img/orange_2bandit_b.png","70","test","","","","","","","","","","","5","","","","","","","","",""
"null","264165","SARL_v6","SARL_v68s6c9ll1","612bb0204ad8e7e8bed041eb","fixation","","","img/fixation.png","null","","","test","","","","","","","","","","","","","","","","","","","",""
"309","264477","SARL_v6","SARL_v68s6c9ll1","612bb0204ad8e7e8bed041eb","freq","","","img/orange_2bandit_b2.png","70","","70","test","1","","109","","","","circle","square","105","16","5","0.9714285714285714","","","","","","","",""
"null","264984","SARL_v6","SARL_v68s6c9ll1","612bb0204ad8e7e8bed041eb","freq_resp","","","img/orange_2bandit_b.png","70","img/orange_2bandit_b.png","70","test","","","","","","","","","","","5","","","","","","","","",""
"null","265144","SARL_v6","SARL_v68s6c9ll1","612bb0204ad8e7e8bed041eb","fixation","","","img/fixation.png","null","","","test","","","","","","","","","","","","","","","","","","","",""
"245","265394","SARL_v6","SARL_v68s6c9ll1","612bb0204ad8e7e8bed041eb","freq","","","img/orange_2bandit_b2.png","70","","70","test","1","","110","","","","circle","square","106","17","5","0.9716981132075472","","","","","","","",""
"null","265964","SARL_v6","SARL_v68s6c9ll1","612bb0204ad8e7e8bed041eb","freq_resp","","","img/orange_2bandit_b.png","70","img/orange_2bandit_b.png","70","test","","","","","","","","","","","5","","","","","","","","",""
"null","266131","SARL_v6","SARL_v68s6c9ll1","612bb0204ad8e7e8bed041eb","fixation","","","img/fixation.png","null","","","test","","","","","","","","","","","","","","","","","","","",""
"289","266422","SARL_v6","SARL_v68s6c9ll1","612bb0204ad8e7e8bed041eb","freq","","","img/orange_2bandit_b2.png","70","","70","test","1","","111","","","","circle","square","107","18","5","0.9719626168224299","","","","","","","",""
"null","266949","SARL_v6","SARL_v68s6c9ll1","612bb0204ad8e7e8bed041eb","freq_resp","","","img/orange_2bandit_b.png","70","img/orange_2bandit_b.png","70","test","","","","","","","","","","","5","","","","","","","","",""
"null","267105","SARL_v6","SARL_v68s6c9ll1","612bb0204ad8e7e8bed041eb","fixation","","","img/fixation.png","null","","","test","","","","","","","","","","","","","","","","","","","",""
"406","267513","SARL_v6","SARL_v68s6c9ll1","612bb0204ad8e7e8bed041eb","infreq","","","img/blue_2bandit_b2.png","68","","68","test","1","","112","","","","circle","square","108","19","5","0.9722222222222222","","","","","","","",""
"null","267921","SARL_v6","SARL_v68s6c9ll1","612bb0204ad8e7e8bed041eb","infreq_resp","","","img/blue_2bandit_b.png","68","img/blue_2bandit_b.png","68","test","","","","","","","","","","","5","","","","","","","","",""
"null","268079","SARL_v6","SARL_v68s6c9ll1","612bb0204ad8e7e8bed041eb","fixation","","","img/fixation.png","null","","","test","","","","","","","","","","","","","","","","","","","",""
"385","268468","SARL_v6","SARL_v68s6c9ll1","612bb0204ad8e7e8bed041eb","infreq","","","img/blue_2bandit_b2.png","68","","68","test","1","","113","","","","circle","square","109","20","5","0.9724770642201835","","","","","","","",""
"null","268897","SARL_v6","SARL_v68s6c9ll1","612bb0204ad8e7e8bed041eb","infreq_resp","","","img/blue_2bandit_b.png","68","img/blue_2bandit_b.png","68","test","","","","","","","","","","","5","","","","","","","","",""
"null","269065","SARL_v6","SARL_v68s6c9ll1","612bb0204ad8e7e8bed041eb","fixation","","","img/fixation.png","null","","","test","","","","","","","","","","","","","","","","","","","",""
"392","269463","SARL_v6","SARL_v68s6c9ll1","612bb0204ad8e7e8bed041eb","freq","","","img/orange_2bandit_b2.png","70","","70","test","1","","114","","","","circle","square","110","21","5","0.9727272727272728","","","","","","","",""
"null","269878","SARL_v6","SARL_v68s6c9ll1","612bb0204ad8e7e8bed041eb","freq_resp","","","img/orange_2bandit_b.png","70","img/orange_2bandit_b.png","70","test","","","","","","","","","","","5","","","","","","","","",""
"null","270035","SARL_v6","SARL_v68s6c9ll1","612bb0204ad8e7e8bed041eb","fixation","","","img/fixation.png","null","","","test","","","","","","","","","","","","","","","","","","","",""
"288","270328","SARL_v6","SARL_v68s6c9ll1","612bb0204ad8e7e8bed041eb","freq","","","img/orange_2bandit_b2.png","70","","70","test","1","","115","","","","circle","square","111","22","5","0.972972972972973","","","","","","","",""
"null","270852","SARL_v6","SARL_v68s6c9ll1","612bb0204ad8e7e8bed041eb","freq_resp","","","img/orange_2bandit_b.png","70","img/orange_2bandit_b.png","70","test","","","","","","","","","","","5","","","","","","","","",""
"null","271009","SARL_v6","SARL_v68s6c9ll1","612bb0204ad8e7e8bed041eb","fixation","","","img/fixation.png","null","","","test","","","","","","","","","","","","","","","","","","","",""
"279","271292","SARL_v6","SARL_v68s6c9ll1","612bb0204ad8e7e8bed041eb","freq","","","img/orange_2bandit_b2.png","70","","70","test","1","","116","","","","circle","square","112","23","5","0.9732142857142857","","","","","","","",""
"null","271826","SARL_v6","SARL_v68s6c9ll1","612bb0204ad8e7e8bed041eb","freq_resp","","","img/orange_2bandit_b.png","70","img/orange_2bandit_b.png","70","test","","","","","","","","","","","5","","","","","","","","",""
"null","271984","SARL_v6","SARL_v68s6c9ll1","612bb0204ad8e7e8bed041eb","fixation","","","img/fixation.png","null","","","test","","","","","","","","","","","","","","","","","","","",""
"399","272387","SARL_v6","SARL_v68s6c9ll1","612bb0204ad8e7e8bed041eb","freq","","","img/orange_2bandit_b2.png","70","","70","test","1","","117","","","","circle","square","113","24","5","0.9734513274336283","","","","","","","",""
"null","272803","SARL_v6","SARL_v68s6c9ll1","612bb0204ad8e7e8bed041eb","freq_resp","","","img/orange_2bandit_b.png","70","img/orange_2bandit_b.png","70","test","","","","","","","","","","","5","","","","","","","","",""
"null","272962","SARL_v6","SARL_v68s6c9ll1","612bb0204ad8e7e8bed041eb","fixation","","","img/fixation.png","null","","","test","","","","","","","","","","","","","","","","","","","",""
"728","273693","SARL_v6","SARL_v68s6c9ll1","612bb0204ad8e7e8bed041eb","rl","","","img/black_2bandit_b2.png","75","","0","test","","","118","","","4","circle","square","","0","5","","75","-7","4","-7","4","square","5","0"
"null","274446","SARL_v6","SARL_v68s6c9ll1","612bb0204ad8e7e8bed041eb","feedback","","","<div class=""veryhighPoints_sq""> 4 </div>","null","","na","test","","","NaN","","","","","","","","5","","75","","","","","","5",""
"463","274912","SARL_v6","SARL_v68s6c9ll1","612bb0204ad8e7e8bed041eb","freq","","","img/orange_2bandit_b2.png","70","","70","test","1","","119","","","","circle","square","114","1","6","0.9736842105263158","","","","","","","",""
"null","275260","SARL_v6","SARL_v68s6c9ll1","612bb0204ad8e7e8bed041eb","freq_resp","","","img/orange_2bandit_b.png","70","img/orange_2bandit_b.png","70","test","","","","","","","","","","","6","","","","","","","","",""
"null","275421","SARL_v6","SARL_v68s6c9ll1","612bb0204ad8e7e8bed041eb","fixation","","","img/fixation.png","null","","","test","","","","","","","","","","","","","","","","","","","",""
"774","276198","SARL_v6","SARL_v68s6c9ll1","612bb0204ad8e7e8bed041eb","infreq","","","img/blue_2bandit_b2.png","70","","68","test","0","","120","","","","circle","square","115","2","6","0.9652173913043478","","","","","","","",""
"null","276238","SARL_v6","SARL_v68s6c9ll1","612bb0204ad8e7e8bed041eb","infreq_resp","","","img/blue_2bandit_b.png","70","img/blue_2bandit_b.png","68","test","","","","","","","","","","","6","","","","","","","","",""
"null","276392","SARL_v6","SARL_v68s6c9ll1","612bb0204ad8e7e8bed041eb","fixation","","","img/fixation.png","null","","","test","","","","","","","","","","","","","","","","","","","",""
"487","276883","SARL_v6","SARL_v68s6c9ll1","612bb0204ad8e7e8bed041eb","infreq","","","img/blue_2bandit_b2.png","68","","68","test","1","","121","","","","circle","square","116","3","6","0.9655172413793104","","","","","","","",""
"null","277213","SARL_v6","SARL_v68s6c9ll1","612bb0204ad8e7e8bed041eb","infreq_resp","","","img/blue_2bandit_b.png","68","img/blue_2bandit_b.png","68","test","","","","","","","","","","","6","","","","","","","","",""
"null","277374","SARL_v6","SARL_v68s6c9ll1","612bb0204ad8e7e8bed041eb","fixation","","","img/fixation.png","null","","","test","","","","","","","","","","","","","","","","","","","",""
"365","277744","SARL_v6","SARL_v68s6c9ll1","612bb0204ad8e7e8bed041eb","freq","","","img/orange_2bandit_b2.png","70","","70","test","1","","122","","","","circle","square","117","4","6","0.9658119658119658","","","","","","","",""
"null","278186","SARL_v6","SARL_v68s6c9ll1","612bb0204ad8e7e8bed041eb","freq_resp","","","img/orange_2bandit_b.png","70","img/orange_2bandit_b.png","70","test","","","","","","","","","","","6","","","","","","","","",""
"null","278342","SARL_v6","SARL_v68s6c9ll1","612bb0204ad8e7e8bed041eb","fixation","","","img/fixation.png","null","","","test","","","","","","","","","","","","","","","","","","","",""
"497","278843","SARL_v6","SARL_v68s6c9ll1","612bb0204ad8e7e8bed041eb","freq","","","img/orange_2bandit_b2.png","70","","70","test","1","","123","","","","circle","square","118","5","6","0.9661016949152542","","","","","","","",""
"null","279155","SARL_v6","SARL_v68s6c9ll1","612bb0204ad8e7e8bed041eb","freq_resp","","","img/orange_2bandit_b.png","70","img/orange_2bandit_b.png","70","test","","","","","","","","","","","6","","","","","","","","",""
"null","279322","SARL_v6","SARL_v68s6c9ll1","612bb0204ad8e7e8bed041eb","fixation","","","img/fixation.png","null","","","test","","","","","","","","","","","","","","","","","","","",""
"312","279637","SARL_v6","SARL_v68s6c9ll1","612bb0204ad8e7e8bed041eb","freq","","","img/orange_2bandit_b2.png","70","","70","test","1","","124","","","","circle","square","119","6","6","0.9663865546218487","","","","","","","",""
"null","280129","SARL_v6","SARL_v68s6c9ll1","612bb0204ad8e7e8bed041eb","freq_resp","","","img/orange_2bandit_b.png","70","img/orange_2bandit_b.png","70","test","","","","","","","","","","","6","","","","","","","","",""
"null","280287","SARL_v6","SARL_v68s6c9ll1","612bb0204ad8e7e8bed041eb","fixation","","","img/fixation.png","null","","","test","","","","","","","","","","","","","","","","","","","",""
"153","280444","SARL_v6","SARL_v68s6c9ll1","612bb0204ad8e7e8bed041eb","freq","","","img/orange_2bandit_b2.png","70","","70","test","1","","125","","","","circle","square","120","7","6","0.9666666666666667","","","","","","","",""
"null","281099","SARL_v6","SARL_v68s6c9ll1","612bb0204ad8e7e8bed041eb","freq_resp","","","img/orange_2bandit_b.png","70","img/orange_2bandit_b.png","70","test","","","","","","","","","","","6","","","","","","","","",""
"null","281263","SARL_v6","SARL_v68s6c9ll1","612bb0204ad8e7e8bed041eb","fixation","","","img/fixation.png","null","","","test","","","","","","","","","","","","","","","","","","","",""
"156","281422","SARL_v6","SARL_v68s6c9ll1","612bb0204ad8e7e8bed041eb","freq","","","img/orange_2bandit_b2.png","70","","70","test","1","","126","","","","circle","square","121","8","6","0.9669421487603306","","","","","","","",""
"null","282077","SARL_v6","SARL_v68s6c9ll1","612bb0204ad8e7e8bed041eb","freq_resp","","","img/orange_2bandit_b.png","70","img/orange_2bandit_b.png","70","test","","","","","","","","","","","6","","","","","","","","",""
"null","282238","SARL_v6","SARL_v68s6c9ll1","612bb0204ad8e7e8bed041eb","fixation","","","img/fixation.png","null","","","test","","","","","","","","","","","","","","","","","","","",""
"142","282383","SARL_v6","SARL_v68s6c9ll1","612bb0204ad8e7e8bed041eb","freq","","","img/orange_2bandit_b2.png","70","","70","test","1","","127","","","","circle","square","122","9","6","0.9672131147540983","","","","","","","",""
"null","283050","SARL_v6","SARL_v68s6c9ll1","612bb0204ad8e7e8bed041eb","freq_resp","","","img/orange_2bandit_b.png","70","img/orange_2bandit_b.png","70","test","","","","","","","","","","","6","","","","","","","","",""
"null","283210","SARL_v6","SARL_v68s6c9ll1","612bb0204ad8e7e8bed041eb","fixation","","","img/fixation.png","null","","","test","","","","","","","","","","","","","","","","","","","",""
"203","283417","SARL_v6","SARL_v68s6c9ll1","612bb0204ad8e7e8bed041eb","freq","","","img/orange_2bandit_b2.png","70","","70","test","1","","128","","","","circle","square","123","10","6","0.967479674796748","","","","","","","",""
"null","284024","SARL_v6","SARL_v68s6c9ll1","612bb0204ad8e7e8bed041eb","freq_resp","","","img/orange_2bandit_b.png","70","img/orange_2bandit_b.png","70","test","","","","","","","","","","","6","","","","","","","","",""
"null","284187","SARL_v6","SARL_v68s6c9ll1","612bb0204ad8e7e8bed041eb","fixation","","","img/fixation.png","null","","","test","","","","","","","","","","","","","","","","","","","",""
"271","284463","SARL_v6","SARL_v68s6c9ll1","612bb0204ad8e7e8bed041eb","freq","","","img/orange_2bandit_b2.png","70","","70","test","1","","129","","","","circle","square","124","11","6","0.967741935483871","","","","","","","",""
"null","285001","SARL_v6","SARL_v68s6c9ll1","612bb0204ad8e7e8bed041eb","freq_resp","","","img/orange_2bandit_b.png","70","img/orange_2bandit_b.png","70","test","","","","","","","","","","","6","","","","","","","","",""
"null","285167","SARL_v6","SARL_v68s6c9ll1","612bb0204ad8e7e8bed041eb","fixation","","","img/fixation.png","null","","","test","","","","","","","","","","","","","","","","","","","",""
"259","285428","SARL_v6","SARL_v68s6c9ll1","612bb0204ad8e7e8bed041eb","freq","","","img/orange_2bandit_b2.png","70","","70","test","1","","130","","","","circle","square","125","12","6","0.968","","","","","","","",""
"null","285982","SARL_v6","SARL_v68s6c9ll1","612bb0204ad8e7e8bed041eb","freq_resp","","","img/orange_2bandit_b.png","70","img/orange_2bandit_b.png","70","test","","","","","","","","","","","6","","","","","","","","",""
"null","286140","SARL_v6","SARL_v68s6c9ll1","612bb0204ad8e7e8bed041eb","fixation","","","img/fixation.png","null","","","test","","","","","","","","","","","","","","","","","","","",""
"174","286318","SARL_v6","SARL_v68s6c9ll1","612bb0204ad8e7e8bed041eb","freq","","","img/orange_2bandit_b2.png","70","","70","test","1","","131","","","","circle","square","126","13","6","0.9682539682539683","","","","","","","",""
"null","286963","SARL_v6","SARL_v68s6c9ll1","612bb0204ad8e7e8bed041eb","freq_resp","","","img/orange_2bandit_b.png","70","img/orange_2bandit_b.png","70","test","","","","","","","","","","","6","","","","","","","","",""
"null","287123","SARL_v6","SARL_v68s6c9ll1","612bb0204ad8e7e8bed041eb","fixation","","","img/fixation.png","null","","","test","","","","","","","","","","","","","","","","","","","",""
"175","287304","SARL_v6","SARL_v68s6c9ll1","612bb0204ad8e7e8bed041eb","freq","","","img/orange_2bandit_b2.png","70","","70","test","1","","132","","","","circle","square","127","14","6","0.968503937007874","","","","","","","",""
"null","287932","SARL_v6","SARL_v68s6c9ll1","612bb0204ad8e7e8bed041eb","freq_resp","","","img/orange_2bandit_b.png","70","img/orange_2bandit_b.png","70","test","","","","","","","","","","","6","","","","","","","","",""
"null","288094","SARL_v6","SARL_v68s6c9ll1","612bb0204ad8e7e8bed041eb","fixation","","","img/fixation.png","null","","","test","","","","","","","","","","","","","","","","","","","",""
"191","288288","SARL_v6","SARL_v68s6c9ll1","612bb0204ad8e7e8bed041eb","freq","","","img/orange_2bandit_b2.png","70","","70","test","1","","133","","","","circle","square","128","15","6","0.96875","","","","","","","",""
"null","288910","SARL_v6","SARL_v68s6c9ll1","612bb0204ad8e7e8bed041eb","freq_resp","","","img/orange_2bandit_b.png","70","img/orange_2bandit_b.png","70","test","","","","","","","","","","","6","","","","","","","","",""
"null","289070","SARL_v6","SARL_v68s6c9ll1","612bb0204ad8e7e8bed041eb","fixation","","","img/fixation.png","null","","","test","","","","","","","","","","","","","","","","","","","",""
