"rt","time_elapsed","expId","subject","prolificID","trialType","rlType","attType","stimulus","key_press","stim","corrresp","phase","corr","pracCounter","trialNum","rewardOne","rewardTwo","reward","bandOne","bandTwo","attentionNum","attentionRunNum","blockNum","performance","bandChosen","circleVal","squareVal","bandOneVal","bandTwoVal","shapeChosen","rlNum","badFlag"
"56989","56998","SARL_v6","SARL_v6ye4b3cwb","608bfa04767191aa4d57bfd8","","","","","","","","","","","","","","","","","","","","","","","","","","","",""
"","59390","SARL_v6","SARL_v6ye4b3cwb","608bfa04767191aa4d57bfd8","fullscreen","fullscreen","fullscreen","","","","","","","","","","","","","","","","","","","","","","","","",""
"21059","80454","SARL_v6","SARL_v6ye4b3cwb","608bfa04767191aa4d57bfd8","","","","","","","","","","","","","","","","","","","","","","","","","","","",""
"null","81271","SARL_v6","SARL_v6ye4b3cwb","608bfa04767191aa4d57bfd8","freqPrac","","","img/orange_2bandit_b2.png","null","img/orange_2bandit_b2.png","70","prac","0","1","","","","","","","","","","","","","","","","","",""
"null","82276","SARL_v6","SARL_v6ye4b3cwb","608bfa04767191aa4d57bfd8","feedback","","","img/tooSlow.png","null","","na","prac","","","","","","","","","","","","","","","","","","","",""
"null","82432","SARL_v6","SARL_v6ye4b3cwb","608bfa04767191aa4d57bfd8","fixation","","","img/fixation.png","null","","","prac","","","","","","","","","","","","","","","","","","","",""
"696","83133","SARL_v6","SARL_v6ye4b3cwb","608bfa04767191aa4d57bfd8","infreqPrac","","","img/blue_2bandit_b2.png","70","img/blue_2bandit_b2.png","68","prac","0","2","","","","","","","","","","","","","","","","","",""
"696","83239","SARL_v6","SARL_v6ye4b3cwb","608bfa04767191aa4d57bfd8","infreqPrac_resp","","","img/blue_2bandit_b.png","70","img/blue_2bandit_b.png","68","prac","","","","","","","","","","","","","","","","","","","",""
"null","84256","SARL_v6","SARL_v6ye4b3cwb","608bfa04767191aa4d57bfd8","feedback","","","img/wrongKey.png","null","","na","prac","","","","","","","","","","","","","","","","","","","",""
"null","84410","SARL_v6","SARL_v6ye4b3cwb","608bfa04767191aa4d57bfd8","fixation","","","img/fixation.png","null","","","prac","","","","","","","","","","","","","","","","","","","",""
"380","84792","SARL_v6","SARL_v6ye4b3cwb","608bfa04767191aa4d57bfd8","freqPrac","","","img/orange_2bandit_b2.png","70","img/orange_2bandit_b2.png","70","prac","1","2","","","","","","","","","","","","","","","","","",""
"380","85214","SARL_v6","SARL_v6ye4b3cwb","608bfa04767191aa4d57bfd8","freqPrac_resp","","","img/orange_2bandit_b.png","70","img/orange_2bandit_b.png","70","prac","","","","","","","","","","","","","","","","","","","",""
"null","85372","SARL_v6","SARL_v6ye4b3cwb","608bfa04767191aa4d57bfd8","fixation","","","img/fixation.png","null","","","prac","","","","","","","","","","","","","","","","","","","",""
"594","85967","SARL_v6","SARL_v6ye4b3cwb","608bfa04767191aa4d57bfd8","infreqPrac","","","img/blue_2bandit_b2.png","68","img/blue_2bandit_b2.png","68","prac","1","2","","","","","","","","","","","","","","","","","",""
"594","86182","SARL_v6","SARL_v6ye4b3cwb","608bfa04767191aa4d57bfd8","infreqPrac_resp","","","img/blue_2bandit_b.png","68","img/blue_2bandit_b.png","68","prac","","","","","","","","","","","","","","","","","","","",""
"null","86338","SARL_v6","SARL_v6ye4b3cwb","608bfa04767191aa4d57bfd8","fixation","","","img/fixation.png","null","","","prac","","","","","","","","","","","","","","","","","","","",""
"727","87067","SARL_v6","SARL_v6ye4b3cwb","608bfa04767191aa4d57bfd8","infreqPrac","","","img/blue_2bandit_b2.png","68","img/blue_2bandit_b2.png","68","prac","1","2","","","","","","","","","","","","","","","","","",""
"727","87157","SARL_v6","SARL_v6ye4b3cwb","608bfa04767191aa4d57bfd8","infreqPrac_resp","","","img/blue_2bandit_b.png","68","img/blue_2bandit_b.png","68","prac","","","","","","","","","","","","","","","","","","","",""
"null","87327","SARL_v6","SARL_v6ye4b3cwb","608bfa04767191aa4d57bfd8","fixation","","","img/fixation.png","null","","","prac","","","","","","","","","","","","","","","","","","","",""
"576","87908","SARL_v6","SARL_v6ye4b3cwb","608bfa04767191aa4d57bfd8","infreqPrac","","","img/blue_2bandit_b2.png","68","img/blue_2bandit_b2.png","68","prac","1","2","","","","","","","","","","","","","","","","","",""
"576","88147","SARL_v6","SARL_v6ye4b3cwb","608bfa04767191aa4d57bfd8","infreqPrac_resp","","","img/blue_2bandit_b.png","68","img/blue_2bandit_b.png","68","prac","","","","","","","","","","","","","","","","","","","",""
"null","88317","SARL_v6","SARL_v6ye4b3cwb","608bfa04767191aa4d57bfd8","fixation","","","img/fixation.png","null","","","prac","","","","","","","","","","","","","","","","","","","",""
"472","88792","SARL_v6","SARL_v6ye4b3cwb","608bfa04767191aa4d57bfd8","freqPrac","","","img/orange_2bandit_b2.png","70","img/orange_2bandit_b2.png","70","prac","1","2","","","","","","","","","","","","","","","","","",""
"472","89126","SARL_v6","SARL_v6ye4b3cwb","608bfa04767191aa4d57bfd8","freqPrac_resp","","","img/orange_2bandit_b.png","70","img/orange_2bandit_b.png","70","prac","","","","","","","","","","","","","","","","","","","",""
"null","89283","SARL_v6","SARL_v6ye4b3cwb","608bfa04767191aa4d57bfd8","fixation","","","img/fixation.png","null","","","prac","","","","","","","","","","","","","","","","","","","",""
"421","89708","SARL_v6","SARL_v6ye4b3cwb","608bfa04767191aa4d57bfd8","infreqPrac","","","img/blue_2bandit_b2.png","68","img/blue_2bandit_b2.png","68","prac","1","2","","","","","","","","","","","","","","","","","",""
"421","90099","SARL_v6","SARL_v6ye4b3cwb","608bfa04767191aa4d57bfd8","infreqPrac_resp","","","img/blue_2bandit_b.png","68","img/blue_2bandit_b.png","68","prac","","","","","","","","","","","","","","","","","","","",""
"null","90252","SARL_v6","SARL_v6ye4b3cwb","608bfa04767191aa4d57bfd8","fixation","","","img/fixation.png","null","","","prac","","","","","","","","","","","","","","","","","","","",""
"306","90559","SARL_v6","SARL_v6ye4b3cwb","608bfa04767191aa4d57bfd8","freqPrac","","","img/orange_2bandit_b2.png","70","img/orange_2bandit_b2.png","70","prac","1","2","","","","","","","","","","","","","","","","","",""
"306","91064","SARL_v6","SARL_v6ye4b3cwb","608bfa04767191aa4d57bfd8","freqPrac_resp","","","img/orange_2bandit_b.png","70","img/orange_2bandit_b.png","70","prac","","","","","","","","","","","","","","","","","","","",""
"null","91217","SARL_v6","SARL_v6ye4b3cwb","608bfa04767191aa4d57bfd8","fixation","","","img/fixation.png","null","","","prac","","","","","","","","","","","","","","","","","","","",""
"371","91591","SARL_v6","SARL_v6ye4b3cwb","608bfa04767191aa4d57bfd8","freqPrac","","","img/orange_2bandit_b2.png","70","img/orange_2bandit_b2.png","70","prac","1","2","","","","","","","","","","","","","","","","","",""
"371","92038","SARL_v6","SARL_v6ye4b3cwb","608bfa04767191aa4d57bfd8","freqPrac_resp","","","img/orange_2bandit_b.png","70","img/orange_2bandit_b.png","70","prac","","","","","","","","","","","","","","","","","","","",""
"null","92194","SARL_v6","SARL_v6ye4b3cwb","608bfa04767191aa4d57bfd8","fixation","","","img/fixation.png","null","","","prac","","","","","","","","","","","","","","","","","","","",""
"18052","110248","SARL_v6","SARL_v6ye4b3cwb","608bfa04767191aa4d57bfd8","","","","","","","","prac","","","","","","","","","","","","","","","","","","","",""
"null","111757","SARL_v6","SARL_v6ye4b3cwb","608bfa04767191aa4d57bfd8","rlPractice","","","img/black_2bandit_b2.png","null","img/black_2bandit_b2.png","","prac","","","0","","","","","","","","","","","","","","","","",""
"null","112528","SARL_v6","SARL_v6ye4b3cwb","608bfa04767191aa4d57bfd8","feedback","","","<div font size = 80> TOO SLOW  </div>","null","","na","prac","","","1","10","-14","10","","","","","","","","","","","","","",""
"null","112681","SARL_v6","SARL_v6ye4b3cwb","608bfa04767191aa4d57bfd8","fixation","","","img/fixation.png","null","","","prac","","","","","","","","","","","","","","","","","","","",""
"375","113061","SARL_v6","SARL_v6ye4b3cwb","608bfa04767191aa4d57bfd8","rlPractice","","","img/black_2bandit_b2.png","74","img/black_2bandit_b2.png","","prac","","","1","","","","","","","","","","","","","","","","",""
"null","113814","SARL_v6","SARL_v6ye4b3cwb","608bfa04767191aa4d57bfd8","feedback","","","<div class=""veryhighPoints""> 5 </div>","null","","na","prac","","","2","5","-5","5","","","","","","","","","","","","","",""
"null","113970","SARL_v6","SARL_v6ye4b3cwb","608bfa04767191aa4d57bfd8","fixation","","","img/fixation.png","null","","","prac","","","","","","","","","","","","","","","","","","","",""
"478","114452","SARL_v6","SARL_v6ye4b3cwb","608bfa04767191aa4d57bfd8","rlPractice","","","img/black_2bandit_b2.png","74","img/black_2bandit_b2.png","","prac","","","2","","","","","","","","","","","","","","","","",""
"null","115215","SARL_v6","SARL_v6ye4b3cwb","608bfa04767191aa4d57bfd8","feedback","","","<div class=""veryhighPoints""> 30 </div>","null","","na","prac","","","3","30","2","30","","","","","","","","","","","","","",""
"null","115383","SARL_v6","SARL_v6ye4b3cwb","608bfa04767191aa4d57bfd8","fixation","","","img/fixation.png","null","","","prac","","","","","","","","","","","","","","","","","","","",""
"321","115707","SARL_v6","SARL_v6ye4b3cwb","608bfa04767191aa4d57bfd8","rlPractice","","","img/black_2bandit_b2.png","75","img/black_2bandit_b2.png","","prac","","","3","","","","","","","","","","","","","","","","",""
"null","116476","SARL_v6","SARL_v6ye4b3cwb","608bfa04767191aa4d57bfd8","feedback","","","<div class=""veryhighPoints_sq""> 20 </div>","null","","na","prac","","","4","-2","20","-2","","","","","","","","","","","","","",""
"null","116642","SARL_v6","SARL_v6ye4b3cwb","608bfa04767191aa4d57bfd8","fixation","","","img/fixation.png","null","","","prac","","","","","","","","","","","","","","","","","","","",""
"15214","131857","SARL_v6","SARL_v6ye4b3cwb","608bfa04767191aa4d57bfd8","","","","","","","","prac","","","","","","","","","","","","","","","","","","","",""
"null","132671","SARL_v6","SARL_v6ye4b3cwb","608bfa04767191aa4d57bfd8","mixAttFreqPrac","","","img/orange_2bandit_b2.png","null","img/orange_2bandit_b2.png","70","prac","","","1","","","","","","","","","","","","","","","","",""
"null","132839","SARL_v6","SARL_v6ye4b3cwb","608bfa04767191aa4d57bfd8","fixation","","","img/fixation.png","null","","","prac","","","","","","","","","","","","","","","","","","","",""
"95","132938","SARL_v6","SARL_v6ye4b3cwb","608bfa04767191aa4d57bfd8","mixAttInfreqPrac","","","img/blue_2bandit_b2.png","70","img/blue_2bandit_b2.png","68","prac","","","2","","","","","","","","","","","","","","","","",""
"95","133656","SARL_v6","SARL_v6ye4b3cwb","608bfa04767191aa4d57bfd8","infreqPrac_resp","","","img/blue_2bandit_b.png","70","img/orange_2bandit_b.png","68","prac","","","2","","","","","","","","","","","","","","","","",""
"null","133812","SARL_v6","SARL_v6ye4b3cwb","608bfa04767191aa4d57bfd8","fixation","","","img/fixation.png","null","","","prac","","","","","","","","","","","","","","","","","","","",""
"635","134452","SARL_v6","SARL_v6ye4b3cwb","608bfa04767191aa4d57bfd8","mixAttInfreqPrac","","","img/blue_2bandit_b2.png","68","img/blue_2bandit_b2.png","68","prac","","","3","","","","","","","","","","","","","","","","",""
"635","134628","SARL_v6","SARL_v6ye4b3cwb","608bfa04767191aa4d57bfd8","infreqPrac_resp","","","img/blue_2bandit_b.png","68","img/orange_2bandit_b.png","68","prac","","","3","","","","","","","","","","","","","","","","",""
"null","134786","SARL_v6","SARL_v6ye4b3cwb","608bfa04767191aa4d57bfd8","fixation","","","img/fixation.png","null","","","prac","","","","","","","","","","","","","","","","","","","",""
"398","135188","SARL_v6","SARL_v6ye4b3cwb","608bfa04767191aa4d57bfd8","mixAttInfreqPrac","","","img/blue_2bandit_b2.png","68","img/blue_2bandit_b2.png","68","prac","","","4","","","","","","","","","","","","","","","","",""
"398","135608","SARL_v6","SARL_v6ye4b3cwb","608bfa04767191aa4d57bfd8","infreqPrac_resp","","","img/blue_2bandit_b.png","68","img/orange_2bandit_b.png","68","prac","","","4","","","","","","","","","","","","","","","","",""
"null","135763","SARL_v6","SARL_v6ye4b3cwb","608bfa04767191aa4d57bfd8","fixation","","","img/fixation.png","null","","","prac","","","","","","","","","","","","","","","","","","","",""
"457","136223","SARL_v6","SARL_v6ye4b3cwb","608bfa04767191aa4d57bfd8","mixAttFreqPrac","","","img/orange_2bandit_b2.png","70","img/orange_2bandit_b2.png","70","prac","","","5","","","","","","","","","","","","","","","","",""
"457","136583","SARL_v6","SARL_v6ye4b3cwb","608bfa04767191aa4d57bfd8","freqPrac_resp","","","img/orange_2bandit_b.png","70","img/orange_2bandit_b.png","70","prac","","","5","","","","","","","","","","","","","","","","",""
"null","136752","SARL_v6","SARL_v6ye4b3cwb","608bfa04767191aa4d57bfd8","fixation","","","img/fixation.png","null","","","prac","","","","","","","","","","","","","","","","","","","",""
"639","137396","SARL_v6","SARL_v6ye4b3cwb","608bfa04767191aa4d57bfd8","mixRLPractice","","","img/black_2bandit_b2.png","75","img/black_2bandit_b2.png","","prac","","","5","","","","","","","","","","","","","","","","",""
"null","138155","SARL_v6","SARL_v6ye4b3cwb","608bfa04767191aa4d57bfd8","feedback","","","<div class=""veryhighPoints_sq""> 10 </div>","null","","na","prac","","","6","-14","10","-14","","","","","","","","","","","","","",""
"null","138315","SARL_v6","SARL_v6ye4b3cwb","608bfa04767191aa4d57bfd8","fixation","","","img/fixation.png","null","","","prac","","","","","","","","","","","","","","","","","","","",""
"715","139035","SARL_v6","SARL_v6ye4b3cwb","608bfa04767191aa4d57bfd8","mixAttFreqPrac","","","img/orange_2bandit_b2.png","70","img/orange_2bandit_b2.png","70","prac","","","7","","","","","","","","","","","","","","","","",""
"715","139135","SARL_v6","SARL_v6ye4b3cwb","608bfa04767191aa4d57bfd8","freqPrac_resp","","","img/orange_2bandit_b.png","70","img/orange_2bandit_b.png","70","prac","","","7","","","","","","","","","","","","","","","","",""
"null","139291","SARL_v6","SARL_v6ye4b3cwb","608bfa04767191aa4d57bfd8","fixation","","","img/fixation.png","null","","","prac","","","","","","","","","","","","","","","","","","","",""
"476","139769","SARL_v6","SARL_v6ye4b3cwb","608bfa04767191aa4d57bfd8","mixAttInfreqPrac","","","img/blue_2bandit_b2.png","68","img/blue_2bandit_b2.png","68","prac","","","8","","","","","","","","","","","","","","","","",""
"476","140112","SARL_v6","SARL_v6ye4b3cwb","608bfa04767191aa4d57bfd8","infreqPrac_resp","","","img/blue_2bandit_b.png","68","img/orange_2bandit_b.png","68","prac","","","8","","","","","","","","","","","","","","","","",""
"null","140280","SARL_v6","SARL_v6ye4b3cwb","608bfa04767191aa4d57bfd8","fixation","","","img/fixation.png","null","","","prac","","","","","","","","","","","","","","","","","","","",""
"469","140752","SARL_v6","SARL_v6ye4b3cwb","608bfa04767191aa4d57bfd8","mixAttFreqPrac","","","img/orange_2bandit_b2.png","70","img/orange_2bandit_b2.png","70","prac","","","9","","","","","","","","","","","","","","","","",""
"469","141100","SARL_v6","SARL_v6ye4b3cwb","608bfa04767191aa4d57bfd8","freqPrac_resp","","","img/orange_2bandit_b.png","70","img/orange_2bandit_b.png","70","prac","","","9","","","","","","","","","","","","","","","","",""
"null","141254","SARL_v6","SARL_v6ye4b3cwb","608bfa04767191aa4d57bfd8","fixation","","","img/fixation.png","null","","","prac","","","","","","","","","","","","","","","","","","","",""
"372","141630","SARL_v6","SARL_v6ye4b3cwb","608bfa04767191aa4d57bfd8","mixAttFreqPrac","","","img/orange_2bandit_b2.png","68","img/orange_2bandit_b2.png","70","prac","","","10","","","","","","","","","","","","","","","","",""
"372","142076","SARL_v6","SARL_v6ye4b3cwb","608bfa04767191aa4d57bfd8","freqPrac_resp","","","img/orange_2bandit_b.png","68","img/orange_2bandit_b.png","70","prac","","","10","","","","","","","","","","","","","","","","",""
"null","142241","SARL_v6","SARL_v6ye4b3cwb","608bfa04767191aa4d57bfd8","fixation","","","img/fixation.png","null","","","prac","","","","","","","","","","","","","","","","","","","",""
"647","142893","SARL_v6","SARL_v6ye4b3cwb","608bfa04767191aa4d57bfd8","mixAttInfreqPrac","","","img/blue_2bandit_b2.png","68","img/blue_2bandit_b2.png","68","prac","","","11","","","","","","","","","","","","","","","","",""
"647","143063","SARL_v6","SARL_v6ye4b3cwb","608bfa04767191aa4d57bfd8","infreqPrac_resp","","","img/blue_2bandit_b.png","68","img/orange_2bandit_b.png","68","prac","","","11","","","","","","","","","","","","","","","","",""
"null","143230","SARL_v6","SARL_v6ye4b3cwb","608bfa04767191aa4d57bfd8","fixation","","","img/fixation.png","null","","","prac","","","","","","","","","","","","","","","","","","","",""
"625","143860","SARL_v6","SARL_v6ye4b3cwb","608bfa04767191aa4d57bfd8","mixRLPractice","","","img/black_2bandit_b2.png","74","img/black_2bandit_b2.png","","prac","","","11","","","","","","","","","","","","","","","","",""
"null","144614","SARL_v6","SARL_v6ye4b3cwb","608bfa04767191aa4d57bfd8","feedback","","","<div class=""veryhighPoints""> 5 </div>","null","","na","prac","","","12","5","-5","5","","","","","","","","","","","","","",""
"null","144770","SARL_v6","SARL_v6ye4b3cwb","608bfa04767191aa4d57bfd8","fixation","","","img/fixation.png","null","","","prac","","","","","","","","","","","","","","","","","","","",""
"854","145629","SARL_v6","SARL_v6ye4b3cwb","608bfa04767191aa4d57bfd8","","","","","","","","prac","","","","","","","","","","","","","","","","","","","",""
"null","146439","SARL_v6","SARL_v6ye4b3cwb","608bfa04767191aa4d57bfd8","freq","","","img/orange_2bandit_b2.png","null","","70","test","0","","1","","","","circle","square","1","1","1","0","","","","","","","",""
"null","146607","SARL_v6","SARL_v6ye4b3cwb","608bfa04767191aa4d57bfd8","fixation","","","img/fixation.png","null","","","test","","","","","","","","","","","","","","","","","","","",""
"585","147195","SARL_v6","SARL_v6ye4b3cwb","608bfa04767191aa4d57bfd8","freq","","","img/orange_2bandit_b2.png","70","","70","test","1","","2","","","","circle","square","2","2","1","0.5","","","","","","","",""
"null","147429","SARL_v6","SARL_v6ye4b3cwb","608bfa04767191aa4d57bfd8","freq_resp","","","img/orange_2bandit_b.png","70","img/orange_2bandit_b.png","70","test","","","","","","","","","","","1","","","","","","","","",""
"null","147600","SARL_v6","SARL_v6ye4b3cwb","608bfa04767191aa4d57bfd8","fixation","","","img/fixation.png","null","","","test","","","","","","","","","","","","","","","","","","","",""
"533","148135","SARL_v6","SARL_v6ye4b3cwb","608bfa04767191aa4d57bfd8","infreq","","","img/blue_2bandit_b2.png","68","","68","test","1","","3","","","","circle","square","3","3","1","0.6666666666666666","","","","","","","",""
"null","148420","SARL_v6","SARL_v6ye4b3cwb","608bfa04767191aa4d57bfd8","infreq_resp","","","img/blue_2bandit_b.png","68","img/blue_2bandit_b.png","68","test","","","","","","","","","","","1","","","","","","","","",""
"null","148589","SARL_v6","SARL_v6ye4b3cwb","608bfa04767191aa4d57bfd8","fixation","","","img/fixation.png","null","","","test","","","","","","","","","","","","","","","","","","","",""
"473","149063","SARL_v6","SARL_v6ye4b3cwb","608bfa04767191aa4d57bfd8","freq","","","img/orange_2bandit_b2.png","68","","70","test","0","","4","","","","circle","square","4","4","1","0.5","","","","","","","",""
"null","149410","SARL_v6","SARL_v6ye4b3cwb","608bfa04767191aa4d57bfd8","freq_resp","","","img/orange_2bandit_b.png","68","img/orange_2bandit_b.png","70","test","","","","","","","","","","","1","","","","","","","","",""
"null","149565","SARL_v6","SARL_v6ye4b3cwb","608bfa04767191aa4d57bfd8","fixation","","","img/fixation.png","null","","","test","","","","","","","","","","","","","","","","","","","",""
"754","150323","SARL_v6","SARL_v6ye4b3cwb","608bfa04767191aa4d57bfd8","freq","","","img/orange_2bandit_b2.png","70","","70","test","1","","5","","","","circle","square","5","5","1","0.6","","","","","","","",""
"null","150383","SARL_v6","SARL_v6ye4b3cwb","608bfa04767191aa4d57bfd8","freq_resp","","","img/orange_2bandit_b.png","70","img/orange_2bandit_b.png","70","test","","","","","","","","","","","1","","","","","","","","",""
"null","150541","SARL_v6","SARL_v6ye4b3cwb","608bfa04767191aa4d57bfd8","fixation","","","img/fixation.png","null","","","test","","","","","","","","","","","","","","","","","","","",""
"496","151039","SARL_v6","SARL_v6ye4b3cwb","608bfa04767191aa4d57bfd8","freq","","","img/orange_2bandit_b2.png","70","","70","test","1","","6","","","","circle","square","6","6","1","0.6666666666666666","","","","","","","",""
"null","151360","SARL_v6","SARL_v6ye4b3cwb","608bfa04767191aa4d57bfd8","freq_resp","","","img/orange_2bandit_b.png","70","img/orange_2bandit_b.png","70","test","","","","","","","","","","","1","","","","","","","","",""
"null","151517","SARL_v6","SARL_v6ye4b3cwb","608bfa04767191aa4d57bfd8","fixation","","","img/fixation.png","null","","","test","","","","","","","","","","","","","","","","","","","",""
"432","151951","SARL_v6","SARL_v6ye4b3cwb","608bfa04767191aa4d57bfd8","freq","","","img/orange_2bandit_b2.png","70","","70","test","1","","7","","","","circle","square","7","7","1","0.7142857142857143","","","","","","","",""
"null","152336","SARL_v6","SARL_v6ye4b3cwb","608bfa04767191aa4d57bfd8","freq_resp","","","img/orange_2bandit_b.png","70","img/orange_2bandit_b.png","70","test","","","","","","","","","","","1","","","","","","","","",""
"null","152491","SARL_v6","SARL_v6ye4b3cwb","608bfa04767191aa4d57bfd8","fixation","","","img/fixation.png","null","","","test","","","","","","","","","","","","","","","","","","","",""
"435","152929","SARL_v6","SARL_v6ye4b3cwb","608bfa04767191aa4d57bfd8","freq","","","img/orange_2bandit_b2.png","70","","70","test","1","","8","","","","circle","square","8","8","1","0.75","","","","","","","",""
"null","153311","SARL_v6","SARL_v6ye4b3cwb","608bfa04767191aa4d57bfd8","freq_resp","","","img/orange_2bandit_b.png","70","img/orange_2bandit_b.png","70","test","","","","","","","","","","","1","","","","","","","","",""
"null","153480","SARL_v6","SARL_v6ye4b3cwb","608bfa04767191aa4d57bfd8","fixation","","","img/fixation.png","null","","","test","","","","","","","","","","","","","","","","","","","",""
"400","153885","SARL_v6","SARL_v6ye4b3cwb","608bfa04767191aa4d57bfd8","freq","","","img/orange_2bandit_b2.png","70","","70","test","1","","9","","","","circle","square","9","9","1","0.7777777777777778","","","","","","","",""
"null","154296","SARL_v6","SARL_v6ye4b3cwb","608bfa04767191aa4d57bfd8","freq_resp","","","img/orange_2bandit_b.png","70","img/orange_2bandit_b.png","70","test","","","","","","","","","","","1","","","","","","","","",""
"null","154454","SARL_v6","SARL_v6ye4b3cwb","608bfa04767191aa4d57bfd8","fixation","","","img/fixation.png","null","","","test","","","","","","","","","","","","","","","","","","","",""
"535","154991","SARL_v6","SARL_v6ye4b3cwb","608bfa04767191aa4d57bfd8","infreq","","","img/blue_2bandit_b2.png","68","","68","test","1","","10","","","","circle","square","10","10","1","0.8","","","","","","","",""
"null","155275","SARL_v6","SARL_v6ye4b3cwb","608bfa04767191aa4d57bfd8","infreq_resp","","","img/blue_2bandit_b.png","68","img/blue_2bandit_b.png","68","test","","","","","","","","","","","1","","","","","","","","",""
"null","155428","SARL_v6","SARL_v6ye4b3cwb","608bfa04767191aa4d57bfd8","fixation","","","img/fixation.png","null","","","test","","","","","","","","","","","","","","","","","","","",""
"539","155968","SARL_v6","SARL_v6ye4b3cwb","608bfa04767191aa4d57bfd8","freq","","","img/orange_2bandit_b2.png","70","","70","test","1","","11","","","","circle","square","11","11","1","0.8181818181818182","","","","","","","",""
"null","156233","SARL_v6","SARL_v6ye4b3cwb","608bfa04767191aa4d57bfd8","freq_resp","","","img/orange_2bandit_b.png","70","img/orange_2bandit_b.png","70","test","","","","","","","","","","","1","","","","","","","","",""
"null","156389","SARL_v6","SARL_v6ye4b3cwb","608bfa04767191aa4d57bfd8","fixation","","","img/fixation.png","null","","","test","","","","","","","","","","","","","","","","","","","",""
"523","156916","SARL_v6","SARL_v6ye4b3cwb","608bfa04767191aa4d57bfd8","freq","","","img/orange_2bandit_b2.png","70","","70","test","1","","12","","","","circle","square","12","12","1","0.8333333333333334","","","","","","","",""
"null","157210","SARL_v6","SARL_v6ye4b3cwb","608bfa04767191aa4d57bfd8","freq_resp","","","img/orange_2bandit_b.png","70","img/orange_2bandit_b.png","70","test","","","","","","","","","","","1","","","","","","","","",""
"null","157362","SARL_v6","SARL_v6ye4b3cwb","608bfa04767191aa4d57bfd8","fixation","","","img/fixation.png","null","","","test","","","","","","","","","","","","","","","","","","","",""
"446","157811","SARL_v6","SARL_v6ye4b3cwb","608bfa04767191aa4d57bfd8","freq","","","img/orange_2bandit_b2.png","70","","70","test","1","","13","","","","circle","square","13","13","1","0.8461538461538461","","","","","","","",""
"null","158185","SARL_v6","SARL_v6ye4b3cwb","608bfa04767191aa4d57bfd8","freq_resp","","","img/orange_2bandit_b.png","70","img/orange_2bandit_b.png","70","test","","","","","","","","","","","1","","","","","","","","",""
"null","158340","SARL_v6","SARL_v6ye4b3cwb","608bfa04767191aa4d57bfd8","fixation","","","img/fixation.png","null","","","test","","","","","","","","","","","","","","","","","","","",""
"458","158804","SARL_v6","SARL_v6ye4b3cwb","608bfa04767191aa4d57bfd8","infreq","","","img/blue_2bandit_b2.png","68","","68","test","1","","14","","","","circle","square","14","14","1","0.8571428571428571","","","","","","","",""
"null","159159","SARL_v6","SARL_v6ye4b3cwb","608bfa04767191aa4d57bfd8","infreq_resp","","","img/blue_2bandit_b.png","68","img/blue_2bandit_b.png","68","test","","","","","","","","","","","1","","","","","","","","",""
"null","159316","SARL_v6","SARL_v6ye4b3cwb","608bfa04767191aa4d57bfd8","fixation","","","img/fixation.png","null","","","test","","","","","","","","","","","","","","","","","","","",""
"429","159749","SARL_v6","SARL_v6ye4b3cwb","608bfa04767191aa4d57bfd8","freq","","","img/orange_2bandit_b2.png","70","","70","test","1","","15","","","","circle","square","15","15","1","0.8666666666666667","","","","","","","",""
"null","160134","SARL_v6","SARL_v6ye4b3cwb","608bfa04767191aa4d57bfd8","freq_resp","","","img/orange_2bandit_b.png","70","img/orange_2bandit_b.png","70","test","","","","","","","","","","","1","","","","","","","","",""
"null","160288","SARL_v6","SARL_v6ye4b3cwb","608bfa04767191aa4d57bfd8","fixation","","","img/fixation.png","null","","","test","","","","","","","","","","","","","","","","","","","",""
"535","160828","SARL_v6","SARL_v6ye4b3cwb","608bfa04767191aa4d57bfd8","freq","","","img/orange_2bandit_b2.png","70","","70","test","1","","16","","","","circle","square","16","16","1","0.875","","","","","","","",""
"null","161108","SARL_v6","SARL_v6ye4b3cwb","608bfa04767191aa4d57bfd8","freq_resp","","","img/orange_2bandit_b.png","70","img/orange_2bandit_b.png","70","test","","","","","","","","","","","1","","","","","","","","",""
"null","161264","SARL_v6","SARL_v6ye4b3cwb","608bfa04767191aa4d57bfd8","fixation","","","img/fixation.png","null","","","test","","","","","","","","","","","","","","","","","","","",""
"408","161675","SARL_v6","SARL_v6ye4b3cwb","608bfa04767191aa4d57bfd8","freq","","","img/orange_2bandit_b2.png","70","","70","test","1","","17","","","","circle","square","17","17","1","0.8823529411764706","","","","","","","",""
"null","162086","SARL_v6","SARL_v6ye4b3cwb","608bfa04767191aa4d57bfd8","freq_resp","","","img/orange_2bandit_b.png","70","img/orange_2bandit_b.png","70","test","","","","","","","","","","","1","","","","","","","","",""
"null","162254","SARL_v6","SARL_v6ye4b3cwb","608bfa04767191aa4d57bfd8","fixation","","","img/fixation.png","null","","","test","","","","","","","","","","","","","","","","","","","",""
"442","162700","SARL_v6","SARL_v6ye4b3cwb","608bfa04767191aa4d57bfd8","freq","","","img/orange_2bandit_b2.png","70","","70","test","1","","18","","","","circle","square","18","18","1","0.8888888888888888","","","","","","","",""
"null","163077","SARL_v6","SARL_v6ye4b3cwb","608bfa04767191aa4d57bfd8","freq_resp","","","img/orange_2bandit_b.png","70","img/orange_2bandit_b.png","70","test","","","","","","","","","","","1","","","","","","","","",""
"null","163245","SARL_v6","SARL_v6ye4b3cwb","608bfa04767191aa4d57bfd8","fixation","","","img/fixation.png","null","","","test","","","","","","","","","","","","","","","","","","","",""
"435","163685","SARL_v6","SARL_v6ye4b3cwb","608bfa04767191aa4d57bfd8","freq","","","img/orange_2bandit_b2.png","70","","70","test","1","","19","","","","circle","square","19","19","1","0.8947368421052632","","","","","","","",""
"null","164057","SARL_v6","SARL_v6ye4b3cwb","608bfa04767191aa4d57bfd8","freq_resp","","","img/orange_2bandit_b.png","70","img/orange_2bandit_b.png","70","test","","","","","","","","","","","1","","","","","","","","",""
"null","164212","SARL_v6","SARL_v6ye4b3cwb","608bfa04767191aa4d57bfd8","fixation","","","img/fixation.png","null","","","test","","","","","","","","","","","","","","","","","","","",""
"393","164607","SARL_v6","SARL_v6ye4b3cwb","608bfa04767191aa4d57bfd8","freq","","","img/orange_2bandit_b2.png","70","","70","test","1","","20","","","","circle","square","20","20","1","0.9","","","","","","","",""
"null","165016","SARL_v6","SARL_v6ye4b3cwb","608bfa04767191aa4d57bfd8","freq_resp","","","img/orange_2bandit_b.png","70","img/orange_2bandit_b.png","70","test","","","","","","","","","","","1","","","","","","","","",""
"null","165170","SARL_v6","SARL_v6ye4b3cwb","608bfa04767191aa4d57bfd8","fixation","","","img/fixation.png","null","","","test","","","","","","","","","","","","","","","","","","","",""
"468","165639","SARL_v6","SARL_v6ye4b3cwb","608bfa04767191aa4d57bfd8","freq","","","img/orange_2bandit_b2.png","70","","70","test","1","","21","","","","circle","square","21","21","1","0.9047619047619048","","","","","","","",""
"null","165976","SARL_v6","SARL_v6ye4b3cwb","608bfa04767191aa4d57bfd8","freq_resp","","","img/orange_2bandit_b.png","70","img/orange_2bandit_b.png","70","test","","","","","","","","","","","1","","","","","","","","",""
"null","166134","SARL_v6","SARL_v6ye4b3cwb","608bfa04767191aa4d57bfd8","fixation","","","img/fixation.png","null","","","test","","","","","","","","","","","","","","","","","","","",""
"561","166695","SARL_v6","SARL_v6ye4b3cwb","608bfa04767191aa4d57bfd8","freq","","","img/orange_2bandit_b2.png","70","","70","test","1","","22","","","","circle","square","22","22","1","0.9090909090909091","","","","","","","",""
"null","166953","SARL_v6","SARL_v6ye4b3cwb","608bfa04767191aa4d57bfd8","freq_resp","","","img/orange_2bandit_b.png","70","img/orange_2bandit_b.png","70","test","","","","","","","","","","","1","","","","","","","","",""
"null","167123","SARL_v6","SARL_v6ye4b3cwb","608bfa04767191aa4d57bfd8","fixation","","","img/fixation.png","null","","","test","","","","","","","","","","","","","","","","","","","",""
"570","167696","SARL_v6","SARL_v6ye4b3cwb","608bfa04767191aa4d57bfd8","freq","","","img/orange_2bandit_b2.png","70","","70","test","1","","23","","","","circle","square","23","23","1","0.9130434782608695","","","","","","","",""
"null","167932","SARL_v6","SARL_v6ye4b3cwb","608bfa04767191aa4d57bfd8","freq_resp","","","img/orange_2bandit_b.png","70","img/orange_2bandit_b.png","70","test","","","","","","","","","","","1","","","","","","","","",""
"null","168086","SARL_v6","SARL_v6ye4b3cwb","608bfa04767191aa4d57bfd8","fixation","","","img/fixation.png","null","","","test","","","","","","","","","","","","","","","","","","","",""
"753","168844","SARL_v6","SARL_v6ye4b3cwb","608bfa04767191aa4d57bfd8","rl","","","img/black_2bandit_b2.png","75","","0","test","","","24","","","-3","circle","square","","0","1","","75","-3","-3","-3","-3","square","1","0"
"null","169599","SARL_v6","SARL_v6ye4b3cwb","608bfa04767191aa4d57bfd8","feedback","","","<div class=""verylowPoints_sq""> -3 </div>","null","","na","test","","","NaN","","","","","","","","1","","75","","","","","","1",""
"770","170373","SARL_v6","SARL_v6ye4b3cwb","608bfa04767191aa4d57bfd8","freq","","","img/orange_2bandit_b2.png","70","","70","test","1","","25","","","","circle","square","24","1","2","0.9166666666666666","","","","","","","",""
"null","170415","SARL_v6","SARL_v6ye4b3cwb","608bfa04767191aa4d57bfd8","freq_resp","","","img/orange_2bandit_b.png","70","img/orange_2bandit_b.png","70","test","","","","","","","","","","","2","","","","","","","","",""
"null","170570","SARL_v6","SARL_v6ye4b3cwb","608bfa04767191aa4d57bfd8","fixation","","","img/fixation.png","null","","","test","","","","","","","","","","","","","","","","","","","",""
"476","171051","SARL_v6","SARL_v6ye4b3cwb","608bfa04767191aa4d57bfd8","freq","","","img/orange_2bandit_b2.png","70","","70","test","1","","26","","","","circle","square","25","2","2","0.92","","","","","","","",""
"null","171392","SARL_v6","SARL_v6ye4b3cwb","608bfa04767191aa4d57bfd8","freq_resp","","","img/orange_2bandit_b.png","70","img/orange_2bandit_b.png","70","test","","","","","","","","","","","2","","","","","","","","",""
"null","171545","SARL_v6","SARL_v6ye4b3cwb","608bfa04767191aa4d57bfd8","fixation","","","img/fixation.png","null","","","test","","","","","","","","","","","","","","","","","","","",""
"559","172108","SARL_v6","SARL_v6ye4b3cwb","608bfa04767191aa4d57bfd8","infreq","","","img/blue_2bandit_b2.png","68","","68","test","1","","27","","","","circle","square","26","3","2","0.9230769230769231","","","","","","","",""
"null","172356","SARL_v6","SARL_v6ye4b3cwb","608bfa04767191aa4d57bfd8","infreq_resp","","","img/blue_2bandit_b.png","68","img/blue_2bandit_b.png","68","test","","","","","","","","","","","2","","","","","","","","",""
"null","172513","SARL_v6","SARL_v6ye4b3cwb","608bfa04767191aa4d57bfd8","fixation","","","img/fixation.png","null","","","test","","","","","","","","","","","","","","","","","","","",""
"606","173122","SARL_v6","SARL_v6ye4b3cwb","608bfa04767191aa4d57bfd8","freq","","","img/orange_2bandit_b2.png","70","","70","test","1","","28","","","","circle","square","27","4","2","0.9259259259259259","","","","","","","",""
"null","173329","SARL_v6","SARL_v6ye4b3cwb","608bfa04767191aa4d57bfd8","freq_resp","","","img/orange_2bandit_b.png","70","img/orange_2bandit_b.png","70","test","","","","","","","","","","","2","","","","","","","","",""
"null","173486","SARL_v6","SARL_v6ye4b3cwb","608bfa04767191aa4d57bfd8","fixation","","","img/fixation.png","null","","","test","","","","","","","","","","","","","","","","","","","",""
"448","173935","SARL_v6","SARL_v6ye4b3cwb","608bfa04767191aa4d57bfd8","freq","","","img/orange_2bandit_b2.png","70","","70","test","1","","29","","","","circle","square","28","5","2","0.9285714285714286","","","","","","","",""
"null","174307","SARL_v6","SARL_v6ye4b3cwb","608bfa04767191aa4d57bfd8","freq_resp","","","img/orange_2bandit_b.png","70","img/orange_2bandit_b.png","70","test","","","","","","","","","","","2","","","","","","","","",""
"null","174461","SARL_v6","SARL_v6ye4b3cwb","608bfa04767191aa4d57bfd8","fixation","","","img/fixation.png","null","","","test","","","","","","","","","","","","","","","","","","","",""
"479","174943","SARL_v6","SARL_v6ye4b3cwb","608bfa04767191aa4d57bfd8","freq","","","img/orange_2bandit_b2.png","70","","70","test","1","","30","","","","circle","square","29","6","2","0.9310344827586207","","","","","","","",""
"null","175267","SARL_v6","SARL_v6ye4b3cwb","608bfa04767191aa4d57bfd8","freq_resp","","","img/orange_2bandit_b.png","70","img/orange_2bandit_b.png","70","test","","","","","","","","","","","2","","","","","","","","",""
"null","175424","SARL_v6","SARL_v6ye4b3cwb","608bfa04767191aa4d57bfd8","fixation","","","img/fixation.png","null","","","test","","","","","","","","","","","","","","","","","","","",""
"478","175904","SARL_v6","SARL_v6ye4b3cwb","608bfa04767191aa4d57bfd8","freq","","","img/orange_2bandit_b2.png","70","","70","test","1","","31","","","","circle","square","30","7","2","0.9333333333333333","","","","","","","",""
"null","176228","SARL_v6","SARL_v6ye4b3cwb","608bfa04767191aa4d57bfd8","freq_resp","","","img/orange_2bandit_b.png","70","img/orange_2bandit_b.png","70","test","","","","","","","","","","","2","","","","","","","","",""
"null","176385","SARL_v6","SARL_v6ye4b3cwb","608bfa04767191aa4d57bfd8","fixation","","","img/fixation.png","null","","","test","","","","","","","","","","","","","","","","","","","",""
"563","176950","SARL_v6","SARL_v6ye4b3cwb","608bfa04767191aa4d57bfd8","freq","","","img/orange_2bandit_b2.png","70","","70","test","1","","32","","","","circle","square","31","8","2","0.9354838709677419","","","","","","","",""
"null","177193","SARL_v6","SARL_v6ye4b3cwb","608bfa04767191aa4d57bfd8","freq_resp","","","img/orange_2bandit_b.png","70","img/orange_2bandit_b.png","70","test","","","","","","","","","","","2","","","","","","","","",""
"null","177348","SARL_v6","SARL_v6ye4b3cwb","608bfa04767191aa4d57bfd8","fixation","","","img/fixation.png","null","","","test","","","","","","","","","","","","","","","","","","","",""
"587","177940","SARL_v6","SARL_v6ye4b3cwb","608bfa04767191aa4d57bfd8","freq","","","img/orange_2bandit_b2.png","70","","70","test","1","","33","","","","circle","square","32","9","2","0.9375","","","","","","","",""
"null","178167","SARL_v6","SARL_v6ye4b3cwb","608bfa04767191aa4d57bfd8","freq_resp","","","img/orange_2bandit_b.png","70","img/orange_2bandit_b.png","70","test","","","","","","","","","","","2","","","","","","","","",""
"null","178324","SARL_v6","SARL_v6ye4b3cwb","608bfa04767191aa4d57bfd8","fixation","","","img/fixation.png","null","","","test","","","","","","","","","","","","","","","","","","","",""
"574","178900","SARL_v6","SARL_v6ye4b3cwb","608bfa04767191aa4d57bfd8","freq","","","img/orange_2bandit_b2.png","70","","70","test","1","","34","","","","circle","square","33","10","2","0.9393939393939394","","","","","","","",""
"null","179142","SARL_v6","SARL_v6ye4b3cwb","608bfa04767191aa4d57bfd8","freq_resp","","","img/orange_2bandit_b.png","70","img/orange_2bandit_b.png","70","test","","","","","","","","","","","2","","","","","","","","",""
"null","179313","SARL_v6","SARL_v6ye4b3cwb","608bfa04767191aa4d57bfd8","fixation","","","img/fixation.png","null","","","test","","","","","","","","","","","","","","","","","","","",""
"581","179898","SARL_v6","SARL_v6ye4b3cwb","608bfa04767191aa4d57bfd8","freq","","","img/orange_2bandit_b2.png","68","","70","test","0","","35","","","","circle","square","34","11","2","0.9117647058823529","","","","","","","",""
"null","180131","SARL_v6","SARL_v6ye4b3cwb","608bfa04767191aa4d57bfd8","freq_resp","","","img/orange_2bandit_b.png","68","img/orange_2bandit_b.png","70","test","","","","","","","","","","","2","","","","","","","","",""
"null","180285","SARL_v6","SARL_v6ye4b3cwb","608bfa04767191aa4d57bfd8","fixation","","","img/fixation.png","null","","","test","","","","","","","","","","","","","","","","","","","",""
"481","180771","SARL_v6","SARL_v6ye4b3cwb","608bfa04767191aa4d57bfd8","freq","","","img/orange_2bandit_b2.png","70","","70","test","1","","36","","","","circle","square","35","12","2","0.9142857142857143","","","","","","","",""
"null","181105","SARL_v6","SARL_v6ye4b3cwb","608bfa04767191aa4d57bfd8","freq_resp","","","img/orange_2bandit_b.png","70","img/orange_2bandit_b.png","70","test","","","","","","","","","","","2","","","","","","","","",""
"null","181263","SARL_v6","SARL_v6ye4b3cwb","608bfa04767191aa4d57bfd8","fixation","","","img/fixation.png","null","","","test","","","","","","","","","","","","","","","","","","","",""
"407","181676","SARL_v6","SARL_v6ye4b3cwb","608bfa04767191aa4d57bfd8","freq","","","img/orange_2bandit_b2.png","70","","70","test","1","","37","","","","circle","square","36","13","2","0.9166666666666666","","","","","","","",""
"null","182078","SARL_v6","SARL_v6ye4b3cwb","608bfa04767191aa4d57bfd8","freq_resp","","","img/orange_2bandit_b.png","70","img/orange_2bandit_b.png","70","test","","","","","","","","","","","2","","","","","","","","",""
"null","182233","SARL_v6","SARL_v6ye4b3cwb","608bfa04767191aa4d57bfd8","fixation","","","img/fixation.png","null","","","test","","","","","","","","","","","","","","","","","","","",""
"382","182619","SARL_v6","SARL_v6ye4b3cwb","608bfa04767191aa4d57bfd8","freq","","","img/orange_2bandit_b2.png","70","","70","test","1","","38","","","","circle","square","37","14","2","0.918918918918919","","","","","","","",""
"null","183053","SARL_v6","SARL_v6ye4b3cwb","608bfa04767191aa4d57bfd8","freq_resp","","","img/orange_2bandit_b.png","70","img/orange_2bandit_b.png","70","test","","","","","","","","","","","2","","","","","","","","",""
"null","183210","SARL_v6","SARL_v6ye4b3cwb","608bfa04767191aa4d57bfd8","fixation","","","img/fixation.png","null","","","test","","","","","","","","","","","","","","","","","","","",""
"478","183689","SARL_v6","SARL_v6ye4b3cwb","608bfa04767191aa4d57bfd8","freq","","","img/orange_2bandit_b2.png","70","","70","test","1","","39","","","","circle","square","38","15","2","0.9210526315789473","","","","","","","",""
"null","184013","SARL_v6","SARL_v6ye4b3cwb","608bfa04767191aa4d57bfd8","freq_resp","","","img/orange_2bandit_b.png","70","img/orange_2bandit_b.png","70","test","","","","","","","","","","","2","","","","","","","","",""
"null","184171","SARL_v6","SARL_v6ye4b3cwb","608bfa04767191aa4d57bfd8","fixation","","","img/fixation.png","null","","","test","","","","","","","","","","","","","","","","","","","",""
"579","184751","SARL_v6","SARL_v6ye4b3cwb","608bfa04767191aa4d57bfd8","freq","","","img/orange_2bandit_b2.png","70","","70","test","1","","40","","","","circle","square","39","16","2","0.9230769230769231","","","","","","","",""
"null","184975","SARL_v6","SARL_v6ye4b3cwb","608bfa04767191aa4d57bfd8","freq_resp","","","img/orange_2bandit_b.png","70","img/orange_2bandit_b.png","70","test","","","","","","","","","","","2","","","","","","","","",""
"null","185131","SARL_v6","SARL_v6ye4b3cwb","608bfa04767191aa4d57bfd8","fixation","","","img/fixation.png","null","","","test","","","","","","","","","","","","","","","","","","","",""
"709","185842","SARL_v6","SARL_v6ye4b3cwb","608bfa04767191aa4d57bfd8","freq","","","img/orange_2bandit_b2.png","70","","70","test","1","","41","","","","circle","square","40","17","2","0.925","","","","","","","",""
"null","185950","SARL_v6","SARL_v6ye4b3cwb","608bfa04767191aa4d57bfd8","freq_resp","","","img/orange_2bandit_b.png","70","img/orange_2bandit_b.png","70","test","","","","","","","","","","","2","","","","","","","","",""
"null","186119","SARL_v6","SARL_v6ye4b3cwb","608bfa04767191aa4d57bfd8","fixation","","","img/fixation.png","null","","","test","","","","","","","","","","","","","","","","","","","",""
"649","186770","SARL_v6","SARL_v6ye4b3cwb","608bfa04767191aa4d57bfd8","freq","","","img/orange_2bandit_b2.png","70","","70","test","1","","42","","","","circle","square","41","18","2","0.926829268292683","","","","","","","",""
"null","186934","SARL_v6","SARL_v6ye4b3cwb","608bfa04767191aa4d57bfd8","freq_resp","","","img/orange_2bandit_b.png","70","img/orange_2bandit_b.png","70","test","","","","","","","","","","","2","","","","","","","","",""
"null","187104","SARL_v6","SARL_v6ye4b3cwb","608bfa04767191aa4d57bfd8","fixation","","","img/fixation.png","null","","","test","","","","","","","","","","","","","","","","","","","",""
"null","187923","SARL_v6","SARL_v6ye4b3cwb","608bfa04767191aa4d57bfd8","infreq","","","img/blue_2bandit_b2.png","null","","68","test","0","","43","","","","circle","square","42","19","2","0.9047619047619048","","","","","","","",""
"null","188078","SARL_v6","SARL_v6ye4b3cwb","608bfa04767191aa4d57bfd8","fixation","","","img/fixation.png","null","","","test","","","","","","","","","","","","","","","","","","","",""
"712","188795","SARL_v6","SARL_v6ye4b3cwb","608bfa04767191aa4d57bfd8","freq","","","img/orange_2bandit_b2.png","70","","70","test","1","","44","","","","circle","square","43","20","2","0.9069767441860465","","","","","","","",""
"null","188897","SARL_v6","SARL_v6ye4b3cwb","608bfa04767191aa4d57bfd8","freq_resp","","","img/orange_2bandit_b.png","70","img/orange_2bandit_b.png","70","test","","","","","","","","","","","2","","","","","","","","",""
"null","189054","SARL_v6","SARL_v6ye4b3cwb","608bfa04767191aa4d57bfd8","fixation","","","img/fixation.png","null","","","test","","","","","","","","","","","","","","","","","","","",""
"687","189747","SARL_v6","SARL_v6ye4b3cwb","608bfa04767191aa4d57bfd8","rl","","","img/black_2bandit_b2.png","75","","0","test","","","45","","","-8","circle","square","","0","2","","75","-5","-8","-5","-8","square","2","0"
"null","190501","SARL_v6","SARL_v6ye4b3cwb","608bfa04767191aa4d57bfd8","feedback","","","<div class=""verylowPoints_sq""> -8 </div>","null","","na","test","","","NaN","","","","","","","","2","","75","","","","","","2",""
"null","191320","SARL_v6","SARL_v6ye4b3cwb","608bfa04767191aa4d57bfd8","freq","","","img/orange_2bandit_b2.png","null","","70","test","0","","46","","","","circle","square","44","1","3","0.8863636363636364","","","","","","","",""
"null","191475","SARL_v6","SARL_v6ye4b3cwb","608bfa04767191aa4d57bfd8","fixation","","","img/fixation.png","null","","","test","","","","","","","","","","","","","","","","","","","",""
"92","191572","SARL_v6","SARL_v6ye4b3cwb","608bfa04767191aa4d57bfd8","freq","","","img/orange_2bandit_b2.png","70","","70","test","1","","47","","","","circle","square","45","2","3","0.8888888888888888","","","","","","","",""
"null","192290","SARL_v6","SARL_v6ye4b3cwb","608bfa04767191aa4d57bfd8","freq_resp","","","img/orange_2bandit_b.png","70","img/orange_2bandit_b.png","70","test","","","","","","","","","","","3","","","","","","","","",""
"null","192445","SARL_v6","SARL_v6ye4b3cwb","608bfa04767191aa4d57bfd8","fixation","","","img/fixation.png","null","","","test","","","","","","","","","","","","","","","","","","","",""
"641","193091","SARL_v6","SARL_v6ye4b3cwb","608bfa04767191aa4d57bfd8","freq","","","img/orange_2bandit_b2.png","70","","70","test","1","","48","","","","circle","square","46","3","3","0.8913043478260869","","","","","","","",""
"null","193263","SARL_v6","SARL_v6ye4b3cwb","608bfa04767191aa4d57bfd8","freq_resp","","","img/orange_2bandit_b.png","70","img/orange_2bandit_b.png","70","test","","","","","","","","","","","3","","","","","","","","",""
"null","193432","SARL_v6","SARL_v6ye4b3cwb","608bfa04767191aa4d57bfd8","fixation","","","img/fixation.png","null","","","test","","","","","","","","","","","","","","","","","","","",""
"638","194074","SARL_v6","SARL_v6ye4b3cwb","608bfa04767191aa4d57bfd8","infreq","","","img/blue_2bandit_b2.png","68","","68","test","1","","49","","","","circle","square","47","4","3","0.8936170212765957","","","","","","","",""
"null","194251","SARL_v6","SARL_v6ye4b3cwb","608bfa04767191aa4d57bfd8","infreq_resp","","","img/blue_2bandit_b.png","68","img/blue_2bandit_b.png","68","test","","","","","","","","","","","3","","","","","","","","",""
"null","194407","SARL_v6","SARL_v6ye4b3cwb","608bfa04767191aa4d57bfd8","fixation","","","img/fixation.png","null","","","test","","","","","","","","","","","","","","","","","","","",""
"511","194920","SARL_v6","SARL_v6ye4b3cwb","608bfa04767191aa4d57bfd8","freq","","","img/orange_2bandit_b2.png","70","","70","test","1","","50","","","","circle","square","48","5","3","0.8958333333333334","","","","","","","",""
"null","195213","SARL_v6","SARL_v6ye4b3cwb","608bfa04767191aa4d57bfd8","freq_resp","","","img/orange_2bandit_b.png","70","img/orange_2bandit_b.png","70","test","","","","","","","","","","","3","","","","","","","","",""
"null","195367","SARL_v6","SARL_v6ye4b3cwb","608bfa04767191aa4d57bfd8","fixation","","","img/fixation.png","null","","","test","","","","","","","","","","","","","","","","","","","",""
"478","195851","SARL_v6","SARL_v6ye4b3cwb","608bfa04767191aa4d57bfd8","freq","","","img/orange_2bandit_b2.png","70","","70","test","1","","51","","","","circle","square","49","6","3","0.8979591836734694","","","","","","","",""
"null","196188","SARL_v6","SARL_v6ye4b3cwb","608bfa04767191aa4d57bfd8","freq_resp","","","img/orange_2bandit_b.png","70","img/orange_2bandit_b.png","70","test","","","","","","","","","","","3","","","","","","","","",""
"null","196355","SARL_v6","SARL_v6ye4b3cwb","608bfa04767191aa4d57bfd8","fixation","","","img/fixation.png","null","","","test","","","","","","","","","","","","","","","","","","","",""
"497","196856","SARL_v6","SARL_v6ye4b3cwb","608bfa04767191aa4d57bfd8","freq","","","img/orange_2bandit_b2.png","70","","70","test","1","","52","","","","circle","square","50","7","3","0.9","","","","","","","",""
"null","197172","SARL_v6","SARL_v6ye4b3cwb","608bfa04767191aa4d57bfd8","freq_resp","","","img/orange_2bandit_b.png","70","img/orange_2bandit_b.png","70","test","","","","","","","","","","","3","","","","","","","","",""
"null","197327","SARL_v6","SARL_v6ye4b3cwb","608bfa04767191aa4d57bfd8","fixation","","","img/fixation.png","null","","","test","","","","","","","","","","","","","","","","","","","",""
"486","197816","SARL_v6","SARL_v6ye4b3cwb","608bfa04767191aa4d57bfd8","freq","","","img/orange_2bandit_b2.png","70","","70","test","1","","53","","","","circle","square","51","8","3","0.9019607843137255","","","","","","","",""
"null","198144","SARL_v6","SARL_v6ye4b3cwb","608bfa04767191aa4d57bfd8","freq_resp","","","img/orange_2bandit_b.png","70","img/orange_2bandit_b.png","70","test","","","","","","","","","","","3","","","","","","","","",""
"null","198301","SARL_v6","SARL_v6ye4b3cwb","608bfa04767191aa4d57bfd8","fixation","","","img/fixation.png","null","","","test","","","","","","","","","","","","","","","","","","","",""
"410","198716","SARL_v6","SARL_v6ye4b3cwb","608bfa04767191aa4d57bfd8","freq","","","img/orange_2bandit_b2.png","70","","70","test","1","","54","","","","circle","square","52","9","3","0.9038461538461539","","","","","","","",""
"null","199123","SARL_v6","SARL_v6ye4b3cwb","608bfa04767191aa4d57bfd8","freq_resp","","","img/orange_2bandit_b.png","70","img/orange_2bandit_b.png","70","test","","","","","","","","","","","3","","","","","","","","",""
"null","199281","SARL_v6","SARL_v6ye4b3cwb","608bfa04767191aa4d57bfd8","fixation","","","img/fixation.png","null","","","test","","","","","","","","","","","","","","","","","","","",""
"358","199644","SARL_v6","SARL_v6ye4b3cwb","608bfa04767191aa4d57bfd8","freq","","","img/orange_2bandit_b2.png","70","","70","test","1","","55","","","","circle","square","53","10","3","0.9056603773584906","","","","","","","",""
"null","200096","SARL_v6","SARL_v6ye4b3cwb","608bfa04767191aa4d57bfd8","freq_resp","","","img/orange_2bandit_b.png","70","img/orange_2bandit_b.png","70","test","","","","","","","","","","","3","","","","","","","","",""
"null","200250","SARL_v6","SARL_v6ye4b3cwb","608bfa04767191aa4d57bfd8","fixation","","","img/fixation.png","null","","","test","","","","","","","","","","","","","","","","","","","",""
"380","200631","SARL_v6","SARL_v6ye4b3cwb","608bfa04767191aa4d57bfd8","freq","","","img/orange_2bandit_b2.png","70","","70","test","1","","56","","","","circle","square","54","11","3","0.9074074074074074","","","","","","","",""
"null","201070","SARL_v6","SARL_v6ye4b3cwb","608bfa04767191aa4d57bfd8","freq_resp","","","img/orange_2bandit_b.png","70","img/orange_2bandit_b.png","70","test","","","","","","","","","","","3","","","","","","","","",""
"null","201237","SARL_v6","SARL_v6ye4b3cwb","608bfa04767191aa4d57bfd8","fixation","","","img/fixation.png","null","","","test","","","","","","","","","","","","","","","","","","","",""
"521","201763","SARL_v6","SARL_v6ye4b3cwb","608bfa04767191aa4d57bfd8","freq","","","img/orange_2bandit_b2.png","70","","70","test","1","","57","","","","circle","square","55","12","3","0.9090909090909091","","","","","","","",""
"null","202058","SARL_v6","SARL_v6ye4b3cwb","608bfa04767191aa4d57bfd8","freq_resp","","","img/orange_2bandit_b.png","70","img/orange_2bandit_b.png","70","test","","","","","","","","","","","3","","","","","","","","",""
"null","202225","SARL_v6","SARL_v6ye4b3cwb","608bfa04767191aa4d57bfd8","fixation","","","img/fixation.png","null","","","test","","","","","","","","","","","","","","","","","","","",""
"423","202652","SARL_v6","SARL_v6ye4b3cwb","608bfa04767191aa4d57bfd8","freq","","","img/orange_2bandit_b2.png","70","","70","test","1","","58","","","","circle","square","56","13","3","0.9107142857142857","","","","","","","",""
"null","203047","SARL_v6","SARL_v6ye4b3cwb","608bfa04767191aa4d57bfd8","freq_resp","","","img/orange_2bandit_b.png","70","img/orange_2bandit_b.png","70","test","","","","","","","","","","","3","","","","","","","","",""
"null","203215","SARL_v6","SARL_v6ye4b3cwb","608bfa04767191aa4d57bfd8","fixation","","","img/fixation.png","null","","","test","","","","","","","","","","","","","","","","","","","",""
"431","203652","SARL_v6","SARL_v6ye4b3cwb","608bfa04767191aa4d57bfd8","freq","","","img/orange_2bandit_b2.png","70","","70","test","1","","59","","","","circle","square","57","14","3","0.9122807017543859","","","","","","","",""
"null","204033","SARL_v6","SARL_v6ye4b3cwb","608bfa04767191aa4d57bfd8","freq_resp","","","img/orange_2bandit_b.png","70","img/orange_2bandit_b.png","70","test","","","","","","","","","","","3","","","","","","","","",""
"null","204189","SARL_v6","SARL_v6ye4b3cwb","608bfa04767191aa4d57bfd8","fixation","","","img/fixation.png","null","","","test","","","","","","","","","","","","","","","","","","","",""
"411","204604","SARL_v6","SARL_v6ye4b3cwb","608bfa04767191aa4d57bfd8","freq","","","img/orange_2bandit_b2.png","70","","70","test","1","","60","","","","circle","square","58","15","3","0.9137931034482759","","","","","","","",""
"null","205004","SARL_v6","SARL_v6ye4b3cwb","608bfa04767191aa4d57bfd8","freq_resp","","","img/orange_2bandit_b.png","70","img/orange_2bandit_b.png","70","test","","","","","","","","","","","3","","","","","","","","",""
"null","205163","SARL_v6","SARL_v6ye4b3cwb","608bfa04767191aa4d57bfd8","fixation","","","img/fixation.png","null","","","test","","","","","","","","","","","","","","","","","","","",""
"445","205612","SARL_v6","SARL_v6ye4b3cwb","608bfa04767191aa4d57bfd8","freq","","","img/orange_2bandit_b2.png","70","","70","test","1","","61","","","","circle","square","59","16","3","0.9152542372881356","","","","","","","",""
"null","205978","SARL_v6","SARL_v6ye4b3cwb","608bfa04767191aa4d57bfd8","freq_resp","","","img/orange_2bandit_b.png","70","img/orange_2bandit_b.png","70","test","","","","","","","","","","","3","","","","","","","","",""
"null","206131","SARL_v6","SARL_v6ye4b3cwb","608bfa04767191aa4d57bfd8","fixation","","","img/fixation.png","null","","","test","","","","","","","","","","","","","","","","","","","",""
"453","206589","SARL_v6","SARL_v6ye4b3cwb","608bfa04767191aa4d57bfd8","freq","","","img/orange_2bandit_b2.png","70","","70","test","1","","62","","","","circle","square","60","17","3","0.9166666666666666","","","","","","","",""
"null","206942","SARL_v6","SARL_v6ye4b3cwb","608bfa04767191aa4d57bfd8","freq_resp","","","img/orange_2bandit_b.png","70","img/orange_2bandit_b.png","70","test","","","","","","","","","","","3","","","","","","","","",""
"null","207111","SARL_v6","SARL_v6ye4b3cwb","608bfa04767191aa4d57bfd8","fixation","","","img/fixation.png","null","","","test","","","","","","","","","","","","","","","","","","","",""
"465","207580","SARL_v6","SARL_v6ye4b3cwb","608bfa04767191aa4d57bfd8","freq","","","img/orange_2bandit_b2.png","70","","70","test","1","","63","","","","circle","square","61","18","3","0.9180327868852459","","","","","","","",""
"null","207926","SARL_v6","SARL_v6ye4b3cwb","608bfa04767191aa4d57bfd8","freq_resp","","","img/orange_2bandit_b.png","70","img/orange_2bandit_b.png","70","test","","","","","","","","","","","3","","","","","","","","",""
"null","208083","SARL_v6","SARL_v6ye4b3cwb","608bfa04767191aa4d57bfd8","fixation","","","img/fixation.png","null","","","test","","","","","","","","","","","","","","","","","","","",""
"500","208588","SARL_v6","SARL_v6ye4b3cwb","608bfa04767191aa4d57bfd8","freq","","","img/orange_2bandit_b2.png","70","","70","test","1","","64","","","","circle","square","62","19","3","0.9193548387096774","","","","","","","",""
"null","208901","SARL_v6","SARL_v6ye4b3cwb","608bfa04767191aa4d57bfd8","freq_resp","","","img/orange_2bandit_b.png","70","img/orange_2bandit_b.png","70","test","","","","","","","","","","","3","","","","","","","","",""
"null","209054","SARL_v6","SARL_v6ye4b3cwb","608bfa04767191aa4d57bfd8","fixation","","","img/fixation.png","null","","","test","","","","","","","","","","","","","","","","","","","",""
"496","209554","SARL_v6","SARL_v6ye4b3cwb","608bfa04767191aa4d57bfd8","freq","","","img/orange_2bandit_b2.png","70","","70","test","1","","65","","","","circle","square","63","20","3","0.9206349206349206","","","","","","","",""
"null","209871","SARL_v6","SARL_v6ye4b3cwb","608bfa04767191aa4d57bfd8","freq_resp","","","img/orange_2bandit_b.png","70","img/orange_2bandit_b.png","70","test","","","","","","","","","","","3","","","","","","","","",""
"null","210028","SARL_v6","SARL_v6ye4b3cwb","608bfa04767191aa4d57bfd8","fixation","","","img/fixation.png","null","","","test","","","","","","","","","","","","","","","","","","","",""
"473","210503","SARL_v6","SARL_v6ye4b3cwb","608bfa04767191aa4d57bfd8","freq","","","img/orange_2bandit_b2.png","70","","70","test","1","","66","","","","circle","square","64","21","3","0.921875","","","","","","","",""
"null","210835","SARL_v6","SARL_v6ye4b3cwb","608bfa04767191aa4d57bfd8","freq_resp","","","img/orange_2bandit_b.png","70","img/orange_2bandit_b.png","70","test","","","","","","","","","","","3","","","","","","","","",""
"null","210990","SARL_v6","SARL_v6ye4b3cwb","608bfa04767191aa4d57bfd8","fixation","","","img/fixation.png","null","","","test","","","","","","","","","","","","","","","","","","","",""
"487","211483","SARL_v6","SARL_v6ye4b3cwb","608bfa04767191aa4d57bfd8","freq","","","img/orange_2bandit_b2.png","70","","70","test","1","","67","","","","circle","square","65","22","3","0.9230769230769231","","","","","","","",""
"null","211808","SARL_v6","SARL_v6ye4b3cwb","608bfa04767191aa4d57bfd8","freq_resp","","","img/orange_2bandit_b.png","70","img/orange_2bandit_b.png","70","test","","","","","","","","","","","3","","","","","","","","",""
"null","211965","SARL_v6","SARL_v6ye4b3cwb","608bfa04767191aa4d57bfd8","fixation","","","img/fixation.png","null","","","test","","","","","","","","","","","","","","","","","","","",""
"457","212428","SARL_v6","SARL_v6ye4b3cwb","608bfa04767191aa4d57bfd8","freq","","","img/orange_2bandit_b2.png","70","","70","test","1","","68","","","","circle","square","66","23","3","0.9242424242424242","","","","","","","",""
"null","212786","SARL_v6","SARL_v6ye4b3cwb","608bfa04767191aa4d57bfd8","freq_resp","","","img/orange_2bandit_b.png","70","img/orange_2bandit_b.png","70","test","","","","","","","","","","","3","","","","","","","","",""
"null","212938","SARL_v6","SARL_v6ye4b3cwb","608bfa04767191aa4d57bfd8","fixation","","","img/fixation.png","null","","","test","","","","","","","","","","","","","","","","","","","",""
"507","213451","SARL_v6","SARL_v6ye4b3cwb","608bfa04767191aa4d57bfd8","infreq","","","img/blue_2bandit_b2.png","68","","68","test","1","","69","","","","circle","square","67","24","3","0.9253731343283582","","","","","","","",""
"null","213764","SARL_v6","SARL_v6ye4b3cwb","608bfa04767191aa4d57bfd8","infreq_resp","","","img/blue_2bandit_b.png","68","img/blue_2bandit_b.png","68","test","","","","","","","","","","","3","","","","","","","","",""
"null","213919","SARL_v6","SARL_v6ye4b3cwb","608bfa04767191aa4d57bfd8","fixation","","","img/fixation.png","null","","","test","","","","","","","","","","","","","","","","","","","",""
"473","214396","SARL_v6","SARL_v6ye4b3cwb","608bfa04767191aa4d57bfd8","freq","","","img/orange_2bandit_b2.png","70","","70","test","1","","70","","","","circle","square","68","25","3","0.9264705882352942","","","","","","","",""
"null","214739","SARL_v6","SARL_v6ye4b3cwb","608bfa04767191aa4d57bfd8","freq_resp","","","img/orange_2bandit_b.png","70","img/orange_2bandit_b.png","70","test","","","","","","","","","","","3","","","","","","","","",""
"null","214895","SARL_v6","SARL_v6ye4b3cwb","608bfa04767191aa4d57bfd8","fixation","","","img/fixation.png","null","","","test","","","","","","","","","","","","","","","","","","","",""
"376","215275","SARL_v6","SARL_v6ye4b3cwb","608bfa04767191aa4d57bfd8","freq","","","img/orange_2bandit_b2.png","70","","70","test","1","","71","","","","circle","square","69","26","3","0.927536231884058","","","","","","","",""
"null","215716","SARL_v6","SARL_v6ye4b3cwb","608bfa04767191aa4d57bfd8","freq_resp","","","img/orange_2bandit_b.png","70","img/orange_2bandit_b.png","70","test","","","","","","","","","","","3","","","","","","","","",""
"null","215872","SARL_v6","SARL_v6ye4b3cwb","608bfa04767191aa4d57bfd8","fixation","","","img/fixation.png","null","","","test","","","","","","","","","","","","","","","","","","","",""
"527","216404","SARL_v6","SARL_v6ye4b3cwb","608bfa04767191aa4d57bfd8","rl","","","img/black_2bandit_b2.png","75","","0","test","","","72","","","-8","circle","square","","0","3","","75","-4","-8","-4","-8","square","3","0"
"null","217167","SARL_v6","SARL_v6ye4b3cwb","608bfa04767191aa4d57bfd8","feedback","","","<div class=""verylowPoints_sq""> -8 </div>","null","","na","test","","","NaN","","","","","","","","3","","75","","","","","","3",""
"545","217716","SARL_v6","SARL_v6ye4b3cwb","608bfa04767191aa4d57bfd8","freq","","","img/orange_2bandit_b2.png","70","","70","test","1","","73","","","","circle","square","70","1","4","0.9285714285714286","","","","","","","",""
"null","217986","SARL_v6","SARL_v6ye4b3cwb","608bfa04767191aa4d57bfd8","freq_resp","","","img/orange_2bandit_b.png","70","img/orange_2bandit_b.png","70","test","","","","","","","","","","","4","","","","","","","","",""
"null","218143","SARL_v6","SARL_v6ye4b3cwb","608bfa04767191aa4d57bfd8","fixation","","","img/fixation.png","null","","","test","","","","","","","","","","","","","","","","","","","",""
"609","218757","SARL_v6","SARL_v6ye4b3cwb","608bfa04767191aa4d57bfd8","infreq","","","img/blue_2bandit_b2.png","68","","68","test","1","","74","","","","circle","square","71","2","4","0.9295774647887324","","","","","","","",""
"null","218959","SARL_v6","SARL_v6ye4b3cwb","608bfa04767191aa4d57bfd8","infreq_resp","","","img/blue_2bandit_b.png","68","img/blue_2bandit_b.png","68","test","","","","","","","","","","","4","","","","","","","","",""
"null","219114","SARL_v6","SARL_v6ye4b3cwb","608bfa04767191aa4d57bfd8","fixation","","","img/fixation.png","null","","","test","","","","","","","","","","","","","","","","","","","",""
"477","219597","SARL_v6","SARL_v6ye4b3cwb","608bfa04767191aa4d57bfd8","freq","","","img/orange_2bandit_b2.png","70","","70","test","1","","75","","","","circle","square","72","3","4","0.9305555555555556","","","","","","","",""
"null","219936","SARL_v6","SARL_v6ye4b3cwb","608bfa04767191aa4d57bfd8","freq_resp","","","img/orange_2bandit_b.png","70","img/orange_2bandit_b.png","70","test","","","","","","","","","","","4","","","","","","","","",""
"null","220107","SARL_v6","SARL_v6ye4b3cwb","608bfa04767191aa4d57bfd8","fixation","","","img/fixation.png","null","","","test","","","","","","","","","","","","","","","","","","","",""
"388","220498","SARL_v6","SARL_v6ye4b3cwb","608bfa04767191aa4d57bfd8","freq","","","img/orange_2bandit_b2.png","70","","70","test","1","","76","","","","circle","square","73","4","4","0.9315068493150684","","","","","","","",""
"null","220923","SARL_v6","SARL_v6ye4b3cwb","608bfa04767191aa4d57bfd8","freq_resp","","","img/orange_2bandit_b.png","70","img/orange_2bandit_b.png","70","test","","","","","","","","","","","4","","","","","","","","",""
"null","221080","SARL_v6","SARL_v6ye4b3cwb","608bfa04767191aa4d57bfd8","fixation","","","img/fixation.png","null","","","test","","","","","","","","","","","","","","","","","","","",""
"342","221428","SARL_v6","SARL_v6ye4b3cwb","608bfa04767191aa4d57bfd8","freq","","","img/orange_2bandit_b2.png","70","","70","test","1","","77","","","","circle","square","74","5","4","0.9324324324324325","","","","","","","",""
"null","221897","SARL_v6","SARL_v6ye4b3cwb","608bfa04767191aa4d57bfd8","freq_resp","","","img/orange_2bandit_b.png","70","img/orange_2bandit_b.png","70","test","","","","","","","","","","","4","","","","","","","","",""
"null","222052","SARL_v6","SARL_v6ye4b3cwb","608bfa04767191aa4d57bfd8","fixation","","","img/fixation.png","null","","","test","","","","","","","","","","","","","","","","","","","",""
"402","222459","SARL_v6","SARL_v6ye4b3cwb","608bfa04767191aa4d57bfd8","freq","","","img/orange_2bandit_b2.png","70","","70","test","1","","78","","","","circle","square","75","6","4","0.9333333333333333","","","","","","","",""
"null","222871","SARL_v6","SARL_v6ye4b3cwb","608bfa04767191aa4d57bfd8","freq_resp","","","img/orange_2bandit_b.png","70","img/orange_2bandit_b.png","70","test","","","","","","","","","","","4","","","","","","","","",""
"null","223024","SARL_v6","SARL_v6ye4b3cwb","608bfa04767191aa4d57bfd8","fixation","","","img/fixation.png","null","","","test","","","","","","","","","","","","","","","","","","","",""
"408","223437","SARL_v6","SARL_v6ye4b3cwb","608bfa04767191aa4d57bfd8","freq","","","img/orange_2bandit_b2.png","70","","70","test","1","","79","","","","circle","square","76","7","4","0.9342105263157895","","","","","","","",""
"null","223846","SARL_v6","SARL_v6ye4b3cwb","608bfa04767191aa4d57bfd8","freq_resp","","","img/orange_2bandit_b.png","70","img/orange_2bandit_b.png","70","test","","","","","","","","","","","4","","","","","","","","",""
"null","224015","SARL_v6","SARL_v6ye4b3cwb","608bfa04767191aa4d57bfd8","fixation","","","img/fixation.png","null","","","test","","","","","","","","","","","","","","","","","","","",""
"426","224443","SARL_v6","SARL_v6ye4b3cwb","608bfa04767191aa4d57bfd8","freq","","","img/orange_2bandit_b2.png","70","","70","test","1","","80","","","","circle","square","77","8","4","0.935064935064935","","","","","","","",""
"null","224833","SARL_v6","SARL_v6ye4b3cwb","608bfa04767191aa4d57bfd8","freq_resp","","","img/orange_2bandit_b.png","70","img/orange_2bandit_b.png","70","test","","","","","","","","","","","4","","","","","","","","",""
"null","224989","SARL_v6","SARL_v6ye4b3cwb","608bfa04767191aa4d57bfd8","fixation","","","img/fixation.png","null","","","test","","","","","","","","","","","","","","","","","","","",""
"386","225378","SARL_v6","SARL_v6ye4b3cwb","608bfa04767191aa4d57bfd8","freq","","","img/orange_2bandit_b2.png","70","","70","test","1","","81","","","","circle","square","78","9","4","0.9358974358974359","","","","","","","",""
"null","225804","SARL_v6","SARL_v6ye4b3cwb","608bfa04767191aa4d57bfd8","freq_resp","","","img/orange_2bandit_b.png","70","img/orange_2bandit_b.png","70","test","","","","","","","","","","","4","","","","","","","","",""
"null","225962","SARL_v6","SARL_v6ye4b3cwb","608bfa04767191aa4d57bfd8","fixation","","","img/fixation.png","null","","","test","","","","","","","","","","","","","","","","","","","",""
"354","226319","SARL_v6","SARL_v6ye4b3cwb","608bfa04767191aa4d57bfd8","freq","","","img/orange_2bandit_b2.png","70","","70","test","1","","82","","","","circle","square","79","10","4","0.9367088607594937","","","","","","","",""
"null","226782","SARL_v6","SARL_v6ye4b3cwb","608bfa04767191aa4d57bfd8","freq_resp","","","img/orange_2bandit_b.png","70","img/orange_2bandit_b.png","70","test","","","","","","","","","","","4","","","","","","","","",""
"null","226950","SARL_v6","SARL_v6ye4b3cwb","608bfa04767191aa4d57bfd8","fixation","","","img/fixation.png","null","","","test","","","","","","","","","","","","","","","","","","","",""
"343","227295","SARL_v6","SARL_v6ye4b3cwb","608bfa04767191aa4d57bfd8","freq","","","img/orange_2bandit_b2.png","70","","70","test","1","","83","","","","circle","square","80","11","4","0.9375","","","","","","","",""
"null","227759","SARL_v6","SARL_v6ye4b3cwb","608bfa04767191aa4d57bfd8","freq_resp","","","img/orange_2bandit_b.png","70","img/orange_2bandit_b.png","70","test","","","","","","","","","","","4","","","","","","","","",""
"null","227913","SARL_v6","SARL_v6ye4b3cwb","608bfa04767191aa4d57bfd8","fixation","","","img/fixation.png","null","","","test","","","","","","","","","","","","","","","","","","","",""
"372","228287","SARL_v6","SARL_v6ye4b3cwb","608bfa04767191aa4d57bfd8","freq","","","img/orange_2bandit_b2.png","70","","70","test","1","","84","","","","circle","square","81","12","4","0.9382716049382716","","","","","","","",""
"null","228730","SARL_v6","SARL_v6ye4b3cwb","608bfa04767191aa4d57bfd8","freq_resp","","","img/orange_2bandit_b.png","70","img/orange_2bandit_b.png","70","test","","","","","","","","","","","4","","","","","","","","",""
"null","228887","SARL_v6","SARL_v6ye4b3cwb","608bfa04767191aa4d57bfd8","fixation","","","img/fixation.png","null","","","test","","","","","","","","","","","","","","","","","","","",""
"382","229271","SARL_v6","SARL_v6ye4b3cwb","608bfa04767191aa4d57bfd8","freq","","","img/orange_2bandit_b2.png","70","","70","test","1","","85","","","","circle","square","82","13","4","0.9390243902439024","","","","","","","",""
"null","229705","SARL_v6","SARL_v6ye4b3cwb","608bfa04767191aa4d57bfd8","freq_resp","","","img/orange_2bandit_b.png","70","img/orange_2bandit_b.png","70","test","","","","","","","","","","","4","","","","","","","","",""
"null","229875","SARL_v6","SARL_v6ye4b3cwb","608bfa04767191aa4d57bfd8","fixation","","","img/fixation.png","null","","","test","","","","","","","","","","","","","","","","","","","",""
"475","230352","SARL_v6","SARL_v6ye4b3cwb","608bfa04767191aa4d57bfd8","infreq","","","img/blue_2bandit_b2.png","68","","68","test","1","","86","","","","circle","square","83","14","4","0.9397590361445783","","","","","","","",""
"null","230693","SARL_v6","SARL_v6ye4b3cwb","608bfa04767191aa4d57bfd8","infreq_resp","","","img/blue_2bandit_b.png","68","img/blue_2bandit_b.png","68","test","","","","","","","","","","","4","","","","","","","","",""
"null","230848","SARL_v6","SARL_v6ye4b3cwb","608bfa04767191aa4d57bfd8","fixation","","","img/fixation.png","null","","","test","","","","","","","","","","","","","","","","","","","",""
"580","231431","SARL_v6","SARL_v6ye4b3cwb","608bfa04767191aa4d57bfd8","freq","","","img/orange_2bandit_b2.png","70","","70","test","1","","87","","","","circle","square","84","15","4","0.9404761904761905","","","","","","","",""
"null","231661","SARL_v6","SARL_v6ye4b3cwb","608bfa04767191aa4d57bfd8","freq_resp","","","img/orange_2bandit_b.png","70","img/orange_2bandit_b.png","70","test","","","","","","","","","","","4","","","","","","","","",""
"null","231815","SARL_v6","SARL_v6ye4b3cwb","608bfa04767191aa4d57bfd8","fixation","","","img/fixation.png","null","","","test","","","","","","","","","","","","","","","","","","","",""
"480","232300","SARL_v6","SARL_v6ye4b3cwb","608bfa04767191aa4d57bfd8","freq","","","img/orange_2bandit_b2.png","70","","70","test","1","","88","","","","circle","square","85","16","4","0.9411764705882353","","","","","","","",""
"null","232627","SARL_v6","SARL_v6ye4b3cwb","608bfa04767191aa4d57bfd8","freq_resp","","","img/orange_2bandit_b.png","70","img/orange_2bandit_b.png","70","test","","","","","","","","","","","4","","","","","","","","",""
"null","232799","SARL_v6","SARL_v6ye4b3cwb","608bfa04767191aa4d57bfd8","fixation","","","img/fixation.png","null","","","test","","","","","","","","","","","","","","","","","","","",""
"480","233280","SARL_v6","SARL_v6ye4b3cwb","608bfa04767191aa4d57bfd8","freq","","","img/orange_2bandit_b2.png","70","","70","test","1","","89","","","","circle","square","86","17","4","0.9418604651162791","","","","","","","",""
"null","233617","SARL_v6","SARL_v6ye4b3cwb","608bfa04767191aa4d57bfd8","freq_resp","","","img/orange_2bandit_b.png","70","img/orange_2bandit_b.png","70","test","","","","","","","","","","","4","","","","","","","","",""
"null","233773","SARL_v6","SARL_v6ye4b3cwb","608bfa04767191aa4d57bfd8","fixation","","","img/fixation.png","null","","","test","","","","","","","","","","","","","","","","","","","",""
"471","234248","SARL_v6","SARL_v6ye4b3cwb","608bfa04767191aa4d57bfd8","freq","","","img/orange_2bandit_b2.png","70","","70","test","1","","90","","","","circle","square","87","18","4","0.9425287356321839","","","","","","","",""
"null","234582","SARL_v6","SARL_v6ye4b3cwb","608bfa04767191aa4d57bfd8","freq_resp","","","img/orange_2bandit_b.png","70","img/orange_2bandit_b.png","70","test","","","","","","","","","","","4","","","","","","","","",""
"null","234737","SARL_v6","SARL_v6ye4b3cwb","608bfa04767191aa4d57bfd8","fixation","","","img/fixation.png","null","","","test","","","","","","","","","","","","","","","","","","","",""
"662","235400","SARL_v6","SARL_v6ye4b3cwb","608bfa04767191aa4d57bfd8","freq","","","img/orange_2bandit_b2.png","70","","70","test","1","","91","","","","circle","square","88","19","4","0.9431818181818182","","","","","","","",""
"null","235555","SARL_v6","SARL_v6ye4b3cwb","608bfa04767191aa4d57bfd8","freq_resp","","","img/orange_2bandit_b.png","70","img/orange_2bandit_b.png","70","test","","","","","","","","","","","4","","","","","","","","",""
"null","235709","SARL_v6","SARL_v6ye4b3cwb","608bfa04767191aa4d57bfd8","fixation","","","img/fixation.png","null","","","test","","","","","","","","","","","","","","","","","","","",""
"666","236378","SARL_v6","SARL_v6ye4b3cwb","608bfa04767191aa4d57bfd8","freq","","","img/orange_2bandit_b2.png","70","","70","test","1","","92","","","","circle","square","89","20","4","0.9438202247191011","","","","","","","",""
"null","236519","SARL_v6","SARL_v6ye4b3cwb","608bfa04767191aa4d57bfd8","freq_resp","","","img/orange_2bandit_b.png","70","img/orange_2bandit_b.png","70","test","","","","","","","","","","","4","","","","","","","","",""
"null","236674","SARL_v6","SARL_v6ye4b3cwb","608bfa04767191aa4d57bfd8","fixation","","","img/fixation.png","null","","","test","","","","","","","","","","","","","","","","","","","",""
"701","237380","SARL_v6","SARL_v6ye4b3cwb","608bfa04767191aa4d57bfd8","rl","","","img/black_2bandit_b2.png","74","","0","test","","","93","","","0","circle","square","","0","4","","74","0","-12","0","-12","circle","4","0"
"null","238143","SARL_v6","SARL_v6ye4b3cwb","608bfa04767191aa4d57bfd8","feedback","","","<div class=""verylowPoints""> 0 </div>","null","","na","test","","","NaN","","","","","","","","4","","74","","","","","","4",""
"688","238837","SARL_v6","SARL_v6ye4b3cwb","608bfa04767191aa4d57bfd8","freq","","","img/orange_2bandit_b2.png","70","","70","test","1","","94","","","","circle","square","90","1","5","0.9444444444444444","","","","","","","",""
"null","238965","SARL_v6","SARL_v6ye4b3cwb","608bfa04767191aa4d57bfd8","freq_resp","","","img/orange_2bandit_b.png","70","img/orange_2bandit_b.png","70","test","","","","","","","","","","","5","","","","","","","","",""
"null","239120","SARL_v6","SARL_v6ye4b3cwb","608bfa04767191aa4d57bfd8","fixation","","","img/fixation.png","null","","","test","","","","","","","","","","","","","","","","","","","",""
"501","239627","SARL_v6","SARL_v6ye4b3cwb","608bfa04767191aa4d57bfd8","freq","","","img/orange_2bandit_b2.png","70","","70","test","1","","95","","","","circle","square","91","2","5","0.945054945054945","","","","","","","",""
"null","239936","SARL_v6","SARL_v6ye4b3cwb","608bfa04767191aa4d57bfd8","freq_resp","","","img/orange_2bandit_b.png","70","img/orange_2bandit_b.png","70","test","","","","","","","","","","","5","","","","","","","","",""
"null","240093","SARL_v6","SARL_v6ye4b3cwb","608bfa04767191aa4d57bfd8","fixation","","","img/fixation.png","null","","","test","","","","","","","","","","","","","","","","","","","",""
"402","240500","SARL_v6","SARL_v6ye4b3cwb","608bfa04767191aa4d57bfd8","freq","","","img/orange_2bandit_b2.png","70","","70","test","1","","96","","","","circle","square","92","3","5","0.9456521739130435","","","","","","","",""
"null","240912","SARL_v6","SARL_v6ye4b3cwb","608bfa04767191aa4d57bfd8","freq_resp","","","img/orange_2bandit_b.png","70","img/orange_2bandit_b.png","70","test","","","","","","","","","","","5","","","","","","","","",""
"null","241066","SARL_v6","SARL_v6ye4b3cwb","608bfa04767191aa4d57bfd8","fixation","","","img/fixation.png","null","","","test","","","","","","","","","","","","","","","","","","","",""
"426","241496","SARL_v6","SARL_v6ye4b3cwb","608bfa04767191aa4d57bfd8","freq","","","img/orange_2bandit_b2.png","70","","70","test","1","","97","","","","circle","square","93","4","5","0.946236559139785","","","","","","","",""
"null","241883","SARL_v6","SARL_v6ye4b3cwb","608bfa04767191aa4d57bfd8","freq_resp","","","img/orange_2bandit_b.png","70","img/orange_2bandit_b.png","70","test","","","","","","","","","","","5","","","","","","","","",""
"null","242053","SARL_v6","SARL_v6ye4b3cwb","608bfa04767191aa4d57bfd8","fixation","","","img/fixation.png","null","","","test","","","","","","","","","","","","","","","","","","","",""
"409","242467","SARL_v6","SARL_v6ye4b3cwb","608bfa04767191aa4d57bfd8","freq","","","img/orange_2bandit_b2.png","70","","70","test","1","","98","","","","circle","square","94","5","5","0.9468085106382979","","","","","","","",""
"null","242873","SARL_v6","SARL_v6ye4b3cwb","608bfa04767191aa4d57bfd8","freq_resp","","","img/orange_2bandit_b.png","70","img/orange_2bandit_b.png","70","test","","","","","","","","","","","5","","","","","","","","",""
"null","243043","SARL_v6","SARL_v6ye4b3cwb","608bfa04767191aa4d57bfd8","fixation","","","img/fixation.png","null","","","test","","","","","","","","","","","","","","","","","","","",""
"null","243860","SARL_v6","SARL_v6ye4b3cwb","608bfa04767191aa4d57bfd8","infreq","","","img/blue_2bandit_b2.png","null","","68","test","0","","99","","","","circle","square","95","6","5","0.9368421052631579","","","","","","","",""
"null","244016","SARL_v6","SARL_v6ye4b3cwb","608bfa04767191aa4d57bfd8","fixation","","","img/fixation.png","null","","","test","","","","","","","","","","","","","","","","","","","",""
"685","244704","SARL_v6","SARL_v6ye4b3cwb","608bfa04767191aa4d57bfd8","freq","","","img/orange_2bandit_b2.png","70","","70","test","1","","100","","","","circle","square","96","7","5","0.9375","","","","","","","",""
"null","244835","SARL_v6","SARL_v6ye4b3cwb","608bfa04767191aa4d57bfd8","freq_resp","","","img/orange_2bandit_b.png","70","img/orange_2bandit_b.png","70","test","","","","","","","","","","","5","","","","","","","","",""
"null","244990","SARL_v6","SARL_v6ye4b3cwb","608bfa04767191aa4d57bfd8","fixation","","","img/fixation.png","null","","","test","","","","","","","","","","","","","","","","","","","",""
"763","245757","SARL_v6","SARL_v6ye4b3cwb","608bfa04767191aa4d57bfd8","freq","","","img/orange_2bandit_b2.png","70","","70","test","1","","101","","","","circle","square","97","8","5","0.9381443298969072","","","","","","","",""
"null","245810","SARL_v6","SARL_v6ye4b3cwb","608bfa04767191aa4d57bfd8","freq_resp","","","img/orange_2bandit_b.png","70","img/orange_2bandit_b.png","70","test","","","","","","","","","","","5","","","","","","","","",""
"null","245979","SARL_v6","SARL_v6ye4b3cwb","608bfa04767191aa4d57bfd8","fixation","","","img/fixation.png","null","","","test","","","","","","","","","","","","","","","","","","","",""
"635","246616","SARL_v6","SARL_v6ye4b3cwb","608bfa04767191aa4d57bfd8","freq","","","img/orange_2bandit_b2.png","70","","70","test","1","","102","","","","circle","square","98","9","5","0.9387755102040817","","","","","","","",""
"null","246795","SARL_v6","SARL_v6ye4b3cwb","608bfa04767191aa4d57bfd8","freq_resp","","","img/orange_2bandit_b.png","70","img/orange_2bandit_b.png","70","test","","","","","","","","","","","5","","","","","","","","",""
"null","246962","SARL_v6","SARL_v6ye4b3cwb","608bfa04767191aa4d57bfd8","fixation","","","img/fixation.png","null","","","test","","","","","","","","","","","","","","","","","","","",""
"670","247636","SARL_v6","SARL_v6ye4b3cwb","608bfa04767191aa4d57bfd8","infreq","","","img/blue_2bandit_b2.png","68","","68","test","1","","103","","","","circle","square","99","10","5","0.9393939393939394","","","","","","","",""
"null","247783","SARL_v6","SARL_v6ye4b3cwb","608bfa04767191aa4d57bfd8","infreq_resp","","","img/blue_2bandit_b.png","68","img/blue_2bandit_b.png","68","test","","","","","","","","","","","5","","","","","","","","",""
"null","247938","SARL_v6","SARL_v6ye4b3cwb","608bfa04767191aa4d57bfd8","fixation","","","img/fixation.png","null","","","test","","","","","","","","","","","","","","","","","","","",""
"485","248428","SARL_v6","SARL_v6ye4b3cwb","608bfa04767191aa4d57bfd8","freq","","","img/orange_2bandit_b2.png","70","","70","test","1","","104","","","","circle","square","100","11","5","0.94","","","","","","","",""
"null","248755","SARL_v6","SARL_v6ye4b3cwb","608bfa04767191aa4d57bfd8","freq_resp","","","img/orange_2bandit_b.png","70","img/orange_2bandit_b.png","70","test","","","","","","","","","","","5","","","","","","","","",""
"null","248912","SARL_v6","SARL_v6ye4b3cwb","608bfa04767191aa4d57bfd8","fixation","","","img/fixation.png","null","","","test","","","","","","","","","","","","","","","","","","","",""
"543","249460","SARL_v6","SARL_v6ye4b3cwb","608bfa04767191aa4d57bfd8","freq","","","img/orange_2bandit_b2.png","70","","70","test","1","","105","","","","circle","square","101","12","5","0.9405940594059405","","","","","","","",""
"null","249731","SARL_v6","SARL_v6ye4b3cwb","608bfa04767191aa4d57bfd8","freq_resp","","","img/orange_2bandit_b.png","70","img/orange_2bandit_b.png","70","test","","","","","","","","","","","5","","","","","","","","",""
"null","249897","SARL_v6","SARL_v6ye4b3cwb","608bfa04767191aa4d57bfd8","fixation","","","img/fixation.png","null","","","test","","","","","","","","","","","","","","","","","","","",""
"414","250316","SARL_v6","SARL_v6ye4b3cwb","608bfa04767191aa4d57bfd8","freq","","","img/orange_2bandit_b2.png","70","","70","test","1","","106","","","","circle","square","102","13","5","0.9411764705882353","","","","","","","",""
"null","250716","SARL_v6","SARL_v6ye4b3cwb","608bfa04767191aa4d57bfd8","freq_resp","","","img/orange_2bandit_b.png","70","img/orange_2bandit_b.png","70","test","","","","","","","","","","","5","","","","","","","","",""
"null","250872","SARL_v6","SARL_v6ye4b3cwb","608bfa04767191aa4d57bfd8","fixation","","","img/fixation.png","null","","","test","","","","","","","","","","","","","","","","","","","",""
"364","251240","SARL_v6","SARL_v6ye4b3cwb","608bfa04767191aa4d57bfd8","freq","","","img/orange_2bandit_b2.png","70","","70","test","1","","107","","","","circle","square","103","14","5","0.941747572815534","","","","","","","",""
"null","251691","SARL_v6","SARL_v6ye4b3cwb","608bfa04767191aa4d57bfd8","freq_resp","","","img/orange_2bandit_b.png","70","img/orange_2bandit_b.png","70","test","","","","","","","","","","","5","","","","","","","","",""
"null","251847","SARL_v6","SARL_v6ye4b3cwb","608bfa04767191aa4d57bfd8","fixation","","","img/fixation.png","null","","","test","","","","","","","","","","","","","","","","","","","",""
"359","252208","SARL_v6","SARL_v6ye4b3cwb","608bfa04767191aa4d57bfd8","freq","","","img/orange_2bandit_b2.png","70","","70","test","1","","108","","","","circle","square","104","15","5","0.9423076923076923","","","","","","","",""
"null","252665","SARL_v6","SARL_v6ye4b3cwb","608bfa04767191aa4d57bfd8","freq_resp","","","img/orange_2bandit_b.png","70","img/orange_2bandit_b.png","70","test","","","","","","","","","","","5","","","","","","","","",""
"null","252821","SARL_v6","SARL_v6ye4b3cwb","608bfa04767191aa4d57bfd8","fixation","","","img/fixation.png","null","","","test","","","","","","","","","","","","","","","","","","","",""
"370","253196","SARL_v6","SARL_v6ye4b3cwb","608bfa04767191aa4d57bfd8","freq","","","img/orange_2bandit_b2.png","70","","70","test","1","","109","","","","circle","square","105","16","5","0.9428571428571428","","","","","","","",""
"null","253643","SARL_v6","SARL_v6ye4b3cwb","608bfa04767191aa4d57bfd8","freq_resp","","","img/orange_2bandit_b.png","70","img/orange_2bandit_b.png","70","test","","","","","","","","","","","5","","","","","","","","",""
"null","253800","SARL_v6","SARL_v6ye4b3cwb","608bfa04767191aa4d57bfd8","fixation","","","img/fixation.png","null","","","test","","","","","","","","","","","","","","","","","","","",""
"340","254143","SARL_v6","SARL_v6ye4b3cwb","608bfa04767191aa4d57bfd8","freq","","","img/orange_2bandit_b2.png","70","","70","test","1","","110","","","","circle","square","106","17","5","0.9433962264150944","","","","","","","",""
"null","254619","SARL_v6","SARL_v6ye4b3cwb","608bfa04767191aa4d57bfd8","freq_resp","","","img/orange_2bandit_b.png","70","img/orange_2bandit_b.png","70","test","","","","","","","","","","","5","","","","","","","","",""
"null","254785","SARL_v6","SARL_v6ye4b3cwb","608bfa04767191aa4d57bfd8","fixation","","","img/fixation.png","null","","","test","","","","","","","","","","","","","","","","","","","",""
"423","255213","SARL_v6","SARL_v6ye4b3cwb","608bfa04767191aa4d57bfd8","infreq","","","img/blue_2bandit_b2.png","68","","68","test","1","","111","","","","circle","square","107","18","5","0.9439252336448598","","","","","","","",""
"null","255609","SARL_v6","SARL_v6ye4b3cwb","608bfa04767191aa4d57bfd8","infreq_resp","","","img/blue_2bandit_b.png","68","img/blue_2bandit_b.png","68","test","","","","","","","","","","","5","","","","","","","","",""
"null","255776","SARL_v6","SARL_v6ye4b3cwb","608bfa04767191aa4d57bfd8","fixation","","","img/fixation.png","null","","","test","","","","","","","","","","","","","","","","","","","",""
"360","256140","SARL_v6","SARL_v6ye4b3cwb","608bfa04767191aa4d57bfd8","freq","","","img/orange_2bandit_b2.png","70","","70","test","1","","112","","","","circle","square","108","19","5","0.9444444444444444","","","","","","","",""
"null","256595","SARL_v6","SARL_v6ye4b3cwb","608bfa04767191aa4d57bfd8","freq_resp","","","img/orange_2bandit_b.png","70","img/orange_2bandit_b.png","70","test","","","","","","","","","","","5","","","","","","","","",""
"null","256763","SARL_v6","SARL_v6ye4b3cwb","608bfa04767191aa4d57bfd8","fixation","","","img/fixation.png","null","","","test","","","","","","","","","","","","","","","","","","","",""
"364","257130","SARL_v6","SARL_v6ye4b3cwb","608bfa04767191aa4d57bfd8","freq","","","img/orange_2bandit_b2.png","70","","70","test","1","","113","","","","circle","square","109","20","5","0.944954128440367","","","","","","","",""
"null","257584","SARL_v6","SARL_v6ye4b3cwb","608bfa04767191aa4d57bfd8","freq_resp","","","img/orange_2bandit_b.png","70","img/orange_2bandit_b.png","70","test","","","","","","","","","","","5","","","","","","","","",""
"null","257736","SARL_v6","SARL_v6ye4b3cwb","608bfa04767191aa4d57bfd8","fixation","","","img/fixation.png","null","","","test","","","","","","","","","","","","","","","","","","","",""
"672","258410","SARL_v6","SARL_v6ye4b3cwb","608bfa04767191aa4d57bfd8","freq","","","img/orange_2bandit_b2.png","70","","70","test","1","","114","","","","circle","square","110","21","5","0.9454545454545454","","","","","","","",""
"null","258541","SARL_v6","SARL_v6ye4b3cwb","608bfa04767191aa4d57bfd8","freq_resp","","","img/orange_2bandit_b.png","70","img/orange_2bandit_b.png","70","test","","","","","","","","","","","5","","","","","","","","",""
"null","258698","SARL_v6","SARL_v6ye4b3cwb","608bfa04767191aa4d57bfd8","fixation","","","img/fixation.png","null","","","test","","","","","","","","","","","","","","","","","","","",""
"589","259292","SARL_v6","SARL_v6ye4b3cwb","608bfa04767191aa4d57bfd8","freq","","","img/orange_2bandit_b2.png","70","","70","test","1","","115","","","","circle","square","111","22","5","0.9459459459459459","","","","","","","",""
"null","259520","SARL_v6","SARL_v6ye4b3cwb","608bfa04767191aa4d57bfd8","freq_resp","","","img/orange_2bandit_b.png","70","img/orange_2bandit_b.png","70","test","","","","","","","","","","","5","","","","","","","","",""
"null","259676","SARL_v6","SARL_v6ye4b3cwb","608bfa04767191aa4d57bfd8","fixation","","","img/fixation.png","null","","","test","","","","","","","","","","","","","","","","","","","",""
"484","260164","SARL_v6","SARL_v6ye4b3cwb","608bfa04767191aa4d57bfd8","freq","","","img/orange_2bandit_b2.png","70","","70","test","1","","116","","","","circle","square","112","23","5","0.9464285714285714","","","","","","","",""
"null","260497","SARL_v6","SARL_v6ye4b3cwb","608bfa04767191aa4d57bfd8","freq_resp","","","img/orange_2bandit_b.png","70","img/orange_2bandit_b.png","70","test","","","","","","","","","","","5","","","","","","","","",""
"null","260667","SARL_v6","SARL_v6ye4b3cwb","608bfa04767191aa4d57bfd8","fixation","","","img/fixation.png","null","","","test","","","","","","","","","","","","","","","","","","","",""
"651","261323","SARL_v6","SARL_v6ye4b3cwb","608bfa04767191aa4d57bfd8","rl","","","img/black_2bandit_b2.png","74","","0","test","","","117","","","4","circle","square","","0","5","","74","4","-7","4","-7","circle","5","0"
"null","262092","SARL_v6","SARL_v6ye4b3cwb","608bfa04767191aa4d57bfd8","feedback","","","<div class=""veryhighPoints""> 4 </div>","null","","na","test","","","NaN","","","","","","","","5","","74","","","","","","5",""
"569","262664","SARL_v6","SARL_v6ye4b3cwb","608bfa04767191aa4d57bfd8","freq","","","img/orange_2bandit_b2.png","70","","70","test","1","","118","","","","circle","square","113","1","6","0.9469026548672567","","","","","","","",""
"null","262914","SARL_v6","SARL_v6ye4b3cwb","608bfa04767191aa4d57bfd8","freq_resp","","","img/orange_2bandit_b.png","70","img/orange_2bandit_b.png","70","test","","","","","","","","","","","6","","","","","","","","",""
"null","263069","SARL_v6","SARL_v6ye4b3cwb","608bfa04767191aa4d57bfd8","fixation","","","img/fixation.png","null","","","test","","","","","","","","","","","","","","","","","","","",""
"706","263779","SARL_v6","SARL_v6ye4b3cwb","608bfa04767191aa4d57bfd8","freq","","","img/orange_2bandit_b2.png","70","","70","test","1","","119","","","","circle","square","114","2","6","0.9473684210526315","","","","","","","",""
"null","263888","SARL_v6","SARL_v6ye4b3cwb","608bfa04767191aa4d57bfd8","freq_resp","","","img/orange_2bandit_b.png","70","img/orange_2bandit_b.png","70","test","","","","","","","","","","","6","","","","","","","","",""
"null","264043","SARL_v6","SARL_v6ye4b3cwb","608bfa04767191aa4d57bfd8","fixation","","","img/fixation.png","null","","","test","","","","","","","","","","","","","","","","","","","",""
"716","264763","SARL_v6","SARL_v6ye4b3cwb","608bfa04767191aa4d57bfd8","freq","","","img/orange_2bandit_b2.png","70","","70","test","1","","120","","","","circle","square","115","3","6","0.9478260869565217","","","","","","","",""
"null","264858","SARL_v6","SARL_v6ye4b3cwb","608bfa04767191aa4d57bfd8","freq_resp","","","img/orange_2bandit_b.png","70","img/orange_2bandit_b.png","70","test","","","","","","","","","","","6","","","","","","","","",""
"null","265016","SARL_v6","SARL_v6ye4b3cwb","608bfa04767191aa4d57bfd8","fixation","","","img/fixation.png","null","","","test","","","","","","","","","","","","","","","","","","","",""
"655","265675","SARL_v6","SARL_v6ye4b3cwb","608bfa04767191aa4d57bfd8","freq","","","img/orange_2bandit_b2.png","70","","70","test","1","","121","","","","circle","square","116","4","6","0.9482758620689655","","","","","","","",""
"null","265836","SARL_v6","SARL_v6ye4b3cwb","608bfa04767191aa4d57bfd8","freq_resp","","","img/orange_2bandit_b.png","70","img/orange_2bandit_b.png","70","test","","","","","","","","","","","6","","","","","","","","",""
"null","265992","SARL_v6","SARL_v6ye4b3cwb","608bfa04767191aa4d57bfd8","fixation","","","img/fixation.png","null","","","test","","","","","","","","","","","","","","","","","","","",""
"654","266650","SARL_v6","SARL_v6ye4b3cwb","608bfa04767191aa4d57bfd8","infreq","","","img/blue_2bandit_b2.png","68","","68","test","1","","122","","","","circle","square","117","5","6","0.9487179487179487","","","","","","","",""
"null","266811","SARL_v6","SARL_v6ye4b3cwb","608bfa04767191aa4d57bfd8","infreq_resp","","","img/blue_2bandit_b.png","68","img/blue_2bandit_b.png","68","test","","","","","","","","","","","6","","","","","","","","",""
"null","266980","SARL_v6","SARL_v6ye4b3cwb","608bfa04767191aa4d57bfd8","fixation","","","img/fixation.png","null","","","test","","","","","","","","","","","","","","","","","","","",""
"523","267508","SARL_v6","SARL_v6ye4b3cwb","608bfa04767191aa4d57bfd8","infreq","","","img/blue_2bandit_b2.png","68","","68","test","1","","123","","","","circle","square","118","6","6","0.9491525423728814","","","","","","","",""
"null","267797","SARL_v6","SARL_v6ye4b3cwb","608bfa04767191aa4d57bfd8","infreq_resp","","","img/blue_2bandit_b.png","68","img/blue_2bandit_b.png","68","test","","","","","","","","","","","6","","","","","","","","",""
"null","267967","SARL_v6","SARL_v6ye4b3cwb","608bfa04767191aa4d57bfd8","fixation","","","img/fixation.png","null","","","test","","","","","","","","","","","","","","","","","","","",""
"465","268436","SARL_v6","SARL_v6ye4b3cwb","608bfa04767191aa4d57bfd8","freq","","","img/orange_2bandit_b2.png","70","","70","test","1","","124","","","","circle","square","119","7","6","0.9495798319327731","","","","","","","",""
"null","268788","SARL_v6","SARL_v6ye4b3cwb","608bfa04767191aa4d57bfd8","freq_resp","","","img/orange_2bandit_b.png","70","img/orange_2bandit_b.png","70","test","","","","","","","","","","","6","","","","","","","","",""
"null","268942","SARL_v6","SARL_v6ye4b3cwb","608bfa04767191aa4d57bfd8","fixation","","","img/fixation.png","null","","","test","","","","","","","","","","","","","","","","","","","",""
"392","269339","SARL_v6","SARL_v6ye4b3cwb","608bfa04767191aa4d57bfd8","freq","","","img/orange_2bandit_b2.png","70","","70","test","1","","125","","","","circle","square","120","8","6","0.95","","","","","","","",""
"null","269761","SARL_v6","SARL_v6ye4b3cwb","608bfa04767191aa4d57bfd8","freq_resp","","","img/orange_2bandit_b.png","70","img/orange_2bandit_b.png","70","test","","","","","","","","","","","6","","","","","","","","",""
"null","269914","SARL_v6","SARL_v6ye4b3cwb","608bfa04767191aa4d57bfd8","fixation","","","img/fixation.png","null","","","test","","","","","","","","","","","","","","","","","","","",""
"381","270300","SARL_v6","SARL_v6ye4b3cwb","608bfa04767191aa4d57bfd8","freq","","","img/orange_2bandit_b2.png","70","","70","test","1","","126","","","","circle","square","121","9","6","0.9504132231404959","","","","","","","",""
"null","270734","SARL_v6","SARL_v6ye4b3cwb","608bfa04767191aa4d57bfd8","freq_resp","","","img/orange_2bandit_b.png","70","img/orange_2bandit_b.png","70","test","","","","","","","","","","","6","","","","","","","","",""
"null","270893","SARL_v6","SARL_v6ye4b3cwb","608bfa04767191aa4d57bfd8","fixation","","","img/fixation.png","null","","","test","","","","","","","","","","","","","","","","","","","",""
"407","271303","SARL_v6","SARL_v6ye4b3cwb","608bfa04767191aa4d57bfd8","freq","","","img/orange_2bandit_b2.png","70","","70","test","1","","127","","","","circle","square","122","10","6","0.9508196721311475","","","","","","","",""
"null","271713","SARL_v6","SARL_v6ye4b3cwb","608bfa04767191aa4d57bfd8","freq_resp","","","img/orange_2bandit_b.png","70","img/orange_2bandit_b.png","70","test","","","","","","","","","","","6","","","","","","","","",""
"null","271869","SARL_v6","SARL_v6ye4b3cwb","608bfa04767191aa4d57bfd8","fixation","","","img/fixation.png","null","","","test","","","","","","","","","","","","","","","","","","","",""
"456","272327","SARL_v6","SARL_v6ye4b3cwb","608bfa04767191aa4d57bfd8","freq","","","img/orange_2bandit_b2.png","70","","70","test","1","","128","","","","circle","square","123","11","6","0.9512195121951219","","","","","","","",""
"null","272675","SARL_v6","SARL_v6ye4b3cwb","608bfa04767191aa4d57bfd8","freq_resp","","","img/orange_2bandit_b.png","70","img/orange_2bandit_b.png","70","test","","","","","","","","","","","6","","","","","","","","",""
"null","272831","SARL_v6","SARL_v6ye4b3cwb","608bfa04767191aa4d57bfd8","fixation","","","img/fixation.png","null","","","test","","","","","","","","","","","","","","","","","","","",""
"489","273325","SARL_v6","SARL_v6ye4b3cwb","608bfa04767191aa4d57bfd8","freq","","","img/orange_2bandit_b2.png","70","","70","test","1","","129","","","","circle","square","124","12","6","0.9516129032258065","","","","","","","",""
"null","273652","SARL_v6","SARL_v6ye4b3cwb","608bfa04767191aa4d57bfd8","freq_resp","","","img/orange_2bandit_b.png","70","img/orange_2bandit_b.png","70","test","","","","","","","","","","","6","","","","","","","","",""
"null","273822","SARL_v6","SARL_v6ye4b3cwb","608bfa04767191aa4d57bfd8","fixation","","","img/fixation.png","null","","","test","","","","","","","","","","","","","","","","","","","",""
"407","274231","SARL_v6","SARL_v6ye4b3cwb","608bfa04767191aa4d57bfd8","freq","","","img/orange_2bandit_b2.png","70","","70","test","1","","130","","","","circle","square","125","13","6","0.952","","","","","","","",""
"null","274639","SARL_v6","SARL_v6ye4b3cwb","608bfa04767191aa4d57bfd8","freq_resp","","","img/orange_2bandit_b.png","70","img/orange_2bandit_b.png","70","test","","","","","","","","","","","6","","","","","","","","",""
"null","274809","SARL_v6","SARL_v6ye4b3cwb","608bfa04767191aa4d57bfd8","fixation","","","img/fixation.png","null","","","test","","","","","","","","","","","","","","","","","","","",""
"373","275186","SARL_v6","SARL_v6ye4b3cwb","608bfa04767191aa4d57bfd8","freq","","","img/orange_2bandit_b2.png","70","","70","test","1","","131","","","","circle","square","126","14","6","0.9523809523809523","","","","","","","",""
"null","275628","SARL_v6","SARL_v6ye4b3cwb","608bfa04767191aa4d57bfd8","freq_resp","","","img/orange_2bandit_b.png","70","img/orange_2bandit_b.png","70","test","","","","","","","","","","","6","","","","","","","","",""
"null","275786","SARL_v6","SARL_v6ye4b3cwb","608bfa04767191aa4d57bfd8","fixation","","","img/fixation.png","null","","","test","","","","","","","","","","","","","","","","","","","",""
"491","276280","SARL_v6","SARL_v6ye4b3cwb","608bfa04767191aa4d57bfd8","freq","","","img/orange_2bandit_b2.png","70","","70","test","1","","132","","","","circle","square","127","15","6","0.952755905511811","","","","","","","",""
"null","276608","SARL_v6","SARL_v6ye4b3cwb","608bfa04767191aa4d57bfd8","freq_resp","","","img/orange_2bandit_b.png","70","img/orange_2bandit_b.png","70","test","","","","","","","","","","","6","","","","","","","","",""
"null","276778","SARL_v6","SARL_v6ye4b3cwb","608bfa04767191aa4d57bfd8","fixation","","","img/fixation.png","null","","","test","","","","","","","","","","","","","","","","","","","",""
"405","277188","SARL_v6","SARL_v6ye4b3cwb","608bfa04767191aa4d57bfd8","freq","","","img/orange_2bandit_b2.png","70","","70","test","1","","133","","","","circle","square","128","16","6","0.953125","","","","","","","",""
