"rt","time_elapsed","expId","subject","prolificID","trialType","rlType","attType","stimulus","key_press","stim","corrresp","phase","corr","pracCounter","trialNum","rewardOne","rewardTwo","reward","bandOne","bandTwo","attentionNum","attentionRunNum","blockNum","performance","bandChosen","circleVal","squareVal","bandOneVal","bandTwoVal","shapeChosen","rlNum","badFlag"
"518255","518257","SARL_v6","SARL_v6h6e311zb","59e7d3f97f3d71000171def0","","","","","","","","","","","","","","","","","","","","","","","","","","","",""
"","521141","SARL_v6","SARL_v6h6e311zb","59e7d3f97f3d71000171def0","fullscreen","fullscreen","fullscreen","","","","","","","","","","","","","","","","","","","","","","","","",""
"55203","576346","SARL_v6","SARL_v6h6e311zb","59e7d3f97f3d71000171def0","","","","","","","","","","","","","","","","","","","","","","","","","","","",""
"null","577151","SARL_v6","SARL_v6h6e311zb","59e7d3f97f3d71000171def0","freqPrac","","","img/blue_2bandit_a2.png","null","img/blue_2bandit_a2.png","70","prac","0","1","","","","","","","","","","","","","","","","","",""
"null","578160","SARL_v6","SARL_v6h6e311zb","59e7d3f97f3d71000171def0","feedback","","","img/tooSlow.png","null","","na","prac","","","","","","","","","","","","","","","","","","","",""
"null","578316","SARL_v6","SARL_v6h6e311zb","59e7d3f97f3d71000171def0","fixation","","","img/fixation.png","null","","","prac","","","","","","","","","","","","","","","","","","","",""
"596","578914","SARL_v6","SARL_v6h6e311zb","59e7d3f97f3d71000171def0","infreqPrac","","","img/orange_2bandit_a2.png","68","img/orange_2bandit_a2.png","68","prac","1","1","","","","","","","","","","","","","","","","","",""
"596","579132","SARL_v6","SARL_v6h6e311zb","59e7d3f97f3d71000171def0","infreqPrac_resp","","","img/orange_2bandit_a.png","68","img/orange_2bandit_a.png","68","prac","","","","","","","","","","","","","","","","","","","",""
"null","579288","SARL_v6","SARL_v6h6e311zb","59e7d3f97f3d71000171def0","fixation","","","img/fixation.png","null","","","prac","","","","","","","","","","","","","","","","","","","",""
"423","579714","SARL_v6","SARL_v6h6e311zb","59e7d3f97f3d71000171def0","freqPrac","","","img/blue_2bandit_a2.png","70","img/blue_2bandit_a2.png","70","prac","1","1","","","","","","","","","","","","","","","","","",""
"423","580101","SARL_v6","SARL_v6h6e311zb","59e7d3f97f3d71000171def0","freqPrac_resp","","","img/blue_2bandit_a.png","70","img/blue_2bandit_a.png","70","prac","","","","","","","","","","","","","","","","","","","",""
"null","580259","SARL_v6","SARL_v6h6e311zb","59e7d3f97f3d71000171def0","fixation","","","img/fixation.png","null","","","prac","","","","","","","","","","","","","","","","","","","",""
"621","580882","SARL_v6","SARL_v6h6e311zb","59e7d3f97f3d71000171def0","infreqPrac","","","img/orange_2bandit_a2.png","68","img/orange_2bandit_a2.png","68","prac","1","1","","","","","","","","","","","","","","","","","",""
"621","581067","SARL_v6","SARL_v6h6e311zb","59e7d3f97f3d71000171def0","infreqPrac_resp","","","img/orange_2bandit_a.png","68","img/orange_2bandit_a.png","68","prac","","","","","","","","","","","","","","","","","","","",""
"null","581219","SARL_v6","SARL_v6h6e311zb","59e7d3f97f3d71000171def0","fixation","","","img/fixation.png","null","","","prac","","","","","","","","","","","","","","","","","","","",""
"405","581625","SARL_v6","SARL_v6h6e311zb","59e7d3f97f3d71000171def0","infreqPrac","","","img/orange_2bandit_a2.png","68","img/orange_2bandit_a2.png","68","prac","1","1","","","","","","","","","","","","","","","","","",""
"405","582023","SARL_v6","SARL_v6h6e311zb","59e7d3f97f3d71000171def0","infreqPrac_resp","","","img/orange_2bandit_a.png","68","img/orange_2bandit_a.png","68","prac","","","","","","","","","","","","","","","","","","","",""
"null","582181","SARL_v6","SARL_v6h6e311zb","59e7d3f97f3d71000171def0","fixation","","","img/fixation.png","null","","","prac","","","","","","","","","","","","","","","","","","","",""
"441","582625","SARL_v6","SARL_v6h6e311zb","59e7d3f97f3d71000171def0","infreqPrac","","","img/orange_2bandit_a2.png","68","img/orange_2bandit_a2.png","68","prac","1","1","","","","","","","","","","","","","","","","","",""
"441","582998","SARL_v6","SARL_v6h6e311zb","59e7d3f97f3d71000171def0","infreqPrac_resp","","","img/orange_2bandit_a.png","68","img/orange_2bandit_a.png","68","prac","","","","","","","","","","","","","","","","","","","",""
"null","583156","SARL_v6","SARL_v6h6e311zb","59e7d3f97f3d71000171def0","fixation","","","img/fixation.png","null","","","prac","","","","","","","","","","","","","","","","","","","",""
"419","583578","SARL_v6","SARL_v6h6e311zb","59e7d3f97f3d71000171def0","freqPrac","","","img/blue_2bandit_a2.png","70","img/blue_2bandit_a2.png","70","prac","1","1","","","","","","","","","","","","","","","","","",""
"419","583975","SARL_v6","SARL_v6h6e311zb","59e7d3f97f3d71000171def0","freqPrac_resp","","","img/blue_2bandit_a.png","70","img/blue_2bandit_a.png","70","prac","","","","","","","","","","","","","","","","","","","",""
"null","584133","SARL_v6","SARL_v6h6e311zb","59e7d3f97f3d71000171def0","fixation","","","img/fixation.png","null","","","prac","","","","","","","","","","","","","","","","","","","",""
"450","584585","SARL_v6","SARL_v6h6e311zb","59e7d3f97f3d71000171def0","infreqPrac","","","img/orange_2bandit_a2.png","68","img/orange_2bandit_a2.png","68","prac","1","1","","","","","","","","","","","","","","","","","",""
"450","584951","SARL_v6","SARL_v6h6e311zb","59e7d3f97f3d71000171def0","infreqPrac_resp","","","img/orange_2bandit_a.png","68","img/orange_2bandit_a.png","68","prac","","","","","","","","","","","","","","","","","","","",""
"null","585110","SARL_v6","SARL_v6h6e311zb","59e7d3f97f3d71000171def0","fixation","","","img/fixation.png","null","","","prac","","","","","","","","","","","","","","","","","","","",""
"346","585457","SARL_v6","SARL_v6h6e311zb","59e7d3f97f3d71000171def0","freqPrac","","","img/blue_2bandit_a2.png","70","img/blue_2bandit_a2.png","70","prac","1","1","","","","","","","","","","","","","","","","","",""
"346","585924","SARL_v6","SARL_v6h6e311zb","59e7d3f97f3d71000171def0","freqPrac_resp","","","img/blue_2bandit_a.png","70","img/blue_2bandit_a.png","70","prac","","","","","","","","","","","","","","","","","","","",""
"null","586079","SARL_v6","SARL_v6h6e311zb","59e7d3f97f3d71000171def0","fixation","","","img/fixation.png","null","","","prac","","","","","","","","","","","","","","","","","","","",""
"353","586434","SARL_v6","SARL_v6h6e311zb","59e7d3f97f3d71000171def0","freqPrac","","","img/blue_2bandit_a2.png","70","img/blue_2bandit_a2.png","70","prac","1","1","","","","","","","","","","","","","","","","","",""
"353","586893","SARL_v6","SARL_v6h6e311zb","59e7d3f97f3d71000171def0","freqPrac_resp","","","img/blue_2bandit_a.png","70","img/blue_2bandit_a.png","70","prac","","","","","","","","","","","","","","","","","","","",""
"null","587052","SARL_v6","SARL_v6h6e311zb","59e7d3f97f3d71000171def0","fixation","","","img/fixation.png","null","","","prac","","","","","","","","","","","","","","","","","","","",""
"26196","613250","SARL_v6","SARL_v6h6e311zb","59e7d3f97f3d71000171def0","","","","","","","","prac","","","","","","","","","","","","","","","","","","","",""
"1198","614450","SARL_v6","SARL_v6h6e311zb","59e7d3f97f3d71000171def0","rlPractice","","","img/black_2bandit_a2.png","74","img/black_2bandit_a2.png","","prac","","","0","","","","","","","","","","","","","","","","",""
"null","615207","SARL_v6","SARL_v6h6e311zb","59e7d3f97f3d71000171def0","feedback","","","<div class=""verylowPoints_sq""> -14 </div>","null","","na","prac","","","1","10","-14","10","","","","","","","","","","","","","",""
"null","615364","SARL_v6","SARL_v6h6e311zb","59e7d3f97f3d71000171def0","fixation","","","img/fixation.png","null","","","prac","","","","","","","","","","","","","","","","","","","",""
"596","615961","SARL_v6","SARL_v6h6e311zb","59e7d3f97f3d71000171def0","rlPractice","","","img/black_2bandit_a2.png","75","img/black_2bandit_a2.png","","prac","","","1","","","","","","","","","","","","","","","","",""
"null","616714","SARL_v6","SARL_v6h6e311zb","59e7d3f97f3d71000171def0","feedback","","","<div class=""veryhighPoints""> 5 </div>","null","","na","prac","","","2","5","-5","5","","","","","","","","","","","","","",""
"null","616869","SARL_v6","SARL_v6h6e311zb","59e7d3f97f3d71000171def0","fixation","","","img/fixation.png","null","","","prac","","","","","","","","","","","","","","","","","","","",""
"403","617273","SARL_v6","SARL_v6h6e311zb","59e7d3f97f3d71000171def0","rlPractice","","","img/black_2bandit_a2.png","75","img/black_2bandit_a2.png","","prac","","","2","","","","","","","","","","","","","","","","",""
"null","618030","SARL_v6","SARL_v6h6e311zb","59e7d3f97f3d71000171def0","feedback","","","<div class=""veryhighPoints""> 30 </div>","null","","na","prac","","","3","30","2","30","","","","","","","","","","","","","",""
"null","618186","SARL_v6","SARL_v6h6e311zb","59e7d3f97f3d71000171def0","fixation","","","img/fixation.png","null","","","prac","","","","","","","","","","","","","","","","","","","",""
"366","618553","SARL_v6","SARL_v6h6e311zb","59e7d3f97f3d71000171def0","rlPractice","","","img/black_2bandit_a2.png","75","img/black_2bandit_a2.png","","prac","","","3","","","","","","","","","","","","","","","","",""
"null","619306","SARL_v6","SARL_v6h6e311zb","59e7d3f97f3d71000171def0","feedback","","","<div class=""verylowPoints""> -2 </div>","null","","na","prac","","","4","-2","20","-2","","","","","","","","","","","","","",""
"null","619461","SARL_v6","SARL_v6h6e311zb","59e7d3f97f3d71000171def0","fixation","","","img/fixation.png","null","","","prac","","","","","","","","","","","","","","","","","","","",""
"2699","622162","SARL_v6","SARL_v6h6e311zb","59e7d3f97f3d71000171def0","","","","","","","","prac","","","","","","","","","","","","","","","","","","","",""
"782","622946","SARL_v6","SARL_v6h6e311zb","59e7d3f97f3d71000171def0","mixAttFreqPrac","","","img/blue_2bandit_a2.png","70","img/blue_2bandit_a2.png","70","prac","","","1","","","","","","","","","","","","","","","","",""
"782","622966","SARL_v6","SARL_v6h6e311zb","59e7d3f97f3d71000171def0","freqPrac_resp","","","img/blue_2bandit_a.png","70","img/blue_2bandit_a.png","70","prac","","","1","","","","","","","","","","","","","","","","",""
"null","623133","SARL_v6","SARL_v6h6e311zb","59e7d3f97f3d71000171def0","fixation","","","img/fixation.png","null","","","prac","","","","","","","","","","","","","","","","","","","",""
"530","623666","SARL_v6","SARL_v6h6e311zb","59e7d3f97f3d71000171def0","mixAttInfreqPrac","","","img/orange_2bandit_a2.png","68","img/orange_2bandit_a2.png","68","prac","","","2","","","","","","","","","","","","","","","","",""
"530","623954","SARL_v6","SARL_v6h6e311zb","59e7d3f97f3d71000171def0","infreqPrac_resp","","","img/orange_2bandit_a.png","68","img/blue_2bandit_a.png","68","prac","","","2","","","","","","","","","","","","","","","","",""
"null","624107","SARL_v6","SARL_v6h6e311zb","59e7d3f97f3d71000171def0","fixation","","","img/fixation.png","null","","","prac","","","","","","","","","","","","","","","","","","","",""
"405","624514","SARL_v6","SARL_v6h6e311zb","59e7d3f97f3d71000171def0","mixAttInfreqPrac","","","img/orange_2bandit_a2.png","68","img/orange_2bandit_a2.png","68","prac","","","3","","","","","","","","","","","","","","","","",""
"405","624911","SARL_v6","SARL_v6h6e311zb","59e7d3f97f3d71000171def0","infreqPrac_resp","","","img/orange_2bandit_a.png","68","img/blue_2bandit_a.png","68","prac","","","3","","","","","","","","","","","","","","","","",""
"null","625067","SARL_v6","SARL_v6h6e311zb","59e7d3f97f3d71000171def0","fixation","","","img/fixation.png","null","","","prac","","","","","","","","","","","","","","","","","","","",""
"397","625466","SARL_v6","SARL_v6h6e311zb","59e7d3f97f3d71000171def0","mixAttInfreqPrac","","","img/orange_2bandit_a2.png","68","img/orange_2bandit_a2.png","68","prac","","","4","","","","","","","","","","","","","","","","",""
"397","625878","SARL_v6","SARL_v6h6e311zb","59e7d3f97f3d71000171def0","infreqPrac_resp","","","img/orange_2bandit_a.png","68","img/blue_2bandit_a.png","68","prac","","","4","","","","","","","","","","","","","","","","",""
"null","626034","SARL_v6","SARL_v6h6e311zb","59e7d3f97f3d71000171def0","fixation","","","img/fixation.png","null","","","prac","","","","","","","","","","","","","","","","","","","",""
"501","626537","SARL_v6","SARL_v6h6e311zb","59e7d3f97f3d71000171def0","mixAttFreqPrac","","","img/blue_2bandit_a2.png","70","img/blue_2bandit_a2.png","70","prac","","","5","","","","","","","","","","","","","","","","",""
"501","626849","SARL_v6","SARL_v6h6e311zb","59e7d3f97f3d71000171def0","freqPrac_resp","","","img/blue_2bandit_a.png","70","img/blue_2bandit_a.png","70","prac","","","5","","","","","","","","","","","","","","","","",""
"null","627001","SARL_v6","SARL_v6h6e311zb","59e7d3f97f3d71000171def0","fixation","","","img/fixation.png","null","","","prac","","","","","","","","","","","","","","","","","","","",""
"622","627625","SARL_v6","SARL_v6h6e311zb","59e7d3f97f3d71000171def0","mixRLPractice","","","img/black_2bandit_a2.png","75","img/black_2bandit_a2.png","","prac","","","5","","","","","","","","","","","","","","","","",""
"null","628390","SARL_v6","SARL_v6h6e311zb","59e7d3f97f3d71000171def0","feedback","","","<div class=""verylowPoints""> -14 </div>","null","","na","prac","","","6","-14","10","-14","","","","","","","","","","","","","",""
"null","628544","SARL_v6","SARL_v6h6e311zb","59e7d3f97f3d71000171def0","fixation","","","img/fixation.png","null","","","prac","","","","","","","","","","","","","","","","","","","",""
"656","629201","SARL_v6","SARL_v6h6e311zb","59e7d3f97f3d71000171def0","mixAttFreqPrac","","","img/blue_2bandit_a2.png","70","img/blue_2bandit_a2.png","70","prac","","","7","","","","","","","","","","","","","","","","",""
"656","629354","SARL_v6","SARL_v6h6e311zb","59e7d3f97f3d71000171def0","freqPrac_resp","","","img/blue_2bandit_a.png","70","img/blue_2bandit_a.png","70","prac","","","7","","","","","","","","","","","","","","","","",""
"null","629506","SARL_v6","SARL_v6h6e311zb","59e7d3f97f3d71000171def0","fixation","","","img/fixation.png","null","","","prac","","","","","","","","","","","","","","","","","","","",""
"null","630320","SARL_v6","SARL_v6h6e311zb","59e7d3f97f3d71000171def0","mixAttInfreqPrac","","","img/orange_2bandit_a2.png","null","img/orange_2bandit_a2.png","68","prac","","","8","","","","","","","","","","","","","","","","",""
"null","630475","SARL_v6","SARL_v6h6e311zb","59e7d3f97f3d71000171def0","fixation","","","img/fixation.png","null","","","prac","","","","","","","","","","","","","","","","","","","",""
"null","631292","SARL_v6","SARL_v6h6e311zb","59e7d3f97f3d71000171def0","mixAttFreqPrac","","","img/blue_2bandit_a2.png","null","img/blue_2bandit_a2.png","70","prac","","","9","","","","","","","","","","","","","","","","",""
"123","631445","SARL_v6","SARL_v6h6e311zb","59e7d3f97f3d71000171def0","fixation","","","img/fixation.png","70","","","prac","","","","","","","","","","","","","","","","","","","",""
"594","632042","SARL_v6","SARL_v6h6e311zb","59e7d3f97f3d71000171def0","mixAttFreqPrac","","","img/blue_2bandit_a2.png","70","img/blue_2bandit_a2.png","70","prac","","","10","","","","","","","","","","","","","","","","",""
"594","632264","SARL_v6","SARL_v6h6e311zb","59e7d3f97f3d71000171def0","freqPrac_resp","","","img/blue_2bandit_a.png","70","img/blue_2bandit_a.png","70","prac","","","10","","","","","","","","","","","","","","","","",""
"null","632421","SARL_v6","SARL_v6h6e311zb","59e7d3f97f3d71000171def0","fixation","","","img/fixation.png","null","","","prac","","","","","","","","","","","","","","","","","","","",""
"522","632946","SARL_v6","SARL_v6h6e311zb","59e7d3f97f3d71000171def0","mixAttInfreqPrac","","","img/orange_2bandit_a2.png","68","img/orange_2bandit_a2.png","68","prac","","","11","","","","","","","","","","","","","","","","",""
"522","633228","SARL_v6","SARL_v6h6e311zb","59e7d3f97f3d71000171def0","infreqPrac_resp","","","img/orange_2bandit_a.png","68","img/blue_2bandit_a.png","68","prac","","","11","","","","","","","","","","","","","","","","",""
"null","633386","SARL_v6","SARL_v6h6e311zb","59e7d3f97f3d71000171def0","fixation","","","img/fixation.png","null","","","prac","","","","","","","","","","","","","","","","","","","",""
"581","633970","SARL_v6","SARL_v6h6e311zb","59e7d3f97f3d71000171def0","mixRLPractice","","","img/black_2bandit_a2.png","75","img/black_2bandit_a2.png","","prac","","","11","","","","","","","","","","","","","","","","",""
"null","634735","SARL_v6","SARL_v6h6e311zb","59e7d3f97f3d71000171def0","feedback","","","<div class=""veryhighPoints""> 5 </div>","null","","na","prac","","","12","5","-5","5","","","","","","","","","","","","","",""
"null","634893","SARL_v6","SARL_v6h6e311zb","59e7d3f97f3d71000171def0","fixation","","","img/fixation.png","null","","","prac","","","","","","","","","","","","","","","","","","","",""
"5475","640370","SARL_v6","SARL_v6h6e311zb","59e7d3f97f3d71000171def0","","","","","","","","prac","","","","","","","","","","","","","","","","","","","",""
"654","641026","SARL_v6","SARL_v6h6e311zb","59e7d3f97f3d71000171def0","freq","","","img/blue_2bandit_a2.png","70","","70","test","1","","1","","","","square","circle","1","1","1","1","","","","","","","",""
"null","641178","SARL_v6","SARL_v6h6e311zb","59e7d3f97f3d71000171def0","freq_resp","","","img/blue_2bandit_a.png","70","img/blue_2bandit_a.png","70","test","","","","","","","","","","","1","","","","","","","","",""
"null","641337","SARL_v6","SARL_v6h6e311zb","59e7d3f97f3d71000171def0","fixation","","","img/fixation.png","null","","","test","","","","","","","","","","","","","","","","","","","",""
"383","641722","SARL_v6","SARL_v6h6e311zb","59e7d3f97f3d71000171def0","freq","","","img/blue_2bandit_a2.png","70","","70","test","1","","2","","","","square","circle","2","2","1","1","","","","","","","",""
"null","642148","SARL_v6","SARL_v6h6e311zb","59e7d3f97f3d71000171def0","freq_resp","","","img/blue_2bandit_a.png","70","img/blue_2bandit_a.png","70","test","","","","","","","","","","","1","","","","","","","","",""
"null","642305","SARL_v6","SARL_v6h6e311zb","59e7d3f97f3d71000171def0","fixation","","","img/fixation.png","null","","","test","","","","","","","","","","","","","","","","","","","",""
"359","642666","SARL_v6","SARL_v6h6e311zb","59e7d3f97f3d71000171def0","freq","","","img/blue_2bandit_a2.png","70","","70","test","1","","3","","","","square","circle","3","3","1","1","","","","","","","",""
"null","643124","SARL_v6","SARL_v6h6e311zb","59e7d3f97f3d71000171def0","freq_resp","","","img/blue_2bandit_a.png","70","img/blue_2bandit_a.png","70","test","","","","","","","","","","","1","","","","","","","","",""
"null","643280","SARL_v6","SARL_v6h6e311zb","59e7d3f97f3d71000171def0","fixation","","","img/fixation.png","null","","","test","","","","","","","","","","","","","","","","","","","",""
"352","643634","SARL_v6","SARL_v6h6e311zb","59e7d3f97f3d71000171def0","freq","","","img/blue_2bandit_a2.png","70","","70","test","1","","4","","","","square","circle","4","4","1","1","","","","","","","",""
"null","644097","SARL_v6","SARL_v6h6e311zb","59e7d3f97f3d71000171def0","freq_resp","","","img/blue_2bandit_a.png","70","img/blue_2bandit_a.png","70","test","","","","","","","","","","","1","","","","","","","","",""
"null","644254","SARL_v6","SARL_v6h6e311zb","59e7d3f97f3d71000171def0","fixation","","","img/fixation.png","null","","","test","","","","","","","","","","","","","","","","","","","",""
"322","644578","SARL_v6","SARL_v6h6e311zb","59e7d3f97f3d71000171def0","freq","","","img/blue_2bandit_a2.png","70","","70","test","1","","5","","","","square","circle","5","5","1","1","","","","","","","",""
"null","645066","SARL_v6","SARL_v6h6e311zb","59e7d3f97f3d71000171def0","freq_resp","","","img/blue_2bandit_a.png","70","img/blue_2bandit_a.png","70","test","","","","","","","","","","","1","","","","","","","","",""
"null","645218","SARL_v6","SARL_v6h6e311zb","59e7d3f97f3d71000171def0","fixation","","","img/fixation.png","null","","","test","","","","","","","","","","","","","","","","","","","",""
"302","645521","SARL_v6","SARL_v6h6e311zb","59e7d3f97f3d71000171def0","freq","","","img/blue_2bandit_a2.png","70","","70","test","1","","6","","","","square","circle","6","6","1","1","","","","","","","",""
"null","646024","SARL_v6","SARL_v6h6e311zb","59e7d3f97f3d71000171def0","freq_resp","","","img/blue_2bandit_a.png","70","img/blue_2bandit_a.png","70","test","","","","","","","","","","","1","","","","","","","","",""
"null","646176","SARL_v6","SARL_v6h6e311zb","59e7d3f97f3d71000171def0","fixation","","","img/fixation.png","null","","","test","","","","","","","","","","","","","","","","","","","",""
"295","646473","SARL_v6","SARL_v6h6e311zb","59e7d3f97f3d71000171def0","freq","","","img/blue_2bandit_a2.png","70","","70","test","1","","7","","","","square","circle","7","7","1","1","","","","","","","",""
"null","646996","SARL_v6","SARL_v6h6e311zb","59e7d3f97f3d71000171def0","freq_resp","","","img/blue_2bandit_a.png","70","img/blue_2bandit_a.png","70","test","","","","","","","","","","","1","","","","","","","","",""
"null","647149","SARL_v6","SARL_v6h6e311zb","59e7d3f97f3d71000171def0","fixation","","","img/fixation.png","null","","","test","","","","","","","","","","","","","","","","","","","",""
"331","647482","SARL_v6","SARL_v6h6e311zb","59e7d3f97f3d71000171def0","freq","","","img/blue_2bandit_a2.png","70","","70","test","1","","8","","","","square","circle","8","8","1","1","","","","","","","",""
"null","647968","SARL_v6","SARL_v6h6e311zb","59e7d3f97f3d71000171def0","freq_resp","","","img/blue_2bandit_a.png","70","img/blue_2bandit_a.png","70","test","","","","","","","","","","","1","","","","","","","","",""
"null","648126","SARL_v6","SARL_v6h6e311zb","59e7d3f97f3d71000171def0","fixation","","","img/fixation.png","null","","","test","","","","","","","","","","","","","","","","","","","",""
"322","648450","SARL_v6","SARL_v6h6e311zb","59e7d3f97f3d71000171def0","freq","","","img/blue_2bandit_a2.png","70","","70","test","1","","9","","","","square","circle","9","9","1","1","","","","","","","",""
"null","648930","SARL_v6","SARL_v6h6e311zb","59e7d3f97f3d71000171def0","freq_resp","","","img/blue_2bandit_a.png","70","img/blue_2bandit_a.png","70","test","","","","","","","","","","","1","","","","","","","","",""
"null","649082","SARL_v6","SARL_v6h6e311zb","59e7d3f97f3d71000171def0","fixation","","","img/fixation.png","null","","","test","","","","","","","","","","","","","","","","","","","",""
"293","649378","SARL_v6","SARL_v6h6e311zb","59e7d3f97f3d71000171def0","freq","","","img/blue_2bandit_a2.png","70","","70","test","1","","10","","","","square","circle","10","10","1","1","","","","","","","",""
"null","649900","SARL_v6","SARL_v6h6e311zb","59e7d3f97f3d71000171def0","freq_resp","","","img/blue_2bandit_a.png","70","img/blue_2bandit_a.png","70","test","","","","","","","","","","","1","","","","","","","","",""
"null","650053","SARL_v6","SARL_v6h6e311zb","59e7d3f97f3d71000171def0","fixation","","","img/fixation.png","null","","","test","","","","","","","","","","","","","","","","","","","",""
"299","650354","SARL_v6","SARL_v6h6e311zb","59e7d3f97f3d71000171def0","freq","","","img/blue_2bandit_a2.png","70","","70","test","1","","11","","","","square","circle","11","11","1","1","","","","","","","",""
"null","650872","SARL_v6","SARL_v6h6e311zb","59e7d3f97f3d71000171def0","freq_resp","","","img/blue_2bandit_a.png","70","img/blue_2bandit_a.png","70","test","","","","","","","","","","","1","","","","","","","","",""
"null","651026","SARL_v6","SARL_v6h6e311zb","59e7d3f97f3d71000171def0","fixation","","","img/fixation.png","null","","","test","","","","","","","","","","","","","","","","","","","",""
"462","651490","SARL_v6","SARL_v6h6e311zb","59e7d3f97f3d71000171def0","infreq","","","img/orange_2bandit_a2.png","68","","68","test","1","","12","","","","square","circle","12","12","1","1","","","","","","","",""
"null","651839","SARL_v6","SARL_v6h6e311zb","59e7d3f97f3d71000171def0","infreq_resp","","","img/orange_2bandit_a.png","68","img/orange_2bandit_a.png","68","test","","","","","","","","","","","1","","","","","","","","",""
"null","651996","SARL_v6","SARL_v6h6e311zb","59e7d3f97f3d71000171def0","fixation","","","img/fixation.png","null","","","test","","","","","","","","","","","","","","","","","","","",""
"468","652466","SARL_v6","SARL_v6h6e311zb","59e7d3f97f3d71000171def0","freq","","","img/blue_2bandit_a2.png","70","","70","test","1","","13","","","","square","circle","13","13","1","1","","","","","","","",""
"null","652812","SARL_v6","SARL_v6h6e311zb","59e7d3f97f3d71000171def0","freq_resp","","","img/blue_2bandit_a.png","70","img/blue_2bandit_a.png","70","test","","","","","","","","","","","1","","","","","","","","",""
"null","652964","SARL_v6","SARL_v6h6e311zb","59e7d3f97f3d71000171def0","fixation","","","img/fixation.png","null","","","test","","","","","","","","","","","","","","","","","","","",""
"339","653306","SARL_v6","SARL_v6h6e311zb","59e7d3f97f3d71000171def0","freq","","","img/blue_2bandit_a2.png","70","","70","test","1","","14","","","","square","circle","14","14","1","1","","","","","","","",""
"null","653775","SARL_v6","SARL_v6h6e311zb","59e7d3f97f3d71000171def0","freq_resp","","","img/blue_2bandit_a.png","70","img/blue_2bandit_a.png","70","test","","","","","","","","","","","1","","","","","","","","",""
"null","653928","SARL_v6","SARL_v6h6e311zb","59e7d3f97f3d71000171def0","fixation","","","img/fixation.png","null","","","test","","","","","","","","","","","","","","","","","","","",""
"367","654298","SARL_v6","SARL_v6h6e311zb","59e7d3f97f3d71000171def0","freq","","","img/blue_2bandit_a2.png","70","","70","test","1","","15","","","","square","circle","15","15","1","1","","","","","","","",""
"null","654742","SARL_v6","SARL_v6h6e311zb","59e7d3f97f3d71000171def0","freq_resp","","","img/blue_2bandit_a.png","70","img/blue_2bandit_a.png","70","test","","","","","","","","","","","1","","","","","","","","",""
"null","654899","SARL_v6","SARL_v6h6e311zb","59e7d3f97f3d71000171def0","fixation","","","img/fixation.png","null","","","test","","","","","","","","","","","","","","","","","","","",""
"325","655226","SARL_v6","SARL_v6h6e311zb","59e7d3f97f3d71000171def0","freq","","","img/blue_2bandit_a2.png","70","","70","test","1","","16","","","","square","circle","16","16","1","1","","","","","","","",""
"null","655715","SARL_v6","SARL_v6h6e311zb","59e7d3f97f3d71000171def0","freq_resp","","","img/blue_2bandit_a.png","70","img/blue_2bandit_a.png","70","test","","","","","","","","","","","1","","","","","","","","",""
"null","655868","SARL_v6","SARL_v6h6e311zb","59e7d3f97f3d71000171def0","fixation","","","img/fixation.png","null","","","test","","","","","","","","","","","","","","","","","","","",""
"308","656177","SARL_v6","SARL_v6h6e311zb","59e7d3f97f3d71000171def0","freq","","","img/blue_2bandit_a2.png","70","","70","test","1","","17","","","","square","circle","17","17","1","1","","","","","","","",""
"null","656679","SARL_v6","SARL_v6h6e311zb","59e7d3f97f3d71000171def0","freq_resp","","","img/blue_2bandit_a.png","70","img/blue_2bandit_a.png","70","test","","","","","","","","","","","1","","","","","","","","",""
"null","656832","SARL_v6","SARL_v6h6e311zb","59e7d3f97f3d71000171def0","fixation","","","img/fixation.png","null","","","test","","","","","","","","","","","","","","","","","","","",""
"336","657170","SARL_v6","SARL_v6h6e311zb","59e7d3f97f3d71000171def0","freq","","","img/blue_2bandit_a2.png","70","","70","test","1","","18","","","","square","circle","18","18","1","1","","","","","","","",""
"null","657637","SARL_v6","SARL_v6h6e311zb","59e7d3f97f3d71000171def0","freq_resp","","","img/blue_2bandit_a.png","70","img/blue_2bandit_a.png","70","test","","","","","","","","","","","1","","","","","","","","",""
"null","657794","SARL_v6","SARL_v6h6e311zb","59e7d3f97f3d71000171def0","fixation","","","img/fixation.png","null","","","test","","","","","","","","","","","","","","","","","","","",""
"446","658242","SARL_v6","SARL_v6h6e311zb","59e7d3f97f3d71000171def0","freq","","","img/blue_2bandit_a2.png","70","","70","test","1","","19","","","","square","circle","19","19","1","1","","","","","","","",""
"null","658609","SARL_v6","SARL_v6h6e311zb","59e7d3f97f3d71000171def0","freq_resp","","","img/blue_2bandit_a.png","70","img/blue_2bandit_a.png","70","test","","","","","","","","","","","1","","","","","","","","",""
"null","658765","SARL_v6","SARL_v6h6e311zb","59e7d3f97f3d71000171def0","fixation","","","img/fixation.png","null","","","test","","","","","","","","","","","","","","","","","","","",""
"385","659154","SARL_v6","SARL_v6h6e311zb","59e7d3f97f3d71000171def0","freq","","","img/blue_2bandit_a2.png","70","","70","test","1","","20","","","","square","circle","20","20","1","1","","","","","","","",""
"null","659579","SARL_v6","SARL_v6h6e311zb","59e7d3f97f3d71000171def0","freq_resp","","","img/blue_2bandit_a.png","70","img/blue_2bandit_a.png","70","test","","","","","","","","","","","1","","","","","","","","",""
"null","659736","SARL_v6","SARL_v6h6e311zb","59e7d3f97f3d71000171def0","fixation","","","img/fixation.png","null","","","test","","","","","","","","","","","","","","","","","","","",""
"327","660065","SARL_v6","SARL_v6h6e311zb","59e7d3f97f3d71000171def0","freq","","","img/blue_2bandit_a2.png","70","","70","test","1","","21","","","","square","circle","21","21","1","1","","","","","","","",""
"null","660542","SARL_v6","SARL_v6h6e311zb","59e7d3f97f3d71000171def0","freq_resp","","","img/blue_2bandit_a.png","70","img/blue_2bandit_a.png","70","test","","","","","","","","","","","1","","","","","","","","",""
"null","660695","SARL_v6","SARL_v6h6e311zb","59e7d3f97f3d71000171def0","fixation","","","img/fixation.png","null","","","test","","","","","","","","","","","","","","","","","","","",""
"425","661121","SARL_v6","SARL_v6h6e311zb","59e7d3f97f3d71000171def0","infreq","","","img/orange_2bandit_a2.png","68","","68","test","1","","22","","","","square","circle","22","22","1","1","","","","","","","",""
"null","661513","SARL_v6","SARL_v6h6e311zb","59e7d3f97f3d71000171def0","infreq_resp","","","img/orange_2bandit_a.png","68","img/orange_2bandit_a.png","68","test","","","","","","","","","","","1","","","","","","","","",""
"null","661669","SARL_v6","SARL_v6h6e311zb","59e7d3f97f3d71000171def0","fixation","","","img/fixation.png","null","","","test","","","","","","","","","","","","","","","","","","","",""
"378","662049","SARL_v6","SARL_v6h6e311zb","59e7d3f97f3d71000171def0","freq","","","img/blue_2bandit_a2.png","70","","70","test","1","","23","","","","square","circle","23","23","1","1","","","","","","","",""
"null","662483","SARL_v6","SARL_v6h6e311zb","59e7d3f97f3d71000171def0","freq_resp","","","img/blue_2bandit_a.png","70","img/blue_2bandit_a.png","70","test","","","","","","","","","","","1","","","","","","","","",""
"null","662640","SARL_v6","SARL_v6h6e311zb","59e7d3f97f3d71000171def0","fixation","","","img/fixation.png","null","","","test","","","","","","","","","","","","","","","","","","","",""
"311","662954","SARL_v6","SARL_v6h6e311zb","59e7d3f97f3d71000171def0","freq","","","img/blue_2bandit_a2.png","70","","70","test","1","","24","","","","square","circle","24","24","1","1","","","","","","","",""
"null","663456","SARL_v6","SARL_v6h6e311zb","59e7d3f97f3d71000171def0","freq_resp","","","img/blue_2bandit_a.png","70","img/blue_2bandit_a.png","70","test","","","","","","","","","","","1","","","","","","","","",""
"null","663609","SARL_v6","SARL_v6h6e311zb","59e7d3f97f3d71000171def0","fixation","","","img/fixation.png","null","","","test","","","","","","","","","","","","","","","","","","","",""
"311","663921","SARL_v6","SARL_v6h6e311zb","59e7d3f97f3d71000171def0","freq","","","img/blue_2bandit_a2.png","70","","70","test","1","","25","","","","square","circle","25","25","1","1","","","","","","","",""
"null","664426","SARL_v6","SARL_v6h6e311zb","59e7d3f97f3d71000171def0","freq_resp","","","img/blue_2bandit_a.png","70","img/blue_2bandit_a.png","70","test","","","","","","","","","","","1","","","","","","","","",""
"null","664583","SARL_v6","SARL_v6h6e311zb","59e7d3f97f3d71000171def0","fixation","","","img/fixation.png","null","","","test","","","","","","","","","","","","","","","","","","","",""
"362","664945","SARL_v6","SARL_v6h6e311zb","59e7d3f97f3d71000171def0","freq","","","img/blue_2bandit_a2.png","70","","70","test","1","","26","","","","square","circle","26","26","1","1","","","","","","","",""
"null","665394","SARL_v6","SARL_v6h6e311zb","59e7d3f97f3d71000171def0","freq_resp","","","img/blue_2bandit_a.png","70","img/blue_2bandit_a.png","70","test","","","","","","","","","","","1","","","","","","","","",""
"null","665549","SARL_v6","SARL_v6h6e311zb","59e7d3f97f3d71000171def0","fixation","","","img/fixation.png","null","","","test","","","","","","","","","","","","","","","","","","","",""
"1035","666586","SARL_v6","SARL_v6h6e311zb","59e7d3f97f3d71000171def0","rl","","","img/black_2bandit_a2.png","74","","0","test","","","27","","","-3","square","circle","","0","1","","74","-3","-3","-3","-3","square","1","0"
"null","667345","SARL_v6","SARL_v6h6e311zb","59e7d3f97f3d71000171def0","feedback","","","<div class=""verylowPoints_sq""> -3 </div>","null","","na","test","","","NaN","","","","","","","","1","","74","","","","","","1",""
"726","668073","SARL_v6","SARL_v6h6e311zb","59e7d3f97f3d71000171def0","freq","","","img/blue_2bandit_a2.png","70","","70","test","1","","28","","","","square","circle","27","1","2","1","","","","","","","",""
"null","668151","SARL_v6","SARL_v6h6e311zb","59e7d3f97f3d71000171def0","freq_resp","","","img/blue_2bandit_a.png","70","img/blue_2bandit_a.png","70","test","","","","","","","","","","","2","","","","","","","","",""
"null","668318","SARL_v6","SARL_v6h6e311zb","59e7d3f97f3d71000171def0","fixation","","","img/fixation.png","null","","","test","","","","","","","","","","","","","","","","","","","",""
"394","668714","SARL_v6","SARL_v6h6e311zb","59e7d3f97f3d71000171def0","freq","","","img/blue_2bandit_a2.png","70","","70","test","1","","29","","","","square","circle","28","2","2","1","","","","","","","",""
"null","669133","SARL_v6","SARL_v6h6e311zb","59e7d3f97f3d71000171def0","freq_resp","","","img/blue_2bandit_a.png","70","img/blue_2bandit_a.png","70","test","","","","","","","","","","","2","","","","","","","","",""
"null","669290","SARL_v6","SARL_v6h6e311zb","59e7d3f97f3d71000171def0","fixation","","","img/fixation.png","null","","","test","","","","","","","","","","","","","","","","","","","",""
"389","669681","SARL_v6","SARL_v6h6e311zb","59e7d3f97f3d71000171def0","freq","","","img/blue_2bandit_a2.png","70","","70","test","1","","30","","","","square","circle","29","3","2","1","","","","","","","",""
"null","670101","SARL_v6","SARL_v6h6e311zb","59e7d3f97f3d71000171def0","freq_resp","","","img/blue_2bandit_a.png","70","img/blue_2bandit_a.png","70","test","","","","","","","","","","","2","","","","","","","","",""
"null","670258","SARL_v6","SARL_v6h6e311zb","59e7d3f97f3d71000171def0","fixation","","","img/fixation.png","null","","","test","","","","","","","","","","","","","","","","","","","",""
"325","670585","SARL_v6","SARL_v6h6e311zb","59e7d3f97f3d71000171def0","freq","","","img/blue_2bandit_a2.png","70","","70","test","1","","31","","","","square","circle","30","4","2","1","","","","","","","",""
"null","671071","SARL_v6","SARL_v6h6e311zb","59e7d3f97f3d71000171def0","freq_resp","","","img/blue_2bandit_a.png","70","img/blue_2bandit_a.png","70","test","","","","","","","","","","","2","","","","","","","","",""
"null","671223","SARL_v6","SARL_v6h6e311zb","59e7d3f97f3d71000171def0","fixation","","","img/fixation.png","null","","","test","","","","","","","","","","","","","","","","","","","",""
"322","671545","SARL_v6","SARL_v6h6e311zb","59e7d3f97f3d71000171def0","freq","","","img/blue_2bandit_a2.png","70","","70","test","1","","32","","","","square","circle","31","5","2","1","","","","","","","",""
"null","672028","SARL_v6","SARL_v6h6e311zb","59e7d3f97f3d71000171def0","freq_resp","","","img/blue_2bandit_a.png","70","img/blue_2bandit_a.png","70","test","","","","","","","","","","","2","","","","","","","","",""
"null","672181","SARL_v6","SARL_v6h6e311zb","59e7d3f97f3d71000171def0","fixation","","","img/fixation.png","null","","","test","","","","","","","","","","","","","","","","","","","",""
"308","672490","SARL_v6","SARL_v6h6e311zb","59e7d3f97f3d71000171def0","freq","","","img/blue_2bandit_a2.png","70","","70","test","1","","33","","","","square","circle","32","6","2","1","","","","","","","",""
"null","672991","SARL_v6","SARL_v6h6e311zb","59e7d3f97f3d71000171def0","freq_resp","","","img/blue_2bandit_a.png","70","img/blue_2bandit_a.png","70","test","","","","","","","","","","","2","","","","","","","","",""
"null","673144","SARL_v6","SARL_v6h6e311zb","59e7d3f97f3d71000171def0","fixation","","","img/fixation.png","null","","","test","","","","","","","","","","","","","","","","","","","",""
"304","673450","SARL_v6","SARL_v6h6e311zb","59e7d3f97f3d71000171def0","freq","","","img/blue_2bandit_a2.png","70","","70","test","1","","34","","","","square","circle","33","7","2","1","","","","","","","",""
"null","673952","SARL_v6","SARL_v6h6e311zb","59e7d3f97f3d71000171def0","freq_resp","","","img/blue_2bandit_a.png","70","img/blue_2bandit_a.png","70","test","","","","","","","","","","","2","","","","","","","","",""
"null","674108","SARL_v6","SARL_v6h6e311zb","59e7d3f97f3d71000171def0","fixation","","","img/fixation.png","null","","","test","","","","","","","","","","","","","","","","","","","",""
"452","674562","SARL_v6","SARL_v6h6e311zb","59e7d3f97f3d71000171def0","infreq","","","img/orange_2bandit_a2.png","68","","68","test","1","","35","","","","square","circle","34","8","2","1","","","","","","","",""
"null","674914","SARL_v6","SARL_v6h6e311zb","59e7d3f97f3d71000171def0","infreq_resp","","","img/orange_2bandit_a.png","68","img/orange_2bandit_a.png","68","test","","","","","","","","","","","2","","","","","","","","",""
"null","675070","SARL_v6","SARL_v6h6e311zb","59e7d3f97f3d71000171def0","fixation","","","img/fixation.png","null","","","test","","","","","","","","","","","","","","","","","","","",""
"385","675457","SARL_v6","SARL_v6h6e311zb","59e7d3f97f3d71000171def0","freq","","","img/blue_2bandit_a2.png","70","","70","test","1","","36","","","","square","circle","35","9","2","1","","","","","","","",""
"null","675884","SARL_v6","SARL_v6h6e311zb","59e7d3f97f3d71000171def0","freq_resp","","","img/blue_2bandit_a.png","70","img/blue_2bandit_a.png","70","test","","","","","","","","","","","2","","","","","","","","",""
"null","676042","SARL_v6","SARL_v6h6e311zb","59e7d3f97f3d71000171def0","fixation","","","img/fixation.png","null","","","test","","","","","","","","","","","","","","","","","","","",""
"326","676370","SARL_v6","SARL_v6h6e311zb","59e7d3f97f3d71000171def0","freq","","","img/blue_2bandit_a2.png","70","","70","test","1","","37","","","","square","circle","36","10","2","1","","","","","","","",""
"null","676854","SARL_v6","SARL_v6h6e311zb","59e7d3f97f3d71000171def0","freq_resp","","","img/blue_2bandit_a.png","70","img/blue_2bandit_a.png","70","test","","","","","","","","","","","2","","","","","","","","",""
"null","677007","SARL_v6","SARL_v6h6e311zb","59e7d3f97f3d71000171def0","fixation","","","img/fixation.png","null","","","test","","","","","","","","","","","","","","","","","","","",""
"314","677321","SARL_v6","SARL_v6h6e311zb","59e7d3f97f3d71000171def0","freq","","","img/blue_2bandit_a2.png","70","","70","test","1","","38","","","","square","circle","37","11","2","1","","","","","","","",""
"null","677810","SARL_v6","SARL_v6h6e311zb","59e7d3f97f3d71000171def0","freq_resp","","","img/blue_2bandit_a.png","70","img/blue_2bandit_a.png","70","test","","","","","","","","","","","2","","","","","","","","",""
"null","677967","SARL_v6","SARL_v6h6e311zb","59e7d3f97f3d71000171def0","fixation","","","img/fixation.png","null","","","test","","","","","","","","","","","","","","","","","","","",""
"304","678273","SARL_v6","SARL_v6h6e311zb","59e7d3f97f3d71000171def0","freq","","","img/blue_2bandit_a2.png","70","","70","test","1","","39","","","","square","circle","38","12","2","1","","","","","","","",""
"null","678786","SARL_v6","SARL_v6h6e311zb","59e7d3f97f3d71000171def0","freq_resp","","","img/blue_2bandit_a.png","70","img/blue_2bandit_a.png","70","test","","","","","","","","","","","2","","","","","","","","",""
"null","678939","SARL_v6","SARL_v6h6e311zb","59e7d3f97f3d71000171def0","fixation","","","img/fixation.png","null","","","test","","","","","","","","","","","","","","","","","","","",""
"308","679249","SARL_v6","SARL_v6h6e311zb","59e7d3f97f3d71000171def0","freq","","","img/blue_2bandit_a2.png","70","","70","test","1","","40","","","","square","circle","39","13","2","1","","","","","","","",""
"null","679755","SARL_v6","SARL_v6h6e311zb","59e7d3f97f3d71000171def0","freq_resp","","","img/blue_2bandit_a.png","70","img/blue_2bandit_a.png","70","test","","","","","","","","","","","2","","","","","","","","",""
"null","679908","SARL_v6","SARL_v6h6e311zb","59e7d3f97f3d71000171def0","fixation","","","img/fixation.png","null","","","test","","","","","","","","","","","","","","","","","","","",""
"300","680209","SARL_v6","SARL_v6h6e311zb","59e7d3f97f3d71000171def0","freq","","","img/blue_2bandit_a2.png","70","","70","test","1","","41","","","","square","circle","40","14","2","1","","","","","","","",""
"null","680715","SARL_v6","SARL_v6h6e311zb","59e7d3f97f3d71000171def0","freq_resp","","","img/blue_2bandit_a.png","70","img/blue_2bandit_a.png","70","test","","","","","","","","","","","2","","","","","","","","",""
"null","680868","SARL_v6","SARL_v6h6e311zb","59e7d3f97f3d71000171def0","fixation","","","img/fixation.png","null","","","test","","","","","","","","","","","","","","","","","","","",""
"596","681465","SARL_v6","SARL_v6h6e311zb","59e7d3f97f3d71000171def0","infreq","","","img/orange_2bandit_a2.png","68","","68","test","1","","42","","","","square","circle","41","15","2","1","","","","","","","",""
"null","681685","SARL_v6","SARL_v6h6e311zb","59e7d3f97f3d71000171def0","infreq_resp","","","img/orange_2bandit_a.png","68","img/orange_2bandit_a.png","68","test","","","","","","","","","","","2","","","","","","","","",""
"null","681837","SARL_v6","SARL_v6h6e311zb","59e7d3f97f3d71000171def0","fixation","","","img/fixation.png","null","","","test","","","","","","","","","","","","","","","","","","","",""
"435","682273","SARL_v6","SARL_v6h6e311zb","59e7d3f97f3d71000171def0","freq","","","img/blue_2bandit_a2.png","70","","70","test","1","","43","","","","square","circle","42","16","2","1","","","","","","","",""
"null","682641","SARL_v6","SARL_v6h6e311zb","59e7d3f97f3d71000171def0","freq_resp","","","img/blue_2bandit_a.png","70","img/blue_2bandit_a.png","70","test","","","","","","","","","","","2","","","","","","","","",""
"null","682797","SARL_v6","SARL_v6h6e311zb","59e7d3f97f3d71000171def0","fixation","","","img/fixation.png","null","","","test","","","","","","","","","","","","","","","","","","","",""
"338","683137","SARL_v6","SARL_v6h6e311zb","59e7d3f97f3d71000171def0","freq","","","img/blue_2bandit_a2.png","70","","70","test","1","","44","","","","square","circle","43","17","2","1","","","","","","","",""
"null","683609","SARL_v6","SARL_v6h6e311zb","59e7d3f97f3d71000171def0","freq_resp","","","img/blue_2bandit_a.png","70","img/blue_2bandit_a.png","70","test","","","","","","","","","","","2","","","","","","","","",""
"null","683765","SARL_v6","SARL_v6h6e311zb","59e7d3f97f3d71000171def0","fixation","","","img/fixation.png","null","","","test","","","","","","","","","","","","","","","","","","","",""
"291","684058","SARL_v6","SARL_v6h6e311zb","59e7d3f97f3d71000171def0","freq","","","img/blue_2bandit_a2.png","70","","70","test","1","","45","","","","square","circle","44","18","2","1","","","","","","","",""
"null","684579","SARL_v6","SARL_v6h6e311zb","59e7d3f97f3d71000171def0","freq_resp","","","img/blue_2bandit_a.png","70","img/blue_2bandit_a.png","70","test","","","","","","","","","","","2","","","","","","","","",""
"null","684731","SARL_v6","SARL_v6h6e311zb","59e7d3f97f3d71000171def0","fixation","","","img/fixation.png","null","","","test","","","","","","","","","","","","","","","","","","","",""
"333","685065","SARL_v6","SARL_v6h6e311zb","59e7d3f97f3d71000171def0","freq","","","img/blue_2bandit_a2.png","70","","70","test","1","","46","","","","square","circle","45","19","2","1","","","","","","","",""
"null","685549","SARL_v6","SARL_v6h6e311zb","59e7d3f97f3d71000171def0","freq_resp","","","img/blue_2bandit_a.png","70","img/blue_2bandit_a.png","70","test","","","","","","","","","","","2","","","","","","","","",""
"null","685705","SARL_v6","SARL_v6h6e311zb","59e7d3f97f3d71000171def0","fixation","","","img/fixation.png","null","","","test","","","","","","","","","","","","","","","","","","","",""
"399","686105","SARL_v6","SARL_v6h6e311zb","59e7d3f97f3d71000171def0","freq","","","img/blue_2bandit_a2.png","70","","70","test","1","","47","","","","square","circle","46","20","2","1","","","","","","","",""
"null","686509","SARL_v6","SARL_v6h6e311zb","59e7d3f97f3d71000171def0","freq_resp","","","img/blue_2bandit_a.png","70","img/blue_2bandit_a.png","70","test","","","","","","","","","","","2","","","","","","","","",""
"null","686665","SARL_v6","SARL_v6h6e311zb","59e7d3f97f3d71000171def0","fixation","","","img/fixation.png","null","","","test","","","","","","","","","","","","","","","","","","","",""
"479","687145","SARL_v6","SARL_v6h6e311zb","59e7d3f97f3d71000171def0","freq","","","img/blue_2bandit_a2.png","70","","70","test","1","","48","","","","square","circle","47","21","2","1","","","","","","","",""
"null","687480","SARL_v6","SARL_v6h6e311zb","59e7d3f97f3d71000171def0","freq_resp","","","img/blue_2bandit_a.png","70","img/blue_2bandit_a.png","70","test","","","","","","","","","","","2","","","","","","","","",""
"null","687638","SARL_v6","SARL_v6h6e311zb","59e7d3f97f3d71000171def0","fixation","","","img/fixation.png","null","","","test","","","","","","","","","","","","","","","","","","","",""
"376","688017","SARL_v6","SARL_v6h6e311zb","59e7d3f97f3d71000171def0","freq","","","img/blue_2bandit_a2.png","70","","70","test","1","","49","","","","square","circle","48","22","2","1","","","","","","","",""
"null","688451","SARL_v6","SARL_v6h6e311zb","59e7d3f97f3d71000171def0","freq_resp","","","img/blue_2bandit_a.png","70","img/blue_2bandit_a.png","70","test","","","","","","","","","","","2","","","","","","","","",""
"null","688608","SARL_v6","SARL_v6h6e311zb","59e7d3f97f3d71000171def0","fixation","","","img/fixation.png","null","","","test","","","","","","","","","","","","","","","","","","","",""
"319","688929","SARL_v6","SARL_v6h6e311zb","59e7d3f97f3d71000171def0","freq","","","img/blue_2bandit_a2.png","70","","70","test","1","","50","","","","square","circle","49","23","2","1","","","","","","","",""
"null","689417","SARL_v6","SARL_v6h6e311zb","59e7d3f97f3d71000171def0","freq_resp","","","img/blue_2bandit_a.png","70","img/blue_2bandit_a.png","70","test","","","","","","","","","","","2","","","","","","","","",""
"null","689573","SARL_v6","SARL_v6h6e311zb","59e7d3f97f3d71000171def0","fixation","","","img/fixation.png","null","","","test","","","","","","","","","","","","","","","","","","","",""
"323","689898","SARL_v6","SARL_v6h6e311zb","59e7d3f97f3d71000171def0","freq","","","img/blue_2bandit_a2.png","70","","70","test","1","","51","","","","square","circle","50","24","2","1","","","","","","","",""
"null","690382","SARL_v6","SARL_v6h6e311zb","59e7d3f97f3d71000171def0","freq_resp","","","img/blue_2bandit_a.png","70","img/blue_2bandit_a.png","70","test","","","","","","","","","","","2","","","","","","","","",""
"null","690537","SARL_v6","SARL_v6h6e311zb","59e7d3f97f3d71000171def0","fixation","","","img/fixation.png","null","","","test","","","","","","","","","","","","","","","","","","","",""
"567","691106","SARL_v6","SARL_v6h6e311zb","59e7d3f97f3d71000171def0","rl","","","img/black_2bandit_a2.png","75","","0","test","","","52","","","-8","square","circle","","0","2","","75","-8","-5","-5","-8","circle","2","0"
"null","691871","SARL_v6","SARL_v6h6e311zb","59e7d3f97f3d71000171def0","feedback","","","<div class=""verylowPoints""> -8 </div>","null","","na","test","","","NaN","","","","","","","","2","","75","","","","","","2",""
"681","692554","SARL_v6","SARL_v6h6e311zb","59e7d3f97f3d71000171def0","freq","","","img/blue_2bandit_a2.png","70","","70","test","1","","53","","","","square","circle","51","1","3","1","","","","","","","",""
"null","692688","SARL_v6","SARL_v6h6e311zb","59e7d3f97f3d71000171def0","freq_resp","","","img/blue_2bandit_a.png","70","img/blue_2bandit_a.png","70","test","","","","","","","","","","","3","","","","","","","","",""
"null","692843","SARL_v6","SARL_v6h6e311zb","59e7d3f97f3d71000171def0","fixation","","","img/fixation.png","null","","","test","","","","","","","","","","","","","","","","","","","",""
"389","693234","SARL_v6","SARL_v6h6e311zb","59e7d3f97f3d71000171def0","freq","","","img/blue_2bandit_a2.png","70","","70","test","1","","54","","","","square","circle","52","2","3","1","","","","","","","",""
"null","693648","SARL_v6","SARL_v6h6e311zb","59e7d3f97f3d71000171def0","freq_resp","","","img/blue_2bandit_a.png","70","img/blue_2bandit_a.png","70","test","","","","","","","","","","","3","","","","","","","","",""
"null","693806","SARL_v6","SARL_v6h6e311zb","59e7d3f97f3d71000171def0","fixation","","","img/fixation.png","null","","","test","","","","","","","","","","","","","","","","","","","",""
"330","694137","SARL_v6","SARL_v6h6e311zb","59e7d3f97f3d71000171def0","freq","","","img/blue_2bandit_a2.png","70","","70","test","1","","55","","","","square","circle","53","3","3","1","","","","","","","",""
"null","694622","SARL_v6","SARL_v6h6e311zb","59e7d3f97f3d71000171def0","freq_resp","","","img/blue_2bandit_a.png","70","img/blue_2bandit_a.png","70","test","","","","","","","","","","","3","","","","","","","","",""
"null","694775","SARL_v6","SARL_v6h6e311zb","59e7d3f97f3d71000171def0","fixation","","","img/fixation.png","null","","","test","","","","","","","","","","","","","","","","","","","",""
"425","695201","SARL_v6","SARL_v6h6e311zb","59e7d3f97f3d71000171def0","freq","","","img/blue_2bandit_a2.png","70","","70","test","1","","56","","","","square","circle","54","4","3","1","","","","","","","",""
"null","695582","SARL_v6","SARL_v6h6e311zb","59e7d3f97f3d71000171def0","freq_resp","","","img/blue_2bandit_a.png","70","img/blue_2bandit_a.png","70","test","","","","","","","","","","","3","","","","","","","","",""
"null","695737","SARL_v6","SARL_v6h6e311zb","59e7d3f97f3d71000171def0","fixation","","","img/fixation.png","null","","","test","","","","","","","","","","","","","","","","","","","",""
"334","696073","SARL_v6","SARL_v6h6e311zb","59e7d3f97f3d71000171def0","freq","","","img/blue_2bandit_a2.png","70","","70","test","1","","57","","","","square","circle","55","5","3","1","","","","","","","",""
"null","696549","SARL_v6","SARL_v6h6e311zb","59e7d3f97f3d71000171def0","freq_resp","","","img/blue_2bandit_a.png","70","img/blue_2bandit_a.png","70","test","","","","","","","","","","","3","","","","","","","","",""
"null","696707","SARL_v6","SARL_v6h6e311zb","59e7d3f97f3d71000171def0","fixation","","","img/fixation.png","null","","","test","","","","","","","","","","","","","","","","","","","",""
"324","697034","SARL_v6","SARL_v6h6e311zb","59e7d3f97f3d71000171def0","freq","","","img/blue_2bandit_a2.png","70","","70","test","1","","58","","","","square","circle","56","6","3","1","","","","","","","",""
"null","697521","SARL_v6","SARL_v6h6e311zb","59e7d3f97f3d71000171def0","freq_resp","","","img/blue_2bandit_a.png","70","img/blue_2bandit_a.png","70","test","","","","","","","","","","","3","","","","","","","","",""
"null","697678","SARL_v6","SARL_v6h6e311zb","59e7d3f97f3d71000171def0","fixation","","","img/fixation.png","null","","","test","","","","","","","","","","","","","","","","","","","",""
"346","698026","SARL_v6","SARL_v6h6e311zb","59e7d3f97f3d71000171def0","freq","","","img/blue_2bandit_a2.png","70","","70","test","1","","59","","","","square","circle","57","7","3","1","","","","","","","",""
"null","698495","SARL_v6","SARL_v6h6e311zb","59e7d3f97f3d71000171def0","freq_resp","","","img/blue_2bandit_a.png","70","img/blue_2bandit_a.png","70","test","","","","","","","","","","","3","","","","","","","","",""
"null","698651","SARL_v6","SARL_v6h6e311zb","59e7d3f97f3d71000171def0","fixation","","","img/fixation.png","null","","","test","","","","","","","","","","","","","","","","","","","",""
"356","699009","SARL_v6","SARL_v6h6e311zb","59e7d3f97f3d71000171def0","infreq","","","img/orange_2bandit_a2.png","70","","68","test","0","","60","","","","square","circle","58","8","3","0.9827586206896551","","","","","","","",""
"null","699464","SARL_v6","SARL_v6h6e311zb","59e7d3f97f3d71000171def0","infreq_resp","","","img/orange_2bandit_a.png","70","img/orange_2bandit_a.png","68","test","","","","","","","","","","","3","","","","","","","","",""
"null","699619","SARL_v6","SARL_v6h6e311zb","59e7d3f97f3d71000171def0","fixation","","","img/fixation.png","null","","","test","","","","","","","","","","","","","","","","","","","",""
"517","700137","SARL_v6","SARL_v6h6e311zb","59e7d3f97f3d71000171def0","infreq","","","img/orange_2bandit_a2.png","68","","68","test","1","","61","","","","square","circle","59","9","3","0.9830508474576272","","","","","","","",""
"null","700433","SARL_v6","SARL_v6h6e311zb","59e7d3f97f3d71000171def0","infreq_resp","","","img/orange_2bandit_a.png","68","img/orange_2bandit_a.png","68","test","","","","","","","","","","","3","","","","","","","","",""
"null","700585","SARL_v6","SARL_v6h6e311zb","59e7d3f97f3d71000171def0","fixation","","","img/fixation.png","null","","","test","","","","","","","","","","","","","","","","","","","",""
"486","701074","SARL_v6","SARL_v6h6e311zb","59e7d3f97f3d71000171def0","freq","","","img/blue_2bandit_a2.png","70","","70","test","1","","62","","","","square","circle","60","10","3","0.9833333333333333","","","","","","","",""
"null","701392","SARL_v6","SARL_v6h6e311zb","59e7d3f97f3d71000171def0","freq_resp","","","img/blue_2bandit_a.png","70","img/blue_2bandit_a.png","70","test","","","","","","","","","","","3","","","","","","","","",""
"null","701547","SARL_v6","SARL_v6h6e311zb","59e7d3f97f3d71000171def0","fixation","","","img/fixation.png","null","","","test","","","","","","","","","","","","","","","","","","","",""
"373","701921","SARL_v6","SARL_v6h6e311zb","59e7d3f97f3d71000171def0","freq","","","img/blue_2bandit_a2.png","70","","70","test","1","","63","","","","square","circle","61","11","3","0.9836065573770492","","","","","","","",""
"null","702353","SARL_v6","SARL_v6h6e311zb","59e7d3f97f3d71000171def0","freq_resp","","","img/blue_2bandit_a.png","70","img/blue_2bandit_a.png","70","test","","","","","","","","","","","3","","","","","","","","",""
"null","702507","SARL_v6","SARL_v6h6e311zb","59e7d3f97f3d71000171def0","fixation","","","img/fixation.png","null","","","test","","","","","","","","","","","","","","","","","","","",""
"341","702850","SARL_v6","SARL_v6h6e311zb","59e7d3f97f3d71000171def0","freq","","","img/blue_2bandit_a2.png","70","","70","test","1","","64","","","","square","circle","62","12","3","0.9838709677419355","","","","","","","",""
"null","703323","SARL_v6","SARL_v6h6e311zb","59e7d3f97f3d71000171def0","freq_resp","","","img/blue_2bandit_a.png","70","img/blue_2bandit_a.png","70","test","","","","","","","","","","","3","","","","","","","","",""
"null","703475","SARL_v6","SARL_v6h6e311zb","59e7d3f97f3d71000171def0","fixation","","","img/fixation.png","null","","","test","","","","","","","","","","","","","","","","","","","",""
"364","703841","SARL_v6","SARL_v6h6e311zb","59e7d3f97f3d71000171def0","freq","","","img/blue_2bandit_a2.png","70","","70","test","1","","65","","","","square","circle","63","13","3","0.9841269841269841","","","","","","","",""
"null","704290","SARL_v6","SARL_v6h6e311zb","59e7d3f97f3d71000171def0","freq_resp","","","img/blue_2bandit_a.png","70","img/blue_2bandit_a.png","70","test","","","","","","","","","","","3","","","","","","","","",""
"null","704448","SARL_v6","SARL_v6h6e311zb","59e7d3f97f3d71000171def0","fixation","","","img/fixation.png","null","","","test","","","","","","","","","","","","","","","","","","","",""
"344","704794","SARL_v6","SARL_v6h6e311zb","59e7d3f97f3d71000171def0","freq","","","img/blue_2bandit_a2.png","70","","70","test","1","","66","","","","square","circle","64","14","3","0.984375","","","","","","","",""
"null","705262","SARL_v6","SARL_v6h6e311zb","59e7d3f97f3d71000171def0","freq_resp","","","img/blue_2bandit_a.png","70","img/blue_2bandit_a.png","70","test","","","","","","","","","","","3","","","","","","","","",""
"null","705420","SARL_v6","SARL_v6h6e311zb","59e7d3f97f3d71000171def0","fixation","","","img/fixation.png","null","","","test","","","","","","","","","","","","","","","","","","","",""
"331","705753","SARL_v6","SARL_v6h6e311zb","59e7d3f97f3d71000171def0","freq","","","img/blue_2bandit_a2.png","70","","70","test","1","","67","","","","square","circle","65","15","3","0.9846153846153847","","","","","","","",""
"null","706233","SARL_v6","SARL_v6h6e311zb","59e7d3f97f3d71000171def0","freq_resp","","","img/blue_2bandit_a.png","70","img/blue_2bandit_a.png","70","test","","","","","","","","","","","3","","","","","","","","",""
"null","706386","SARL_v6","SARL_v6h6e311zb","59e7d3f97f3d71000171def0","fixation","","","img/fixation.png","null","","","test","","","","","","","","","","","","","","","","","","","",""
"357","706745","SARL_v6","SARL_v6h6e311zb","59e7d3f97f3d71000171def0","freq","","","img/blue_2bandit_a2.png","70","","70","test","1","","68","","","","square","circle","66","16","3","0.9848484848484849","","","","","","","",""
"null","707204","SARL_v6","SARL_v6h6e311zb","59e7d3f97f3d71000171def0","freq_resp","","","img/blue_2bandit_a.png","70","img/blue_2bandit_a.png","70","test","","","","","","","","","","","3","","","","","","","","",""
"null","707360","SARL_v6","SARL_v6h6e311zb","59e7d3f97f3d71000171def0","fixation","","","img/fixation.png","null","","","test","","","","","","","","","","","","","","","","","","","",""
"335","707697","SARL_v6","SARL_v6h6e311zb","59e7d3f97f3d71000171def0","freq","","","img/blue_2bandit_a2.png","70","","70","test","1","","69","","","","square","circle","67","17","3","0.9850746268656716","","","","","","","",""
"null","708178","SARL_v6","SARL_v6h6e311zb","59e7d3f97f3d71000171def0","freq_resp","","","img/blue_2bandit_a.png","70","img/blue_2bandit_a.png","70","test","","","","","","","","","","","3","","","","","","","","",""
"null","708330","SARL_v6","SARL_v6h6e311zb","59e7d3f97f3d71000171def0","fixation","","","img/fixation.png","null","","","test","","","","","","","","","","","","","","","","","","","",""
"358","708689","SARL_v6","SARL_v6h6e311zb","59e7d3f97f3d71000171def0","freq","","","img/blue_2bandit_a2.png","70","","70","test","1","","70","","","","square","circle","68","18","3","0.9852941176470589","","","","","","","",""
"null","709135","SARL_v6","SARL_v6h6e311zb","59e7d3f97f3d71000171def0","freq_resp","","","img/blue_2bandit_a.png","70","img/blue_2bandit_a.png","70","test","","","","","","","","","","","3","","","","","","","","",""
"null","709292","SARL_v6","SARL_v6h6e311zb","59e7d3f97f3d71000171def0","fixation","","","img/fixation.png","null","","","test","","","","","","","","","","","","","","","","","","","",""
"322","709617","SARL_v6","SARL_v6h6e311zb","59e7d3f97f3d71000171def0","freq","","","img/blue_2bandit_a2.png","70","","70","test","1","","71","","","","square","circle","69","19","3","0.9855072463768116","","","","","","","",""
"null","710101","SARL_v6","SARL_v6h6e311zb","59e7d3f97f3d71000171def0","freq_resp","","","img/blue_2bandit_a.png","70","img/blue_2bandit_a.png","70","test","","","","","","","","","","","3","","","","","","","","",""
"null","710257","SARL_v6","SARL_v6h6e311zb","59e7d3f97f3d71000171def0","fixation","","","img/fixation.png","null","","","test","","","","","","","","","","","","","","","","","","","",""
"311","710570","SARL_v6","SARL_v6h6e311zb","59e7d3f97f3d71000171def0","freq","","","img/blue_2bandit_a2.png","70","","70","test","1","","72","","","","square","circle","70","20","3","0.9857142857142858","","","","","","","",""
"null","711074","SARL_v6","SARL_v6h6e311zb","59e7d3f97f3d71000171def0","freq_resp","","","img/blue_2bandit_a.png","70","img/blue_2bandit_a.png","70","test","","","","","","","","","","","3","","","","","","","","",""
"null","711232","SARL_v6","SARL_v6h6e311zb","59e7d3f97f3d71000171def0","fixation","","","img/fixation.png","null","","","test","","","","","","","","","","","","","","","","","","","",""
"304","711537","SARL_v6","SARL_v6h6e311zb","59e7d3f97f3d71000171def0","freq","","","img/blue_2bandit_a2.png","70","","70","test","1","","73","","","","square","circle","71","21","3","0.9859154929577465","","","","","","","",""
"null","712049","SARL_v6","SARL_v6h6e311zb","59e7d3f97f3d71000171def0","freq_resp","","","img/blue_2bandit_a.png","70","img/blue_2bandit_a.png","70","test","","","","","","","","","","","3","","","","","","","","",""
"null","712203","SARL_v6","SARL_v6h6e311zb","59e7d3f97f3d71000171def0","fixation","","","img/fixation.png","null","","","test","","","","","","","","","","","","","","","","","","","",""
"284","712489","SARL_v6","SARL_v6h6e311zb","59e7d3f97f3d71000171def0","freq","","","img/blue_2bandit_a2.png","70","","70","test","1","","74","","","","square","circle","72","22","3","0.9861111111111112","","","","","","","",""
"null","713019","SARL_v6","SARL_v6h6e311zb","59e7d3f97f3d71000171def0","freq_resp","","","img/blue_2bandit_a.png","70","img/blue_2bandit_a.png","70","test","","","","","","","","","","","3","","","","","","","","",""
"null","713175","SARL_v6","SARL_v6h6e311zb","59e7d3f97f3d71000171def0","fixation","","","img/fixation.png","null","","","test","","","","","","","","","","","","","","","","","","","",""
"424","713602","SARL_v6","SARL_v6h6e311zb","59e7d3f97f3d71000171def0","rl","","","img/black_2bandit_a2.png","74","","0","test","","","75","","","-4","square","circle","","0","3","","74","-8","-4","-4","-8","square","3","0"
"null","714368","SARL_v6","SARL_v6h6e311zb","59e7d3f97f3d71000171def0","feedback","","","<div class=""verylowPoints_sq""> -4 </div>","null","","na","test","","","NaN","","","","","","","","3","","74","","","","","","3",""
"567","714937","SARL_v6","SARL_v6h6e311zb","59e7d3f97f3d71000171def0","freq","","","img/blue_2bandit_a2.png","70","","70","test","1","","76","","","","square","circle","73","1","4","0.9863013698630136","","","","","","","",""
"null","715186","SARL_v6","SARL_v6h6e311zb","59e7d3f97f3d71000171def0","freq_resp","","","img/blue_2bandit_a.png","70","img/blue_2bandit_a.png","70","test","","","","","","","","","","","4","","","","","","","","",""
"null","715338","SARL_v6","SARL_v6h6e311zb","59e7d3f97f3d71000171def0","fixation","","","img/fixation.png","null","","","test","","","","","","","","","","","","","","","","","","","",""
"502","715841","SARL_v6","SARL_v6h6e311zb","59e7d3f97f3d71000171def0","freq","","","img/blue_2bandit_a2.png","70","","70","test","1","","77","","","","square","circle","74","2","4","0.9864864864864865","","","","","","","",""
"null","716153","SARL_v6","SARL_v6h6e311zb","59e7d3f97f3d71000171def0","freq_resp","","","img/blue_2bandit_a.png","70","img/blue_2bandit_a.png","70","test","","","","","","","","","","","4","","","","","","","","",""
"null","716310","SARL_v6","SARL_v6h6e311zb","59e7d3f97f3d71000171def0","fixation","","","img/fixation.png","null","","","test","","","","","","","","","","","","","","","","","","","",""
"378","716690","SARL_v6","SARL_v6h6e311zb","59e7d3f97f3d71000171def0","freq","","","img/blue_2bandit_a2.png","70","","70","test","1","","78","","","","square","circle","75","3","4","0.9866666666666667","","","","","","","",""
"null","717128","SARL_v6","SARL_v6h6e311zb","59e7d3f97f3d71000171def0","freq_resp","","","img/blue_2bandit_a.png","70","img/blue_2bandit_a.png","70","test","","","","","","","","","","","4","","","","","","","","",""
"null","717284","SARL_v6","SARL_v6h6e311zb","59e7d3f97f3d71000171def0","fixation","","","img/fixation.png","null","","","test","","","","","","","","","","","","","","","","","","","",""
"330","717617","SARL_v6","SARL_v6h6e311zb","59e7d3f97f3d71000171def0","freq","","","img/blue_2bandit_a2.png","70","","70","test","1","","79","","","","square","circle","76","4","4","0.9868421052631579","","","","","","","",""
"null","718097","SARL_v6","SARL_v6h6e311zb","59e7d3f97f3d71000171def0","freq_resp","","","img/blue_2bandit_a.png","70","img/blue_2bandit_a.png","70","test","","","","","","","","","","","4","","","","","","","","",""
"null","718249","SARL_v6","SARL_v6h6e311zb","59e7d3f97f3d71000171def0","fixation","","","img/fixation.png","null","","","test","","","","","","","","","","","","","","","","","","","",""
"374","718626","SARL_v6","SARL_v6h6e311zb","59e7d3f97f3d71000171def0","freq","","","img/blue_2bandit_a2.png","70","","70","test","1","","80","","","","square","circle","77","5","4","0.987012987012987","","","","","","","",""
"null","719069","SARL_v6","SARL_v6h6e311zb","59e7d3f97f3d71000171def0","freq_resp","","","img/blue_2bandit_a.png","70","img/blue_2bandit_a.png","70","test","","","","","","","","","","","4","","","","","","","","",""
"null","719228","SARL_v6","SARL_v6h6e311zb","59e7d3f97f3d71000171def0","fixation","","","img/fixation.png","null","","","test","","","","","","","","","","","","","","","","","","","",""
"739","719970","SARL_v6","SARL_v6h6e311zb","59e7d3f97f3d71000171def0","infreq","","","img/orange_2bandit_a2.png","68","","68","test","1","","81","","","","square","circle","78","6","4","0.9871794871794872","","","","","","","",""
"null","720034","SARL_v6","SARL_v6h6e311zb","59e7d3f97f3d71000171def0","infreq_resp","","","img/orange_2bandit_a.png","68","img/orange_2bandit_a.png","68","test","","","","","","","","","","","4","","","","","","","","",""
"null","720190","SARL_v6","SARL_v6h6e311zb","59e7d3f97f3d71000171def0","fixation","","","img/fixation.png","null","","","test","","","","","","","","","","","","","","","","","","","",""
"448","720642","SARL_v6","SARL_v6h6e311zb","59e7d3f97f3d71000171def0","freq","","","img/blue_2bandit_a2.png","70","","70","test","1","","82","","","","square","circle","79","7","4","0.9873417721518988","","","","","","","",""
"null","721008","SARL_v6","SARL_v6h6e311zb","59e7d3f97f3d71000171def0","freq_resp","","","img/blue_2bandit_a.png","70","img/blue_2bandit_a.png","70","test","","","","","","","","","","","4","","","","","","","","",""
"null","721165","SARL_v6","SARL_v6h6e311zb","59e7d3f97f3d71000171def0","fixation","","","img/fixation.png","null","","","test","","","","","","","","","","","","","","","","","","","",""
"338","721506","SARL_v6","SARL_v6h6e311zb","59e7d3f97f3d71000171def0","freq","","","img/blue_2bandit_a2.png","70","","70","test","1","","83","","","","square","circle","80","8","4","0.9875","","","","","","","",""
"null","721981","SARL_v6","SARL_v6h6e311zb","59e7d3f97f3d71000171def0","freq_resp","","","img/blue_2bandit_a.png","70","img/blue_2bandit_a.png","70","test","","","","","","","","","","","4","","","","","","","","",""
"null","722138","SARL_v6","SARL_v6h6e311zb","59e7d3f97f3d71000171def0","fixation","","","img/fixation.png","null","","","test","","","","","","","","","","","","","","","","","","","",""
"317","722457","SARL_v6","SARL_v6h6e311zb","59e7d3f97f3d71000171def0","freq","","","img/blue_2bandit_a2.png","70","","70","test","1","","84","","","","square","circle","81","9","4","0.9876543209876543","","","","","","","",""
"null","722947","SARL_v6","SARL_v6h6e311zb","59e7d3f97f3d71000171def0","freq_resp","","","img/blue_2bandit_a.png","70","img/blue_2bandit_a.png","70","test","","","","","","","","","","","4","","","","","","","","",""
"null","723102","SARL_v6","SARL_v6h6e311zb","59e7d3f97f3d71000171def0","fixation","","","img/fixation.png","null","","","test","","","","","","","","","","","","","","","","","","","",""
"313","723417","SARL_v6","SARL_v6h6e311zb","59e7d3f97f3d71000171def0","freq","","","img/blue_2bandit_a2.png","70","","70","test","1","","85","","","","square","circle","82","10","4","0.9878048780487805","","","","","","","",""
"null","723916","SARL_v6","SARL_v6h6e311zb","59e7d3f97f3d71000171def0","freq_resp","","","img/blue_2bandit_a.png","70","img/blue_2bandit_a.png","70","test","","","","","","","","","","","4","","","","","","","","",""
"null","724069","SARL_v6","SARL_v6h6e311zb","59e7d3f97f3d71000171def0","fixation","","","img/fixation.png","null","","","test","","","","","","","","","","","","","","","","","","","",""
"307","724377","SARL_v6","SARL_v6h6e311zb","59e7d3f97f3d71000171def0","freq","","","img/blue_2bandit_a2.png","70","","70","test","1","","86","","","","square","circle","83","11","4","0.9879518072289156","","","","","","","",""
"null","724888","SARL_v6","SARL_v6h6e311zb","59e7d3f97f3d71000171def0","freq_resp","","","img/blue_2bandit_a.png","70","img/blue_2bandit_a.png","70","test","","","","","","","","","","","4","","","","","","","","",""
"null","725041","SARL_v6","SARL_v6h6e311zb","59e7d3f97f3d71000171def0","fixation","","","img/fixation.png","null","","","test","","","","","","","","","","","","","","","","","","","",""
"326","725369","SARL_v6","SARL_v6h6e311zb","59e7d3f97f3d71000171def0","freq","","","img/blue_2bandit_a2.png","70","","70","test","1","","87","","","","square","circle","84","12","4","0.9880952380952381","","","","","","","",""
"null","725859","SARL_v6","SARL_v6h6e311zb","59e7d3f97f3d71000171def0","freq_resp","","","img/blue_2bandit_a.png","70","img/blue_2bandit_a.png","70","test","","","","","","","","","","","4","","","","","","","","",""
"null","726017","SARL_v6","SARL_v6h6e311zb","59e7d3f97f3d71000171def0","fixation","","","img/fixation.png","null","","","test","","","","","","","","","","","","","","","","","","","",""
"605","726625","SARL_v6","SARL_v6h6e311zb","59e7d3f97f3d71000171def0","infreq","","","img/orange_2bandit_a2.png","70","","68","test","0","","88","","","","square","circle","85","13","4","0.9764705882352941","","","","","","","",""
"null","726833","SARL_v6","SARL_v6h6e311zb","59e7d3f97f3d71000171def0","infreq_resp","","","img/orange_2bandit_a.png","70","img/orange_2bandit_a.png","68","test","","","","","","","","","","","4","","","","","","","","",""
"null","726989","SARL_v6","SARL_v6h6e311zb","59e7d3f97f3d71000171def0","fixation","","","img/fixation.png","null","","","test","","","","","","","","","","","","","","","","","","","",""
"427","727417","SARL_v6","SARL_v6h6e311zb","59e7d3f97f3d71000171def0","freq","","","img/blue_2bandit_a2.png","70","","70","test","1","","89","","","","square","circle","86","14","4","0.9767441860465116","","","","","","","",""
"null","727803","SARL_v6","SARL_v6h6e311zb","59e7d3f97f3d71000171def0","freq_resp","","","img/blue_2bandit_a.png","70","img/blue_2bandit_a.png","70","test","","","","","","","","","","","4","","","","","","","","",""
"null","727959","SARL_v6","SARL_v6h6e311zb","59e7d3f97f3d71000171def0","fixation","","","img/fixation.png","null","","","test","","","","","","","","","","","","","","","","","","","",""
"449","728410","SARL_v6","SARL_v6h6e311zb","59e7d3f97f3d71000171def0","freq","","","img/blue_2bandit_a2.png","70","","70","test","1","","90","","","","square","circle","87","15","4","0.9770114942528736","","","","","","","",""
"null","728777","SARL_v6","SARL_v6h6e311zb","59e7d3f97f3d71000171def0","freq_resp","","","img/blue_2bandit_a.png","70","img/blue_2bandit_a.png","70","test","","","","","","","","","","","4","","","","","","","","",""
"null","728933","SARL_v6","SARL_v6h6e311zb","59e7d3f97f3d71000171def0","fixation","","","img/fixation.png","null","","","test","","","","","","","","","","","","","","","","","","","",""
"331","729266","SARL_v6","SARL_v6h6e311zb","59e7d3f97f3d71000171def0","freq","","","img/blue_2bandit_a2.png","70","","70","test","1","","91","","","","square","circle","88","16","4","0.9772727272727273","","","","","","","",""
"null","729742","SARL_v6","SARL_v6h6e311zb","59e7d3f97f3d71000171def0","freq_resp","","","img/blue_2bandit_a.png","70","img/blue_2bandit_a.png","70","test","","","","","","","","","","","4","","","","","","","","",""
"null","729900","SARL_v6","SARL_v6h6e311zb","59e7d3f97f3d71000171def0","fixation","","","img/fixation.png","null","","","test","","","","","","","","","","","","","","","","","","","",""
"364","730265","SARL_v6","SARL_v6h6e311zb","59e7d3f97f3d71000171def0","freq","","","img/blue_2bandit_a2.png","70","","70","test","1","","92","","","","square","circle","89","17","4","0.9775280898876404","","","","","","","",""
"null","730713","SARL_v6","SARL_v6h6e311zb","59e7d3f97f3d71000171def0","freq_resp","","","img/blue_2bandit_a.png","70","img/blue_2bandit_a.png","70","test","","","","","","","","","","","4","","","","","","","","",""
"null","730868","SARL_v6","SARL_v6h6e311zb","59e7d3f97f3d71000171def0","fixation","","","img/fixation.png","null","","","test","","","","","","","","","","","","","","","","","","","",""
"355","731225","SARL_v6","SARL_v6h6e311zb","59e7d3f97f3d71000171def0","freq","","","img/blue_2bandit_a2.png","70","","70","test","1","","93","","","","square","circle","90","18","4","0.9777777777777777","","","","","","","",""
"null","731673","SARL_v6","SARL_v6h6e311zb","59e7d3f97f3d71000171def0","freq_resp","","","img/blue_2bandit_a.png","70","img/blue_2bandit_a.png","70","test","","","","","","","","","","","4","","","","","","","","",""
"null","731830","SARL_v6","SARL_v6h6e311zb","59e7d3f97f3d71000171def0","fixation","","","img/fixation.png","null","","","test","","","","","","","","","","","","","","","","","","","",""
"496","732329","SARL_v6","SARL_v6h6e311zb","59e7d3f97f3d71000171def0","freq","","","img/blue_2bandit_a2.png","70","","70","test","1","","94","","","","square","circle","91","19","4","0.978021978021978","","","","","","","",""
"null","732647","SARL_v6","SARL_v6h6e311zb","59e7d3f97f3d71000171def0","freq_resp","","","img/blue_2bandit_a.png","70","img/blue_2bandit_a.png","70","test","","","","","","","","","","","4","","","","","","","","",""
"null","732800","SARL_v6","SARL_v6h6e311zb","59e7d3f97f3d71000171def0","fixation","","","img/fixation.png","null","","","test","","","","","","","","","","","","","","","","","","","",""
"583","733385","SARL_v6","SARL_v6h6e311zb","59e7d3f97f3d71000171def0","rl","","","img/black_2bandit_a2.png","75","","0","test","","","95","","","-12","square","circle","","0","4","","75","-12","0","0","-12","circle","4","0"
"null","734144","SARL_v6","SARL_v6h6e311zb","59e7d3f97f3d71000171def0","feedback","","","<div class=""verylowPoints""> -12 </div>","null","","na","test","","","NaN","","","","","","","","4","","75","","","","","","4",""
"544","734690","SARL_v6","SARL_v6h6e311zb","59e7d3f97f3d71000171def0","freq","","","img/blue_2bandit_a2.png","70","","70","test","1","","96","","","","square","circle","92","1","5","0.9782608695652174","","","","","","","",""
"null","734957","SARL_v6","SARL_v6h6e311zb","59e7d3f97f3d71000171def0","freq_resp","","","img/blue_2bandit_a.png","70","img/blue_2bandit_a.png","70","test","","","","","","","","","","","5","","","","","","","","",""
"null","735109","SARL_v6","SARL_v6h6e311zb","59e7d3f97f3d71000171def0","fixation","","","img/fixation.png","null","","","test","","","","","","","","","","","","","","","","","","","",""
"449","735561","SARL_v6","SARL_v6h6e311zb","59e7d3f97f3d71000171def0","freq","","","img/blue_2bandit_a2.png","70","","70","test","1","","97","","","","square","circle","93","2","5","0.978494623655914","","","","","","","",""
"null","735918","SARL_v6","SARL_v6h6e311zb","59e7d3f97f3d71000171def0","freq_resp","","","img/blue_2bandit_a.png","70","img/blue_2bandit_a.png","70","test","","","","","","","","","","","5","","","","","","","","",""
"null","736073","SARL_v6","SARL_v6h6e311zb","59e7d3f97f3d71000171def0","fixation","","","img/fixation.png","null","","","test","","","","","","","","","","","","","","","","","","","",""
"558","736633","SARL_v6","SARL_v6h6e311zb","59e7d3f97f3d71000171def0","freq","","","img/blue_2bandit_a2.png","70","","70","test","1","","98","","","","square","circle","94","3","5","0.9787234042553191","","","","","","","",""
"null","736889","SARL_v6","SARL_v6h6e311zb","59e7d3f97f3d71000171def0","freq_resp","","","img/blue_2bandit_a.png","70","img/blue_2bandit_a.png","70","test","","","","","","","","","","","5","","","","","","","","",""
"null","737050","SARL_v6","SARL_v6h6e311zb","59e7d3f97f3d71000171def0","fixation","","","img/fixation.png","null","","","test","","","","","","","","","","","","","","","","","","","",""
"373","737425","SARL_v6","SARL_v6h6e311zb","59e7d3f97f3d71000171def0","freq","","","img/blue_2bandit_a2.png","70","","70","test","1","","99","","","","square","circle","95","4","5","0.9789473684210527","","","","","","","",""
"null","737866","SARL_v6","SARL_v6h6e311zb","59e7d3f97f3d71000171def0","freq_resp","","","img/blue_2bandit_a.png","70","img/blue_2bandit_a.png","70","test","","","","","","","","","","","5","","","","","","","","",""
"null","738022","SARL_v6","SARL_v6h6e311zb","59e7d3f97f3d71000171def0","fixation","","","img/fixation.png","null","","","test","","","","","","","","","","","","","","","","","","","",""
"305","738329","SARL_v6","SARL_v6h6e311zb","59e7d3f97f3d71000171def0","freq","","","img/blue_2bandit_a2.png","70","","70","test","1","","100","","","","square","circle","96","5","5","0.9791666666666666","","","","","","","",""
"null","738828","SARL_v6","SARL_v6h6e311zb","59e7d3f97f3d71000171def0","freq_resp","","","img/blue_2bandit_a.png","70","img/blue_2bandit_a.png","70","test","","","","","","","","","","","5","","","","","","","","",""
"null","738987","SARL_v6","SARL_v6h6e311zb","59e7d3f97f3d71000171def0","fixation","","","img/fixation.png","null","","","test","","","","","","","","","","","","","","","","","","","",""
"323","739313","SARL_v6","SARL_v6h6e311zb","59e7d3f97f3d71000171def0","freq","","","img/blue_2bandit_a2.png","70","","70","test","1","","101","","","","square","circle","97","6","5","0.979381443298969","","","","","","","",""
"null","739800","SARL_v6","SARL_v6h6e311zb","59e7d3f97f3d71000171def0","freq_resp","","","img/blue_2bandit_a.png","70","img/blue_2bandit_a.png","70","test","","","","","","","","","","","5","","","","","","","","",""
"null","739959","SARL_v6","SARL_v6h6e311zb","59e7d3f97f3d71000171def0","fixation","","","img/fixation.png","null","","","test","","","","","","","","","","","","","","","","","","","",""
"368","740330","SARL_v6","SARL_v6h6e311zb","59e7d3f97f3d71000171def0","freq","","","img/blue_2bandit_a2.png","70","","70","test","1","","102","","","","square","circle","98","7","5","0.9795918367346939","","","","","","","",""
"null","740779","SARL_v6","SARL_v6h6e311zb","59e7d3f97f3d71000171def0","freq_resp","","","img/blue_2bandit_a.png","70","img/blue_2bandit_a.png","70","test","","","","","","","","","","","5","","","","","","","","",""
"null","740938","SARL_v6","SARL_v6h6e311zb","59e7d3f97f3d71000171def0","fixation","","","img/fixation.png","null","","","test","","","","","","","","","","","","","","","","","","","",""
"326","741266","SARL_v6","SARL_v6h6e311zb","59e7d3f97f3d71000171def0","freq","","","img/blue_2bandit_a2.png","70","","70","test","1","","103","","","","square","circle","99","8","5","0.9797979797979798","","","","","","","",""
"null","741754","SARL_v6","SARL_v6h6e311zb","59e7d3f97f3d71000171def0","freq_resp","","","img/blue_2bandit_a.png","70","img/blue_2bandit_a.png","70","test","","","","","","","","","","","5","","","","","","","","",""
"null","741906","SARL_v6","SARL_v6h6e311zb","59e7d3f97f3d71000171def0","fixation","","","img/fixation.png","null","","","test","","","","","","","","","","","","","","","","","","","",""
"294","742203","SARL_v6","SARL_v6h6e311zb","59e7d3f97f3d71000171def0","freq","","","img/blue_2bandit_a2.png","70","","70","test","1","","104","","","","square","circle","100","9","5","0.98","","","","","","","",""
"null","742719","SARL_v6","SARL_v6h6e311zb","59e7d3f97f3d71000171def0","freq_resp","","","img/blue_2bandit_a.png","70","img/blue_2bandit_a.png","70","test","","","","","","","","","","","5","","","","","","","","",""
"null","742878","SARL_v6","SARL_v6h6e311zb","59e7d3f97f3d71000171def0","fixation","","","img/fixation.png","null","","","test","","","","","","","","","","","","","","","","","","","",""
"339","743218","SARL_v6","SARL_v6h6e311zb","59e7d3f97f3d71000171def0","freq","","","img/blue_2bandit_a2.png","70","","70","test","1","","105","","","","square","circle","101","10","5","0.9801980198019802","","","","","","","",""
"null","743697","SARL_v6","SARL_v6h6e311zb","59e7d3f97f3d71000171def0","freq_resp","","","img/blue_2bandit_a.png","70","img/blue_2bandit_a.png","70","test","","","","","","","","","","","5","","","","","","","","",""
"null","743849","SARL_v6","SARL_v6h6e311zb","59e7d3f97f3d71000171def0","fixation","","","img/fixation.png","null","","","test","","","","","","","","","","","","","","","","","","","",""
"432","744282","SARL_v6","SARL_v6h6e311zb","59e7d3f97f3d71000171def0","infreq","","","img/orange_2bandit_a2.png","68","","68","test","1","","106","","","","square","circle","102","11","5","0.9803921568627451","","","","","","","",""
"null","744654","SARL_v6","SARL_v6h6e311zb","59e7d3f97f3d71000171def0","infreq_resp","","","img/orange_2bandit_a.png","68","img/orange_2bandit_a.png","68","test","","","","","","","","","","","5","","","","","","","","",""
"null","744814","SARL_v6","SARL_v6h6e311zb","59e7d3f97f3d71000171def0","fixation","","","img/fixation.png","null","","","test","","","","","","","","","","","","","","","","","","","",""
"323","745138","SARL_v6","SARL_v6h6e311zb","59e7d3f97f3d71000171def0","freq","","","img/blue_2bandit_a2.png","70","","70","test","1","","107","","","","square","circle","103","12","5","0.9805825242718447","","","","","","","",""
"null","745631","SARL_v6","SARL_v6h6e311zb","59e7d3f97f3d71000171def0","freq_resp","","","img/blue_2bandit_a.png","70","img/blue_2bandit_a.png","70","test","","","","","","","","","","","5","","","","","","","","",""
"null","745784","SARL_v6","SARL_v6h6e311zb","59e7d3f97f3d71000171def0","fixation","","","img/fixation.png","null","","","test","","","","","","","","","","","","","","","","","","","",""
"296","746082","SARL_v6","SARL_v6h6e311zb","59e7d3f97f3d71000171def0","freq","","","img/blue_2bandit_a2.png","70","","70","test","1","","108","","","","square","circle","104","13","5","0.9807692307692307","","","","","","","",""
"null","746600","SARL_v6","SARL_v6h6e311zb","59e7d3f97f3d71000171def0","freq_resp","","","img/blue_2bandit_a.png","70","img/blue_2bandit_a.png","70","test","","","","","","","","","","","5","","","","","","","","",""
"null","746752","SARL_v6","SARL_v6h6e311zb","59e7d3f97f3d71000171def0","fixation","","","img/fixation.png","null","","","test","","","","","","","","","","","","","","","","","","","",""
"328","747082","SARL_v6","SARL_v6h6e311zb","59e7d3f97f3d71000171def0","freq","","","img/blue_2bandit_a2.png","70","","70","test","1","","109","","","","square","circle","105","14","5","0.9809523809523809","","","","","","","",""
"null","747569","SARL_v6","SARL_v6h6e311zb","59e7d3f97f3d71000171def0","freq_resp","","","img/blue_2bandit_a.png","70","img/blue_2bandit_a.png","70","test","","","","","","","","","","","5","","","","","","","","",""
"null","747726","SARL_v6","SARL_v6h6e311zb","59e7d3f97f3d71000171def0","fixation","","","img/fixation.png","null","","","test","","","","","","","","","","","","","","","","","","","",""
"457","748186","SARL_v6","SARL_v6h6e311zb","59e7d3f97f3d71000171def0","freq","","","img/blue_2bandit_a2.png","70","","70","test","1","","110","","","","square","circle","106","15","5","0.9811320754716981","","","","","","","",""
"null","748537","SARL_v6","SARL_v6h6e311zb","59e7d3f97f3d71000171def0","freq_resp","","","img/blue_2bandit_a.png","70","img/blue_2bandit_a.png","70","test","","","","","","","","","","","5","","","","","","","","",""
"null","748693","SARL_v6","SARL_v6h6e311zb","59e7d3f97f3d71000171def0","fixation","","","img/fixation.png","null","","","test","","","","","","","","","","","","","","","","","","","",""
"466","749163","SARL_v6","SARL_v6h6e311zb","59e7d3f97f3d71000171def0","infreq","","","img/orange_2bandit_a2.png","68","","68","test","1","","111","","","","square","circle","107","16","5","0.9813084112149533","","","","","","","",""
"null","749508","SARL_v6","SARL_v6h6e311zb","59e7d3f97f3d71000171def0","infreq_resp","","","img/orange_2bandit_a.png","68","img/orange_2bandit_a.png","68","test","","","","","","","","","","","5","","","","","","","","",""
"null","749666","SARL_v6","SARL_v6h6e311zb","59e7d3f97f3d71000171def0","fixation","","","img/fixation.png","null","","","test","","","","","","","","","","","","","","","","","","","",""
"469","750138","SARL_v6","SARL_v6h6e311zb","59e7d3f97f3d71000171def0","freq","","","img/blue_2bandit_a2.png","70","","70","test","1","","112","","","","square","circle","108","17","5","0.9814814814814815","","","","","","","",""
"null","750484","SARL_v6","SARL_v6h6e311zb","59e7d3f97f3d71000171def0","freq_resp","","","img/blue_2bandit_a.png","70","img/blue_2bandit_a.png","70","test","","","","","","","","","","","5","","","","","","","","",""
"null","750636","SARL_v6","SARL_v6h6e311zb","59e7d3f97f3d71000171def0","fixation","","","img/fixation.png","null","","","test","","","","","","","","","","","","","","","","","","","",""
"452","751091","SARL_v6","SARL_v6h6e311zb","59e7d3f97f3d71000171def0","freq","","","img/blue_2bandit_a2.png","70","","70","test","1","","113","","","","square","circle","109","18","5","0.981651376146789","","","","","","","",""
"null","751454","SARL_v6","SARL_v6h6e311zb","59e7d3f97f3d71000171def0","freq_resp","","","img/blue_2bandit_a.png","70","img/blue_2bandit_a.png","70","test","","","","","","","","","","","5","","","","","","","","",""
"null","751608","SARL_v6","SARL_v6h6e311zb","59e7d3f97f3d71000171def0","fixation","","","img/fixation.png","null","","","test","","","","","","","","","","","","","","","","","","","",""
"481","752091","SARL_v6","SARL_v6h6e311zb","59e7d3f97f3d71000171def0","freq","","","img/blue_2bandit_a2.png","70","","70","test","1","","114","","","","square","circle","110","19","5","0.9818181818181818","","","","","","","",""
"null","752423","SARL_v6","SARL_v6h6e311zb","59e7d3f97f3d71000171def0","freq_resp","","","img/blue_2bandit_a.png","70","img/blue_2bandit_a.png","70","test","","","","","","","","","","","5","","","","","","","","",""
"null","752578","SARL_v6","SARL_v6h6e311zb","59e7d3f97f3d71000171def0","fixation","","","img/fixation.png","null","","","test","","","","","","","","","","","","","","","","","","","",""
"381","752962","SARL_v6","SARL_v6h6e311zb","59e7d3f97f3d71000171def0","freq","","","img/blue_2bandit_a2.png","70","","70","test","1","","115","","","","square","circle","111","20","5","0.9819819819819819","","","","","","","",""
"null","753395","SARL_v6","SARL_v6h6e311zb","59e7d3f97f3d71000171def0","freq_resp","","","img/blue_2bandit_a.png","70","img/blue_2bandit_a.png","70","test","","","","","","","","","","","5","","","","","","","","",""
"null","753551","SARL_v6","SARL_v6h6e311zb","59e7d3f97f3d71000171def0","fixation","","","img/fixation.png","null","","","test","","","","","","","","","","","","","","","","","","","",""
"369","753922","SARL_v6","SARL_v6h6e311zb","59e7d3f97f3d71000171def0","freq","","","img/blue_2bandit_a2.png","70","","70","test","1","","116","","","","square","circle","112","21","5","0.9821428571428571","","","","","","","",""
"null","754368","SARL_v6","SARL_v6h6e311zb","59e7d3f97f3d71000171def0","freq_resp","","","img/blue_2bandit_a.png","70","img/blue_2bandit_a.png","70","test","","","","","","","","","","","5","","","","","","","","",""
"null","754525","SARL_v6","SARL_v6h6e311zb","59e7d3f97f3d71000171def0","fixation","","","img/fixation.png","null","","","test","","","","","","","","","","","","","","","","","","","",""
"340","754866","SARL_v6","SARL_v6h6e311zb","59e7d3f97f3d71000171def0","freq","","","img/blue_2bandit_a2.png","70","","70","test","1","","117","","","","square","circle","113","22","5","0.9823008849557522","","","","","","","",""
"null","755338","SARL_v6","SARL_v6h6e311zb","59e7d3f97f3d71000171def0","freq_resp","","","img/blue_2bandit_a.png","70","img/blue_2bandit_a.png","70","test","","","","","","","","","","","5","","","","","","","","",""
"null","755495","SARL_v6","SARL_v6h6e311zb","59e7d3f97f3d71000171def0","fixation","","","img/fixation.png","null","","","test","","","","","","","","","","","","","","","","","","","",""
"417","755914","SARL_v6","SARL_v6h6e311zb","59e7d3f97f3d71000171def0","freq","","","img/blue_2bandit_a2.png","70","","70","test","1","","118","","","","square","circle","114","23","5","0.9824561403508771","","","","","","","",""
"null","756312","SARL_v6","SARL_v6h6e311zb","59e7d3f97f3d71000171def0","freq_resp","","","img/blue_2bandit_a.png","70","img/blue_2bandit_a.png","70","test","","","","","","","","","","","5","","","","","","","","",""
"null","756468","SARL_v6","SARL_v6h6e311zb","59e7d3f97f3d71000171def0","fixation","","","img/fixation.png","null","","","test","","","","","","","","","","","","","","","","","","","",""
"883","757354","SARL_v6","SARL_v6h6e311zb","59e7d3f97f3d71000171def0","rl","","","img/black_2bandit_a2.png","75","","0","test","","","119","","","-7","square","circle","","0","5","","75","-7","4","4","-7","circle","5","0"
"null","758114","SARL_v6","SARL_v6h6e311zb","59e7d3f97f3d71000171def0","feedback","","","<div class=""verylowPoints""> -7 </div>","null","","na","test","","","NaN","","","","","","","","5","","75","","","","","","5",""
"503","758618","SARL_v6","SARL_v6h6e311zb","59e7d3f97f3d71000171def0","freq","","","img/blue_2bandit_a2.png","70","","70","test","1","","120","","","","square","circle","115","1","6","0.9826086956521739","","","","","","","",""
"null","758929","SARL_v6","SARL_v6h6e311zb","59e7d3f97f3d71000171def0","freq_resp","","","img/blue_2bandit_a.png","70","img/blue_2bandit_a.png","70","test","","","","","","","","","","","6","","","","","","","","",""
"null","759085","SARL_v6","SARL_v6h6e311zb","59e7d3f97f3d71000171def0","fixation","","","img/fixation.png","null","","","test","","","","","","","","","","","","","","","","","","","",""
"403","759490","SARL_v6","SARL_v6h6e311zb","59e7d3f97f3d71000171def0","freq","","","img/blue_2bandit_a2.png","70","","70","test","1","","121","","","","square","circle","116","2","6","0.9827586206896551","","","","","","","",""
"null","759897","SARL_v6","SARL_v6h6e311zb","59e7d3f97f3d71000171def0","freq_resp","","","img/blue_2bandit_a.png","70","img/blue_2bandit_a.png","70","test","","","","","","","","","","","6","","","","","","","","",""
"null","760056","SARL_v6","SARL_v6h6e311zb","59e7d3f97f3d71000171def0","fixation","","","img/fixation.png","null","","","test","","","","","","","","","","","","","","","","","","","",""
"336","760394","SARL_v6","SARL_v6h6e311zb","59e7d3f97f3d71000171def0","freq","","","img/blue_2bandit_a2.png","70","","70","test","1","","122","","","","square","circle","117","3","6","0.9829059829059829","","","","","","","",""
"null","760870","SARL_v6","SARL_v6h6e311zb","59e7d3f97f3d71000171def0","freq_resp","","","img/blue_2bandit_a.png","70","img/blue_2bandit_a.png","70","test","","","","","","","","","","","6","","","","","","","","",""
"null","761031","SARL_v6","SARL_v6h6e311zb","59e7d3f97f3d71000171def0","fixation","","","img/fixation.png","null","","","test","","","","","","","","","","","","","","","","","","","",""
"353","761387","SARL_v6","SARL_v6h6e311zb","59e7d3f97f3d71000171def0","freq","","","img/blue_2bandit_a2.png","70","","70","test","1","","123","","","","square","circle","118","4","6","0.9830508474576272","","","","","","","",""
"null","761849","SARL_v6","SARL_v6h6e311zb","59e7d3f97f3d71000171def0","freq_resp","","","img/blue_2bandit_a.png","70","img/blue_2bandit_a.png","70","test","","","","","","","","","","","6","","","","","","","","",""
"null","762006","SARL_v6","SARL_v6h6e311zb","59e7d3f97f3d71000171def0","fixation","","","img/fixation.png","null","","","test","","","","","","","","","","","","","","","","","","","",""
"354","762362","SARL_v6","SARL_v6h6e311zb","59e7d3f97f3d71000171def0","freq","","","img/blue_2bandit_a2.png","70","","70","test","1","","124","","","","square","circle","119","5","6","0.9831932773109243","","","","","","","",""
"null","762820","SARL_v6","SARL_v6h6e311zb","59e7d3f97f3d71000171def0","freq_resp","","","img/blue_2bandit_a.png","70","img/blue_2bandit_a.png","70","test","","","","","","","","","","","6","","","","","","","","",""
"null","762976","SARL_v6","SARL_v6h6e311zb","59e7d3f97f3d71000171def0","fixation","","","img/fixation.png","null","","","test","","","","","","","","","","","","","","","","","","","",""
"320","763298","SARL_v6","SARL_v6h6e311zb","59e7d3f97f3d71000171def0","freq","","","img/blue_2bandit_a2.png","70","","70","test","1","","125","","","","square","circle","120","6","6","0.9833333333333333","","","","","","","",""
"null","763791","SARL_v6","SARL_v6h6e311zb","59e7d3f97f3d71000171def0","freq_resp","","","img/blue_2bandit_a.png","70","img/blue_2bandit_a.png","70","test","","","","","","","","","","","6","","","","","","","","",""
"null","763943","SARL_v6","SARL_v6h6e311zb","59e7d3f97f3d71000171def0","fixation","","","img/fixation.png","null","","","test","","","","","","","","","","","","","","","","","","","",""
"401","764346","SARL_v6","SARL_v6h6e311zb","59e7d3f97f3d71000171def0","freq","","","img/blue_2bandit_a2.png","70","","70","test","1","","126","","","","square","circle","121","7","6","0.9834710743801653","","","","","","","",""
"null","764762","SARL_v6","SARL_v6h6e311zb","59e7d3f97f3d71000171def0","freq_resp","","","img/blue_2bandit_a.png","70","img/blue_2bandit_a.png","70","test","","","","","","","","","","","6","","","","","","","","",""
"null","764921","SARL_v6","SARL_v6h6e311zb","59e7d3f97f3d71000171def0","fixation","","","img/fixation.png","null","","","test","","","","","","","","","","","","","","","","","","","",""
"328","765250","SARL_v6","SARL_v6h6e311zb","59e7d3f97f3d71000171def0","freq","","","img/blue_2bandit_a2.png","70","","70","test","1","","127","","","","square","circle","122","8","6","0.9836065573770492","","","","","","","",""
"null","765735","SARL_v6","SARL_v6h6e311zb","59e7d3f97f3d71000171def0","freq_resp","","","img/blue_2bandit_a.png","70","img/blue_2bandit_a.png","70","test","","","","","","","","","","","6","","","","","","","","",""
"null","765888","SARL_v6","SARL_v6h6e311zb","59e7d3f97f3d71000171def0","fixation","","","img/fixation.png","null","","","test","","","","","","","","","","","","","","","","","","","",""
"313","766202","SARL_v6","SARL_v6h6e311zb","59e7d3f97f3d71000171def0","freq","","","img/blue_2bandit_a2.png","70","","70","test","1","","128","","","","square","circle","123","9","6","0.983739837398374","","","","","","","",""
"null","766703","SARL_v6","SARL_v6h6e311zb","59e7d3f97f3d71000171def0","freq_resp","","","img/blue_2bandit_a.png","70","img/blue_2bandit_a.png","70","test","","","","","","","","","","","6","","","","","","","","",""
"null","766857","SARL_v6","SARL_v6h6e311zb","59e7d3f97f3d71000171def0","fixation","","","img/fixation.png","null","","","test","","","","","","","","","","","","","","","","","","","",""
"688","767546","SARL_v6","SARL_v6h6e311zb","59e7d3f97f3d71000171def0","infreq","","","img/orange_2bandit_a2.png","68","","68","test","1","","129","","","","square","circle","124","10","6","0.9838709677419355","","","","","","","",""
"null","767661","SARL_v6","SARL_v6h6e311zb","59e7d3f97f3d71000171def0","infreq_resp","","","img/orange_2bandit_a.png","68","img/orange_2bandit_a.png","68","test","","","","","","","","","","","6","","","","","","","","",""
"null","767819","SARL_v6","SARL_v6h6e311zb","59e7d3f97f3d71000171def0","fixation","","","img/fixation.png","null","","","test","","","","","","","","","","","","","","","","","","","",""
"406","768227","SARL_v6","SARL_v6h6e311zb","59e7d3f97f3d71000171def0","freq","","","img/blue_2bandit_a2.png","70","","70","test","1","","130","","","","square","circle","125","11","6","0.984","","","","","","","",""
"null","768635","SARL_v6","SARL_v6h6e311zb","59e7d3f97f3d71000171def0","freq_resp","","","img/blue_2bandit_a.png","70","img/blue_2bandit_a.png","70","test","","","","","","","","","","","6","","","","","","","","",""
"null","768792","SARL_v6","SARL_v6h6e311zb","59e7d3f97f3d71000171def0","fixation","","","img/fixation.png","null","","","test","","","","","","","","","","","","","","","","","","","",""
"351","769146","SARL_v6","SARL_v6h6e311zb","59e7d3f97f3d71000171def0","freq","","","img/blue_2bandit_a2.png","70","","70","test","1","","131","","","","square","circle","126","12","6","0.9841269841269841","","","","","","","",""
"null","769609","SARL_v6","SARL_v6h6e311zb","59e7d3f97f3d71000171def0","freq_resp","","","img/blue_2bandit_a.png","70","img/blue_2bandit_a.png","70","test","","","","","","","","","","","6","","","","","","","","",""
"null","769764","SARL_v6","SARL_v6h6e311zb","59e7d3f97f3d71000171def0","fixation","","","img/fixation.png","null","","","test","","","","","","","","","","","","","","","","","","","",""
"299","770066","SARL_v6","SARL_v6h6e311zb","59e7d3f97f3d71000171def0","freq","","","img/blue_2bandit_a2.png","70","","70","test","1","","132","","","","square","circle","127","13","6","0.984251968503937","","","","","","","",""
"null","770577","SARL_v6","SARL_v6h6e311zb","59e7d3f97f3d71000171def0","freq_resp","","","img/blue_2bandit_a.png","70","img/blue_2bandit_a.png","70","test","","","","","","","","","","","6","","","","","","","","",""
"null","770729","SARL_v6","SARL_v6h6e311zb","59e7d3f97f3d71000171def0","fixation","","","img/fixation.png","null","","","test","","","","","","","","","","","","","","","","","","","",""
"343","771074","SARL_v6","SARL_v6h6e311zb","59e7d3f97f3d71000171def0","freq","","","img/blue_2bandit_a2.png","70","","70","test","1","","133","","","","square","circle","128","14","6","0.984375","","","","","","","",""
"null","771536","SARL_v6","SARL_v6h6e311zb","59e7d3f97f3d71000171def0","freq_resp","","","img/blue_2bandit_a.png","70","img/blue_2bandit_a.png","70","test","","","","","","","","","","","6","","","","","","","","",""
"null","771690","SARL_v6","SARL_v6h6e311zb","59e7d3f97f3d71000171def0","fixation","","","img/fixation.png","null","","","test","","","","","","","","","","","","","","","","","","","",""
"319","772010","SARL_v6","SARL_v6h6e311zb","59e7d3f97f3d71000171def0","freq","","","img/blue_2bandit_a2.png","70","","70","test","1","","134","","","","square","circle","129","15","6","0.9844961240310077","","","","","","","",""
"null","772506","SARL_v6","SARL_v6h6e311zb","59e7d3f97f3d71000171def0","freq_resp","","","img/blue_2bandit_a.png","70","img/blue_2bandit_a.png","70","test","","","","","","","","","","","6","","","","","","","","",""
"null","772662","SARL_v6","SARL_v6h6e311zb","59e7d3f97f3d71000171def0","fixation","","","img/fixation.png","null","","","test","","","","","","","","","","","","","","","","","","","",""
