"rt","time_elapsed","expId","subject","prolificID","trialType","rlType","attType","stimulus","key_press","stim","corrresp","phase","corr","pracCounter","trialNum","rewardOne","rewardTwo","reward","bandOne","bandTwo","attentionNum","attentionRunNum","blockNum","performance","bandChosen","circleVal","squareVal","bandOneVal","bandTwoVal","shapeChosen","rlNum","badFlag"
"1943.7000000476837","1948","SARL_v6","SARL_v617ka98rs","60fd6618f9a377f54dcdf318","","","","","","","","","","","","","","","","","","","","","","","","","","","",""
"","4043","SARL_v6","SARL_v617ka98rs","60fd6618f9a377f54dcdf318","fullscreen","fullscreen","fullscreen","","","","","","","","","","","","","","","","","","","","","","","","",""
"43231.700000047684","47277","SARL_v6","SARL_v617ka98rs","60fd6618f9a377f54dcdf318","","","","","","","","","","","","","","","","","","","","","","","","","","","",""
"669.0999999046326","47955","SARL_v6","SARL_v617ka98rs","60fd6618f9a377f54dcdf318","freqPrac","","","img/orange_2bandit_a2.png","68","img/orange_2bandit_a2.png","70","prac","0","1","","","","","","","","","","","","","","","","","",""
"669.0999999046326","48097","SARL_v6","SARL_v617ka98rs","60fd6618f9a377f54dcdf318","freqPrac_resp","","","img/orange_2bandit_a.png","68","img/orange_2bandit_a.png","70","prac","","","","","","","","","","","","","","","","","","","",""
"null","49110","SARL_v6","SARL_v617ka98rs","60fd6618f9a377f54dcdf318","feedback","","","img/wrongKey.png","null","","na","prac","","","","","","","","","","","","","","","","","","","",""
"null","49280","SARL_v6","SARL_v617ka98rs","60fd6618f9a377f54dcdf318","fixation","","","img/fixation.png","null","","","prac","","","","","","","","","","","","","","","","","","","",""
"671.7000000476837","49958","SARL_v6","SARL_v617ka98rs","60fd6618f9a377f54dcdf318","infreqPrac","","","img/blue_2bandit_a2.png","70","img/blue_2bandit_a2.png","68","prac","0","2","","","","","","","","","","","","","","","","","",""
"671.7000000476837","50094","SARL_v6","SARL_v617ka98rs","60fd6618f9a377f54dcdf318","infreqPrac_resp","","","img/blue_2bandit_a.png","70","img/blue_2bandit_a.png","68","prac","","","","","","","","","","","","","","","","","","","",""
"null","51104","SARL_v6","SARL_v617ka98rs","60fd6618f9a377f54dcdf318","feedback","","","img/wrongKey.png","null","","na","prac","","","","","","","","","","","","","","","","","","","",""
"null","51263","SARL_v6","SARL_v617ka98rs","60fd6618f9a377f54dcdf318","fixation","","","img/fixation.png","null","","","prac","","","","","","","","","","","","","","","","","","","",""
"null","52076","SARL_v6","SARL_v617ka98rs","60fd6618f9a377f54dcdf318","freqPrac","","","img/orange_2bandit_a2.png","null","img/orange_2bandit_a2.png","70","prac","0","3","","","","","","","","","","","","","","","","","",""
"null","53084","SARL_v6","SARL_v617ka98rs","60fd6618f9a377f54dcdf318","feedback","","","img/tooSlow.png","null","","na","prac","","","","","","","","","","","","","","","","","","","",""
"null","53248","SARL_v6","SARL_v617ka98rs","60fd6618f9a377f54dcdf318","fixation","","","img/fixation.png","null","","","prac","","","","","","","","","","","","","","","","","","","",""
"null","54061","SARL_v6","SARL_v617ka98rs","60fd6618f9a377f54dcdf318","infreqPrac","","","img/blue_2bandit_a2.png","null","img/blue_2bandit_a2.png","68","prac","0","4","","","","","","","","","","","","","","","","","",""
"null","55078","SARL_v6","SARL_v617ka98rs","60fd6618f9a377f54dcdf318","feedback","","","img/tooSlow.png","null","","na","prac","","","","","","","","","","","","","","","","","","","",""
"null","55246","SARL_v6","SARL_v617ka98rs","60fd6618f9a377f54dcdf318","fixation","","","img/fixation.png","null","","","prac","","","","","","","","","","","","","","","","","","","",""
"null","56061","SARL_v6","SARL_v617ka98rs","60fd6618f9a377f54dcdf318","infreqPrac","","","img/blue_2bandit_a2.png","null","img/blue_2bandit_a2.png","68","prac","0","5","","","","","","","","","","","","","","","","","",""
"null","57081","SARL_v6","SARL_v617ka98rs","60fd6618f9a377f54dcdf318","feedback","","","img/tooSlow.png","null","","na","prac","","","","","","","","","","","","","","","","","","","",""
"null","57248","SARL_v6","SARL_v617ka98rs","60fd6618f9a377f54dcdf318","fixation","","","img/fixation.png","null","","","prac","","","","","","","","","","","","","","","","","","","",""
"531","57786","SARL_v6","SARL_v617ka98rs","60fd6618f9a377f54dcdf318","infreqPrac","","","img/blue_2bandit_a2.png","68","img/blue_2bandit_a2.png","68","prac","1","5","","","","","","","","","","","","","","","","","",""
"531","58070","SARL_v6","SARL_v617ka98rs","60fd6618f9a377f54dcdf318","infreqPrac_resp","","","img/blue_2bandit_a.png","68","img/blue_2bandit_a.png","68","prac","","","","","","","","","","","","","","","","","","","",""
"null","58232","SARL_v6","SARL_v617ka98rs","60fd6618f9a377f54dcdf318","fixation","","","img/fixation.png","null","","","prac","","","","","","","","","","","","","","","","","","","",""
"517.8999998569489","58757","SARL_v6","SARL_v617ka98rs","60fd6618f9a377f54dcdf318","freqPrac","","","img/orange_2bandit_a2.png","70","img/orange_2bandit_a2.png","70","prac","1","5","","","","","","","","","","","","","","","","","",""
"517.8999998569489","59057","SARL_v6","SARL_v617ka98rs","60fd6618f9a377f54dcdf318","freqPrac_resp","","","img/orange_2bandit_a.png","70","img/orange_2bandit_a.png","70","prac","","","","","","","","","","","","","","","","","","","",""
"null","59224","SARL_v6","SARL_v617ka98rs","60fd6618f9a377f54dcdf318","fixation","","","img/fixation.png","null","","","prac","","","","","","","","","","","","","","","","","","","",""
"569.8000001907349","59800","SARL_v6","SARL_v617ka98rs","60fd6618f9a377f54dcdf318","infreqPrac","","","img/blue_2bandit_a2.png","68","img/blue_2bandit_a2.png","68","prac","1","5","","","","","","","","","","","","","","","","","",""
"569.8000001907349","60046","SARL_v6","SARL_v617ka98rs","60fd6618f9a377f54dcdf318","infreqPrac_resp","","","img/blue_2bandit_a.png","68","img/blue_2bandit_a.png","68","prac","","","","","","","","","","","","","","","","","","","",""
"null","60215","SARL_v6","SARL_v617ka98rs","60fd6618f9a377f54dcdf318","fixation","","","img/fixation.png","null","","","prac","","","","","","","","","","","","","","","","","","","",""
"513.0999999046326","60735","SARL_v6","SARL_v617ka98rs","60fd6618f9a377f54dcdf318","freqPrac","","","img/orange_2bandit_a2.png","70","img/orange_2bandit_a2.png","70","prac","1","5","","","","","","","","","","","","","","","","","",""
"513.0999999046326","61040","SARL_v6","SARL_v617ka98rs","60fd6618f9a377f54dcdf318","freqPrac_resp","","","img/orange_2bandit_a.png","70","img/orange_2bandit_a.png","70","prac","","","","","","","","","","","","","","","","","","","",""
"null","61208","SARL_v6","SARL_v617ka98rs","60fd6618f9a377f54dcdf318","fixation","","","img/fixation.png","null","","","prac","","","","","","","","","","","","","","","","","","","",""
"460.5","61672","SARL_v6","SARL_v617ka98rs","60fd6618f9a377f54dcdf318","freqPrac","","","img/orange_2bandit_a2.png","70","img/orange_2bandit_a2.png","70","prac","1","5","","","","","","","","","","","","","","","","","",""
"460.5","62023","SARL_v6","SARL_v617ka98rs","60fd6618f9a377f54dcdf318","freqPrac_resp","","","img/orange_2bandit_a.png","70","img/orange_2bandit_a.png","70","prac","","","","","","","","","","","","","","","","","","","",""
"null","62184","SARL_v6","SARL_v617ka98rs","60fd6618f9a377f54dcdf318","fixation","","","img/fixation.png","null","","","prac","","","","","","","","","","","","","","","","","","","",""
"13898.200000047684","76089","SARL_v6","SARL_v617ka98rs","60fd6618f9a377f54dcdf318","","","","","","","","prac","","","","","","","","","","","","","","","","","","","",""
"688.3999998569489","76781","SARL_v6","SARL_v617ka98rs","60fd6618f9a377f54dcdf318","rlPractice","","","img/black_2bandit_a2.png","74","img/black_2bandit_a2.png","","prac","","","0","","","","","","","","","","","","","","","","",""
"null","77542","SARL_v6","SARL_v617ka98rs","60fd6618f9a377f54dcdf318","feedback","","","<div class=""verylowPoints_sq""> -14 </div>","null","","na","prac","","","1","10","-14","10","","","","","","","","","","","","","",""
"null","77709","SARL_v6","SARL_v617ka98rs","60fd6618f9a377f54dcdf318","fixation","","","img/fixation.png","null","","","prac","","","","","","","","","","","","","","","","","","","",""
"456.39999985694885","78169","SARL_v6","SARL_v617ka98rs","60fd6618f9a377f54dcdf318","rlPractice","","","img/black_2bandit_a2.png","74","img/black_2bandit_a2.png","","prac","","","1","","","","","","","","","","","","","","","","",""
"null","78926","SARL_v6","SARL_v617ka98rs","60fd6618f9a377f54dcdf318","feedback","","","<div class=""verylowPoints_sq""> -5 </div>","null","","na","prac","","","2","5","-5","5","","","","","","","","","","","","","",""
"null","79094","SARL_v6","SARL_v617ka98rs","60fd6618f9a377f54dcdf318","fixation","","","img/fixation.png","null","","","prac","","","","","","","","","","","","","","","","","","","",""
"377.19999980926514","79475","SARL_v6","SARL_v617ka98rs","60fd6618f9a377f54dcdf318","rlPractice","","","img/black_2bandit_a2.png","75","img/black_2bandit_a2.png","","prac","","","2","","","","","","","","","","","","","","","","",""
"null","80234","SARL_v6","SARL_v617ka98rs","60fd6618f9a377f54dcdf318","feedback","","","<div class=""veryhighPoints""> 30 </div>","null","","na","prac","","","3","30","2","30","","","","","","","","","","","","","",""
"null","80399","SARL_v6","SARL_v617ka98rs","60fd6618f9a377f54dcdf318","fixation","","","img/fixation.png","null","","","prac","","","","","","","","","","","","","","","","","","","",""
"314.5","80718","SARL_v6","SARL_v617ka98rs","60fd6618f9a377f54dcdf318","rlPractice","","","img/black_2bandit_a2.png","75","img/black_2bandit_a2.png","","prac","","","3","","","","","","","","","","","","","","","","",""
"null","81486","SARL_v6","SARL_v617ka98rs","60fd6618f9a377f54dcdf318","feedback","","","<div class=""verylowPoints""> -2 </div>","null","","na","prac","","","4","-2","20","-2","","","","","","","","","","","","","",""
"null","81654","SARL_v6","SARL_v617ka98rs","60fd6618f9a377f54dcdf318","fixation","","","img/fixation.png","null","","","prac","","","","","","","","","","","","","","","","","","","",""
"3662.7000000476837","85323","SARL_v6","SARL_v617ka98rs","60fd6618f9a377f54dcdf318","","","","","","","","prac","","","","","","","","","","","","","","","","","","","",""
"724.2999999523163","86053","SARL_v6","SARL_v617ka98rs","60fd6618f9a377f54dcdf318","mixAttFreqPrac","","","img/orange_2bandit_a2.png","68","img/orange_2bandit_a2.png","70","prac","","","1","","","","","","","","","","","","","","","","",""
"724.2999999523163","86136","SARL_v6","SARL_v617ka98rs","60fd6618f9a377f54dcdf318","freqPrac_resp","","","img/orange_2bandit_a.png","68","img/orange_2bandit_a.png","70","prac","","","1","","","","","","","","","","","","","","","","",""
"null","86297","SARL_v6","SARL_v617ka98rs","60fd6618f9a377f54dcdf318","fixation","","","img/fixation.png","null","","","prac","","","","","","","","","","","","","","","","","","","",""
"798.7999999523163","87102","SARL_v6","SARL_v617ka98rs","60fd6618f9a377f54dcdf318","mixAttInfreqPrac","","","img/blue_2bandit_a2.png","70","img/blue_2bandit_a2.png","68","prac","","","2","","","","","","","","","","","","","","","","",""
"798.7999999523163","87106","SARL_v6","SARL_v617ka98rs","60fd6618f9a377f54dcdf318","infreqPrac_resp","","","img/blue_2bandit_a.png","70","img/orange_2bandit_a.png","68","prac","","","2","","","","","","","","","","","","","","","","",""
"null","87267","SARL_v6","SARL_v617ka98rs","60fd6618f9a377f54dcdf318","fixation","","","img/fixation.png","null","","","prac","","","","","","","","","","","","","","","","","","","",""
"null","88078","SARL_v6","SARL_v617ka98rs","60fd6618f9a377f54dcdf318","mixAttInfreqPrac","","","img/blue_2bandit_a2.png","null","img/blue_2bandit_a2.png","68","prac","","","3","","","","","","","","","","","","","","","","",""
"35.10000014305115","88242","SARL_v6","SARL_v617ka98rs","60fd6618f9a377f54dcdf318","fixation","","","img/fixation.png","68","","","prac","","","","","","","","","","","","","","","","","","","",""
"702.1999998092651","88950","SARL_v6","SARL_v617ka98rs","60fd6618f9a377f54dcdf318","mixAttInfreqPrac","","","img/blue_2bandit_a2.png","68","img/blue_2bandit_a2.png","68","prac","","","4","","","","","","","","","","","","","","","","",""
"702.1999998092651","89062","SARL_v6","SARL_v617ka98rs","60fd6618f9a377f54dcdf318","infreqPrac_resp","","","img/blue_2bandit_a.png","68","img/orange_2bandit_a.png","68","prac","","","4","","","","","","","","","","","","","","","","",""
"null","89232","SARL_v6","SARL_v617ka98rs","60fd6618f9a377f54dcdf318","fixation","","","img/fixation.png","null","","","prac","","","","","","","","","","","","","","","","","","","",""
"507.59999990463257","89746","SARL_v6","SARL_v617ka98rs","60fd6618f9a377f54dcdf318","mixAttFreqPrac","","","img/orange_2bandit_a2.png","70","img/orange_2bandit_a2.png","70","prac","","","5","","","","","","","","","","","","","","","","",""
"507.59999990463257","90056","SARL_v6","SARL_v617ka98rs","60fd6618f9a377f54dcdf318","freqPrac_resp","","","img/orange_2bandit_a.png","70","img/orange_2bandit_a.png","70","prac","","","5","","","","","","","","","","","","","","","","",""
"null","90222","SARL_v6","SARL_v617ka98rs","60fd6618f9a377f54dcdf318","fixation","","","img/fixation.png","null","","","prac","","","","","","","","","","","","","","","","","","","",""
"733.4000000953674","90961","SARL_v6","SARL_v617ka98rs","60fd6618f9a377f54dcdf318","mixRLPractice","","","img/black_2bandit_a2.png","75","img/black_2bandit_a2.png","","prac","","","5","","","","","","","","","","","","","","","","",""
"null","91726","SARL_v6","SARL_v617ka98rs","60fd6618f9a377f54dcdf318","feedback","","","<div class=""verylowPoints""> -14 </div>","null","","na","prac","","","6","-14","10","-14","","","","","","","","","","","","","",""
"null","91893","SARL_v6","SARL_v617ka98rs","60fd6618f9a377f54dcdf318","fixation","","","img/fixation.png","null","","","prac","","","","","","","","","","","","","","","","","","","",""
"779.5","92679","SARL_v6","SARL_v617ka98rs","60fd6618f9a377f54dcdf318","mixAttFreqPrac","","","img/orange_2bandit_a2.png","70","img/orange_2bandit_a2.png","70","prac","","","7","","","","","","","","","","","","","","","","",""
"779.5","92716","SARL_v6","SARL_v617ka98rs","60fd6618f9a377f54dcdf318","freqPrac_resp","","","img/orange_2bandit_a.png","70","img/orange_2bandit_a.png","70","prac","","","7","","","","","","","","","","","","","","","","",""
"null","92879","SARL_v6","SARL_v617ka98rs","60fd6618f9a377f54dcdf318","fixation","","","img/fixation.png","null","","","prac","","","","","","","","","","","","","","","","","","","",""
"727","93612","SARL_v6","SARL_v617ka98rs","60fd6618f9a377f54dcdf318","mixAttInfreqPrac","","","img/blue_2bandit_a2.png","68","img/blue_2bandit_a2.png","68","prac","","","8","","","","","","","","","","","","","","","","",""
"727","93698","SARL_v6","SARL_v617ka98rs","60fd6618f9a377f54dcdf318","infreqPrac_resp","","","img/blue_2bandit_a.png","68","img/orange_2bandit_a.png","68","prac","","","8","","","","","","","","","","","","","","","","",""
"null","93862","SARL_v6","SARL_v617ka98rs","60fd6618f9a377f54dcdf318","fixation","","","img/fixation.png","null","","","prac","","","","","","","","","","","","","","","","","","","",""
"694.9000000953674","94563","SARL_v6","SARL_v617ka98rs","60fd6618f9a377f54dcdf318","mixAttFreqPrac","","","img/orange_2bandit_a2.png","70","img/orange_2bandit_a2.png","70","prac","","","9","","","","","","","","","","","","","","","","",""
"694.9000000953674","94684","SARL_v6","SARL_v617ka98rs","60fd6618f9a377f54dcdf318","freqPrac_resp","","","img/orange_2bandit_a.png","70","img/orange_2bandit_a.png","70","prac","","","9","","","","","","","","","","","","","","","","",""
"null","94848","SARL_v6","SARL_v617ka98rs","60fd6618f9a377f54dcdf318","fixation","","","img/fixation.png","null","","","prac","","","","","","","","","","","","","","","","","","","",""
"528.5999999046326","95380","SARL_v6","SARL_v617ka98rs","60fd6618f9a377f54dcdf318","mixAttFreqPrac","","","img/orange_2bandit_a2.png","70","img/orange_2bandit_a2.png","70","prac","","","10","","","","","","","","","","","","","","","","",""
"528.5999999046326","95661","SARL_v6","SARL_v617ka98rs","60fd6618f9a377f54dcdf318","freqPrac_resp","","","img/orange_2bandit_a.png","70","img/orange_2bandit_a.png","70","prac","","","10","","","","","","","","","","","","","","","","",""
"null","95824","SARL_v6","SARL_v617ka98rs","60fd6618f9a377f54dcdf318","fixation","","","img/fixation.png","null","","","prac","","","","","","","","","","","","","","","","","","","",""
"519","96348","SARL_v6","SARL_v617ka98rs","60fd6618f9a377f54dcdf318","mixAttInfreqPrac","","","img/blue_2bandit_a2.png","68","img/blue_2bandit_a2.png","68","prac","","","11","","","","","","","","","","","","","","","","",""
"519","96648","SARL_v6","SARL_v617ka98rs","60fd6618f9a377f54dcdf318","infreqPrac_resp","","","img/blue_2bandit_a.png","68","img/orange_2bandit_a.png","68","prac","","","11","","","","","","","","","","","","","","","","",""
"null","96816","SARL_v6","SARL_v617ka98rs","60fd6618f9a377f54dcdf318","fixation","","","img/fixation.png","null","","","prac","","","","","","","","","","","","","","","","","","","",""
"666.1000001430511","97488","SARL_v6","SARL_v617ka98rs","60fd6618f9a377f54dcdf318","mixRLPractice","","","img/black_2bandit_a2.png","75","img/black_2bandit_a2.png","","prac","","","11","","","","","","","","","","","","","","","","",""
"null","98253","SARL_v6","SARL_v617ka98rs","60fd6618f9a377f54dcdf318","feedback","","","<div class=""veryhighPoints""> 5 </div>","null","","na","prac","","","12","5","-5","5","","","","","","","","","","","","","",""
"null","98421","SARL_v6","SARL_v617ka98rs","60fd6618f9a377f54dcdf318","fixation","","","img/fixation.png","null","","","prac","","","","","","","","","","","","","","","","","","","",""
"24788.400000095367","123212","SARL_v6","SARL_v617ka98rs","60fd6618f9a377f54dcdf318","","","","","","","","prac","","","","","","","","","","","","","","","","","","","",""
"808.6000001430511","124029","SARL_v6","SARL_v617ka98rs","60fd6618f9a377f54dcdf318","freq","","","img/orange_2bandit_a2.png","70","","70","test","1","","1","","","","square","circle","1","1","1","1","","","","","","","",""
"null","124190","SARL_v6","SARL_v617ka98rs","60fd6618f9a377f54dcdf318","fixation","","","img/fixation.png","null","","","test","","","","","","","","","","","","","","","","","","","",""
"388.7000000476837","124583","SARL_v6","SARL_v617ka98rs","60fd6618f9a377f54dcdf318","freq","","","img/orange_2bandit_a2.png","70","","70","test","1","","2","","","","square","circle","2","2","1","1","","","","","","","",""
"null","125004","SARL_v6","SARL_v617ka98rs","60fd6618f9a377f54dcdf318","freq_resp","","","img/orange_2bandit_a.png","70","img/orange_2bandit_a.png","70","test","","","","","","","","","","","1","","","","","","","","",""
"null","125166","SARL_v6","SARL_v617ka98rs","60fd6618f9a377f54dcdf318","fixation","","","img/fixation.png","null","","","test","","","","","","","","","","","","","","","","","","","",""
"549.1000001430511","125722","SARL_v6","SARL_v617ka98rs","60fd6618f9a377f54dcdf318","infreq","","","img/blue_2bandit_a2.png","68","","68","test","1","","3","","","","square","circle","3","3","1","1","","","","","","","",""
"null","125987","SARL_v6","SARL_v617ka98rs","60fd6618f9a377f54dcdf318","infreq_resp","","","img/blue_2bandit_a.png","68","img/blue_2bandit_a.png","68","test","","","","","","","","","","","1","","","","","","","","",""
"null","126152","SARL_v6","SARL_v617ka98rs","60fd6618f9a377f54dcdf318","fixation","","","img/fixation.png","null","","","test","","","","","","","","","","","","","","","","","","","",""
"431.10000014305115","126588","SARL_v6","SARL_v617ka98rs","60fd6618f9a377f54dcdf318","freq","","","img/orange_2bandit_a2.png","70","","70","test","1","","4","","","","square","circle","4","4","1","1","","","","","","","",""
"null","126972","SARL_v6","SARL_v617ka98rs","60fd6618f9a377f54dcdf318","freq_resp","","","img/orange_2bandit_a.png","70","img/orange_2bandit_a.png","70","test","","","","","","","","","","","1","","","","","","","","",""
"null","127126","SARL_v6","SARL_v617ka98rs","60fd6618f9a377f54dcdf318","fixation","","","img/fixation.png","null","","","test","","","","","","","","","","","","","","","","","","","",""
"365.40000009536743","127497","SARL_v6","SARL_v617ka98rs","60fd6618f9a377f54dcdf318","freq","","","img/orange_2bandit_a2.png","70","","70","test","1","","5","","","","square","circle","5","5","1","1","","","","","","","",""
"null","127942","SARL_v6","SARL_v617ka98rs","60fd6618f9a377f54dcdf318","freq_resp","","","img/orange_2bandit_a.png","70","img/orange_2bandit_a.png","70","test","","","","","","","","","","","1","","","","","","","","",""
"null","128111","SARL_v6","SARL_v617ka98rs","60fd6618f9a377f54dcdf318","fixation","","","img/fixation.png","null","","","test","","","","","","","","","","","","","","","","","","","",""
"431.2000000476837","128550","SARL_v6","SARL_v617ka98rs","60fd6618f9a377f54dcdf318","freq","","","img/orange_2bandit_a2.png","70","","70","test","1","","6","","","","square","circle","6","6","1","1","","","","","","","",""
"null","128931","SARL_v6","SARL_v617ka98rs","60fd6618f9a377f54dcdf318","freq_resp","","","img/orange_2bandit_a.png","70","img/orange_2bandit_a.png","70","test","","","","","","","","","","","1","","","","","","","","",""
"null","129090","SARL_v6","SARL_v617ka98rs","60fd6618f9a377f54dcdf318","fixation","","","img/fixation.png","null","","","test","","","","","","","","","","","","","","","","","","","",""
"440.80000019073486","129537","SARL_v6","SARL_v617ka98rs","60fd6618f9a377f54dcdf318","freq","","","img/orange_2bandit_a2.png","70","","70","test","1","","7","","","","square","circle","7","7","1","1","","","","","","","",""
"null","129909","SARL_v6","SARL_v617ka98rs","60fd6618f9a377f54dcdf318","freq_resp","","","img/orange_2bandit_a.png","70","img/orange_2bandit_a.png","70","test","","","","","","","","","","","1","","","","","","","","",""
"null","130079","SARL_v6","SARL_v617ka98rs","60fd6618f9a377f54dcdf318","fixation","","","img/fixation.png","null","","","test","","","","","","","","","","","","","","","","","","","",""
"380.59999990463257","130464","SARL_v6","SARL_v617ka98rs","60fd6618f9a377f54dcdf318","freq","","","img/orange_2bandit_a2.png","70","","70","test","1","","8","","","","square","circle","8","8","1","1","","","","","","","",""
"null","130896","SARL_v6","SARL_v617ka98rs","60fd6618f9a377f54dcdf318","freq_resp","","","img/orange_2bandit_a.png","70","img/orange_2bandit_a.png","70","test","","","","","","","","","","","1","","","","","","","","",""
"null","131064","SARL_v6","SARL_v617ka98rs","60fd6618f9a377f54dcdf318","fixation","","","img/fixation.png","null","","","test","","","","","","","","","","","","","","","","","","","",""
"328.7999999523163","131399","SARL_v6","SARL_v617ka98rs","60fd6618f9a377f54dcdf318","freq","","","img/orange_2bandit_a2.png","70","","70","test","1","","9","","","","square","circle","9","9","1","1","","","","","","","",""
"null","131887","SARL_v6","SARL_v617ka98rs","60fd6618f9a377f54dcdf318","freq_resp","","","img/orange_2bandit_a.png","70","img/orange_2bandit_a.png","70","test","","","","","","","","","","","1","","","","","","","","",""
"null","132055","SARL_v6","SARL_v617ka98rs","60fd6618f9a377f54dcdf318","fixation","","","img/fixation.png","null","","","test","","","","","","","","","","","","","","","","","","","",""
"541.7000000476837","132601","SARL_v6","SARL_v617ka98rs","60fd6618f9a377f54dcdf318","infreq","","","img/blue_2bandit_a2.png","68","","68","test","1","","10","","","","square","circle","10","10","1","1","","","","","","","",""
"null","132871","SARL_v6","SARL_v617ka98rs","60fd6618f9a377f54dcdf318","infreq_resp","","","img/blue_2bandit_a.png","68","img/blue_2bandit_a.png","68","test","","","","","","","","","","","1","","","","","","","","",""
"null","133033","SARL_v6","SARL_v617ka98rs","60fd6618f9a377f54dcdf318","fixation","","","img/fixation.png","null","","","test","","","","","","","","","","","","","","","","","","","",""
"402.2999999523163","133439","SARL_v6","SARL_v617ka98rs","60fd6618f9a377f54dcdf318","freq","","","img/orange_2bandit_a2.png","70","","70","test","1","","11","","","","square","circle","11","11","1","1","","","","","","","",""
"null","133850","SARL_v6","SARL_v617ka98rs","60fd6618f9a377f54dcdf318","freq_resp","","","img/orange_2bandit_a.png","70","img/orange_2bandit_a.png","70","test","","","","","","","","","","","1","","","","","","","","",""
"null","134016","SARL_v6","SARL_v617ka98rs","60fd6618f9a377f54dcdf318","fixation","","","img/fixation.png","null","","","test","","","","","","","","","","","","","","","","","","","",""
"635","134656","SARL_v6","SARL_v617ka98rs","60fd6618f9a377f54dcdf318","freq","","","img/orange_2bandit_a2.png","70","","70","test","1","","12","","","","square","circle","12","12","1","1","","","","","","","",""
"null","134833","SARL_v6","SARL_v617ka98rs","60fd6618f9a377f54dcdf318","freq_resp","","","img/orange_2bandit_a.png","70","img/orange_2bandit_a.png","70","test","","","","","","","","","","","1","","","","","","","","",""
"null","134996","SARL_v6","SARL_v617ka98rs","60fd6618f9a377f54dcdf318","fixation","","","img/fixation.png","null","","","test","","","","","","","","","","","","","","","","","","","",""
"422.2000000476837","135424","SARL_v6","SARL_v617ka98rs","60fd6618f9a377f54dcdf318","freq","","","img/orange_2bandit_a2.png","70","","70","test","1","","13","","","","square","circle","13","13","1","1","","","","","","","",""
"null","135814","SARL_v6","SARL_v617ka98rs","60fd6618f9a377f54dcdf318","freq_resp","","","img/orange_2bandit_a.png","70","img/orange_2bandit_a.png","70","test","","","","","","","","","","","1","","","","","","","","",""
"null","135979","SARL_v6","SARL_v617ka98rs","60fd6618f9a377f54dcdf318","fixation","","","img/fixation.png","null","","","test","","","","","","","","","","","","","","","","","","","",""
"498.59999990463257","136480","SARL_v6","SARL_v617ka98rs","60fd6618f9a377f54dcdf318","infreq","","","img/blue_2bandit_a2.png","68","","68","test","1","","14","","","","square","circle","14","14","1","1","","","","","","","",""
"null","136799","SARL_v6","SARL_v617ka98rs","60fd6618f9a377f54dcdf318","infreq_resp","","","img/blue_2bandit_a.png","68","img/blue_2bandit_a.png","68","test","","","","","","","","","","","1","","","","","","","","",""
"null","136968","SARL_v6","SARL_v617ka98rs","60fd6618f9a377f54dcdf318","fixation","","","img/fixation.png","null","","","test","","","","","","","","","","","","","","","","","","","",""
"386.7000000476837","137358","SARL_v6","SARL_v617ka98rs","60fd6618f9a377f54dcdf318","freq","","","img/orange_2bandit_a2.png","70","","70","test","1","","15","","","","square","circle","15","15","1","1","","","","","","","",""
"null","137792","SARL_v6","SARL_v617ka98rs","60fd6618f9a377f54dcdf318","freq_resp","","","img/orange_2bandit_a.png","70","img/orange_2bandit_a.png","70","test","","","","","","","","","","","1","","","","","","","","",""
"null","137959","SARL_v6","SARL_v617ka98rs","60fd6618f9a377f54dcdf318","fixation","","","img/fixation.png","null","","","test","","","","","","","","","","","","","","","","","","","",""
"336.10000014305115","138298","SARL_v6","SARL_v617ka98rs","60fd6618f9a377f54dcdf318","freq","","","img/orange_2bandit_a2.png","70","","70","test","1","","16","","","","square","circle","16","16","1","1","","","","","","","",""
"null","138772","SARL_v6","SARL_v617ka98rs","60fd6618f9a377f54dcdf318","freq_resp","","","img/orange_2bandit_a.png","70","img/orange_2bandit_a.png","70","test","","","","","","","","","","","1","","","","","","","","",""
"null","138931","SARL_v6","SARL_v617ka98rs","60fd6618f9a377f54dcdf318","fixation","","","img/fixation.png","null","","","test","","","","","","","","","","","","","","","","","","","",""
"339","139275","SARL_v6","SARL_v617ka98rs","60fd6618f9a377f54dcdf318","freq","","","img/orange_2bandit_a2.png","70","","70","test","1","","17","","","","square","circle","17","17","1","1","","","","","","","",""
"null","139747","SARL_v6","SARL_v617ka98rs","60fd6618f9a377f54dcdf318","freq_resp","","","img/orange_2bandit_a.png","70","img/orange_2bandit_a.png","70","test","","","","","","","","","","","1","","","","","","","","",""
"null","139911","SARL_v6","SARL_v617ka98rs","60fd6618f9a377f54dcdf318","fixation","","","img/fixation.png","null","","","test","","","","","","","","","","","","","","","","","","","",""
"317.40000009536743","140236","SARL_v6","SARL_v617ka98rs","60fd6618f9a377f54dcdf318","freq","","","img/orange_2bandit_a2.png","70","","70","test","1","","18","","","","square","circle","18","18","1","1","","","","","","","",""
"null","140731","SARL_v6","SARL_v617ka98rs","60fd6618f9a377f54dcdf318","freq_resp","","","img/orange_2bandit_a.png","70","img/orange_2bandit_a.png","70","test","","","","","","","","","","","1","","","","","","","","",""
"null","140896","SARL_v6","SARL_v617ka98rs","60fd6618f9a377f54dcdf318","fixation","","","img/fixation.png","null","","","test","","","","","","","","","","","","","","","","","","","",""
"303.59999990463257","141208","SARL_v6","SARL_v617ka98rs","60fd6618f9a377f54dcdf318","freq","","","img/orange_2bandit_a2.png","70","","70","test","1","","19","","","","square","circle","19","19","1","1","","","","","","","",""
"null","141720","SARL_v6","SARL_v617ka98rs","60fd6618f9a377f54dcdf318","freq_resp","","","img/orange_2bandit_a.png","70","img/orange_2bandit_a.png","70","test","","","","","","","","","","","1","","","","","","","","",""
"null","141886","SARL_v6","SARL_v617ka98rs","60fd6618f9a377f54dcdf318","fixation","","","img/fixation.png","null","","","test","","","","","","","","","","","","","","","","","","","",""
"337","142230","SARL_v6","SARL_v617ka98rs","60fd6618f9a377f54dcdf318","freq","","","img/orange_2bandit_a2.png","70","","70","test","1","","20","","","","square","circle","20","20","1","1","","","","","","","",""
"null","142708","SARL_v6","SARL_v617ka98rs","60fd6618f9a377f54dcdf318","freq_resp","","","img/orange_2bandit_a.png","70","img/orange_2bandit_a.png","70","test","","","","","","","","","","","1","","","","","","","","",""
"null","142879","SARL_v6","SARL_v617ka98rs","60fd6618f9a377f54dcdf318","fixation","","","img/fixation.png","null","","","test","","","","","","","","","","","","","","","","","","","",""
"337.7999999523163","143220","SARL_v6","SARL_v617ka98rs","60fd6618f9a377f54dcdf318","freq","","","img/orange_2bandit_a2.png","70","","70","test","1","","21","","","","square","circle","21","21","1","1","","","","","","","",""
"null","143695","SARL_v6","SARL_v617ka98rs","60fd6618f9a377f54dcdf318","freq_resp","","","img/orange_2bandit_a.png","70","img/orange_2bandit_a.png","70","test","","","","","","","","","","","1","","","","","","","","",""
"null","143863","SARL_v6","SARL_v617ka98rs","60fd6618f9a377f54dcdf318","fixation","","","img/fixation.png","null","","","test","","","","","","","","","","","","","","","","","","","",""
"435.7000000476837","144305","SARL_v6","SARL_v617ka98rs","60fd6618f9a377f54dcdf318","freq","","","img/orange_2bandit_a2.png","70","","70","test","1","","22","","","","square","circle","22","22","1","1","","","","","","","",""
"null","144685","SARL_v6","SARL_v617ka98rs","60fd6618f9a377f54dcdf318","freq_resp","","","img/orange_2bandit_a.png","70","img/orange_2bandit_a.png","70","test","","","","","","","","","","","1","","","","","","","","",""
"null","144854","SARL_v6","SARL_v617ka98rs","60fd6618f9a377f54dcdf318","fixation","","","img/fixation.png","null","","","test","","","","","","","","","","","","","","","","","","","",""
"621.7999999523163","145482","SARL_v6","SARL_v617ka98rs","60fd6618f9a377f54dcdf318","freq","","","img/orange_2bandit_a2.png","70","","70","test","1","","23","","","","square","circle","23","23","1","1","","","","","","","",""
"null","145679","SARL_v6","SARL_v617ka98rs","60fd6618f9a377f54dcdf318","freq_resp","","","img/orange_2bandit_a.png","70","img/orange_2bandit_a.png","70","test","","","","","","","","","","","1","","","","","","","","",""
"null","145847","SARL_v6","SARL_v617ka98rs","60fd6618f9a377f54dcdf318","fixation","","","img/fixation.png","null","","","test","","","","","","","","","","","","","","","","","","","",""
"822.2000000476837","146675","SARL_v6","SARL_v617ka98rs","60fd6618f9a377f54dcdf318","rl","","","img/black_2bandit_a2.png","75","","0","test","","","24","","","-3","square","circle","","0","1","","75","-3","-3","-3","-3","circle","1","0"
"null","147439","SARL_v6","SARL_v617ka98rs","60fd6618f9a377f54dcdf318","feedback","","","<div class=""verylowPoints""> -3 </div>","null","","na","test","","","NaN","","","","","","","","1","","75","","","","","","1",""
"581.6000001430511","148027","SARL_v6","SARL_v617ka98rs","60fd6618f9a377f54dcdf318","freq","","","img/orange_2bandit_a2.png","70","","70","test","1","","25","","","","square","circle","24","1","2","1","","","","","","","",""
"null","148260","SARL_v6","SARL_v617ka98rs","60fd6618f9a377f54dcdf318","freq_resp","","","img/orange_2bandit_a.png","70","img/orange_2bandit_a.png","70","test","","","","","","","","","","","2","","","","","","","","",""
"null","148423","SARL_v6","SARL_v617ka98rs","60fd6618f9a377f54dcdf318","fixation","","","img/fixation.png","null","","","test","","","","","","","","","","","","","","","","","","","",""
"495.5","148923","SARL_v6","SARL_v617ka98rs","60fd6618f9a377f54dcdf318","freq","","","img/orange_2bandit_a2.png","70","","70","test","1","","26","","","","square","circle","25","2","2","1","","","","","","","",""
"null","149244","SARL_v6","SARL_v617ka98rs","60fd6618f9a377f54dcdf318","freq_resp","","","img/orange_2bandit_a.png","70","img/orange_2bandit_a.png","70","test","","","","","","","","","","","2","","","","","","","","",""
"null","149413","SARL_v6","SARL_v617ka98rs","60fd6618f9a377f54dcdf318","fixation","","","img/fixation.png","null","","","test","","","","","","","","","","","","","","","","","","","",""
"451.5","149871","SARL_v6","SARL_v617ka98rs","60fd6618f9a377f54dcdf318","infreq","","","img/blue_2bandit_a2.png","68","","68","test","1","","27","","","","square","circle","26","3","2","1","","","","","","","",""
"null","150239","SARL_v6","SARL_v617ka98rs","60fd6618f9a377f54dcdf318","infreq_resp","","","img/blue_2bandit_a.png","68","img/blue_2bandit_a.png","68","test","","","","","","","","","","","2","","","","","","","","",""
"null","150406","SARL_v6","SARL_v617ka98rs","60fd6618f9a377f54dcdf318","fixation","","","img/fixation.png","null","","","test","","","","","","","","","","","","","","","","","","","",""
"393.89999985694885","150806","SARL_v6","SARL_v617ka98rs","60fd6618f9a377f54dcdf318","freq","","","img/orange_2bandit_a2.png","70","","70","test","1","","28","","","","square","circle","27","4","2","1","","","","","","","",""
"null","151231","SARL_v6","SARL_v617ka98rs","60fd6618f9a377f54dcdf318","freq_resp","","","img/orange_2bandit_a.png","70","img/orange_2bandit_a.png","70","test","","","","","","","","","","","2","","","","","","","","",""
"null","151397","SARL_v6","SARL_v617ka98rs","60fd6618f9a377f54dcdf318","fixation","","","img/fixation.png","null","","","test","","","","","","","","","","","","","","","","","","","",""
"389.7000000476837","151794","SARL_v6","SARL_v617ka98rs","60fd6618f9a377f54dcdf318","freq","","","img/orange_2bandit_a2.png","70","","70","test","1","","29","","","","square","circle","28","5","2","1","","","","","","","",""
"null","152219","SARL_v6","SARL_v617ka98rs","60fd6618f9a377f54dcdf318","freq_resp","","","img/orange_2bandit_a.png","70","img/orange_2bandit_a.png","70","test","","","","","","","","","","","2","","","","","","","","",""
"null","152382","SARL_v6","SARL_v617ka98rs","60fd6618f9a377f54dcdf318","fixation","","","img/fixation.png","null","","","test","","","","","","","","","","","","","","","","","","","",""
"380.2999999523163","152769","SARL_v6","SARL_v617ka98rs","60fd6618f9a377f54dcdf318","freq","","","img/orange_2bandit_a2.png","70","","70","test","1","","30","","","","square","circle","29","6","2","1","","","","","","","",""
"null","153204","SARL_v6","SARL_v617ka98rs","60fd6618f9a377f54dcdf318","freq_resp","","","img/orange_2bandit_a.png","70","img/orange_2bandit_a.png","70","test","","","","","","","","","","","2","","","","","","","","",""
"null","153364","SARL_v6","SARL_v617ka98rs","60fd6618f9a377f54dcdf318","fixation","","","img/fixation.png","null","","","test","","","","","","","","","","","","","","","","","","","",""
"387","153756","SARL_v6","SARL_v617ka98rs","60fd6618f9a377f54dcdf318","freq","","","img/orange_2bandit_a2.png","70","","70","test","1","","31","","","","square","circle","30","7","2","1","","","","","","","",""
"null","154179","SARL_v6","SARL_v617ka98rs","60fd6618f9a377f54dcdf318","freq_resp","","","img/orange_2bandit_a.png","70","img/orange_2bandit_a.png","70","test","","","","","","","","","","","2","","","","","","","","",""
"null","154342","SARL_v6","SARL_v617ka98rs","60fd6618f9a377f54dcdf318","fixation","","","img/fixation.png","null","","","test","","","","","","","","","","","","","","","","","","","",""
"373.5","154720","SARL_v6","SARL_v617ka98rs","60fd6618f9a377f54dcdf318","freq","","","img/orange_2bandit_a2.png","70","","70","test","1","","32","","","","square","circle","31","8","2","1","","","","","","","",""
"null","155155","SARL_v6","SARL_v617ka98rs","60fd6618f9a377f54dcdf318","freq_resp","","","img/orange_2bandit_a.png","70","img/orange_2bandit_a.png","70","test","","","","","","","","","","","2","","","","","","","","",""
"null","155319","SARL_v6","SARL_v617ka98rs","60fd6618f9a377f54dcdf318","fixation","","","img/fixation.png","null","","","test","","","","","","","","","","","","","","","","","","","",""
"328.7000000476837","155654","SARL_v6","SARL_v617ka98rs","60fd6618f9a377f54dcdf318","freq","","","img/orange_2bandit_a2.png","70","","70","test","1","","33","","","","square","circle","32","9","2","1","","","","","","","",""
"null","156139","SARL_v6","SARL_v617ka98rs","60fd6618f9a377f54dcdf318","freq_resp","","","img/orange_2bandit_a.png","70","img/orange_2bandit_a.png","70","test","","","","","","","","","","","2","","","","","","","","",""
"null","156302","SARL_v6","SARL_v617ka98rs","60fd6618f9a377f54dcdf318","fixation","","","img/fixation.png","null","","","test","","","","","","","","","","","","","","","","","","","",""
"317.69999980926514","156623","SARL_v6","SARL_v617ka98rs","60fd6618f9a377f54dcdf318","freq","","","img/orange_2bandit_a2.png","70","","70","test","1","","34","","","","square","circle","33","10","2","1","","","","","","","",""
"null","157119","SARL_v6","SARL_v617ka98rs","60fd6618f9a377f54dcdf318","freq_resp","","","img/orange_2bandit_a.png","70","img/orange_2bandit_a.png","70","test","","","","","","","","","","","2","","","","","","","","",""
"null","157285","SARL_v6","SARL_v617ka98rs","60fd6618f9a377f54dcdf318","fixation","","","img/fixation.png","null","","","test","","","","","","","","","","","","","","","","","","","",""
"319.5","157611","SARL_v6","SARL_v617ka98rs","60fd6618f9a377f54dcdf318","freq","","","img/orange_2bandit_a2.png","70","","70","test","1","","35","","","","square","circle","34","11","2","1","","","","","","","",""
"null","158109","SARL_v6","SARL_v617ka98rs","60fd6618f9a377f54dcdf318","freq_resp","","","img/orange_2bandit_a.png","70","img/orange_2bandit_a.png","70","test","","","","","","","","","","","2","","","","","","","","",""
"null","158278","SARL_v6","SARL_v617ka98rs","60fd6618f9a377f54dcdf318","fixation","","","img/fixation.png","null","","","test","","","","","","","","","","","","","","","","","","","",""
"275","158556","SARL_v6","SARL_v617ka98rs","60fd6618f9a377f54dcdf318","freq","","","img/orange_2bandit_a2.png","70","","70","test","1","","36","","","","square","circle","35","12","2","1","","","","","","","",""
"null","159092","SARL_v6","SARL_v617ka98rs","60fd6618f9a377f54dcdf318","freq_resp","","","img/orange_2bandit_a.png","70","img/orange_2bandit_a.png","70","test","","","","","","","","","","","2","","","","","","","","",""
"null","159263","SARL_v6","SARL_v617ka98rs","60fd6618f9a377f54dcdf318","fixation","","","img/fixation.png","null","","","test","","","","","","","","","","","","","","","","","","","",""
"249.09999990463257","159518","SARL_v6","SARL_v617ka98rs","60fd6618f9a377f54dcdf318","freq","","","img/orange_2bandit_a2.png","70","","70","test","1","","37","","","","square","circle","36","13","2","1","","","","","","","",""
"null","160085","SARL_v6","SARL_v617ka98rs","60fd6618f9a377f54dcdf318","freq_resp","","","img/orange_2bandit_a.png","70","img/orange_2bandit_a.png","70","test","","","","","","","","","","","2","","","","","","","","",""
"null","160251","SARL_v6","SARL_v617ka98rs","60fd6618f9a377f54dcdf318","fixation","","","img/fixation.png","null","","","test","","","","","","","","","","","","","","","","","","","",""
"212.5","160467","SARL_v6","SARL_v617ka98rs","60fd6618f9a377f54dcdf318","freq","","","img/orange_2bandit_a2.png","70","","70","test","1","","38","","","","square","circle","37","14","2","1","","","","","","","",""
"null","161070","SARL_v6","SARL_v617ka98rs","60fd6618f9a377f54dcdf318","freq_resp","","","img/orange_2bandit_a.png","70","img/orange_2bandit_a.png","70","test","","","","","","","","","","","2","","","","","","","","",""
"null","161237","SARL_v6","SARL_v617ka98rs","60fd6618f9a377f54dcdf318","fixation","","","img/fixation.png","null","","","test","","","","","","","","","","","","","","","","","","","",""
"258.09999990463257","161500","SARL_v6","SARL_v617ka98rs","60fd6618f9a377f54dcdf318","freq","","","img/orange_2bandit_a2.png","70","","70","test","1","","39","","","","square","circle","38","15","2","1","","","","","","","",""
"null","162054","SARL_v6","SARL_v617ka98rs","60fd6618f9a377f54dcdf318","freq_resp","","","img/orange_2bandit_a.png","70","img/orange_2bandit_a.png","70","test","","","","","","","","","","","2","","","","","","","","",""
"null","162221","SARL_v6","SARL_v617ka98rs","60fd6618f9a377f54dcdf318","fixation","","","img/fixation.png","null","","","test","","","","","","","","","","","","","","","","","","","",""
"281.5","162507","SARL_v6","SARL_v617ka98rs","60fd6618f9a377f54dcdf318","freq","","","img/orange_2bandit_a2.png","70","","70","test","1","","40","","","","square","circle","39","16","2","1","","","","","","","",""
"null","163037","SARL_v6","SARL_v617ka98rs","60fd6618f9a377f54dcdf318","freq_resp","","","img/orange_2bandit_a.png","70","img/orange_2bandit_a.png","70","test","","","","","","","","","","","2","","","","","","","","",""
"null","163206","SARL_v6","SARL_v617ka98rs","60fd6618f9a377f54dcdf318","fixation","","","img/fixation.png","null","","","test","","","","","","","","","","","","","","","","","","","",""
"292.5","163505","SARL_v6","SARL_v617ka98rs","60fd6618f9a377f54dcdf318","freq","","","img/orange_2bandit_a2.png","70","","70","test","1","","41","","","","square","circle","40","17","2","1","","","","","","","",""
"null","164029","SARL_v6","SARL_v617ka98rs","60fd6618f9a377f54dcdf318","freq_resp","","","img/orange_2bandit_a.png","70","img/orange_2bandit_a.png","70","test","","","","","","","","","","","2","","","","","","","","",""
"null","164198","SARL_v6","SARL_v617ka98rs","60fd6618f9a377f54dcdf318","fixation","","","img/fixation.png","null","","","test","","","","","","","","","","","","","","","","","","","",""
"293.7000000476837","164499","SARL_v6","SARL_v617ka98rs","60fd6618f9a377f54dcdf318","freq","","","img/orange_2bandit_a2.png","70","","70","test","1","","42","","","","square","circle","41","18","2","1","","","","","","","",""
"null","165022","SARL_v6","SARL_v617ka98rs","60fd6618f9a377f54dcdf318","freq_resp","","","img/orange_2bandit_a.png","70","img/orange_2bandit_a.png","70","test","","","","","","","","","","","2","","","","","","","","",""
"null","165190","SARL_v6","SARL_v617ka98rs","60fd6618f9a377f54dcdf318","fixation","","","img/fixation.png","null","","","test","","","","","","","","","","","","","","","","","","","",""
"243.69999980926514","165436","SARL_v6","SARL_v617ka98rs","60fd6618f9a377f54dcdf318","infreq","","","img/blue_2bandit_a2.png","70","","68","test","0","","43","","","","square","circle","42","19","2","0.9761904761904762","","","","","","","",""
"null","166007","SARL_v6","SARL_v617ka98rs","60fd6618f9a377f54dcdf318","infreq_resp","","","img/blue_2bandit_a.png","70","img/blue_2bandit_a.png","68","test","","","","","","","","","","","2","","","","","","","","",""
"null","166172","SARL_v6","SARL_v617ka98rs","60fd6618f9a377f54dcdf318","fixation","","","img/fixation.png","null","","","test","","","","","","","","","","","","","","","","","","","",""
"474.59999990463257","166652","SARL_v6","SARL_v617ka98rs","60fd6618f9a377f54dcdf318","freq","","","img/orange_2bandit_a2.png","70","","70","test","1","","44","","","","square","circle","43","20","2","0.9767441860465116","","","","","","","",""
"null","166989","SARL_v6","SARL_v617ka98rs","60fd6618f9a377f54dcdf318","freq_resp","","","img/orange_2bandit_a.png","70","img/orange_2bandit_a.png","70","test","","","","","","","","","","","2","","","","","","","","",""
"null","167154","SARL_v6","SARL_v617ka98rs","60fd6618f9a377f54dcdf318","fixation","","","img/fixation.png","null","","","test","","","","","","","","","","","","","","","","","","","",""
"546.1999998092651","167706","SARL_v6","SARL_v617ka98rs","60fd6618f9a377f54dcdf318","rl","","","img/black_2bandit_a2.png","75","","0","test","","","45","","","-8","square","circle","","0","2","","75","-8","-5","-5","-8","circle","2","0"
"null","168471","SARL_v6","SARL_v617ka98rs","60fd6618f9a377f54dcdf318","feedback","","","<div class=""verylowPoints""> -8 </div>","null","","na","test","","","NaN","","","","","","","","2","","75","","","","","","2",""
"null","169286","SARL_v6","SARL_v617ka98rs","60fd6618f9a377f54dcdf318","freq","","","img/orange_2bandit_a2.png","null","","70","test","0","","46","","","","square","circle","44","1","3","0.9545454545454546","","","","","","","",""
"null","169453","SARL_v6","SARL_v617ka98rs","60fd6618f9a377f54dcdf318","fixation","","","img/fixation.png","null","","","test","","","","","","","","","","","","","","","","","","","",""
"478","169936","SARL_v6","SARL_v617ka98rs","60fd6618f9a377f54dcdf318","freq","","","img/orange_2bandit_a2.png","70","","70","test","1","","47","","","","square","circle","45","2","3","0.9555555555555556","","","","","","","",""
"null","170268","SARL_v6","SARL_v617ka98rs","60fd6618f9a377f54dcdf318","freq_resp","","","img/orange_2bandit_a.png","70","img/orange_2bandit_a.png","70","test","","","","","","","","","","","3","","","","","","","","",""
"null","170439","SARL_v6","SARL_v617ka98rs","60fd6618f9a377f54dcdf318","fixation","","","img/fixation.png","null","","","test","","","","","","","","","","","","","","","","","","","",""
"465.2999999523163","170911","SARL_v6","SARL_v617ka98rs","60fd6618f9a377f54dcdf318","freq","","","img/orange_2bandit_a2.png","70","","70","test","1","","48","","","","square","circle","46","3","3","0.9565217391304348","","","","","","","",""
"null","171259","SARL_v6","SARL_v617ka98rs","60fd6618f9a377f54dcdf318","freq_resp","","","img/orange_2bandit_a.png","70","img/orange_2bandit_a.png","70","test","","","","","","","","","","","3","","","","","","","","",""
"null","171420","SARL_v6","SARL_v617ka98rs","60fd6618f9a377f54dcdf318","fixation","","","img/fixation.png","null","","","test","","","","","","","","","","","","","","","","","","","",""
"null","172236","SARL_v6","SARL_v617ka98rs","60fd6618f9a377f54dcdf318","infreq","","","img/blue_2bandit_a2.png","null","","68","test","0","","49","","","","square","circle","47","4","3","0.9361702127659575","","","","","","","",""
"null","172406","SARL_v6","SARL_v617ka98rs","60fd6618f9a377f54dcdf318","fixation","","","img/fixation.png","null","","","test","","","","","","","","","","","","","","","","","","","",""
"568.5","172980","SARL_v6","SARL_v617ka98rs","60fd6618f9a377f54dcdf318","freq","","","img/orange_2bandit_a2.png","70","","70","test","1","","50","","","","square","circle","48","5","3","0.9375","","","","","","","",""
"null","173231","SARL_v6","SARL_v617ka98rs","60fd6618f9a377f54dcdf318","freq_resp","","","img/orange_2bandit_a.png","70","img/orange_2bandit_a.png","70","test","","","","","","","","","","","3","","","","","","","","",""
"null","173398","SARL_v6","SARL_v617ka98rs","60fd6618f9a377f54dcdf318","fixation","","","img/fixation.png","null","","","test","","","","","","","","","","","","","","","","","","","",""
"426.10000014305115","173831","SARL_v6","SARL_v617ka98rs","60fd6618f9a377f54dcdf318","freq","","","img/orange_2bandit_a2.png","70","","70","test","1","","51","","","","square","circle","49","6","3","0.9387755102040817","","","","","","","",""
"null","174218","SARL_v6","SARL_v617ka98rs","60fd6618f9a377f54dcdf318","freq_resp","","","img/orange_2bandit_a.png","70","img/orange_2bandit_a.png","70","test","","","","","","","","","","","3","","","","","","","","",""
"null","174380","SARL_v6","SARL_v617ka98rs","60fd6618f9a377f54dcdf318","fixation","","","img/fixation.png","null","","","test","","","","","","","","","","","","","","","","","","","",""
"372.2999999523163","174759","SARL_v6","SARL_v617ka98rs","60fd6618f9a377f54dcdf318","freq","","","img/orange_2bandit_a2.png","70","","70","test","1","","52","","","","square","circle","50","7","3","0.94","","","","","","","",""
"null","175198","SARL_v6","SARL_v617ka98rs","60fd6618f9a377f54dcdf318","freq_resp","","","img/orange_2bandit_a.png","70","img/orange_2bandit_a.png","70","test","","","","","","","","","","","3","","","","","","","","",""
"null","175363","SARL_v6","SARL_v617ka98rs","60fd6618f9a377f54dcdf318","fixation","","","img/fixation.png","null","","","test","","","","","","","","","","","","","","","","","","","",""
"324.2000000476837","175693","SARL_v6","SARL_v617ka98rs","60fd6618f9a377f54dcdf318","freq","","","img/orange_2bandit_a2.png","70","","70","test","1","","53","","","","square","circle","51","8","3","0.9411764705882353","","","","","","","",""
"null","176179","SARL_v6","SARL_v617ka98rs","60fd6618f9a377f54dcdf318","freq_resp","","","img/orange_2bandit_a.png","70","img/orange_2bandit_a.png","70","test","","","","","","","","","","","3","","","","","","","","",""
"null","176338","SARL_v6","SARL_v617ka98rs","60fd6618f9a377f54dcdf318","fixation","","","img/fixation.png","null","","","test","","","","","","","","","","","","","","","","","","","",""
"302.7000000476837","176647","SARL_v6","SARL_v617ka98rs","60fd6618f9a377f54dcdf318","freq","","","img/orange_2bandit_a2.png","70","","70","test","1","","54","","","","square","circle","52","9","3","0.9423076923076923","","","","","","","",""
"null","177158","SARL_v6","SARL_v617ka98rs","60fd6618f9a377f54dcdf318","freq_resp","","","img/orange_2bandit_a.png","70","img/orange_2bandit_a.png","70","test","","","","","","","","","","","3","","","","","","","","",""
"null","177322","SARL_v6","SARL_v617ka98rs","60fd6618f9a377f54dcdf318","fixation","","","img/fixation.png","null","","","test","","","","","","","","","","","","","","","","","","","",""
"352.5","177681","SARL_v6","SARL_v617ka98rs","60fd6618f9a377f54dcdf318","freq","","","img/orange_2bandit_a2.png","70","","70","test","1","","55","","","","square","circle","53","10","3","0.9433962264150944","","","","","","","",""
"null","178140","SARL_v6","SARL_v617ka98rs","60fd6618f9a377f54dcdf318","freq_resp","","","img/orange_2bandit_a.png","70","img/orange_2bandit_a.png","70","test","","","","","","","","","","","3","","","","","","","","",""
"null","178303","SARL_v6","SARL_v617ka98rs","60fd6618f9a377f54dcdf318","fixation","","","img/fixation.png","null","","","test","","","","","","","","","","","","","","","","","","","",""
"302","178611","SARL_v6","SARL_v617ka98rs","60fd6618f9a377f54dcdf318","freq","","","img/orange_2bandit_a2.png","70","","70","test","1","","56","","","","square","circle","54","11","3","0.9444444444444444","","","","","","","",""
"null","179119","SARL_v6","SARL_v617ka98rs","60fd6618f9a377f54dcdf318","freq_resp","","","img/orange_2bandit_a.png","70","img/orange_2bandit_a.png","70","test","","","","","","","","","","","3","","","","","","","","",""
"null","179285","SARL_v6","SARL_v617ka98rs","60fd6618f9a377f54dcdf318","fixation","","","img/fixation.png","null","","","test","","","","","","","","","","","","","","","","","","","",""
"321.7000000476837","179613","SARL_v6","SARL_v617ka98rs","60fd6618f9a377f54dcdf318","freq","","","img/orange_2bandit_a2.png","70","","70","test","1","","57","","","","square","circle","55","12","3","0.9454545454545454","","","","","","","",""
"null","180111","SARL_v6","SARL_v617ka98rs","60fd6618f9a377f54dcdf318","freq_resp","","","img/orange_2bandit_a.png","70","img/orange_2bandit_a.png","70","test","","","","","","","","","","","3","","","","","","","","",""
"null","180278","SARL_v6","SARL_v617ka98rs","60fd6618f9a377f54dcdf318","fixation","","","img/fixation.png","null","","","test","","","","","","","","","","","","","","","","","","","",""
"306.5","180589","SARL_v6","SARL_v617ka98rs","60fd6618f9a377f54dcdf318","freq","","","img/orange_2bandit_a2.png","70","","70","test","1","","58","","","","square","circle","56","13","3","0.9464285714285714","","","","","","","",""
"null","181102","SARL_v6","SARL_v617ka98rs","60fd6618f9a377f54dcdf318","freq_resp","","","img/orange_2bandit_a.png","70","img/orange_2bandit_a.png","70","test","","","","","","","","","","","3","","","","","","","","",""
"null","181268","SARL_v6","SARL_v617ka98rs","60fd6618f9a377f54dcdf318","fixation","","","img/fixation.png","null","","","test","","","","","","","","","","","","","","","","","","","",""
"322.59999990463257","181594","SARL_v6","SARL_v617ka98rs","60fd6618f9a377f54dcdf318","freq","","","img/orange_2bandit_a2.png","70","","70","test","1","","59","","","","square","circle","57","14","3","0.9473684210526315","","","","","","","",""
"null","182087","SARL_v6","SARL_v617ka98rs","60fd6618f9a377f54dcdf318","freq_resp","","","img/orange_2bandit_a.png","70","img/orange_2bandit_a.png","70","test","","","","","","","","","","","3","","","","","","","","",""
"null","182254","SARL_v6","SARL_v617ka98rs","60fd6618f9a377f54dcdf318","fixation","","","img/fixation.png","null","","","test","","","","","","","","","","","","","","","","","","","",""
"350.60000014305115","182609","SARL_v6","SARL_v617ka98rs","60fd6618f9a377f54dcdf318","freq","","","img/orange_2bandit_a2.png","70","","70","test","1","","60","","","","square","circle","58","15","3","0.9482758620689655","","","","","","","",""
"null","183066","SARL_v6","SARL_v617ka98rs","60fd6618f9a377f54dcdf318","freq_resp","","","img/orange_2bandit_a.png","70","img/orange_2bandit_a.png","70","test","","","","","","","","","","","3","","","","","","","","",""
"null","183230","SARL_v6","SARL_v617ka98rs","60fd6618f9a377f54dcdf318","fixation","","","img/fixation.png","null","","","test","","","","","","","","","","","","","","","","","","","",""
"307.89999985694885","183541","SARL_v6","SARL_v617ka98rs","60fd6618f9a377f54dcdf318","freq","","","img/orange_2bandit_a2.png","70","","70","test","1","","61","","","","square","circle","59","16","3","0.9491525423728814","","","","","","","",""
"null","184047","SARL_v6","SARL_v617ka98rs","60fd6618f9a377f54dcdf318","freq_resp","","","img/orange_2bandit_a.png","70","img/orange_2bandit_a.png","70","test","","","","","","","","","","","3","","","","","","","","",""
"null","184215","SARL_v6","SARL_v617ka98rs","60fd6618f9a377f54dcdf318","fixation","","","img/fixation.png","null","","","test","","","","","","","","","","","","","","","","","","","",""
"305.90000009536743","184528","SARL_v6","SARL_v617ka98rs","60fd6618f9a377f54dcdf318","freq","","","img/orange_2bandit_a2.png","70","","70","test","1","","62","","","","square","circle","60","17","3","0.95","","","","","","","",""
"null","185034","SARL_v6","SARL_v617ka98rs","60fd6618f9a377f54dcdf318","freq_resp","","","img/orange_2bandit_a.png","70","img/orange_2bandit_a.png","70","test","","","","","","","","","","","3","","","","","","","","",""
"null","185198","SARL_v6","SARL_v617ka98rs","60fd6618f9a377f54dcdf318","fixation","","","img/fixation.png","null","","","test","","","","","","","","","","","","","","","","","","","",""
"263","185467","SARL_v6","SARL_v617ka98rs","60fd6618f9a377f54dcdf318","freq","","","img/orange_2bandit_a2.png","70","","70","test","1","","63","","","","square","circle","61","18","3","0.9508196721311475","","","","","","","",""
"null","186023","SARL_v6","SARL_v617ka98rs","60fd6618f9a377f54dcdf318","freq_resp","","","img/orange_2bandit_a.png","70","img/orange_2bandit_a.png","70","test","","","","","","","","","","","3","","","","","","","","",""
"null","186187","SARL_v6","SARL_v617ka98rs","60fd6618f9a377f54dcdf318","fixation","","","img/fixation.png","null","","","test","","","","","","","","","","","","","","","","","","","",""
"303.2000000476837","186496","SARL_v6","SARL_v617ka98rs","60fd6618f9a377f54dcdf318","freq","","","img/orange_2bandit_a2.png","70","","70","test","1","","64","","","","square","circle","62","19","3","0.9516129032258065","","","","","","","",""
"null","187003","SARL_v6","SARL_v617ka98rs","60fd6618f9a377f54dcdf318","freq_resp","","","img/orange_2bandit_a.png","70","img/orange_2bandit_a.png","70","test","","","","","","","","","","","3","","","","","","","","",""
"null","187167","SARL_v6","SARL_v617ka98rs","60fd6618f9a377f54dcdf318","fixation","","","img/fixation.png","null","","","test","","","","","","","","","","","","","","","","","","","",""
"246.90000009536743","187419","SARL_v6","SARL_v617ka98rs","60fd6618f9a377f54dcdf318","freq","","","img/orange_2bandit_a2.png","70","","70","test","1","","65","","","","square","circle","63","20","3","0.9523809523809523","","","","","","","",""
"null","187991","SARL_v6","SARL_v617ka98rs","60fd6618f9a377f54dcdf318","freq_resp","","","img/orange_2bandit_a.png","70","img/orange_2bandit_a.png","70","test","","","","","","","","","","","3","","","","","","","","",""
"null","188157","SARL_v6","SARL_v617ka98rs","60fd6618f9a377f54dcdf318","fixation","","","img/fixation.png","null","","","test","","","","","","","","","","","","","","","","","","","",""
"299.2000000476837","188462","SARL_v6","SARL_v617ka98rs","60fd6618f9a377f54dcdf318","freq","","","img/orange_2bandit_a2.png","70","","70","test","1","","66","","","","square","circle","64","21","3","0.953125","","","","","","","",""
"null","188972","SARL_v6","SARL_v617ka98rs","60fd6618f9a377f54dcdf318","freq_resp","","","img/orange_2bandit_a.png","70","img/orange_2bandit_a.png","70","test","","","","","","","","","","","3","","","","","","","","",""
"null","189136","SARL_v6","SARL_v617ka98rs","60fd6618f9a377f54dcdf318","fixation","","","img/fixation.png","null","","","test","","","","","","","","","","","","","","","","","","","",""
"454.7999999523163","189597","SARL_v6","SARL_v617ka98rs","60fd6618f9a377f54dcdf318","freq","","","img/orange_2bandit_a2.png","70","","70","test","1","","67","","","","square","circle","65","22","3","0.9538461538461539","","","","","","","",""
"null","189957","SARL_v6","SARL_v617ka98rs","60fd6618f9a377f54dcdf318","freq_resp","","","img/orange_2bandit_a.png","70","img/orange_2bandit_a.png","70","test","","","","","","","","","","","3","","","","","","","","",""
"null","190126","SARL_v6","SARL_v617ka98rs","60fd6618f9a377f54dcdf318","fixation","","","img/fixation.png","null","","","test","","","","","","","","","","","","","","","","","","","",""
"null","190940","SARL_v6","SARL_v617ka98rs","60fd6618f9a377f54dcdf318","freq","","","img/orange_2bandit_a2.png","null","","70","test","0","","68","","","","square","circle","66","23","3","0.9393939393939394","","","","","","","",""
"null","191106","SARL_v6","SARL_v617ka98rs","60fd6618f9a377f54dcdf318","fixation","","","img/fixation.png","null","","","test","","","","","","","","","","","","","","","","","","","",""
"567.2000000476837","191679","SARL_v6","SARL_v617ka98rs","60fd6618f9a377f54dcdf318","infreq","","","img/blue_2bandit_a2.png","68","","68","test","1","","69","","","","square","circle","67","24","3","0.9402985074626866","","","","","","","",""
"null","191927","SARL_v6","SARL_v617ka98rs","60fd6618f9a377f54dcdf318","infreq_resp","","","img/blue_2bandit_a.png","68","img/blue_2bandit_a.png","68","test","","","","","","","","","","","3","","","","","","","","",""
"null","192090","SARL_v6","SARL_v617ka98rs","60fd6618f9a377f54dcdf318","fixation","","","img/fixation.png","null","","","test","","","","","","","","","","","","","","","","","","","",""
"670.5","192766","SARL_v6","SARL_v617ka98rs","60fd6618f9a377f54dcdf318","freq","","","img/orange_2bandit_a2.png","70","","70","test","1","","70","","","","square","circle","68","25","3","0.9411764705882353","","","","","","","",""
"null","192905","SARL_v6","SARL_v617ka98rs","60fd6618f9a377f54dcdf318","freq_resp","","","img/orange_2bandit_a.png","70","img/orange_2bandit_a.png","70","test","","","","","","","","","","","3","","","","","","","","",""
"null","193070","SARL_v6","SARL_v617ka98rs","60fd6618f9a377f54dcdf318","fixation","","","img/fixation.png","null","","","test","","","","","","","","","","","","","","","","","","","",""
"559.6000001430511","193635","SARL_v6","SARL_v617ka98rs","60fd6618f9a377f54dcdf318","freq","","","img/orange_2bandit_a2.png","70","","70","test","1","","71","","","","square","circle","69","26","3","0.9420289855072463","","","","","","","",""
"null","193891","SARL_v6","SARL_v617ka98rs","60fd6618f9a377f54dcdf318","freq_resp","","","img/orange_2bandit_a.png","70","img/orange_2bandit_a.png","70","test","","","","","","","","","","","3","","","","","","","","",""
"null","194055","SARL_v6","SARL_v617ka98rs","60fd6618f9a377f54dcdf318","fixation","","","img/fixation.png","null","","","test","","","","","","","","","","","","","","","","","","","",""
"1328.7000000476837","195387","SARL_v6","SARL_v617ka98rs","60fd6618f9a377f54dcdf318","rl","","","img/black_2bandit_a2.png","75","","0","test","","","72","","","-8","square","circle","","0","3","","75","-8","-4","-4","-8","circle","3","0"
"null","196149","SARL_v6","SARL_v617ka98rs","60fd6618f9a377f54dcdf318","feedback","","","<div class=""verylowPoints""> -8 </div>","null","","na","test","","","NaN","","","","","","","","3","","75","","","","","","3",""
"552","196705","SARL_v6","SARL_v617ka98rs","60fd6618f9a377f54dcdf318","freq","","","img/orange_2bandit_a2.png","70","","70","test","1","","73","","","","square","circle","70","1","4","0.9428571428571428","","","","","","","",""
"null","196963","SARL_v6","SARL_v617ka98rs","60fd6618f9a377f54dcdf318","freq_resp","","","img/orange_2bandit_a.png","70","img/orange_2bandit_a.png","70","test","","","","","","","","","","","4","","","","","","","","",""
"null","197126","SARL_v6","SARL_v617ka98rs","60fd6618f9a377f54dcdf318","fixation","","","img/fixation.png","null","","","test","","","","","","","","","","","","","","","","","","","",""
"null","197935","SARL_v6","SARL_v617ka98rs","60fd6618f9a377f54dcdf318","infreq","","","img/blue_2bandit_a2.png","null","","68","test","0","","74","","","","square","circle","71","2","4","0.9295774647887324","","","","","","","",""
"null","198102","SARL_v6","SARL_v617ka98rs","60fd6618f9a377f54dcdf318","fixation","","","img/fixation.png","null","","","test","","","","","","","","","","","","","","","","","","","",""
"141.20000004768372","198246","SARL_v6","SARL_v617ka98rs","60fd6618f9a377f54dcdf318","freq","","","img/orange_2bandit_a2.png","68","","70","test","0","","75","","","","square","circle","72","3","4","0.9166666666666666","","","","","","","",""
"null","198917","SARL_v6","SARL_v617ka98rs","60fd6618f9a377f54dcdf318","freq_resp","","","img/orange_2bandit_a.png","68","img/orange_2bandit_a.png","70","test","","","","","","","","","","","4","","","","","","","","",""
"null","199084","SARL_v6","SARL_v617ka98rs","60fd6618f9a377f54dcdf318","fixation","","","img/fixation.png","null","","","test","","","","","","","","","","","","","","","","","","","",""
"407.59999990463257","199498","SARL_v6","SARL_v617ka98rs","60fd6618f9a377f54dcdf318","freq","","","img/orange_2bandit_a2.png","70","","70","test","1","","76","","","","square","circle","73","4","4","0.9178082191780822","","","","","","","",""
"null","199904","SARL_v6","SARL_v617ka98rs","60fd6618f9a377f54dcdf318","freq_resp","","","img/orange_2bandit_a.png","70","img/orange_2bandit_a.png","70","test","","","","","","","","","","","4","","","","","","","","",""
"null","200065","SARL_v6","SARL_v617ka98rs","60fd6618f9a377f54dcdf318","fixation","","","img/fixation.png","null","","","test","","","","","","","","","","","","","","","","","","","",""
"370.09999990463257","200441","SARL_v6","SARL_v617ka98rs","60fd6618f9a377f54dcdf318","freq","","","img/orange_2bandit_a2.png","70","","70","test","1","","77","","","","square","circle","74","5","4","0.918918918918919","","","","","","","",""
"null","200885","SARL_v6","SARL_v617ka98rs","60fd6618f9a377f54dcdf318","freq_resp","","","img/orange_2bandit_a.png","70","img/orange_2bandit_a.png","70","test","","","","","","","","","","","4","","","","","","","","",""
"null","201050","SARL_v6","SARL_v617ka98rs","60fd6618f9a377f54dcdf318","fixation","","","img/fixation.png","null","","","test","","","","","","","","","","","","","","","","","","","",""
"347.90000009536743","201402","SARL_v6","SARL_v617ka98rs","60fd6618f9a377f54dcdf318","freq","","","img/orange_2bandit_a2.png","70","","70","test","1","","78","","","","square","circle","75","6","4","0.92","","","","","","","",""
"null","201868","SARL_v6","SARL_v617ka98rs","60fd6618f9a377f54dcdf318","freq_resp","","","img/orange_2bandit_a.png","70","img/orange_2bandit_a.png","70","test","","","","","","","","","","","4","","","","","","","","",""
"null","202039","SARL_v6","SARL_v617ka98rs","60fd6618f9a377f54dcdf318","fixation","","","img/fixation.png","null","","","test","","","","","","","","","","","","","","","","","","","",""
"336.5","202378","SARL_v6","SARL_v617ka98rs","60fd6618f9a377f54dcdf318","freq","","","img/orange_2bandit_a2.png","70","","70","test","1","","79","","","","square","circle","76","7","4","0.9210526315789473","","","","","","","",""
"null","202854","SARL_v6","SARL_v617ka98rs","60fd6618f9a377f54dcdf318","freq_resp","","","img/orange_2bandit_a.png","70","img/orange_2bandit_a.png","70","test","","","","","","","","","","","4","","","","","","","","",""
"null","203022","SARL_v6","SARL_v617ka98rs","60fd6618f9a377f54dcdf318","fixation","","","img/fixation.png","null","","","test","","","","","","","","","","","","","","","","","","","",""
"403.30000019073486","203431","SARL_v6","SARL_v617ka98rs","60fd6618f9a377f54dcdf318","freq","","","img/orange_2bandit_a2.png","70","","70","test","1","","80","","","","square","circle","77","8","4","0.922077922077922","","","","","","","",""
"null","203841","SARL_v6","SARL_v617ka98rs","60fd6618f9a377f54dcdf318","freq_resp","","","img/orange_2bandit_a.png","70","img/orange_2bandit_a.png","70","test","","","","","","","","","","","4","","","","","","","","",""
"null","204006","SARL_v6","SARL_v617ka98rs","60fd6618f9a377f54dcdf318","fixation","","","img/fixation.png","null","","","test","","","","","","","","","","","","","","","","","","","",""
"386.7000000476837","204397","SARL_v6","SARL_v617ka98rs","60fd6618f9a377f54dcdf318","freq","","","img/orange_2bandit_a2.png","70","","70","test","1","","81","","","","square","circle","78","9","4","0.9230769230769231","","","","","","","",""
"null","204831","SARL_v6","SARL_v617ka98rs","60fd6618f9a377f54dcdf318","freq_resp","","","img/orange_2bandit_a.png","70","img/orange_2bandit_a.png","70","test","","","","","","","","","","","4","","","","","","","","",""
"null","204996","SARL_v6","SARL_v617ka98rs","60fd6618f9a377f54dcdf318","fixation","","","img/fixation.png","null","","","test","","","","","","","","","","","","","","","","","","","",""
"594.4000000953674","205593","SARL_v6","SARL_v617ka98rs","60fd6618f9a377f54dcdf318","freq","","","img/orange_2bandit_a2.png","70","","70","test","1","","82","","","","square","circle","79","10","4","0.9240506329113924","","","","","","","",""
"null","205812","SARL_v6","SARL_v617ka98rs","60fd6618f9a377f54dcdf318","freq_resp","","","img/orange_2bandit_a.png","70","img/orange_2bandit_a.png","70","test","","","","","","","","","","","4","","","","","","","","",""
"null","205969","SARL_v6","SARL_v617ka98rs","60fd6618f9a377f54dcdf318","fixation","","","img/fixation.png","null","","","test","","","","","","","","","","","","","","","","","","","",""
"635.2000000476837","206608","SARL_v6","SARL_v617ka98rs","60fd6618f9a377f54dcdf318","freq","","","img/orange_2bandit_a2.png","70","","70","test","1","","83","","","","square","circle","80","11","4","0.925","","","","","","","",""
"null","206789","SARL_v6","SARL_v617ka98rs","60fd6618f9a377f54dcdf318","freq_resp","","","img/orange_2bandit_a.png","70","img/orange_2bandit_a.png","70","test","","","","","","","","","","","4","","","","","","","","",""
"null","206954","SARL_v6","SARL_v617ka98rs","60fd6618f9a377f54dcdf318","fixation","","","img/fixation.png","null","","","test","","","","","","","","","","","","","","","","","","","",""
"429.39999985694885","207387","SARL_v6","SARL_v617ka98rs","60fd6618f9a377f54dcdf318","freq","","","img/orange_2bandit_a2.png","70","","70","test","1","","84","","","","square","circle","81","12","4","0.9259259259259259","","","","","","","",""
"null","207773","SARL_v6","SARL_v617ka98rs","60fd6618f9a377f54dcdf318","freq_resp","","","img/orange_2bandit_a.png","70","img/orange_2bandit_a.png","70","test","","","","","","","","","","","4","","","","","","","","",""
"null","207940","SARL_v6","SARL_v617ka98rs","60fd6618f9a377f54dcdf318","fixation","","","img/fixation.png","null","","","test","","","","","","","","","","","","","","","","","","","",""
"387.7000000476837","208335","SARL_v6","SARL_v617ka98rs","60fd6618f9a377f54dcdf318","freq","","","img/orange_2bandit_a2.png","70","","70","test","1","","85","","","","square","circle","82","13","4","0.926829268292683","","","","","","","",""
"null","208766","SARL_v6","SARL_v617ka98rs","60fd6618f9a377f54dcdf318","freq_resp","","","img/orange_2bandit_a.png","70","img/orange_2bandit_a.png","70","test","","","","","","","","","","","4","","","","","","","","",""
"null","208927","SARL_v6","SARL_v617ka98rs","60fd6618f9a377f54dcdf318","fixation","","","img/fixation.png","null","","","test","","","","","","","","","","","","","","","","","","","",""
"531.4000000953674","209465","SARL_v6","SARL_v617ka98rs","60fd6618f9a377f54dcdf318","infreq","","","img/blue_2bandit_a2.png","68","","68","test","1","","86","","","","square","circle","83","14","4","0.927710843373494","","","","","","","",""
"null","209746","SARL_v6","SARL_v617ka98rs","60fd6618f9a377f54dcdf318","infreq_resp","","","img/blue_2bandit_a.png","68","img/blue_2bandit_a.png","68","test","","","","","","","","","","","4","","","","","","","","",""
"null","209907","SARL_v6","SARL_v617ka98rs","60fd6618f9a377f54dcdf318","fixation","","","img/fixation.png","null","","","test","","","","","","","","","","","","","","","","","","","",""
"507","210418","SARL_v6","SARL_v617ka98rs","60fd6618f9a377f54dcdf318","freq","","","img/orange_2bandit_a2.png","70","","70","test","1","","87","","","","square","circle","84","15","4","0.9285714285714286","","","","","","","",""
"null","210723","SARL_v6","SARL_v617ka98rs","60fd6618f9a377f54dcdf318","freq_resp","","","img/orange_2bandit_a.png","70","img/orange_2bandit_a.png","70","test","","","","","","","","","","","4","","","","","","","","",""
"null","210886","SARL_v6","SARL_v617ka98rs","60fd6618f9a377f54dcdf318","fixation","","","img/fixation.png","null","","","test","","","","","","","","","","","","","","","","","","","",""
"377.2000000476837","211271","SARL_v6","SARL_v617ka98rs","60fd6618f9a377f54dcdf318","freq","","","img/orange_2bandit_a2.png","70","","70","test","1","","88","","","","square","circle","85","16","4","0.9294117647058824","","","","","","","",""
"null","211705","SARL_v6","SARL_v617ka98rs","60fd6618f9a377f54dcdf318","freq_resp","","","img/orange_2bandit_a.png","70","img/orange_2bandit_a.png","70","test","","","","","","","","","","","4","","","","","","","","",""
"null","211864","SARL_v6","SARL_v617ka98rs","60fd6618f9a377f54dcdf318","fixation","","","img/fixation.png","null","","","test","","","","","","","","","","","","","","","","","","","",""
"337.2000000476837","212207","SARL_v6","SARL_v617ka98rs","60fd6618f9a377f54dcdf318","freq","","","img/orange_2bandit_a2.png","70","","70","test","1","","89","","","","square","circle","86","17","4","0.9302325581395349","","","","","","","",""
"null","212683","SARL_v6","SARL_v617ka98rs","60fd6618f9a377f54dcdf318","freq_resp","","","img/orange_2bandit_a.png","70","img/orange_2bandit_a.png","70","test","","","","","","","","","","","4","","","","","","","","",""
"null","212846","SARL_v6","SARL_v617ka98rs","60fd6618f9a377f54dcdf318","fixation","","","img/fixation.png","null","","","test","","","","","","","","","","","","","","","","","","","",""
"335.2000000476837","213186","SARL_v6","SARL_v617ka98rs","60fd6618f9a377f54dcdf318","freq","","","img/orange_2bandit_a2.png","70","","70","test","1","","90","","","","square","circle","87","18","4","0.9310344827586207","","","","","","","",""
"null","213670","SARL_v6","SARL_v617ka98rs","60fd6618f9a377f54dcdf318","freq_resp","","","img/orange_2bandit_a.png","70","img/orange_2bandit_a.png","70","test","","","","","","","","","","","4","","","","","","","","",""
"null","213838","SARL_v6","SARL_v617ka98rs","60fd6618f9a377f54dcdf318","fixation","","","img/fixation.png","null","","","test","","","","","","","","","","","","","","","","","","","",""
"400.2999999523163","214244","SARL_v6","SARL_v617ka98rs","60fd6618f9a377f54dcdf318","freq","","","img/orange_2bandit_a2.png","70","","70","test","1","","91","","","","square","circle","88","19","4","0.9318181818181818","","","","","","","",""
"null","214663","SARL_v6","SARL_v617ka98rs","60fd6618f9a377f54dcdf318","freq_resp","","","img/orange_2bandit_a.png","70","img/orange_2bandit_a.png","70","test","","","","","","","","","","","4","","","","","","","","",""
"null","214830","SARL_v6","SARL_v617ka98rs","60fd6618f9a377f54dcdf318","fixation","","","img/fixation.png","null","","","test","","","","","","","","","","","","","","","","","","","",""
"281.5","215117","SARL_v6","SARL_v617ka98rs","60fd6618f9a377f54dcdf318","freq","","","img/orange_2bandit_a2.png","70","","70","test","1","","92","","","","square","circle","89","20","4","0.9325842696629213","","","","","","","",""
"null","215654","SARL_v6","SARL_v617ka98rs","60fd6618f9a377f54dcdf318","freq_resp","","","img/orange_2bandit_a.png","70","img/orange_2bandit_a.png","70","test","","","","","","","","","","","4","","","","","","","","",""
"null","215820","SARL_v6","SARL_v617ka98rs","60fd6618f9a377f54dcdf318","fixation","","","img/fixation.png","null","","","test","","","","","","","","","","","","","","","","","","","",""
"626.2000000476837","216449","SARL_v6","SARL_v617ka98rs","60fd6618f9a377f54dcdf318","rl","","","img/black_2bandit_a2.png","74","","0","test","","","93","","","0","square","circle","","0","4","","74","-12","0","0","-12","square","4","0"
"null","217214","SARL_v6","SARL_v617ka98rs","60fd6618f9a377f54dcdf318","feedback","","","<div class=""verylowPoints_sq""> 0 </div>","null","","na","test","","","NaN","","","","","","","","4","","74","","","","","","4",""
"381.7999999523163","217601","SARL_v6","SARL_v617ka98rs","60fd6618f9a377f54dcdf318","freq","","","img/orange_2bandit_a2.png","70","","70","test","1","","94","","","","square","circle","90","1","5","0.9333333333333333","","","","","","","",""
"null","218038","SARL_v6","SARL_v617ka98rs","60fd6618f9a377f54dcdf318","freq_resp","","","img/orange_2bandit_a.png","70","img/orange_2bandit_a.png","70","test","","","","","","","","","","","5","","","","","","","","",""
"null","218205","SARL_v6","SARL_v617ka98rs","60fd6618f9a377f54dcdf318","fixation","","","img/fixation.png","null","","","test","","","","","","","","","","","","","","","","","","","",""
"294.5","218506","SARL_v6","SARL_v617ka98rs","60fd6618f9a377f54dcdf318","freq","","","img/orange_2bandit_a2.png","70","","70","test","1","","95","","","","square","circle","91","2","5","0.9340659340659341","","","","","","","",""
"null","219029","SARL_v6","SARL_v617ka98rs","60fd6618f9a377f54dcdf318","freq_resp","","","img/orange_2bandit_a.png","70","img/orange_2bandit_a.png","70","test","","","","","","","","","","","5","","","","","","","","",""
"null","219197","SARL_v6","SARL_v617ka98rs","60fd6618f9a377f54dcdf318","fixation","","","img/fixation.png","null","","","test","","","","","","","","","","","","","","","","","","","",""
"310.5","219511","SARL_v6","SARL_v617ka98rs","60fd6618f9a377f54dcdf318","freq","","","img/orange_2bandit_a2.png","70","","70","test","1","","96","","","","square","circle","92","3","5","0.9347826086956522","","","","","","","",""
"null","220005","SARL_v6","SARL_v617ka98rs","60fd6618f9a377f54dcdf318","freq_resp","","","img/orange_2bandit_a.png","70","img/orange_2bandit_a.png","70","test","","","","","","","","","","","5","","","","","","","","",""
"null","220174","SARL_v6","SARL_v617ka98rs","60fd6618f9a377f54dcdf318","fixation","","","img/fixation.png","null","","","test","","","","","","","","","","","","","","","","","","","",""
"327.10000014305115","220507","SARL_v6","SARL_v617ka98rs","60fd6618f9a377f54dcdf318","freq","","","img/orange_2bandit_a2.png","70","","70","test","1","","97","","","","square","circle","93","4","5","0.9354838709677419","","","","","","","",""
"null","220997","SARL_v6","SARL_v617ka98rs","60fd6618f9a377f54dcdf318","freq_resp","","","img/orange_2bandit_a.png","70","img/orange_2bandit_a.png","70","test","","","","","","","","","","","5","","","","","","","","",""
"null","221166","SARL_v6","SARL_v617ka98rs","60fd6618f9a377f54dcdf318","fixation","","","img/fixation.png","null","","","test","","","","","","","","","","","","","","","","","","","",""
"326.7000000476837","221500","SARL_v6","SARL_v617ka98rs","60fd6618f9a377f54dcdf318","freq","","","img/orange_2bandit_a2.png","70","","70","test","1","","98","","","","square","circle","94","5","5","0.9361702127659575","","","","","","","",""
"null","221986","SARL_v6","SARL_v617ka98rs","60fd6618f9a377f54dcdf318","freq_resp","","","img/orange_2bandit_a.png","70","img/orange_2bandit_a.png","70","test","","","","","","","","","","","5","","","","","","","","",""
"null","222145","SARL_v6","SARL_v617ka98rs","60fd6618f9a377f54dcdf318","fixation","","","img/fixation.png","null","","","test","","","","","","","","","","","","","","","","","","","",""
"270.90000009536743","222419","SARL_v6","SARL_v617ka98rs","60fd6618f9a377f54dcdf318","infreq","","","img/blue_2bandit_a2.png","70","","68","test","0","","99","","","","square","circle","95","6","5","0.9263157894736842","","","","","","","",""
"null","222963","SARL_v6","SARL_v617ka98rs","60fd6618f9a377f54dcdf318","infreq_resp","","","img/blue_2bandit_a.png","70","img/blue_2bandit_a.png","68","test","","","","","","","","","","","5","","","","","","","","",""
"null","223126","SARL_v6","SARL_v617ka98rs","60fd6618f9a377f54dcdf318","fixation","","","img/fixation.png","null","","","test","","","","","","","","","","","","","","","","","","","",""
"500.2000000476837","223631","SARL_v6","SARL_v617ka98rs","60fd6618f9a377f54dcdf318","freq","","","img/orange_2bandit_a2.png","70","","70","test","1","","100","","","","square","circle","96","7","5","0.9270833333333334","","","","","","","",""
"null","223946","SARL_v6","SARL_v617ka98rs","60fd6618f9a377f54dcdf318","freq_resp","","","img/orange_2bandit_a.png","70","img/orange_2bandit_a.png","70","test","","","","","","","","","","","5","","","","","","","","",""
"null","224108","SARL_v6","SARL_v617ka98rs","60fd6618f9a377f54dcdf318","fixation","","","img/fixation.png","null","","","test","","","","","","","","","","","","","","","","","","","",""
"548.8999998569489","224662","SARL_v6","SARL_v617ka98rs","60fd6618f9a377f54dcdf318","freq","","","img/orange_2bandit_a2.png","70","","70","test","1","","101","","","","square","circle","97","8","5","0.9278350515463918","","","","","","","",""
"null","224923","SARL_v6","SARL_v617ka98rs","60fd6618f9a377f54dcdf318","freq_resp","","","img/orange_2bandit_a.png","70","img/orange_2bandit_a.png","70","test","","","","","","","","","","","5","","","","","","","","",""
"null","225084","SARL_v6","SARL_v617ka98rs","60fd6618f9a377f54dcdf318","fixation","","","img/fixation.png","null","","","test","","","","","","","","","","","","","","","","","","","",""
"430.7000000476837","225520","SARL_v6","SARL_v617ka98rs","60fd6618f9a377f54dcdf318","freq","","","img/orange_2bandit_a2.png","70","","70","test","1","","102","","","","square","circle","98","9","5","0.9285714285714286","","","","","","","",""
"null","225898","SARL_v6","SARL_v617ka98rs","60fd6618f9a377f54dcdf318","freq_resp","","","img/orange_2bandit_a.png","70","img/orange_2bandit_a.png","70","test","","","","","","","","","","","5","","","","","","","","",""
"null","226063","SARL_v6","SARL_v617ka98rs","60fd6618f9a377f54dcdf318","fixation","","","img/fixation.png","null","","","test","","","","","","","","","","","","","","","","","","","",""
"572.2000000476837","226642","SARL_v6","SARL_v617ka98rs","60fd6618f9a377f54dcdf318","infreq","","","img/blue_2bandit_a2.png","68","","68","test","1","","103","","","","square","circle","99","10","5","0.9292929292929293","","","","","","","",""
"null","226886","SARL_v6","SARL_v617ka98rs","60fd6618f9a377f54dcdf318","infreq_resp","","","img/blue_2bandit_a.png","68","img/blue_2bandit_a.png","68","test","","","","","","","","","","","5","","","","","","","","",""
"null","227052","SARL_v6","SARL_v617ka98rs","60fd6618f9a377f54dcdf318","fixation","","","img/fixation.png","null","","","test","","","","","","","","","","","","","","","","","","","",""
"342.7000000476837","227401","SARL_v6","SARL_v617ka98rs","60fd6618f9a377f54dcdf318","freq","","","img/orange_2bandit_a2.png","70","","70","test","1","","104","","","","square","circle","100","11","5","0.93","","","","","","","",""
"null","227878","SARL_v6","SARL_v617ka98rs","60fd6618f9a377f54dcdf318","freq_resp","","","img/orange_2bandit_a.png","70","img/orange_2bandit_a.png","70","test","","","","","","","","","","","5","","","","","","","","",""
"null","228041","SARL_v6","SARL_v617ka98rs","60fd6618f9a377f54dcdf318","fixation","","","img/fixation.png","null","","","test","","","","","","","","","","","","","","","","","","","",""
"353.39999985694885","228397","SARL_v6","SARL_v617ka98rs","60fd6618f9a377f54dcdf318","freq","","","img/orange_2bandit_a2.png","70","","70","test","1","","105","","","","square","circle","101","12","5","0.9306930693069307","","","","","","","",""
"null","228858","SARL_v6","SARL_v617ka98rs","60fd6618f9a377f54dcdf318","freq_resp","","","img/orange_2bandit_a.png","70","img/orange_2bandit_a.png","70","test","","","","","","","","","","","5","","","","","","","","",""
"null","229016","SARL_v6","SARL_v617ka98rs","60fd6618f9a377f54dcdf318","fixation","","","img/fixation.png","null","","","test","","","","","","","","","","","","","","","","","","","",""
"301.5","229324","SARL_v6","SARL_v617ka98rs","60fd6618f9a377f54dcdf318","freq","","","img/orange_2bandit_a2.png","70","","70","test","1","","106","","","","square","circle","102","13","5","0.9313725490196079","","","","","","","",""
"null","229831","SARL_v6","SARL_v617ka98rs","60fd6618f9a377f54dcdf318","freq_resp","","","img/orange_2bandit_a.png","70","img/orange_2bandit_a.png","70","test","","","","","","","","","","","5","","","","","","","","",""
"null","229995","SARL_v6","SARL_v617ka98rs","60fd6618f9a377f54dcdf318","fixation","","","img/fixation.png","null","","","test","","","","","","","","","","","","","","","","","","","",""
"281.89999985694885","230284","SARL_v6","SARL_v617ka98rs","60fd6618f9a377f54dcdf318","freq","","","img/orange_2bandit_a2.png","70","","70","test","1","","107","","","","square","circle","103","14","5","0.9320388349514563","","","","","","","",""
"null","230821","SARL_v6","SARL_v617ka98rs","60fd6618f9a377f54dcdf318","freq_resp","","","img/orange_2bandit_a.png","70","img/orange_2bandit_a.png","70","test","","","","","","","","","","","5","","","","","","","","",""
"null","230985","SARL_v6","SARL_v617ka98rs","60fd6618f9a377f54dcdf318","fixation","","","img/fixation.png","null","","","test","","","","","","","","","","","","","","","","","","","",""
"163.39999985694885","231155","SARL_v6","SARL_v617ka98rs","60fd6618f9a377f54dcdf318","freq","","","img/orange_2bandit_a2.png","70","","70","test","1","","108","","","","square","circle","104","15","5","0.9326923076923077","","","","","","","",""
"null","231802","SARL_v6","SARL_v617ka98rs","60fd6618f9a377f54dcdf318","freq_resp","","","img/orange_2bandit_a.png","70","img/orange_2bandit_a.png","70","test","","","","","","","","","","","5","","","","","","","","",""
"null","231966","SARL_v6","SARL_v617ka98rs","60fd6618f9a377f54dcdf318","fixation","","","img/fixation.png","null","","","test","","","","","","","","","","","","","","","","","","","",""
"361.7999999523163","232333","SARL_v6","SARL_v617ka98rs","60fd6618f9a377f54dcdf318","freq","","","img/orange_2bandit_a2.png","70","","70","test","1","","109","","","","square","circle","105","16","5","0.9333333333333333","","","","","","","",""
"null","232789","SARL_v6","SARL_v617ka98rs","60fd6618f9a377f54dcdf318","freq_resp","","","img/orange_2bandit_a.png","70","img/orange_2bandit_a.png","70","test","","","","","","","","","","","5","","","","","","","","",""
"null","232953","SARL_v6","SARL_v617ka98rs","60fd6618f9a377f54dcdf318","fixation","","","img/fixation.png","null","","","test","","","","","","","","","","","","","","","","","","","",""
"413.7000000476837","233373","SARL_v6","SARL_v617ka98rs","60fd6618f9a377f54dcdf318","freq","","","img/orange_2bandit_a2.png","70","","70","test","1","","110","","","","square","circle","106","17","5","0.9339622641509434","","","","","","","",""
"null","233774","SARL_v6","SARL_v617ka98rs","60fd6618f9a377f54dcdf318","freq_resp","","","img/orange_2bandit_a.png","70","img/orange_2bandit_a.png","70","test","","","","","","","","","","","5","","","","","","","","",""
"null","233938","SARL_v6","SARL_v617ka98rs","60fd6618f9a377f54dcdf318","fixation","","","img/fixation.png","null","","","test","","","","","","","","","","","","","","","","","","","",""
"441.40000009536743","234385","SARL_v6","SARL_v617ka98rs","60fd6618f9a377f54dcdf318","infreq","","","img/blue_2bandit_a2.png","68","","68","test","1","","111","","","","square","circle","107","18","5","0.9345794392523364","","","","","","","",""
"null","234757","SARL_v6","SARL_v617ka98rs","60fd6618f9a377f54dcdf318","infreq_resp","","","img/blue_2bandit_a.png","68","img/blue_2bandit_a.png","68","test","","","","","","","","","","","5","","","","","","","","",""
"null","234923","SARL_v6","SARL_v617ka98rs","60fd6618f9a377f54dcdf318","fixation","","","img/fixation.png","null","","","test","","","","","","","","","","","","","","","","","","","",""
"340.2999999523163","235271","SARL_v6","SARL_v617ka98rs","60fd6618f9a377f54dcdf318","freq","","","img/orange_2bandit_a2.png","70","","70","test","1","","112","","","","square","circle","108","19","5","0.9351851851851852","","","","","","","",""
"null","235738","SARL_v6","SARL_v617ka98rs","60fd6618f9a377f54dcdf318","freq_resp","","","img/orange_2bandit_a.png","70","img/orange_2bandit_a.png","70","test","","","","","","","","","","","5","","","","","","","","",""
"null","235901","SARL_v6","SARL_v617ka98rs","60fd6618f9a377f54dcdf318","fixation","","","img/fixation.png","null","","","test","","","","","","","","","","","","","","","","","","","",""
"351.2000000476837","236259","SARL_v6","SARL_v617ka98rs","60fd6618f9a377f54dcdf318","freq","","","img/orange_2bandit_a2.png","70","","70","test","1","","113","","","","square","circle","109","20","5","0.9357798165137615","","","","","","","",""
"null","236724","SARL_v6","SARL_v617ka98rs","60fd6618f9a377f54dcdf318","freq_resp","","","img/orange_2bandit_a.png","70","img/orange_2bandit_a.png","70","test","","","","","","","","","","","5","","","","","","","","",""
"null","236890","SARL_v6","SARL_v617ka98rs","60fd6618f9a377f54dcdf318","fixation","","","img/fixation.png","null","","","test","","","","","","","","","","","","","","","","","","","",""
"301.89999985694885","237197","SARL_v6","SARL_v617ka98rs","60fd6618f9a377f54dcdf318","freq","","","img/orange_2bandit_a2.png","70","","70","test","1","","114","","","","square","circle","110","21","5","0.9363636363636364","","","","","","","",""
"null","237710","SARL_v6","SARL_v617ka98rs","60fd6618f9a377f54dcdf318","freq_resp","","","img/orange_2bandit_a.png","70","img/orange_2bandit_a.png","70","test","","","","","","","","","","","5","","","","","","","","",""
"null","237878","SARL_v6","SARL_v617ka98rs","60fd6618f9a377f54dcdf318","fixation","","","img/fixation.png","null","","","test","","","","","","","","","","","","","","","","","","","",""
"310.7000000476837","238195","SARL_v6","SARL_v617ka98rs","60fd6618f9a377f54dcdf318","freq","","","img/orange_2bandit_a2.png","70","","70","test","1","","115","","","","square","circle","111","22","5","0.9369369369369369","","","","","","","",""
"null","238702","SARL_v6","SARL_v617ka98rs","60fd6618f9a377f54dcdf318","freq_resp","","","img/orange_2bandit_a.png","70","img/orange_2bandit_a.png","70","test","","","","","","","","","","","5","","","","","","","","",""
"null","238864","SARL_v6","SARL_v617ka98rs","60fd6618f9a377f54dcdf318","fixation","","","img/fixation.png","null","","","test","","","","","","","","","","","","","","","","","","","",""
"303.7999999523163","239173","SARL_v6","SARL_v617ka98rs","60fd6618f9a377f54dcdf318","freq","","","img/orange_2bandit_a2.png","70","","70","test","1","","116","","","","square","circle","112","23","5","0.9375","","","","","","","",""
"null","239683","SARL_v6","SARL_v617ka98rs","60fd6618f9a377f54dcdf318","freq_resp","","","img/orange_2bandit_a.png","70","img/orange_2bandit_a.png","70","test","","","","","","","","","","","5","","","","","","","","",""
"null","239846","SARL_v6","SARL_v617ka98rs","60fd6618f9a377f54dcdf318","fixation","","","img/fixation.png","null","","","test","","","","","","","","","","","","","","","","","","","",""
"612.2999999523163","240462","SARL_v6","SARL_v617ka98rs","60fd6618f9a377f54dcdf318","rl","","","img/black_2bandit_a2.png","75","","0","test","","","117","","","-7","square","circle","","0","5","","75","-7","4","4","-7","circle","5","0"
"null","241229","SARL_v6","SARL_v617ka98rs","60fd6618f9a377f54dcdf318","feedback","","","<div class=""verylowPoints""> -7 </div>","null","","na","test","","","NaN","","","","","","","","5","","75","","","","","","5",""
"412.90000009536743","241644","SARL_v6","SARL_v617ka98rs","60fd6618f9a377f54dcdf318","freq","","","img/orange_2bandit_a2.png","70","","70","test","1","","118","","","","square","circle","113","1","6","0.9380530973451328","","","","","","","",""
"null","242046","SARL_v6","SARL_v617ka98rs","60fd6618f9a377f54dcdf318","freq_resp","","","img/orange_2bandit_a.png","70","img/orange_2bandit_a.png","70","test","","","","","","","","","","","6","","","","","","","","",""
"null","242205","SARL_v6","SARL_v617ka98rs","60fd6618f9a377f54dcdf318","fixation","","","img/fixation.png","null","","","test","","","","","","","","","","","","","","","","","","","",""
"368.10000014305115","242576","SARL_v6","SARL_v617ka98rs","60fd6618f9a377f54dcdf318","freq","","","img/orange_2bandit_a2.png","70","","70","test","1","","119","","","","square","circle","114","2","6","0.9385964912280702","","","","","","","",""
"null","243020","SARL_v6","SARL_v617ka98rs","60fd6618f9a377f54dcdf318","freq_resp","","","img/orange_2bandit_a.png","70","img/orange_2bandit_a.png","70","test","","","","","","","","","","","6","","","","","","","","",""
"null","243187","SARL_v6","SARL_v617ka98rs","60fd6618f9a377f54dcdf318","fixation","","","img/fixation.png","null","","","test","","","","","","","","","","","","","","","","","","","",""
"317.89999985694885","243512","SARL_v6","SARL_v617ka98rs","60fd6618f9a377f54dcdf318","freq","","","img/orange_2bandit_a2.png","70","","70","test","1","","120","","","","square","circle","115","3","6","0.9391304347826087","","","","","","","",""
"null","244001","SARL_v6","SARL_v617ka98rs","60fd6618f9a377f54dcdf318","freq_resp","","","img/orange_2bandit_a.png","70","img/orange_2bandit_a.png","70","test","","","","","","","","","","","6","","","","","","","","",""
"null","244160","SARL_v6","SARL_v617ka98rs","60fd6618f9a377f54dcdf318","fixation","","","img/fixation.png","null","","","test","","","","","","","","","","","","","","","","","","","",""
"317","244481","SARL_v6","SARL_v617ka98rs","60fd6618f9a377f54dcdf318","freq","","","img/orange_2bandit_a2.png","70","","70","test","1","","121","","","","square","circle","116","4","6","0.9396551724137931","","","","","","","",""
"null","244982","SARL_v6","SARL_v617ka98rs","60fd6618f9a377f54dcdf318","freq_resp","","","img/orange_2bandit_a.png","70","img/orange_2bandit_a.png","70","test","","","","","","","","","","","6","","","","","","","","",""
"null","245147","SARL_v6","SARL_v617ka98rs","60fd6618f9a377f54dcdf318","fixation","","","img/fixation.png","null","","","test","","","","","","","","","","","","","","","","","","","",""
"null","245967","SARL_v6","SARL_v617ka98rs","60fd6618f9a377f54dcdf318","infreq","","","img/blue_2bandit_a2.png","null","","68","test","0","","122","","","","square","circle","117","5","6","0.9316239316239316","","","","","","","",""
"null","246133","SARL_v6","SARL_v617ka98rs","60fd6618f9a377f54dcdf318","fixation","","","img/fixation.png","null","","","test","","","","","","","","","","","","","","","","","","","",""
"397.10000014305115","246533","SARL_v6","SARL_v617ka98rs","60fd6618f9a377f54dcdf318","infreq","","","img/blue_2bandit_a2.png","68","","68","test","1","","123","","","","square","circle","118","6","6","0.9322033898305084","","","","","","","",""
"null","246944","SARL_v6","SARL_v617ka98rs","60fd6618f9a377f54dcdf318","infreq_resp","","","img/blue_2bandit_a.png","68","img/blue_2bandit_a.png","68","test","","","","","","","","","","","6","","","","","","","","",""
"null","247101","SARL_v6","SARL_v617ka98rs","60fd6618f9a377f54dcdf318","fixation","","","img/fixation.png","null","","","test","","","","","","","","","","","","","","","","","","","",""
"389.5","247497","SARL_v6","SARL_v617ka98rs","60fd6618f9a377f54dcdf318","freq","","","img/orange_2bandit_a2.png","70","","70","test","1","","124","","","","square","circle","119","7","6","0.9327731092436975","","","","","","","",""
"null","247923","SARL_v6","SARL_v617ka98rs","60fd6618f9a377f54dcdf318","freq_resp","","","img/orange_2bandit_a.png","70","img/orange_2bandit_a.png","70","test","","","","","","","","","","","6","","","","","","","","",""
"null","248080","SARL_v6","SARL_v617ka98rs","60fd6618f9a377f54dcdf318","fixation","","","img/fixation.png","null","","","test","","","","","","","","","","","","","","","","","","","",""
"377","248462","SARL_v6","SARL_v617ka98rs","60fd6618f9a377f54dcdf318","freq","","","img/orange_2bandit_a2.png","70","","70","test","1","","125","","","","square","circle","120","8","6","0.9333333333333333","","","","","","","",""
"null","248903","SARL_v6","SARL_v617ka98rs","60fd6618f9a377f54dcdf318","freq_resp","","","img/orange_2bandit_a.png","70","img/orange_2bandit_a.png","70","test","","","","","","","","","","","6","","","","","","","","",""
"null","249067","SARL_v6","SARL_v617ka98rs","60fd6618f9a377f54dcdf318","fixation","","","img/fixation.png","null","","","test","","","","","","","","","","","","","","","","","","","",""
"460.2000000476837","249532","SARL_v6","SARL_v617ka98rs","60fd6618f9a377f54dcdf318","freq","","","img/orange_2bandit_a2.png","70","","70","test","1","","126","","","","square","circle","121","9","6","0.9338842975206612","","","","","","","",""
"null","249880","SARL_v6","SARL_v617ka98rs","60fd6618f9a377f54dcdf318","freq_resp","","","img/orange_2bandit_a.png","70","img/orange_2bandit_a.png","70","test","","","","","","","","","","","6","","","","","","","","",""
"null","250046","SARL_v6","SARL_v617ka98rs","60fd6618f9a377f54dcdf318","fixation","","","img/fixation.png","null","","","test","","","","","","","","","","","","","","","","","","","",""
"369","250422","SARL_v6","SARL_v617ka98rs","60fd6618f9a377f54dcdf318","freq","","","img/orange_2bandit_a2.png","70","","70","test","1","","127","","","","square","circle","122","10","6","0.9344262295081968","","","","","","","",""
"null","250869","SARL_v6","SARL_v617ka98rs","60fd6618f9a377f54dcdf318","freq_resp","","","img/orange_2bandit_a.png","70","img/orange_2bandit_a.png","70","test","","","","","","","","","","","6","","","","","","","","",""
"null","251034","SARL_v6","SARL_v617ka98rs","60fd6618f9a377f54dcdf318","fixation","","","img/fixation.png","null","","","test","","","","","","","","","","","","","","","","","","","",""
"398","251439","SARL_v6","SARL_v617ka98rs","60fd6618f9a377f54dcdf318","freq","","","img/orange_2bandit_a2.png","70","","70","test","1","","128","","","","square","circle","123","11","6","0.9349593495934959","","","","","","","",""
"null","251848","SARL_v6","SARL_v617ka98rs","60fd6618f9a377f54dcdf318","freq_resp","","","img/orange_2bandit_a.png","70","img/orange_2bandit_a.png","70","test","","","","","","","","","","","6","","","","","","","","",""
"null","252013","SARL_v6","SARL_v617ka98rs","60fd6618f9a377f54dcdf318","fixation","","","img/fixation.png","null","","","test","","","","","","","","","","","","","","","","","","","",""
"384.2999999523163","252403","SARL_v6","SARL_v617ka98rs","60fd6618f9a377f54dcdf318","freq","","","img/orange_2bandit_a2.png","70","","70","test","1","","129","","","","square","circle","124","12","6","0.9354838709677419","","","","","","","",""
"null","252833","SARL_v6","SARL_v617ka98rs","60fd6618f9a377f54dcdf318","freq_resp","","","img/orange_2bandit_a.png","70","img/orange_2bandit_a.png","70","test","","","","","","","","","","","6","","","","","","","","",""
"null","252998","SARL_v6","SARL_v617ka98rs","60fd6618f9a377f54dcdf318","fixation","","","img/fixation.png","null","","","test","","","","","","","","","","","","","","","","","","","",""
"407.80000019073486","253412","SARL_v6","SARL_v617ka98rs","60fd6618f9a377f54dcdf318","freq","","","img/orange_2bandit_a2.png","70","","70","test","1","","130","","","","square","circle","125","13","6","0.936","","","","","","","",""
"null","253820","SARL_v6","SARL_v617ka98rs","60fd6618f9a377f54dcdf318","freq_resp","","","img/orange_2bandit_a.png","70","img/orange_2bandit_a.png","70","test","","","","","","","","","","","6","","","","","","","","",""
"null","253988","SARL_v6","SARL_v617ka98rs","60fd6618f9a377f54dcdf318","fixation","","","img/fixation.png","null","","","test","","","","","","","","","","","","","","","","","","","",""
"370.10000014305115","254365","SARL_v6","SARL_v617ka98rs","60fd6618f9a377f54dcdf318","freq","","","img/orange_2bandit_a2.png","70","","70","test","1","","131","","","","square","circle","126","14","6","0.9365079365079365","","","","","","","",""
"null","254810","SARL_v6","SARL_v617ka98rs","60fd6618f9a377f54dcdf318","freq_resp","","","img/orange_2bandit_a.png","70","img/orange_2bandit_a.png","70","test","","","","","","","","","","","6","","","","","","","","",""
"null","254973","SARL_v6","SARL_v617ka98rs","60fd6618f9a377f54dcdf318","fixation","","","img/fixation.png","null","","","test","","","","","","","","","","","","","","","","","","","",""
