"rt","time_elapsed","expId","subject","prolificID","trialType","rlType","attType","stimulus","key_press","stim","corrresp","phase","corr","pracCounter","trialNum","rewardOne","rewardTwo","reward","bandOne","bandTwo","attentionNum","attentionRunNum","blockNum","performance","bandChosen","circleVal","squareVal","bandOneVal","bandTwoVal","shapeChosen","rlNum","badFlag"
"6936.600000008941","6940","SARL_v6","SARL_v698ofuhju","594ec90eca6e670001b2c184","","","","","","","","","","","","","","","","","","","","","","","","","","","",""
"","9014","SARL_v6","SARL_v698ofuhju","594ec90eca6e670001b2c184","fullscreen","fullscreen","fullscreen","","","","","","","","","","","","","","","","","","","","","","","","",""
"63659.79999999702","72677","SARL_v6","SARL_v698ofuhju","594ec90eca6e670001b2c184","","","","","","","","","","","","","","","","","","","","","","","","","","","",""
"null","73485","SARL_v6","SARL_v698ofuhju","594ec90eca6e670001b2c184","freqPrac","","","img/orange_2bandit_a2.png","null","img/orange_2bandit_a2.png","70","prac","0","1","","","","","","","","","","","","","","","","","",""
"null","74493","SARL_v6","SARL_v698ofuhju","594ec90eca6e670001b2c184","feedback","","","img/tooSlow.png","null","","na","prac","","","","","","","","","","","","","","","","","","","",""
"null","74648","SARL_v6","SARL_v698ofuhju","594ec90eca6e670001b2c184","fixation","","","img/fixation.png","null","","","prac","","","","","","","","","","","","","","","","","","","",""
"413.5","75067","SARL_v6","SARL_v698ofuhju","594ec90eca6e670001b2c184","infreqPrac","","","img/blue_2bandit_a2.png","68","img/blue_2bandit_a2.png","68","prac","1","1","","","","","","","","","","","","","","","","","",""
"413.5","75475","SARL_v6","SARL_v698ofuhju","594ec90eca6e670001b2c184","infreqPrac_resp","","","img/blue_2bandit_a.png","68","img/blue_2bandit_a.png","68","prac","","","","","","","","","","","","","","","","","","","",""
"null","75630","SARL_v6","SARL_v698ofuhju","594ec90eca6e670001b2c184","fixation","","","img/fixation.png","null","","","prac","","","","","","","","","","","","","","","","","","","",""
"null","76439","SARL_v6","SARL_v698ofuhju","594ec90eca6e670001b2c184","freqPrac","","","img/orange_2bandit_a2.png","null","img/orange_2bandit_a2.png","70","prac","0","2","","","","","","","","","","","","","","","","","",""
"null","77448","SARL_v6","SARL_v698ofuhju","594ec90eca6e670001b2c184","feedback","","","img/tooSlow.png","null","","na","prac","","","","","","","","","","","","","","","","","","","",""
"null","77603","SARL_v6","SARL_v698ofuhju","594ec90eca6e670001b2c184","fixation","","","img/fixation.png","null","","","prac","","","","","","","","","","","","","","","","","","","",""
"564.6000000089407","78171","SARL_v6","SARL_v698ofuhju","594ec90eca6e670001b2c184","infreqPrac","","","img/blue_2bandit_a2.png","70","img/blue_2bandit_a2.png","68","prac","0","3","","","","","","","","","","","","","","","","","",""
"564.6000000089407","78415","SARL_v6","SARL_v698ofuhju","594ec90eca6e670001b2c184","infreqPrac_resp","","","img/blue_2bandit_a.png","70","img/blue_2bandit_a.png","68","prac","","","","","","","","","","","","","","","","","","","",""
"null","79422","SARL_v6","SARL_v698ofuhju","594ec90eca6e670001b2c184","feedback","","","img/wrongKey.png","null","","na","prac","","","","","","","","","","","","","","","","","","","",""
"null","79577","SARL_v6","SARL_v698ofuhju","594ec90eca6e670001b2c184","fixation","","","img/fixation.png","null","","","prac","","","","","","","","","","","","","","","","","","","",""
"592.7000000029802","80173","SARL_v6","SARL_v698ofuhju","594ec90eca6e670001b2c184","infreqPrac","","","img/blue_2bandit_a2.png","68","img/blue_2bandit_a2.png","68","prac","1","3","","","","","","","","","","","","","","","","","",""
"592.7000000029802","80385","SARL_v6","SARL_v698ofuhju","594ec90eca6e670001b2c184","infreqPrac_resp","","","img/blue_2bandit_a.png","68","img/blue_2bandit_a.png","68","prac","","","","","","","","","","","","","","","","","","","",""
"null","80540","SARL_v6","SARL_v698ofuhju","594ec90eca6e670001b2c184","fixation","","","img/fixation.png","null","","","prac","","","","","","","","","","","","","","","","","","","",""
"635.1999999880791","81180","SARL_v6","SARL_v698ofuhju","594ec90eca6e670001b2c184","infreqPrac","","","img/blue_2bandit_a2.png","68","img/blue_2bandit_a2.png","68","prac","1","3","","","","","","","","","","","","","","","","","",""
"635.1999999880791","81360","SARL_v6","SARL_v698ofuhju","594ec90eca6e670001b2c184","infreqPrac_resp","","","img/blue_2bandit_a.png","68","img/blue_2bandit_a.png","68","prac","","","","","","","","","","","","","","","","","","","",""
"null","81516","SARL_v6","SARL_v698ofuhju","594ec90eca6e670001b2c184","fixation","","","img/fixation.png","null","","","prac","","","","","","","","","","","","","","","","","","","",""
"521.7999999970198","82041","SARL_v6","SARL_v698ofuhju","594ec90eca6e670001b2c184","freqPrac","","","img/orange_2bandit_a2.png","70","img/orange_2bandit_a2.png","70","prac","1","3","","","","","","","","","","","","","","","","","",""
"521.7999999970198","82324","SARL_v6","SARL_v698ofuhju","594ec90eca6e670001b2c184","freqPrac_resp","","","img/orange_2bandit_a.png","70","img/orange_2bandit_a.png","70","prac","","","","","","","","","","","","","","","","","","","",""
"null","82480","SARL_v6","SARL_v698ofuhju","594ec90eca6e670001b2c184","fixation","","","img/fixation.png","null","","","prac","","","","","","","","","","","","","","","","","","","",""
"566.2000000029802","83049","SARL_v6","SARL_v698ofuhju","594ec90eca6e670001b2c184","infreqPrac","","","img/blue_2bandit_a2.png","68","img/blue_2bandit_a2.png","68","prac","1","3","","","","","","","","","","","","","","","","","",""
"566.2000000029802","83290","SARL_v6","SARL_v698ofuhju","594ec90eca6e670001b2c184","infreqPrac_resp","","","img/blue_2bandit_a.png","68","img/blue_2bandit_a.png","68","prac","","","","","","","","","","","","","","","","","","","",""
"null","83445","SARL_v6","SARL_v698ofuhju","594ec90eca6e670001b2c184","fixation","","","img/fixation.png","null","","","prac","","","","","","","","","","","","","","","","","","","",""
"530.7000000029802","83979","SARL_v6","SARL_v698ofuhju","594ec90eca6e670001b2c184","freqPrac","","","img/orange_2bandit_a2.png","70","img/orange_2bandit_a2.png","70","prac","1","3","","","","","","","","","","","","","","","","","",""
"530.7000000029802","84252","SARL_v6","SARL_v698ofuhju","594ec90eca6e670001b2c184","freqPrac_resp","","","img/orange_2bandit_a.png","70","img/orange_2bandit_a.png","70","prac","","","","","","","","","","","","","","","","","","","",""
"null","84406","SARL_v6","SARL_v698ofuhju","594ec90eca6e670001b2c184","fixation","","","img/fixation.png","null","","","prac","","","","","","","","","","","","","","","","","","","",""
"482.8999999910593","84894","SARL_v6","SARL_v698ofuhju","594ec90eca6e670001b2c184","freqPrac","","","img/orange_2bandit_a2.png","70","img/orange_2bandit_a2.png","70","prac","1","3","","","","","","","","","","","","","","","","","",""
"482.8999999910593","85220","SARL_v6","SARL_v698ofuhju","594ec90eca6e670001b2c184","freqPrac_resp","","","img/orange_2bandit_a.png","70","img/orange_2bandit_a.png","70","prac","","","","","","","","","","","","","","","","","","","",""
"null","85376","SARL_v6","SARL_v698ofuhju","594ec90eca6e670001b2c184","fixation","","","img/fixation.png","null","","","prac","","","","","","","","","","","","","","","","","","","",""
"25023.89999999106","110404","SARL_v6","SARL_v698ofuhju","594ec90eca6e670001b2c184","","","","","","","","prac","","","","","","","","","","","","","","","","","","","",""
"897.2999999970198","111307","SARL_v6","SARL_v698ofuhju","594ec90eca6e670001b2c184","rlPractice","","","img/black_2bandit_a2.png","75","img/black_2bandit_a2.png","","prac","","","0","","","","","","","","","","","","","","","","",""
"null","112067","SARL_v6","SARL_v698ofuhju","594ec90eca6e670001b2c184","feedback","","","<div class=""veryhighPoints""> 10 </div>","null","","na","prac","","","1","10","-14","10","","","","","","","","","","","","","",""
"null","112236","SARL_v6","SARL_v698ofuhju","594ec90eca6e670001b2c184","fixation","","","img/fixation.png","null","","","prac","","","","","","","","","","","","","","","","","","","",""
"715.1999999880791","112954","SARL_v6","SARL_v698ofuhju","594ec90eca6e670001b2c184","rlPractice","","","img/black_2bandit_a2.png","74","img/black_2bandit_a2.png","","prac","","","1","","","","","","","","","","","","","","","","",""
"null","113722","SARL_v6","SARL_v698ofuhju","594ec90eca6e670001b2c184","feedback","","","<div class=""verylowPoints_sq""> -5 </div>","null","","na","prac","","","2","5","-5","5","","","","","","","","","","","","","",""
"null","113878","SARL_v6","SARL_v698ofuhju","594ec90eca6e670001b2c184","fixation","","","img/fixation.png","null","","","prac","","","","","","","","","","","","","","","","","","","",""
"344.8999999910593","114226","SARL_v6","SARL_v698ofuhju","594ec90eca6e670001b2c184","rlPractice","","","img/black_2bandit_a2.png","75","img/black_2bandit_a2.png","","prac","","","2","","","","","","","","","","","","","","","","",""
"null","114992","SARL_v6","SARL_v698ofuhju","594ec90eca6e670001b2c184","feedback","","","<div class=""veryhighPoints""> 30 </div>","null","","na","prac","","","3","30","2","30","","","","","","","","","","","","","",""
"null","115146","SARL_v6","SARL_v698ofuhju","594ec90eca6e670001b2c184","fixation","","","img/fixation.png","null","","","prac","","","","","","","","","","","","","","","","","","","",""
"291.79999999701977","115442","SARL_v6","SARL_v698ofuhju","594ec90eca6e670001b2c184","rlPractice","","","img/black_2bandit_a2.png","75","img/black_2bandit_a2.png","","prac","","","3","","","","","","","","","","","","","","","","",""
"null","116204","SARL_v6","SARL_v698ofuhju","594ec90eca6e670001b2c184","feedback","","","<div class=""verylowPoints""> -2 </div>","null","","na","prac","","","4","-2","20","-2","","","","","","","","","","","","","",""
"null","116373","SARL_v6","SARL_v698ofuhju","594ec90eca6e670001b2c184","fixation","","","img/fixation.png","null","","","prac","","","","","","","","","","","","","","","","","","","",""
"10921.40000000596","127298","SARL_v6","SARL_v698ofuhju","594ec90eca6e670001b2c184","","","","","","","","prac","","","","","","","","","","","","","","","","","","","",""
"743.1000000089407","128045","SARL_v6","SARL_v698ofuhju","594ec90eca6e670001b2c184","mixAttFreqPrac","","","img/orange_2bandit_a2.png","70","img/orange_2bandit_a2.png","70","prac","","","1","","","","","","","","","","","","","","","","",""
"743.1000000089407","128104","SARL_v6","SARL_v698ofuhju","594ec90eca6e670001b2c184","freqPrac_resp","","","img/orange_2bandit_a.png","70","img/orange_2bandit_a.png","70","prac","","","1","","","","","","","","","","","","","","","","",""
"null","128271","SARL_v6","SARL_v698ofuhju","594ec90eca6e670001b2c184","fixation","","","img/fixation.png","null","","","prac","","","","","","","","","","","","","","","","","","","",""
"550.1000000089407","128826","SARL_v6","SARL_v698ofuhju","594ec90eca6e670001b2c184","mixAttInfreqPrac","","","img/blue_2bandit_a2.png","68","img/blue_2bandit_a2.png","68","prac","","","2","","","","","","","","","","","","","","","","",""
"550.1000000089407","129098","SARL_v6","SARL_v698ofuhju","594ec90eca6e670001b2c184","infreqPrac_resp","","","img/blue_2bandit_a.png","68","img/orange_2bandit_a.png","68","prac","","","2","","","","","","","","","","","","","","","","",""
"null","129252","SARL_v6","SARL_v698ofuhju","594ec90eca6e670001b2c184","fixation","","","img/fixation.png","null","","","prac","","","","","","","","","","","","","","","","","","","",""
"708.5","129964","SARL_v6","SARL_v698ofuhju","594ec90eca6e670001b2c184","mixAttInfreqPrac","","","img/blue_2bandit_a2.png","68","img/blue_2bandit_a2.png","68","prac","","","3","","","","","","","","","","","","","","","","",""
"708.5","130061","SARL_v6","SARL_v698ofuhju","594ec90eca6e670001b2c184","infreqPrac_resp","","","img/blue_2bandit_a.png","68","img/orange_2bandit_a.png","68","prac","","","3","","","","","","","","","","","","","","","","",""
"null","130223","SARL_v6","SARL_v698ofuhju","594ec90eca6e670001b2c184","fixation","","","img/fixation.png","null","","","prac","","","","","","","","","","","","","","","","","","","",""
"486.1000000089407","130713","SARL_v6","SARL_v698ofuhju","594ec90eca6e670001b2c184","mixAttInfreqPrac","","","img/blue_2bandit_a2.png","68","img/blue_2bandit_a2.png","68","prac","","","4","","","","","","","","","","","","","","","","",""
"486.1000000089407","131040","SARL_v6","SARL_v698ofuhju","594ec90eca6e670001b2c184","infreqPrac_resp","","","img/blue_2bandit_a.png","68","img/orange_2bandit_a.png","68","prac","","","4","","","","","","","","","","","","","","","","",""
"null","131193","SARL_v6","SARL_v698ofuhju","594ec90eca6e670001b2c184","fixation","","","img/fixation.png","null","","","prac","","","","","","","","","","","","","","","","","","","",""
"589.9000000059605","131788","SARL_v6","SARL_v698ofuhju","594ec90eca6e670001b2c184","mixAttFreqPrac","","","img/orange_2bandit_a2.png","70","img/orange_2bandit_a2.png","70","prac","","","5","","","","","","","","","","","","","","","","",""
"589.9000000059605","132007","SARL_v6","SARL_v698ofuhju","594ec90eca6e670001b2c184","freqPrac_resp","","","img/orange_2bandit_a.png","70","img/orange_2bandit_a.png","70","prac","","","5","","","","","","","","","","","","","","","","",""
"null","132162","SARL_v6","SARL_v698ofuhju","594ec90eca6e670001b2c184","fixation","","","img/fixation.png","null","","","prac","","","","","","","","","","","","","","","","","","","",""
"685.7000000029802","132851","SARL_v6","SARL_v698ofuhju","594ec90eca6e670001b2c184","mixRLPractice","","","img/black_2bandit_a2.png","74","img/black_2bandit_a2.png","","prac","","","5","","","","","","","","","","","","","","","","",""
"null","133610","SARL_v6","SARL_v698ofuhju","594ec90eca6e670001b2c184","feedback","","","<div class=""veryhighPoints_sq""> 10 </div>","null","","na","prac","","","6","-14","10","-14","","","","","","","","","","","","","",""
"null","133766","SARL_v6","SARL_v698ofuhju","594ec90eca6e670001b2c184","fixation","","","img/fixation.png","null","","","prac","","","","","","","","","","","","","","","","","","","",""
"753.2999999970198","134524","SARL_v6","SARL_v698ofuhju","594ec90eca6e670001b2c184","mixAttFreqPrac","","","img/orange_2bandit_a2.png","70","img/orange_2bandit_a2.png","70","prac","","","7","","","","","","","","","","","","","","","","",""
"753.2999999970198","134576","SARL_v6","SARL_v698ofuhju","594ec90eca6e670001b2c184","freqPrac_resp","","","img/orange_2bandit_a.png","70","img/orange_2bandit_a.png","70","prac","","","7","","","","","","","","","","","","","","","","",""
"null","134733","SARL_v6","SARL_v698ofuhju","594ec90eca6e670001b2c184","fixation","","","img/fixation.png","null","","","prac","","","","","","","","","","","","","","","","","","","",""
"785.8999999910593","135523","SARL_v6","SARL_v698ofuhju","594ec90eca6e670001b2c184","mixAttInfreqPrac","","","img/blue_2bandit_a2.png","68","img/blue_2bandit_a2.png","68","prac","","","8","","","","","","","","","","","","","","","","",""
"785.8999999910593","135543","SARL_v6","SARL_v698ofuhju","594ec90eca6e670001b2c184","infreqPrac_resp","","","img/blue_2bandit_a.png","68","img/orange_2bandit_a.png","68","prac","","","8","","","","","","","","","","","","","","","","",""
"null","135698","SARL_v6","SARL_v698ofuhju","594ec90eca6e670001b2c184","fixation","","","img/fixation.png","null","","","prac","","","","","","","","","","","","","","","","","","","",""
"794.5","136496","SARL_v6","SARL_v698ofuhju","594ec90eca6e670001b2c184","mixAttFreqPrac","","","img/orange_2bandit_a2.png","70","img/orange_2bandit_a2.png","70","prac","","","9","","","","","","","","","","","","","","","","",""
"794.5","136507","SARL_v6","SARL_v698ofuhju","594ec90eca6e670001b2c184","freqPrac_resp","","","img/orange_2bandit_a.png","70","img/orange_2bandit_a.png","70","prac","","","9","","","","","","","","","","","","","","","","",""
"null","136661","SARL_v6","SARL_v698ofuhju","594ec90eca6e670001b2c184","fixation","","","img/fixation.png","null","","","prac","","","","","","","","","","","","","","","","","","","",""
"455.5","137122","SARL_v6","SARL_v698ofuhju","594ec90eca6e670001b2c184","mixAttFreqPrac","","","img/orange_2bandit_a2.png","70","img/orange_2bandit_a2.png","70","prac","","","10","","","","","","","","","","","","","","","","",""
"455.5","137475","SARL_v6","SARL_v698ofuhju","594ec90eca6e670001b2c184","freqPrac_resp","","","img/orange_2bandit_a.png","70","img/orange_2bandit_a.png","70","prac","","","10","","","","","","","","","","","","","","","","",""
"null","137644","SARL_v6","SARL_v698ofuhju","594ec90eca6e670001b2c184","fixation","","","img/fixation.png","null","","","prac","","","","","","","","","","","","","","","","","","","",""
"null","138448","SARL_v6","SARL_v698ofuhju","594ec90eca6e670001b2c184","mixAttInfreqPrac","","","img/blue_2bandit_a2.png","null","img/blue_2bandit_a2.png","68","prac","","","11","","","","","","","","","","","","","","","","",""
"66","138604","SARL_v6","SARL_v698ofuhju","594ec90eca6e670001b2c184","fixation","","","img/fixation.png","68","","","prac","","","","","","","","","","","","","","","","","","","",""
"704.4000000059605","139313","SARL_v6","SARL_v698ofuhju","594ec90eca6e670001b2c184","mixRLPractice","","","img/black_2bandit_a2.png","75","img/black_2bandit_a2.png","","prac","","","11","","","","","","","","","","","","","","","","",""
"null","140067","SARL_v6","SARL_v698ofuhju","594ec90eca6e670001b2c184","feedback","","","<div class=""veryhighPoints""> 5 </div>","null","","na","prac","","","12","5","-5","5","","","","","","","","","","","","","",""
"null","140222","SARL_v6","SARL_v698ofuhju","594ec90eca6e670001b2c184","fixation","","","img/fixation.png","null","","","prac","","","","","","","","","","","","","","","","","","","",""
"9661.09999999404","149887","SARL_v6","SARL_v698ofuhju","594ec90eca6e670001b2c184","","","","","","","","prac","","","","","","","","","","","","","","","","","","","",""
"623.1000000089407","150515","SARL_v6","SARL_v698ofuhju","594ec90eca6e670001b2c184","freq","","","img/orange_2bandit_a2.png","70","","70","test","1","","1","","","","square","circle","1","1","1","1","","","","","","","",""
"null","150697","SARL_v6","SARL_v698ofuhju","594ec90eca6e670001b2c184","freq_resp","","","img/orange_2bandit_a.png","70","img/orange_2bandit_a.png","70","test","","","","","","","","","","","1","","","","","","","","",""
"null","150852","SARL_v6","SARL_v698ofuhju","594ec90eca6e670001b2c184","fixation","","","img/fixation.png","null","","","test","","","","","","","","","","","","","","","","","","","",""
"389.09999999403954","151246","SARL_v6","SARL_v698ofuhju","594ec90eca6e670001b2c184","freq","","","img/orange_2bandit_a2.png","70","","70","test","1","","2","","","","square","circle","2","2","1","1","","","","","","","",""
"null","151675","SARL_v6","SARL_v698ofuhju","594ec90eca6e670001b2c184","freq_resp","","","img/orange_2bandit_a.png","70","img/orange_2bandit_a.png","70","test","","","","","","","","","","","1","","","","","","","","",""
"null","151831","SARL_v6","SARL_v698ofuhju","594ec90eca6e670001b2c184","fixation","","","img/fixation.png","null","","","test","","","","","","","","","","","","","","","","","","","",""
"352.70000000298023","152188","SARL_v6","SARL_v698ofuhju","594ec90eca6e670001b2c184","freq","","","img/orange_2bandit_a2.png","70","","70","test","1","","3","","","","square","circle","3","3","1","1","","","","","","","",""
"null","152649","SARL_v6","SARL_v698ofuhju","594ec90eca6e670001b2c184","freq_resp","","","img/orange_2bandit_a.png","70","img/orange_2bandit_a.png","70","test","","","","","","","","","","","1","","","","","","","","",""
"null","152808","SARL_v6","SARL_v698ofuhju","594ec90eca6e670001b2c184","fixation","","","img/fixation.png","null","","","test","","","","","","","","","","","","","","","","","","","",""
"351.3999999910593","153163","SARL_v6","SARL_v698ofuhju","594ec90eca6e670001b2c184","freq","","","img/orange_2bandit_a2.png","70","","70","test","1","","4","","","","square","circle","4","4","1","1","","","","","","","",""
"null","153629","SARL_v6","SARL_v698ofuhju","594ec90eca6e670001b2c184","freq_resp","","","img/orange_2bandit_a.png","70","img/orange_2bandit_a.png","70","test","","","","","","","","","","","1","","","","","","","","",""
"null","153785","SARL_v6","SARL_v698ofuhju","594ec90eca6e670001b2c184","fixation","","","img/fixation.png","null","","","test","","","","","","","","","","","","","","","","","","","",""
"371.5","154160","SARL_v6","SARL_v698ofuhju","594ec90eca6e670001b2c184","freq","","","img/orange_2bandit_a2.png","70","","70","test","1","","5","","","","square","circle","5","5","1","1","","","","","","","",""
"null","154605","SARL_v6","SARL_v698ofuhju","594ec90eca6e670001b2c184","freq_resp","","","img/orange_2bandit_a.png","70","img/orange_2bandit_a.png","70","test","","","","","","","","","","","1","","","","","","","","",""
"null","154773","SARL_v6","SARL_v698ofuhju","594ec90eca6e670001b2c184","fixation","","","img/fixation.png","null","","","test","","","","","","","","","","","","","","","","","","","",""
"358.90000000596046","155137","SARL_v6","SARL_v698ofuhju","594ec90eca6e670001b2c184","freq","","","img/orange_2bandit_a2.png","70","","70","test","1","","6","","","","square","circle","6","6","1","1","","","","","","","",""
"null","155595","SARL_v6","SARL_v698ofuhju","594ec90eca6e670001b2c184","freq_resp","","","img/orange_2bandit_a.png","70","img/orange_2bandit_a.png","70","test","","","","","","","","","","","1","","","","","","","","",""
"null","155748","SARL_v6","SARL_v698ofuhju","594ec90eca6e670001b2c184","fixation","","","img/fixation.png","null","","","test","","","","","","","","","","","","","","","","","","","",""
"382.09999999403954","156133","SARL_v6","SARL_v698ofuhju","594ec90eca6e670001b2c184","freq","","","img/orange_2bandit_a2.png","70","","70","test","1","","7","","","","square","circle","7","7","1","1","","","","","","","",""
"null","156558","SARL_v6","SARL_v698ofuhju","594ec90eca6e670001b2c184","freq_resp","","","img/orange_2bandit_a.png","70","img/orange_2bandit_a.png","70","test","","","","","","","","","","","1","","","","","","","","",""
"null","156714","SARL_v6","SARL_v698ofuhju","594ec90eca6e670001b2c184","fixation","","","img/fixation.png","null","","","test","","","","","","","","","","","","","","","","","","","",""
"399.1000000089407","157117","SARL_v6","SARL_v698ofuhju","594ec90eca6e670001b2c184","freq","","","img/orange_2bandit_a2.png","70","","70","test","1","","8","","","","square","circle","8","8","1","1","","","","","","","",""
"null","157524","SARL_v6","SARL_v698ofuhju","594ec90eca6e670001b2c184","freq_resp","","","img/orange_2bandit_a.png","70","img/orange_2bandit_a.png","70","test","","","","","","","","","","","1","","","","","","","","",""
"null","157693","SARL_v6","SARL_v698ofuhju","594ec90eca6e670001b2c184","fixation","","","img/fixation.png","null","","","test","","","","","","","","","","","","","","","","","","","",""
"314.5","158010","SARL_v6","SARL_v698ofuhju","594ec90eca6e670001b2c184","freq","","","img/orange_2bandit_a2.png","70","","70","test","1","","9","","","","square","circle","9","9","1","1","","","","","","","",""
"null","158501","SARL_v6","SARL_v698ofuhju","594ec90eca6e670001b2c184","freq_resp","","","img/orange_2bandit_a.png","70","img/orange_2bandit_a.png","70","test","","","","","","","","","","","1","","","","","","","","",""
"null","158657","SARL_v6","SARL_v698ofuhju","594ec90eca6e670001b2c184","fixation","","","img/fixation.png","null","","","test","","","","","","","","","","","","","","","","","","","",""
"254","158914","SARL_v6","SARL_v698ofuhju","594ec90eca6e670001b2c184","freq","","","img/orange_2bandit_a2.png","70","","70","test","1","","10","","","","square","circle","10","10","1","1","","","","","","","",""
"null","159479","SARL_v6","SARL_v698ofuhju","594ec90eca6e670001b2c184","freq_resp","","","img/orange_2bandit_a.png","70","img/orange_2bandit_a.png","70","test","","","","","","","","","","","1","","","","","","","","",""
"null","159635","SARL_v6","SARL_v698ofuhju","594ec90eca6e670001b2c184","fixation","","","img/fixation.png","null","","","test","","","","","","","","","","","","","","","","","","","",""
"286.8999999910593","159926","SARL_v6","SARL_v698ofuhju","594ec90eca6e670001b2c184","freq","","","img/orange_2bandit_a2.png","70","","70","test","1","","11","","","","square","circle","11","11","1","1","","","","","","","",""
"null","160453","SARL_v6","SARL_v698ofuhju","594ec90eca6e670001b2c184","freq_resp","","","img/orange_2bandit_a.png","70","img/orange_2bandit_a.png","70","test","","","","","","","","","","","1","","","","","","","","",""
"null","160608","SARL_v6","SARL_v698ofuhju","594ec90eca6e670001b2c184","fixation","","","img/fixation.png","null","","","test","","","","","","","","","","","","","","","","","","","",""
"346","160959","SARL_v6","SARL_v698ofuhju","594ec90eca6e670001b2c184","infreq","","","img/blue_2bandit_a2.png","70","","68","test","0","","12","","","","square","circle","12","12","1","0.9166666666666666","","","","","","","",""
"null","161420","SARL_v6","SARL_v698ofuhju","594ec90eca6e670001b2c184","infreq_resp","","","img/blue_2bandit_a.png","70","img/blue_2bandit_a.png","68","test","","","","","","","","","","","1","","","","","","","","",""
"null","161575","SARL_v6","SARL_v698ofuhju","594ec90eca6e670001b2c184","fixation","","","img/fixation.png","null","","","test","","","","","","","","","","","","","","","","","","","",""
"722.5999999940395","162303","SARL_v6","SARL_v698ofuhju","594ec90eca6e670001b2c184","freq","","","img/orange_2bandit_a2.png","70","","70","test","1","","13","","","","square","circle","13","13","1","0.9230769230769231","","","","","","","",""
"null","162385","SARL_v6","SARL_v698ofuhju","594ec90eca6e670001b2c184","freq_resp","","","img/orange_2bandit_a.png","70","img/orange_2bandit_a.png","70","test","","","","","","","","","","","1","","","","","","","","",""
"null","162540","SARL_v6","SARL_v698ofuhju","594ec90eca6e670001b2c184","fixation","","","img/fixation.png","null","","","test","","","","","","","","","","","","","","","","","","","",""
"596","163140","SARL_v6","SARL_v698ofuhju","594ec90eca6e670001b2c184","freq","","","img/orange_2bandit_a2.png","70","","70","test","1","","14","","","","square","circle","14","14","1","0.9285714285714286","","","","","","","",""
"null","163347","SARL_v6","SARL_v698ofuhju","594ec90eca6e670001b2c184","freq_resp","","","img/orange_2bandit_a.png","70","img/orange_2bandit_a.png","70","test","","","","","","","","","","","1","","","","","","","","",""
"null","163502","SARL_v6","SARL_v698ofuhju","594ec90eca6e670001b2c184","fixation","","","img/fixation.png","null","","","test","","","","","","","","","","","","","","","","","","","",""
"394.90000000596046","163902","SARL_v6","SARL_v698ofuhju","594ec90eca6e670001b2c184","freq","","","img/orange_2bandit_a2.png","70","","70","test","1","","15","","","","square","circle","15","15","1","0.9333333333333333","","","","","","","",""
"null","164327","SARL_v6","SARL_v698ofuhju","594ec90eca6e670001b2c184","freq_resp","","","img/orange_2bandit_a.png","70","img/orange_2bandit_a.png","70","test","","","","","","","","","","","1","","","","","","","","",""
"null","164495","SARL_v6","SARL_v698ofuhju","594ec90eca6e670001b2c184","fixation","","","img/fixation.png","null","","","test","","","","","","","","","","","","","","","","","","","",""
"426.20000000298023","164925","SARL_v6","SARL_v698ofuhju","594ec90eca6e670001b2c184","freq","","","img/orange_2bandit_a2.png","70","","70","test","1","","16","","","","square","circle","16","16","1","0.9375","","","","","","","",""
"null","165308","SARL_v6","SARL_v698ofuhju","594ec90eca6e670001b2c184","freq_resp","","","img/orange_2bandit_a.png","70","img/orange_2bandit_a.png","70","test","","","","","","","","","","","1","","","","","","","","",""
"null","165466","SARL_v6","SARL_v698ofuhju","594ec90eca6e670001b2c184","fixation","","","img/fixation.png","null","","","test","","","","","","","","","","","","","","","","","","","",""
"358.5","165829","SARL_v6","SARL_v698ofuhju","594ec90eca6e670001b2c184","freq","","","img/orange_2bandit_a2.png","70","","70","test","1","","17","","","","square","circle","17","17","1","0.9411764705882353","","","","","","","",""
"null","166288","SARL_v6","SARL_v698ofuhju","594ec90eca6e670001b2c184","freq_resp","","","img/orange_2bandit_a.png","70","img/orange_2bandit_a.png","70","test","","","","","","","","","","","1","","","","","","","","",""
"null","166441","SARL_v6","SARL_v698ofuhju","594ec90eca6e670001b2c184","fixation","","","img/fixation.png","null","","","test","","","","","","","","","","","","","","","","","","","",""
"321.29999999701977","166767","SARL_v6","SARL_v698ofuhju","594ec90eca6e670001b2c184","freq","","","img/orange_2bandit_a2.png","70","","70","test","1","","18","","","","square","circle","18","18","1","0.9444444444444444","","","","","","","",""
"null","167268","SARL_v6","SARL_v698ofuhju","594ec90eca6e670001b2c184","freq_resp","","","img/orange_2bandit_a.png","70","img/orange_2bandit_a.png","70","test","","","","","","","","","","","1","","","","","","","","",""
"null","167422","SARL_v6","SARL_v698ofuhju","594ec90eca6e670001b2c184","fixation","","","img/fixation.png","null","","","test","","","","","","","","","","","","","","","","","","","",""
"339.90000000596046","167765","SARL_v6","SARL_v698ofuhju","594ec90eca6e670001b2c184","freq","","","img/orange_2bandit_a2.png","70","","70","test","1","","19","","","","square","circle","19","19","1","0.9473684210526315","","","","","","","",""
"null","168243","SARL_v6","SARL_v698ofuhju","594ec90eca6e670001b2c184","freq_resp","","","img/orange_2bandit_a.png","70","img/orange_2bandit_a.png","70","test","","","","","","","","","","","1","","","","","","","","",""
"null","168397","SARL_v6","SARL_v698ofuhju","594ec90eca6e670001b2c184","fixation","","","img/fixation.png","null","","","test","","","","","","","","","","","","","","","","","","","",""
"449.29999999701977","168851","SARL_v6","SARL_v698ofuhju","594ec90eca6e670001b2c184","freq","","","img/orange_2bandit_a2.png","70","","70","test","1","","20","","","","square","circle","20","20","1","0.95","","","","","","","",""
"null","169208","SARL_v6","SARL_v698ofuhju","594ec90eca6e670001b2c184","freq_resp","","","img/orange_2bandit_a.png","70","img/orange_2bandit_a.png","70","test","","","","","","","","","","","1","","","","","","","","",""
"null","169362","SARL_v6","SARL_v698ofuhju","594ec90eca6e670001b2c184","fixation","","","img/fixation.png","null","","","test","","","","","","","","","","","","","","","","","","","",""
"427.5","169792","SARL_v6","SARL_v698ofuhju","594ec90eca6e670001b2c184","freq","","","img/orange_2bandit_a2.png","70","","70","test","1","","21","","","","square","circle","21","21","1","0.9523809523809523","","","","","","","",""
"null","170170","SARL_v6","SARL_v698ofuhju","594ec90eca6e670001b2c184","freq_resp","","","img/orange_2bandit_a.png","70","img/orange_2bandit_a.png","70","test","","","","","","","","","","","1","","","","","","","","",""
"null","170340","SARL_v6","SARL_v698ofuhju","594ec90eca6e670001b2c184","fixation","","","img/fixation.png","null","","","test","","","","","","","","","","","","","","","","","","","",""
"518.5","170862","SARL_v6","SARL_v698ofuhju","594ec90eca6e670001b2c184","infreq","","","img/blue_2bandit_a2.png","68","","68","test","1","","22","","","","square","circle","22","22","1","0.9545454545454546","","","","","","","",""
"null","171161","SARL_v6","SARL_v698ofuhju","594ec90eca6e670001b2c184","infreq_resp","","","img/blue_2bandit_a.png","68","img/blue_2bandit_a.png","68","test","","","","","","","","","","","1","","","","","","","","",""
"null","171316","SARL_v6","SARL_v698ofuhju","594ec90eca6e670001b2c184","fixation","","","img/fixation.png","null","","","test","","","","","","","","","","","","","","","","","","","",""
"501.20000000298023","171821","SARL_v6","SARL_v698ofuhju","594ec90eca6e670001b2c184","freq","","","img/orange_2bandit_a2.png","70","","70","test","1","","23","","","","square","circle","23","23","1","0.9565217391304348","","","","","","","",""
"null","172125","SARL_v6","SARL_v698ofuhju","594ec90eca6e670001b2c184","freq_resp","","","img/orange_2bandit_a.png","70","img/orange_2bandit_a.png","70","test","","","","","","","","","","","1","","","","","","","","",""
"null","172282","SARL_v6","SARL_v698ofuhju","594ec90eca6e670001b2c184","fixation","","","img/fixation.png","null","","","test","","","","","","","","","","","","","","","","","","","",""
"404.70000000298023","172691","SARL_v6","SARL_v698ofuhju","594ec90eca6e670001b2c184","freq","","","img/orange_2bandit_a2.png","70","","70","test","1","","24","","","","square","circle","24","24","1","0.9583333333333334","","","","","","","",""
"null","173103","SARL_v6","SARL_v698ofuhju","594ec90eca6e670001b2c184","freq_resp","","","img/orange_2bandit_a.png","70","img/orange_2bandit_a.png","70","test","","","","","","","","","","","1","","","","","","","","",""
"null","173271","SARL_v6","SARL_v698ofuhju","594ec90eca6e670001b2c184","fixation","","","img/fixation.png","null","","","test","","","","","","","","","","","","","","","","","","","",""
"405","173680","SARL_v6","SARL_v698ofuhju","594ec90eca6e670001b2c184","freq","","","img/orange_2bandit_a2.png","70","","70","test","1","","25","","","","square","circle","25","25","1","0.96","","","","","","","",""
"null","174092","SARL_v6","SARL_v698ofuhju","594ec90eca6e670001b2c184","freq_resp","","","img/orange_2bandit_a.png","70","img/orange_2bandit_a.png","70","test","","","","","","","","","","","1","","","","","","","","",""
"null","174246","SARL_v6","SARL_v698ofuhju","594ec90eca6e670001b2c184","fixation","","","img/fixation.png","null","","","test","","","","","","","","","","","","","","","","","","","",""
"464.6000000089407","174714","SARL_v6","SARL_v698ofuhju","594ec90eca6e670001b2c184","freq","","","img/orange_2bandit_a2.png","70","","70","test","1","","26","","","","square","circle","26","26","1","0.9615384615384616","","","","","","","",""
"null","175066","SARL_v6","SARL_v698ofuhju","594ec90eca6e670001b2c184","freq_resp","","","img/orange_2bandit_a.png","70","img/orange_2bandit_a.png","70","test","","","","","","","","","","","1","","","","","","","","",""
"null","175232","SARL_v6","SARL_v698ofuhju","594ec90eca6e670001b2c184","fixation","","","img/fixation.png","null","","","test","","","","","","","","","","","","","","","","","","","",""
"736.5","175972","SARL_v6","SARL_v698ofuhju","594ec90eca6e670001b2c184","rl","","","img/black_2bandit_a2.png","75","","0","test","","","27","","","-3","square","circle","","0","1","","75","-3","-3","-3","-3","circle","1","0"
"null","176743","SARL_v6","SARL_v698ofuhju","594ec90eca6e670001b2c184","feedback","","","<div class=""verylowPoints""> -3 </div>","null","","na","test","","","NaN","","","","","","","","1","","75","","","","","","1",""
"null","177553","SARL_v6","SARL_v698ofuhju","594ec90eca6e670001b2c184","freq","","","img/orange_2bandit_a2.png","null","","70","test","0","","28","","","","square","circle","27","1","2","0.9259259259259259","","","","","","","",""
"null","177711","SARL_v6","SARL_v698ofuhju","594ec90eca6e670001b2c184","fixation","","","img/fixation.png","null","","","test","","","","","","","","","","","","","","","","","","","",""
"561.8999999910593","178277","SARL_v6","SARL_v698ofuhju","594ec90eca6e670001b2c184","freq","","","img/orange_2bandit_a2.png","70","","70","test","1","","29","","","","square","circle","28","2","2","0.9285714285714286","","","","","","","",""
"null","178522","SARL_v6","SARL_v698ofuhju","594ec90eca6e670001b2c184","freq_resp","","","img/orange_2bandit_a.png","70","img/orange_2bandit_a.png","70","test","","","","","","","","","","","2","","","","","","","","",""
"null","178676","SARL_v6","SARL_v698ofuhju","594ec90eca6e670001b2c184","fixation","","","img/fixation.png","null","","","test","","","","","","","","","","","","","","","","","","","",""
"423","179105","SARL_v6","SARL_v698ofuhju","594ec90eca6e670001b2c184","freq","","","img/orange_2bandit_a2.png","70","","70","test","1","","30","","","","square","circle","29","3","2","0.9310344827586207","","","","","","","",""
"null","179501","SARL_v6","SARL_v698ofuhju","594ec90eca6e670001b2c184","freq_resp","","","img/orange_2bandit_a.png","70","img/orange_2bandit_a.png","70","test","","","","","","","","","","","2","","","","","","","","",""
"null","179668","SARL_v6","SARL_v698ofuhju","594ec90eca6e670001b2c184","fixation","","","img/fixation.png","null","","","test","","","","","","","","","","","","","","","","","","","",""
"634.7000000029802","180307","SARL_v6","SARL_v698ofuhju","594ec90eca6e670001b2c184","freq","","","img/orange_2bandit_a2.png","70","","70","test","1","","31","","","","square","circle","30","4","2","0.9333333333333333","","","","","","","",""
"null","180488","SARL_v6","SARL_v698ofuhju","594ec90eca6e670001b2c184","freq_resp","","","img/orange_2bandit_a.png","70","img/orange_2bandit_a.png","70","test","","","","","","","","","","","2","","","","","","","","",""
"null","180644","SARL_v6","SARL_v698ofuhju","594ec90eca6e670001b2c184","fixation","","","img/fixation.png","null","","","test","","","","","","","","","","","","","","","","","","","",""
"421.79999999701977","181070","SARL_v6","SARL_v698ofuhju","594ec90eca6e670001b2c184","freq","","","img/orange_2bandit_a2.png","70","","70","test","1","","32","","","","square","circle","31","5","2","0.9354838709677419","","","","","","","",""
"null","181464","SARL_v6","SARL_v698ofuhju","594ec90eca6e670001b2c184","freq_resp","","","img/orange_2bandit_a.png","70","img/orange_2bandit_a.png","70","test","","","","","","","","","","","2","","","","","","","","",""
"null","181620","SARL_v6","SARL_v698ofuhju","594ec90eca6e670001b2c184","fixation","","","img/fixation.png","null","","","test","","","","","","","","","","","","","","","","","","","",""
"382","182007","SARL_v6","SARL_v698ofuhju","594ec90eca6e670001b2c184","freq","","","img/orange_2bandit_a2.png","70","","70","test","1","","33","","","","square","circle","32","6","2","0.9375","","","","","","","",""
"null","182445","SARL_v6","SARL_v698ofuhju","594ec90eca6e670001b2c184","freq_resp","","","img/orange_2bandit_a.png","70","img/orange_2bandit_a.png","70","test","","","","","","","","","","","2","","","","","","","","",""
"null","182615","SARL_v6","SARL_v698ofuhju","594ec90eca6e670001b2c184","fixation","","","img/fixation.png","null","","","test","","","","","","","","","","","","","","","","","","","",""
"364.80000001192093","182985","SARL_v6","SARL_v698ofuhju","594ec90eca6e670001b2c184","freq","","","img/orange_2bandit_a2.png","70","","70","test","1","","34","","","","square","circle","33","7","2","0.9393939393939394","","","","","","","",""
"null","183435","SARL_v6","SARL_v698ofuhju","594ec90eca6e670001b2c184","freq_resp","","","img/orange_2bandit_a.png","70","img/orange_2bandit_a.png","70","test","","","","","","","","","","","2","","","","","","","","",""
"null","183590","SARL_v6","SARL_v698ofuhju","594ec90eca6e670001b2c184","fixation","","","img/fixation.png","null","","","test","","","","","","","","","","","","","","","","","","","",""
"607.2000000029802","184201","SARL_v6","SARL_v698ofuhju","594ec90eca6e670001b2c184","infreq","","","img/blue_2bandit_a2.png","68","","68","test","1","","35","","","","square","circle","34","8","2","0.9411764705882353","","","","","","","",""
"null","184412","SARL_v6","SARL_v698ofuhju","594ec90eca6e670001b2c184","infreq_resp","","","img/blue_2bandit_a.png","68","img/blue_2bandit_a.png","68","test","","","","","","","","","","","2","","","","","","","","",""
"null","184567","SARL_v6","SARL_v698ofuhju","594ec90eca6e670001b2c184","fixation","","","img/fixation.png","null","","","test","","","","","","","","","","","","","","","","","","","",""
"509.09999999403954","185081","SARL_v6","SARL_v698ofuhju","594ec90eca6e670001b2c184","freq","","","img/orange_2bandit_a2.png","70","","70","test","1","","36","","","","square","circle","35","9","2","0.9428571428571428","","","","","","","",""
"null","185387","SARL_v6","SARL_v698ofuhju","594ec90eca6e670001b2c184","freq_resp","","","img/orange_2bandit_a.png","70","img/orange_2bandit_a.png","70","test","","","","","","","","","","","2","","","","","","","","",""
"null","185543","SARL_v6","SARL_v698ofuhju","594ec90eca6e670001b2c184","fixation","","","img/fixation.png","null","","","test","","","","","","","","","","","","","","","","","","","",""
"662.3000000119209","186210","SARL_v6","SARL_v698ofuhju","594ec90eca6e670001b2c184","freq","","","img/orange_2bandit_a2.png","70","","70","test","1","","37","","","","square","circle","36","10","2","0.9444444444444444","","","","","","","",""
"null","186363","SARL_v6","SARL_v698ofuhju","594ec90eca6e670001b2c184","freq_resp","","","img/orange_2bandit_a.png","70","img/orange_2bandit_a.png","70","test","","","","","","","","","","","2","","","","","","","","",""
"null","186518","SARL_v6","SARL_v698ofuhju","594ec90eca6e670001b2c184","fixation","","","img/fixation.png","null","","","test","","","","","","","","","","","","","","","","","","","",""
"496.09999999403954","187017","SARL_v6","SARL_v698ofuhju","594ec90eca6e670001b2c184","freq","","","img/orange_2bandit_a2.png","70","","70","test","1","","38","","","","square","circle","37","11","2","0.9459459459459459","","","","","","","",""
"null","187328","SARL_v6","SARL_v698ofuhju","594ec90eca6e670001b2c184","freq_resp","","","img/orange_2bandit_a.png","70","img/orange_2bandit_a.png","70","test","","","","","","","","","","","2","","","","","","","","",""
"null","187482","SARL_v6","SARL_v698ofuhju","594ec90eca6e670001b2c184","fixation","","","img/fixation.png","null","","","test","","","","","","","","","","","","","","","","","","","",""
"413.09999999403954","187899","SARL_v6","SARL_v698ofuhju","594ec90eca6e670001b2c184","freq","","","img/orange_2bandit_a2.png","70","","70","test","1","","39","","","","square","circle","38","12","2","0.9473684210526315","","","","","","","",""
"null","188297","SARL_v6","SARL_v698ofuhju","594ec90eca6e670001b2c184","freq_resp","","","img/orange_2bandit_a.png","70","img/orange_2bandit_a.png","70","test","","","","","","","","","","","2","","","","","","","","",""
"null","188452","SARL_v6","SARL_v698ofuhju","594ec90eca6e670001b2c184","fixation","","","img/fixation.png","null","","","test","","","","","","","","","","","","","","","","","","","",""
"362.5","188818","SARL_v6","SARL_v698ofuhju","594ec90eca6e670001b2c184","freq","","","img/orange_2bandit_a2.png","70","","70","test","1","","40","","","","square","circle","39","13","2","0.9487179487179487","","","","","","","",""
"null","189263","SARL_v6","SARL_v698ofuhju","594ec90eca6e670001b2c184","freq_resp","","","img/orange_2bandit_a.png","70","img/orange_2bandit_a.png","70","test","","","","","","","","","","","2","","","","","","","","",""
"null","189418","SARL_v6","SARL_v698ofuhju","594ec90eca6e670001b2c184","fixation","","","img/fixation.png","null","","","test","","","","","","","","","","","","","","","","","","","",""
"449.20000000298023","189871","SARL_v6","SARL_v698ofuhju","594ec90eca6e670001b2c184","freq","","","img/orange_2bandit_a2.png","70","","70","test","1","","41","","","","square","circle","40","14","2","0.95","","","","","","","",""
"null","190240","SARL_v6","SARL_v698ofuhju","594ec90eca6e670001b2c184","freq_resp","","","img/orange_2bandit_a.png","70","img/orange_2bandit_a.png","70","test","","","","","","","","","","","2","","","","","","","","",""
"null","190410","SARL_v6","SARL_v698ofuhju","594ec90eca6e670001b2c184","fixation","","","img/fixation.png","null","","","test","","","","","","","","","","","","","","","","","","","",""
"620.1000000089407","191033","SARL_v6","SARL_v698ofuhju","594ec90eca6e670001b2c184","infreq","","","img/blue_2bandit_a2.png","68","","68","test","1","","42","","","","square","circle","41","15","2","0.9512195121951219","","","","","","","",""
"null","191220","SARL_v6","SARL_v698ofuhju","594ec90eca6e670001b2c184","infreq_resp","","","img/blue_2bandit_a.png","68","img/blue_2bandit_a.png","68","test","","","","","","","","","","","2","","","","","","","","",""
"null","191375","SARL_v6","SARL_v698ofuhju","594ec90eca6e670001b2c184","fixation","","","img/fixation.png","null","","","test","","","","","","","","","","","","","","","","","","","",""
"460.80000001192093","191840","SARL_v6","SARL_v698ofuhju","594ec90eca6e670001b2c184","freq","","","img/orange_2bandit_a2.png","70","","70","test","1","","43","","","","square","circle","42","16","2","0.9523809523809523","","","","","","","",""
"null","192200","SARL_v6","SARL_v698ofuhju","594ec90eca6e670001b2c184","freq_resp","","","img/orange_2bandit_a.png","70","img/orange_2bandit_a.png","70","test","","","","","","","","","","","2","","","","","","","","",""
"null","192369","SARL_v6","SARL_v698ofuhju","594ec90eca6e670001b2c184","fixation","","","img/fixation.png","null","","","test","","","","","","","","","","","","","","","","","","","",""
"460.1000000089407","192835","SARL_v6","SARL_v698ofuhju","594ec90eca6e670001b2c184","freq","","","img/orange_2bandit_a2.png","70","","70","test","1","","44","","","","square","circle","43","17","2","0.9534883720930233","","","","","","","",""
"null","193194","SARL_v6","SARL_v698ofuhju","594ec90eca6e670001b2c184","freq_resp","","","img/orange_2bandit_a.png","70","img/orange_2bandit_a.png","70","test","","","","","","","","","","","2","","","","","","","","",""
"null","193350","SARL_v6","SARL_v698ofuhju","594ec90eca6e670001b2c184","fixation","","","img/fixation.png","null","","","test","","","","","","","","","","","","","","","","","","","",""
"402.3999999910593","193755","SARL_v6","SARL_v698ofuhju","594ec90eca6e670001b2c184","freq","","","img/orange_2bandit_a2.png","70","","70","test","1","","45","","","","square","circle","44","18","2","0.9545454545454546","","","","","","","",""
"null","194171","SARL_v6","SARL_v698ofuhju","594ec90eca6e670001b2c184","freq_resp","","","img/orange_2bandit_a.png","70","img/orange_2bandit_a.png","70","test","","","","","","","","","","","2","","","","","","","","",""
"null","194330","SARL_v6","SARL_v698ofuhju","594ec90eca6e670001b2c184","fixation","","","img/fixation.png","null","","","test","","","","","","","","","","","","","","","","","","","",""
"427","194762","SARL_v6","SARL_v698ofuhju","594ec90eca6e670001b2c184","freq","","","img/orange_2bandit_a2.png","70","","70","test","1","","46","","","","square","circle","45","19","2","0.9555555555555556","","","","","","","",""
"null","195150","SARL_v6","SARL_v698ofuhju","594ec90eca6e670001b2c184","freq_resp","","","img/orange_2bandit_a.png","70","img/orange_2bandit_a.png","70","test","","","","","","","","","","","2","","","","","","","","",""
"null","195305","SARL_v6","SARL_v698ofuhju","594ec90eca6e670001b2c184","fixation","","","img/fixation.png","null","","","test","","","","","","","","","","","","","","","","","","","",""
"431.5","195741","SARL_v6","SARL_v698ofuhju","594ec90eca6e670001b2c184","freq","","","img/orange_2bandit_a2.png","70","","70","test","1","","47","","","","square","circle","46","20","2","0.9565217391304348","","","","","","","",""
"null","196127","SARL_v6","SARL_v698ofuhju","594ec90eca6e670001b2c184","freq_resp","","","img/orange_2bandit_a.png","70","img/orange_2bandit_a.png","70","test","","","","","","","","","","","2","","","","","","","","",""
"null","196286","SARL_v6","SARL_v698ofuhju","594ec90eca6e670001b2c184","fixation","","","img/fixation.png","null","","","test","","","","","","","","","","","","","","","","","","","",""
"424.09999999403954","196715","SARL_v6","SARL_v698ofuhju","594ec90eca6e670001b2c184","freq","","","img/orange_2bandit_a2.png","70","","70","test","1","","48","","","","square","circle","47","21","2","0.9574468085106383","","","","","","","",""
"null","197094","SARL_v6","SARL_v698ofuhju","594ec90eca6e670001b2c184","freq_resp","","","img/orange_2bandit_a.png","70","img/orange_2bandit_a.png","70","test","","","","","","","","","","","2","","","","","","","","",""
"null","197250","SARL_v6","SARL_v698ofuhju","594ec90eca6e670001b2c184","fixation","","","img/fixation.png","null","","","test","","","","","","","","","","","","","","","","","","","",""
"394.29999999701977","197649","SARL_v6","SARL_v698ofuhju","594ec90eca6e670001b2c184","freq","","","img/orange_2bandit_a2.png","70","","70","test","1","","49","","","","square","circle","48","22","2","0.9583333333333334","","","","","","","",""
"null","198059","SARL_v6","SARL_v698ofuhju","594ec90eca6e670001b2c184","freq_resp","","","img/orange_2bandit_a.png","70","img/orange_2bandit_a.png","70","test","","","","","","","","","","","2","","","","","","","","",""
"null","198216","SARL_v6","SARL_v698ofuhju","594ec90eca6e670001b2c184","fixation","","","img/fixation.png","null","","","test","","","","","","","","","","","","","","","","","","","",""
"382.09999999403954","198600","SARL_v6","SARL_v698ofuhju","594ec90eca6e670001b2c184","freq","","","img/orange_2bandit_a2.png","70","","70","test","1","","50","","","","square","circle","49","23","2","0.9591836734693877","","","","","","","",""
"null","199030","SARL_v6","SARL_v698ofuhju","594ec90eca6e670001b2c184","freq_resp","","","img/orange_2bandit_a.png","70","img/orange_2bandit_a.png","70","test","","","","","","","","","","","2","","","","","","","","",""
"null","199197","SARL_v6","SARL_v698ofuhju","594ec90eca6e670001b2c184","fixation","","","img/fixation.png","null","","","test","","","","","","","","","","","","","","","","","","","",""
"429.29999999701977","199631","SARL_v6","SARL_v698ofuhju","594ec90eca6e670001b2c184","freq","","","img/orange_2bandit_a2.png","70","","70","test","1","","51","","","","square","circle","50","24","2","0.96","","","","","","","",""
"null","200007","SARL_v6","SARL_v698ofuhju","594ec90eca6e670001b2c184","freq_resp","","","img/orange_2bandit_a.png","70","img/orange_2bandit_a.png","70","test","","","","","","","","","","","2","","","","","","","","",""
"null","200176","SARL_v6","SARL_v698ofuhju","594ec90eca6e670001b2c184","fixation","","","img/fixation.png","null","","","test","","","","","","","","","","","","","","","","","","","",""
"680.5999999940395","200861","SARL_v6","SARL_v698ofuhju","594ec90eca6e670001b2c184","rl","","","img/black_2bandit_a2.png","74","","0","test","","","52","","","-8","square","circle","","0","2","","74","-5","-8","-8","-5","square","2","0"
"null","201620","SARL_v6","SARL_v698ofuhju","594ec90eca6e670001b2c184","feedback","","","<div class=""verylowPoints_sq""> -8 </div>","null","","na","test","","","NaN","","","","","","","","2","","74","","","","","","2",""
"592.8999999910593","202217","SARL_v6","SARL_v698ofuhju","594ec90eca6e670001b2c184","freq","","","img/orange_2bandit_a2.png","70","","70","test","1","","53","","","","square","circle","51","1","3","0.9607843137254902","","","","","","","",""
"null","202441","SARL_v6","SARL_v698ofuhju","594ec90eca6e670001b2c184","freq_resp","","","img/orange_2bandit_a.png","70","img/orange_2bandit_a.png","70","test","","","","","","","","","","","3","","","","","","","","",""
"null","202610","SARL_v6","SARL_v698ofuhju","594ec90eca6e670001b2c184","fixation","","","img/fixation.png","null","","","test","","","","","","","","","","","","","","","","","","","",""
"342.1000000089407","202955","SARL_v6","SARL_v698ofuhju","594ec90eca6e670001b2c184","freq","","","img/orange_2bandit_a2.png","70","","70","test","1","","54","","","","square","circle","52","2","3","0.9615384615384616","","","","","","","",""
"null","203431","SARL_v6","SARL_v698ofuhju","594ec90eca6e670001b2c184","freq_resp","","","img/orange_2bandit_a.png","70","img/orange_2bandit_a.png","70","test","","","","","","","","","","","3","","","","","","","","",""
"null","203586","SARL_v6","SARL_v698ofuhju","594ec90eca6e670001b2c184","fixation","","","img/fixation.png","null","","","test","","","","","","","","","","","","","","","","","","","",""
"449","204040","SARL_v6","SARL_v698ofuhju","594ec90eca6e670001b2c184","freq","","","img/orange_2bandit_a2.png","70","","70","test","1","","55","","","","square","circle","53","3","3","0.9622641509433962","","","","","","","",""
"null","204395","SARL_v6","SARL_v698ofuhju","594ec90eca6e670001b2c184","freq_resp","","","img/orange_2bandit_a.png","70","img/orange_2bandit_a.png","70","test","","","","","","","","","","","3","","","","","","","","",""
"null","204551","SARL_v6","SARL_v698ofuhju","594ec90eca6e670001b2c184","fixation","","","img/fixation.png","null","","","test","","","","","","","","","","","","","","","","","","","",""
"324.79999999701977","204881","SARL_v6","SARL_v698ofuhju","594ec90eca6e670001b2c184","freq","","","img/orange_2bandit_a2.png","70","","70","test","1","","56","","","","square","circle","54","4","3","0.9629629629629629","","","","","","","",""
"null","205374","SARL_v6","SARL_v698ofuhju","594ec90eca6e670001b2c184","freq_resp","","","img/orange_2bandit_a.png","70","img/orange_2bandit_a.png","70","test","","","","","","","","","","","3","","","","","","","","",""
"null","205529","SARL_v6","SARL_v698ofuhju","594ec90eca6e670001b2c184","fixation","","","img/fixation.png","null","","","test","","","","","","","","","","","","","","","","","","","",""
"335.20000000298023","205869","SARL_v6","SARL_v698ofuhju","594ec90eca6e670001b2c184","freq","","","img/orange_2bandit_a2.png","70","","70","test","1","","57","","","","square","circle","55","5","3","0.9636363636363636","","","","","","","",""
"null","206340","SARL_v6","SARL_v698ofuhju","594ec90eca6e670001b2c184","freq_resp","","","img/orange_2bandit_a.png","70","img/orange_2bandit_a.png","70","test","","","","","","","","","","","3","","","","","","","","",""
"null","206495","SARL_v6","SARL_v698ofuhju","594ec90eca6e670001b2c184","fixation","","","img/fixation.png","null","","","test","","","","","","","","","","","","","","","","","","","",""
"359.5","206859","SARL_v6","SARL_v698ofuhju","594ec90eca6e670001b2c184","freq","","","img/orange_2bandit_a2.png","70","","70","test","1","","58","","","","square","circle","56","6","3","0.9642857142857143","","","","","","","",""
"null","207308","SARL_v6","SARL_v698ofuhju","594ec90eca6e670001b2c184","freq_resp","","","img/orange_2bandit_a.png","70","img/orange_2bandit_a.png","70","test","","","","","","","","","","","3","","","","","","","","",""
"null","207464","SARL_v6","SARL_v698ofuhju","594ec90eca6e670001b2c184","fixation","","","img/fixation.png","null","","","test","","","","","","","","","","","","","","","","","","","",""
"374.70000000298023","207842","SARL_v6","SARL_v698ofuhju","594ec90eca6e670001b2c184","freq","","","img/orange_2bandit_a2.png","70","","70","test","1","","59","","","","square","circle","57","7","3","0.9649122807017544","","","","","","","",""
"null","208278","SARL_v6","SARL_v698ofuhju","594ec90eca6e670001b2c184","freq_resp","","","img/orange_2bandit_a.png","70","img/orange_2bandit_a.png","70","test","","","","","","","","","","","3","","","","","","","","",""
"null","208448","SARL_v6","SARL_v698ofuhju","594ec90eca6e670001b2c184","fixation","","","img/fixation.png","null","","","test","","","","","","","","","","","","","","","","","","","",""
"723.0999999940395","209178","SARL_v6","SARL_v698ofuhju","594ec90eca6e670001b2c184","infreq","","","img/blue_2bandit_a2.png","68","","68","test","1","","60","","","","square","circle","58","8","3","0.9655172413793104","","","","","","","",""
"null","209258","SARL_v6","SARL_v698ofuhju","594ec90eca6e670001b2c184","infreq_resp","","","img/blue_2bandit_a.png","68","img/blue_2bandit_a.png","68","test","","","","","","","","","","","3","","","","","","","","",""
"null","209424","SARL_v6","SARL_v698ofuhju","594ec90eca6e670001b2c184","fixation","","","img/fixation.png","null","","","test","","","","","","","","","","","","","","","","","","","",""
"415.20000000298023","209844","SARL_v6","SARL_v698ofuhju","594ec90eca6e670001b2c184","infreq","","","img/blue_2bandit_a2.png","68","","68","test","1","","61","","","","square","circle","59","9","3","0.9661016949152542","","","","","","","",""
"null","210247","SARL_v6","SARL_v698ofuhju","594ec90eca6e670001b2c184","infreq_resp","","","img/blue_2bandit_a.png","68","img/blue_2bandit_a.png","68","test","","","","","","","","","","","3","","","","","","","","",""
"null","210401","SARL_v6","SARL_v698ofuhju","594ec90eca6e670001b2c184","fixation","","","img/fixation.png","null","","","test","","","","","","","","","","","","","","","","","","","",""
"453.6000000089407","210858","SARL_v6","SARL_v698ofuhju","594ec90eca6e670001b2c184","freq","","","img/orange_2bandit_a2.png","70","","70","test","1","","62","","","","square","circle","60","10","3","0.9666666666666667","","","","","","","",""
"null","211224","SARL_v6","SARL_v698ofuhju","594ec90eca6e670001b2c184","freq_resp","","","img/orange_2bandit_a.png","70","img/orange_2bandit_a.png","70","test","","","","","","","","","","","3","","","","","","","","",""
"null","211378","SARL_v6","SARL_v698ofuhju","594ec90eca6e670001b2c184","fixation","","","img/fixation.png","null","","","test","","","","","","","","","","","","","","","","","","","",""
"404.6000000089407","211787","SARL_v6","SARL_v698ofuhju","594ec90eca6e670001b2c184","freq","","","img/orange_2bandit_a2.png","70","","70","test","1","","63","","","","square","circle","61","11","3","0.9672131147540983","","","","","","","",""
"null","212191","SARL_v6","SARL_v698ofuhju","594ec90eca6e670001b2c184","freq_resp","","","img/orange_2bandit_a.png","70","img/orange_2bandit_a.png","70","test","","","","","","","","","","","3","","","","","","","","",""
"null","212345","SARL_v6","SARL_v698ofuhju","594ec90eca6e670001b2c184","fixation","","","img/fixation.png","null","","","test","","","","","","","","","","","","","","","","","","","",""
"357","212707","SARL_v6","SARL_v698ofuhju","594ec90eca6e670001b2c184","freq","","","img/orange_2bandit_a2.png","70","","70","test","1","","64","","","","square","circle","62","12","3","0.967741935483871","","","","","","","",""
"null","213167","SARL_v6","SARL_v698ofuhju","594ec90eca6e670001b2c184","freq_resp","","","img/orange_2bandit_a.png","70","img/orange_2bandit_a.png","70","test","","","","","","","","","","","3","","","","","","","","",""
"null","213320","SARL_v6","SARL_v698ofuhju","594ec90eca6e670001b2c184","fixation","","","img/fixation.png","null","","","test","","","","","","","","","","","","","","","","","","","",""
"351.09999999403954","213675","SARL_v6","SARL_v698ofuhju","594ec90eca6e670001b2c184","freq","","","img/orange_2bandit_a2.png","70","","70","test","1","","65","","","","square","circle","63","13","3","0.9682539682539683","","","","","","","",""
"null","214131","SARL_v6","SARL_v698ofuhju","594ec90eca6e670001b2c184","freq_resp","","","img/orange_2bandit_a.png","70","img/orange_2bandit_a.png","70","test","","","","","","","","","","","3","","","","","","","","",""
"null","214285","SARL_v6","SARL_v698ofuhju","594ec90eca6e670001b2c184","fixation","","","img/fixation.png","null","","","test","","","","","","","","","","","","","","","","","","","",""
"324.3999999910593","214612","SARL_v6","SARL_v698ofuhju","594ec90eca6e670001b2c184","freq","","","img/orange_2bandit_a2.png","70","","70","test","1","","66","","","","square","circle","64","14","3","0.96875","","","","","","","",""
"null","215099","SARL_v6","SARL_v698ofuhju","594ec90eca6e670001b2c184","freq_resp","","","img/orange_2bandit_a.png","70","img/orange_2bandit_a.png","70","test","","","","","","","","","","","3","","","","","","","","",""
"null","215256","SARL_v6","SARL_v698ofuhju","594ec90eca6e670001b2c184","fixation","","","img/fixation.png","null","","","test","","","","","","","","","","","","","","","","","","","",""
"362.5","215623","SARL_v6","SARL_v698ofuhju","594ec90eca6e670001b2c184","freq","","","img/orange_2bandit_a2.png","70","","70","test","1","","67","","","","square","circle","65","15","3","0.9692307692307692","","","","","","","",""
"null","216078","SARL_v6","SARL_v698ofuhju","594ec90eca6e670001b2c184","freq_resp","","","img/orange_2bandit_a.png","70","img/orange_2bandit_a.png","70","test","","","","","","","","","","","3","","","","","","","","",""
"null","216232","SARL_v6","SARL_v698ofuhju","594ec90eca6e670001b2c184","fixation","","","img/fixation.png","null","","","test","","","","","","","","","","","","","","","","","","","",""
"364.40000000596046","216599","SARL_v6","SARL_v698ofuhju","594ec90eca6e670001b2c184","freq","","","img/orange_2bandit_a2.png","70","","70","test","1","","68","","","","square","circle","66","16","3","0.9696969696969697","","","","","","","",""
"null","217041","SARL_v6","SARL_v698ofuhju","594ec90eca6e670001b2c184","freq_resp","","","img/orange_2bandit_a.png","70","img/orange_2bandit_a.png","70","test","","","","","","","","","","","3","","","","","","","","",""
"null","217197","SARL_v6","SARL_v698ofuhju","594ec90eca6e670001b2c184","fixation","","","img/fixation.png","null","","","test","","","","","","","","","","","","","","","","","","","",""
"299.70000000298023","217500","SARL_v6","SARL_v698ofuhju","594ec90eca6e670001b2c184","freq","","","img/orange_2bandit_a2.png","70","","70","test","1","","69","","","","square","circle","67","17","3","0.9701492537313433","","","","","","","",""
"null","218006","SARL_v6","SARL_v698ofuhju","594ec90eca6e670001b2c184","freq_resp","","","img/orange_2bandit_a.png","70","img/orange_2bandit_a.png","70","test","","","","","","","","","","","3","","","","","","","","",""
"null","218162","SARL_v6","SARL_v698ofuhju","594ec90eca6e670001b2c184","fixation","","","img/fixation.png","null","","","test","","","","","","","","","","","","","","","","","","","",""
"416.6000000089407","218582","SARL_v6","SARL_v698ofuhju","594ec90eca6e670001b2c184","freq","","","img/orange_2bandit_a2.png","70","","70","test","1","","70","","","","square","circle","68","18","3","0.9705882352941176","","","","","","","",""
"null","218975","SARL_v6","SARL_v698ofuhju","594ec90eca6e670001b2c184","freq_resp","","","img/orange_2bandit_a.png","70","img/orange_2bandit_a.png","70","test","","","","","","","","","","","3","","","","","","","","",""
"null","219147","SARL_v6","SARL_v698ofuhju","594ec90eca6e670001b2c184","fixation","","","img/fixation.png","null","","","test","","","","","","","","","","","","","","","","","","","",""
"455.90000000596046","219607","SARL_v6","SARL_v698ofuhju","594ec90eca6e670001b2c184","freq","","","img/orange_2bandit_a2.png","70","","70","test","1","","71","","","","square","circle","69","19","3","0.9710144927536232","","","","","","","",""
"null","219964","SARL_v6","SARL_v698ofuhju","594ec90eca6e670001b2c184","freq_resp","","","img/orange_2bandit_a.png","70","img/orange_2bandit_a.png","70","test","","","","","","","","","","","3","","","","","","","","",""
"null","220123","SARL_v6","SARL_v698ofuhju","594ec90eca6e670001b2c184","fixation","","","img/fixation.png","null","","","test","","","","","","","","","","","","","","","","","","","",""
"478","220606","SARL_v6","SARL_v698ofuhju","594ec90eca6e670001b2c184","freq","","","img/orange_2bandit_a2.png","70","","70","test","1","","72","","","","square","circle","70","20","3","0.9714285714285714","","","","","","","",""
"null","220933","SARL_v6","SARL_v698ofuhju","594ec90eca6e670001b2c184","freq_resp","","","img/orange_2bandit_a.png","70","img/orange_2bandit_a.png","70","test","","","","","","","","","","","3","","","","","","","","",""
"null","221086","SARL_v6","SARL_v698ofuhju","594ec90eca6e670001b2c184","fixation","","","img/fixation.png","null","","","test","","","","","","","","","","","","","","","","","","","",""
"466.30000001192093","221556","SARL_v6","SARL_v698ofuhju","594ec90eca6e670001b2c184","freq","","","img/orange_2bandit_a2.png","70","","70","test","1","","73","","","","square","circle","71","21","3","0.971830985915493","","","","","","","",""
"null","221909","SARL_v6","SARL_v698ofuhju","594ec90eca6e670001b2c184","freq_resp","","","img/orange_2bandit_a.png","70","img/orange_2bandit_a.png","70","test","","","","","","","","","","","3","","","","","","","","",""
"null","222065","SARL_v6","SARL_v698ofuhju","594ec90eca6e670001b2c184","fixation","","","img/fixation.png","null","","","test","","","","","","","","","","","","","","","","","","","",""
"369.20000000298023","222439","SARL_v6","SARL_v698ofuhju","594ec90eca6e670001b2c184","freq","","","img/orange_2bandit_a2.png","70","","70","test","1","","74","","","","square","circle","72","22","3","0.9722222222222222","","","","","","","",""
"null","222887","SARL_v6","SARL_v698ofuhju","594ec90eca6e670001b2c184","freq_resp","","","img/orange_2bandit_a.png","70","img/orange_2bandit_a.png","70","test","","","","","","","","","","","3","","","","","","","","",""
"null","223042","SARL_v6","SARL_v698ofuhju","594ec90eca6e670001b2c184","fixation","","","img/fixation.png","null","","","test","","","","","","","","","","","","","","","","","","","",""
"690.8999999910593","223737","SARL_v6","SARL_v698ofuhju","594ec90eca6e670001b2c184","rl","","","img/black_2bandit_a2.png","75","","0","test","","","75","","","-4","square","circle","","0","3","","75","-4","-8","-8","-4","circle","3","0"
"null","224506","SARL_v6","SARL_v698ofuhju","594ec90eca6e670001b2c184","feedback","","","<div class=""verylowPoints""> -4 </div>","null","","na","test","","","NaN","","","","","","","","3","","75","","","","","","3",""
"559.4000000059605","225069","SARL_v6","SARL_v698ofuhju","594ec90eca6e670001b2c184","freq","","","img/orange_2bandit_a2.png","70","","70","test","1","","76","","","","square","circle","73","1","4","0.9726027397260274","","","","","","","",""
"null","225313","SARL_v6","SARL_v698ofuhju","594ec90eca6e670001b2c184","freq_resp","","","img/orange_2bandit_a.png","70","img/orange_2bandit_a.png","70","test","","","","","","","","","","","4","","","","","","","","",""
"null","225467","SARL_v6","SARL_v698ofuhju","594ec90eca6e670001b2c184","fixation","","","img/fixation.png","null","","","test","","","","","","","","","","","","","","","","","","","",""
"502.90000000596046","225975","SARL_v6","SARL_v698ofuhju","594ec90eca6e670001b2c184","freq","","","img/orange_2bandit_a2.png","70","","70","test","1","","77","","","","square","circle","74","2","4","0.972972972972973","","","","","","","",""
"null","226283","SARL_v6","SARL_v698ofuhju","594ec90eca6e670001b2c184","freq_resp","","","img/orange_2bandit_a.png","70","img/orange_2bandit_a.png","70","test","","","","","","","","","","","4","","","","","","","","",""
"null","226442","SARL_v6","SARL_v698ofuhju","594ec90eca6e670001b2c184","fixation","","","img/fixation.png","null","","","test","","","","","","","","","","","","","","","","","","","",""
"426.6000000089407","226874","SARL_v6","SARL_v698ofuhju","594ec90eca6e670001b2c184","freq","","","img/orange_2bandit_a2.png","70","","70","test","1","","78","","","","square","circle","75","3","4","0.9733333333333334","","","","","","","",""
"null","227265","SARL_v6","SARL_v698ofuhju","594ec90eca6e670001b2c184","freq_resp","","","img/orange_2bandit_a.png","70","img/orange_2bandit_a.png","70","test","","","","","","","","","","","4","","","","","","","","",""
"null","227420","SARL_v6","SARL_v698ofuhju","594ec90eca6e670001b2c184","fixation","","","img/fixation.png","null","","","test","","","","","","","","","","","","","","","","","","","",""
"468.59999999403954","227893","SARL_v6","SARL_v698ofuhju","594ec90eca6e670001b2c184","freq","","","img/orange_2bandit_a2.png","70","","70","test","1","","79","","","","square","circle","76","4","4","0.9736842105263158","","","","","","","",""
"null","228238","SARL_v6","SARL_v698ofuhju","594ec90eca6e670001b2c184","freq_resp","","","img/orange_2bandit_a.png","70","img/orange_2bandit_a.png","70","test","","","","","","","","","","","4","","","","","","","","",""
"null","228392","SARL_v6","SARL_v698ofuhju","594ec90eca6e670001b2c184","fixation","","","img/fixation.png","null","","","test","","","","","","","","","","","","","","","","","","","",""
"620.3999999910593","229016","SARL_v6","SARL_v698ofuhju","594ec90eca6e670001b2c184","freq","","","img/orange_2bandit_a2.png","70","","70","test","1","","80","","","","square","circle","77","5","4","0.974025974025974","","","","","","","",""
"null","229202","SARL_v6","SARL_v698ofuhju","594ec90eca6e670001b2c184","freq_resp","","","img/orange_2bandit_a.png","70","img/orange_2bandit_a.png","70","test","","","","","","","","","","","4","","","","","","","","",""
"null","229358","SARL_v6","SARL_v698ofuhju","594ec90eca6e670001b2c184","fixation","","","img/fixation.png","null","","","test","","","","","","","","","","","","","","","","","","","",""
"null","230176","SARL_v6","SARL_v698ofuhju","594ec90eca6e670001b2c184","infreq","","","img/blue_2bandit_a2.png","null","","68","test","0","","81","","","","square","circle","78","6","4","0.9615384615384616","","","","","","","",""
"null","230329","SARL_v6","SARL_v698ofuhju","594ec90eca6e670001b2c184","fixation","","","img/fixation.png","null","","","test","","","","","","","","","","","","","","","","","","","",""
"426.59999999403954","230760","SARL_v6","SARL_v698ofuhju","594ec90eca6e670001b2c184","freq","","","img/orange_2bandit_a2.png","70","","70","test","1","","82","","","","square","circle","79","7","4","0.9620253164556962","","","","","","","",""
"null","231154","SARL_v6","SARL_v698ofuhju","594ec90eca6e670001b2c184","freq_resp","","","img/orange_2bandit_a.png","70","img/orange_2bandit_a.png","70","test","","","","","","","","","","","4","","","","","","","","",""
"null","231323","SARL_v6","SARL_v698ofuhju","594ec90eca6e670001b2c184","fixation","","","img/fixation.png","null","","","test","","","","","","","","","","","","","","","","","","","",""
"471.6000000089407","231797","SARL_v6","SARL_v698ofuhju","594ec90eca6e670001b2c184","freq","","","img/orange_2bandit_a2.png","70","","70","test","1","","83","","","","square","circle","80","8","4","0.9625","","","","","","","",""
"null","232130","SARL_v6","SARL_v698ofuhju","594ec90eca6e670001b2c184","freq_resp","","","img/orange_2bandit_a.png","70","img/orange_2bandit_a.png","70","test","","","","","","","","","","","4","","","","","","","","",""
"null","232302","SARL_v6","SARL_v698ofuhju","594ec90eca6e670001b2c184","fixation","","","img/fixation.png","null","","","test","","","","","","","","","","","","","","","","","","","",""
"null","233113","SARL_v6","SARL_v698ofuhju","594ec90eca6e670001b2c184","freq","","","img/orange_2bandit_a2.png","null","","70","test","0","","84","","","","square","circle","81","9","4","0.9506172839506173","","","","","","","",""
"null","233280","SARL_v6","SARL_v698ofuhju","594ec90eca6e670001b2c184","fixation","","","img/fixation.png","null","","","test","","","","","","","","","","","","","","","","","","","",""
"720.9000000059605","234006","SARL_v6","SARL_v698ofuhju","594ec90eca6e670001b2c184","freq","","","img/orange_2bandit_a2.png","70","","70","test","1","","85","","","","square","circle","82","10","4","0.9512195121951219","","","","","","","",""
"null","234091","SARL_v6","SARL_v698ofuhju","594ec90eca6e670001b2c184","freq_resp","","","img/orange_2bandit_a.png","70","img/orange_2bandit_a.png","70","test","","","","","","","","","","","4","","","","","","","","",""
"null","234249","SARL_v6","SARL_v698ofuhju","594ec90eca6e670001b2c184","fixation","","","img/fixation.png","null","","","test","","","","","","","","","","","","","","","","","","","",""
"401.29999999701977","234654","SARL_v6","SARL_v698ofuhju","594ec90eca6e670001b2c184","freq","","","img/orange_2bandit_a2.png","70","","70","test","1","","86","","","","square","circle","83","11","4","0.9518072289156626","","","","","","","",""
"null","235059","SARL_v6","SARL_v698ofuhju","594ec90eca6e670001b2c184","freq_resp","","","img/orange_2bandit_a.png","70","img/orange_2bandit_a.png","70","test","","","","","","","","","","","4","","","","","","","","",""
"null","235229","SARL_v6","SARL_v698ofuhju","594ec90eca6e670001b2c184","fixation","","","img/fixation.png","null","","","test","","","","","","","","","","","","","","","","","","","",""
"374.3999999910593","235606","SARL_v6","SARL_v698ofuhju","594ec90eca6e670001b2c184","freq","","","img/orange_2bandit_a2.png","70","","70","test","1","","87","","","","square","circle","84","12","4","0.9523809523809523","","","","","","","",""
"null","236040","SARL_v6","SARL_v698ofuhju","594ec90eca6e670001b2c184","freq_resp","","","img/orange_2bandit_a.png","70","img/orange_2bandit_a.png","70","test","","","","","","","","","","","4","","","","","","","","",""
"null","236194","SARL_v6","SARL_v698ofuhju","594ec90eca6e670001b2c184","fixation","","","img/fixation.png","null","","","test","","","","","","","","","","","","","","","","","","","",""
"468.09999999403954","236667","SARL_v6","SARL_v698ofuhju","594ec90eca6e670001b2c184","infreq","","","img/blue_2bandit_a2.png","68","","68","test","1","","88","","","","square","circle","85","13","4","0.9529411764705882","","","","","","","",""
"null","237017","SARL_v6","SARL_v698ofuhju","594ec90eca6e670001b2c184","infreq_resp","","","img/blue_2bandit_a.png","68","img/blue_2bandit_a.png","68","test","","","","","","","","","","","4","","","","","","","","",""
"null","237174","SARL_v6","SARL_v698ofuhju","594ec90eca6e670001b2c184","fixation","","","img/fixation.png","null","","","test","","","","","","","","","","","","","","","","","","","",""
"426.70000000298023","237604","SARL_v6","SARL_v698ofuhju","594ec90eca6e670001b2c184","freq","","","img/orange_2bandit_a2.png","70","","70","test","1","","89","","","","square","circle","86","14","4","0.9534883720930233","","","","","","","",""
"null","237985","SARL_v6","SARL_v698ofuhju","594ec90eca6e670001b2c184","freq_resp","","","img/orange_2bandit_a.png","70","img/orange_2bandit_a.png","70","test","","","","","","","","","","","4","","","","","","","","",""
"null","238156","SARL_v6","SARL_v698ofuhju","594ec90eca6e670001b2c184","fixation","","","img/fixation.png","null","","","test","","","","","","","","","","","","","","","","","","","",""
"323.90000000596046","238485","SARL_v6","SARL_v698ofuhju","594ec90eca6e670001b2c184","freq","","","img/orange_2bandit_a2.png","70","","70","test","1","","90","","","","square","circle","87","15","4","0.9540229885057471","","","","","","","",""
"null","238968","SARL_v6","SARL_v698ofuhju","594ec90eca6e670001b2c184","freq_resp","","","img/orange_2bandit_a.png","70","img/orange_2bandit_a.png","70","test","","","","","","","","","","","4","","","","","","","","",""
"null","239123","SARL_v6","SARL_v698ofuhju","594ec90eca6e670001b2c184","fixation","","","img/fixation.png","null","","","test","","","","","","","","","","","","","","","","","","","",""
"325.09999999403954","239453","SARL_v6","SARL_v698ofuhju","594ec90eca6e670001b2c184","freq","","","img/orange_2bandit_a2.png","70","","70","test","1","","91","","","","square","circle","88","16","4","0.9545454545454546","","","","","","","",""
"null","239947","SARL_v6","SARL_v698ofuhju","594ec90eca6e670001b2c184","freq_resp","","","img/orange_2bandit_a.png","70","img/orange_2bandit_a.png","70","test","","","","","","","","","","","4","","","","","","","","",""
"null","240103","SARL_v6","SARL_v698ofuhju","594ec90eca6e670001b2c184","fixation","","","img/fixation.png","null","","","test","","","","","","","","","","","","","","","","","","","",""
"320.70000000298023","240427","SARL_v6","SARL_v698ofuhju","594ec90eca6e670001b2c184","freq","","","img/orange_2bandit_a2.png","70","","70","test","1","","92","","","","square","circle","89","17","4","0.9550561797752809","","","","","","","",""
"null","240925","SARL_v6","SARL_v698ofuhju","594ec90eca6e670001b2c184","freq_resp","","","img/orange_2bandit_a.png","70","img/orange_2bandit_a.png","70","test","","","","","","","","","","","4","","","","","","","","",""
"null","241080","SARL_v6","SARL_v698ofuhju","594ec90eca6e670001b2c184","fixation","","","img/fixation.png","null","","","test","","","","","","","","","","","","","","","","","","","",""
"337.20000000298023","241421","SARL_v6","SARL_v698ofuhju","594ec90eca6e670001b2c184","freq","","","img/orange_2bandit_a2.png","70","","70","test","1","","93","","","","square","circle","90","18","4","0.9555555555555556","","","","","","","",""
"null","241889","SARL_v6","SARL_v698ofuhju","594ec90eca6e670001b2c184","freq_resp","","","img/orange_2bandit_a.png","70","img/orange_2bandit_a.png","70","test","","","","","","","","","","","4","","","","","","","","",""
"null","242042","SARL_v6","SARL_v698ofuhju","594ec90eca6e670001b2c184","fixation","","","img/fixation.png","null","","","test","","","","","","","","","","","","","","","","","","","",""
"333.59999999403954","242380","SARL_v6","SARL_v698ofuhju","594ec90eca6e670001b2c184","freq","","","img/orange_2bandit_a2.png","70","","70","test","1","","94","","","","square","circle","91","19","4","0.9560439560439561","","","","","","","",""
"null","242857","SARL_v6","SARL_v698ofuhju","594ec90eca6e670001b2c184","freq_resp","","","img/orange_2bandit_a.png","70","img/orange_2bandit_a.png","70","test","","","","","","","","","","","4","","","","","","","","",""
"null","243011","SARL_v6","SARL_v698ofuhju","594ec90eca6e670001b2c184","fixation","","","img/fixation.png","null","","","test","","","","","","","","","","","","","","","","","","","",""
"661.9000000059605","243678","SARL_v6","SARL_v698ofuhju","594ec90eca6e670001b2c184","rl","","","img/black_2bandit_a2.png","75","","0","test","","","95","","","0","square","circle","","0","4","","75","0","-12","-12","0","circle","4","0"
"null","244444","SARL_v6","SARL_v698ofuhju","594ec90eca6e670001b2c184","feedback","","","<div class=""verylowPoints""> 0 </div>","null","","na","test","","","NaN","","","","","","","","4","","75","","","","","","4",""
"589","245038","SARL_v6","SARL_v698ofuhju","594ec90eca6e670001b2c184","freq","","","img/orange_2bandit_a2.png","70","","70","test","1","","96","","","","square","circle","92","1","5","0.9565217391304348","","","","","","","",""
"null","245278","SARL_v6","SARL_v698ofuhju","594ec90eca6e670001b2c184","freq_resp","","","img/orange_2bandit_a.png","70","img/orange_2bandit_a.png","70","test","","","","","","","","","","","5","","","","","","","","",""
"null","245433","SARL_v6","SARL_v698ofuhju","594ec90eca6e670001b2c184","fixation","","","img/fixation.png","null","","","test","","","","","","","","","","","","","","","","","","","",""
"547.8999999910593","245984","SARL_v6","SARL_v698ofuhju","594ec90eca6e670001b2c184","freq","","","img/orange_2bandit_a2.png","70","","70","test","1","","97","","","","square","circle","93","2","5","0.956989247311828","","","","","","","",""
"null","246253","SARL_v6","SARL_v698ofuhju","594ec90eca6e670001b2c184","freq_resp","","","img/orange_2bandit_a.png","70","img/orange_2bandit_a.png","70","test","","","","","","","","","","","5","","","","","","","","",""
"null","246408","SARL_v6","SARL_v698ofuhju","594ec90eca6e670001b2c184","fixation","","","img/fixation.png","null","","","test","","","","","","","","","","","","","","","","","","","",""
"381.90000000596046","246795","SARL_v6","SARL_v698ofuhju","594ec90eca6e670001b2c184","freq","","","img/orange_2bandit_a2.png","70","","70","test","1","","98","","","","square","circle","94","3","5","0.9574468085106383","","","","","","","",""
"null","247226","SARL_v6","SARL_v698ofuhju","594ec90eca6e670001b2c184","freq_resp","","","img/orange_2bandit_a.png","70","img/orange_2bandit_a.png","70","test","","","","","","","","","","","5","","","","","","","","",""
"null","247384","SARL_v6","SARL_v698ofuhju","594ec90eca6e670001b2c184","fixation","","","img/fixation.png","null","","","test","","","","","","","","","","","","","","","","","","","",""
"280","247668","SARL_v6","SARL_v698ofuhju","594ec90eca6e670001b2c184","freq","","","img/orange_2bandit_a2.png","70","","70","test","1","","99","","","","square","circle","95","4","5","0.9578947368421052","","","","","","","",""
"null","248193","SARL_v6","SARL_v698ofuhju","594ec90eca6e670001b2c184","freq_resp","","","img/orange_2bandit_a.png","70","img/orange_2bandit_a.png","70","test","","","","","","","","","","","5","","","","","","","","",""
"null","248352","SARL_v6","SARL_v698ofuhju","594ec90eca6e670001b2c184","fixation","","","img/fixation.png","null","","","test","","","","","","","","","","","","","","","","","","","",""
"231.29999999701977","248586","SARL_v6","SARL_v698ofuhju","594ec90eca6e670001b2c184","freq","","","img/orange_2bandit_a2.png","70","","70","test","1","","100","","","","square","circle","96","5","5","0.9583333333333334","","","","","","","",""
"null","249159","SARL_v6","SARL_v698ofuhju","594ec90eca6e670001b2c184","freq_resp","","","img/orange_2bandit_a.png","70","img/orange_2bandit_a.png","70","test","","","","","","","","","","","5","","","","","","","","",""
"null","249313","SARL_v6","SARL_v698ofuhju","594ec90eca6e670001b2c184","fixation","","","img/fixation.png","null","","","test","","","","","","","","","","","","","","","","","","","",""
"294.3999999910593","249611","SARL_v6","SARL_v698ofuhju","594ec90eca6e670001b2c184","freq","","","img/orange_2bandit_a2.png","70","","70","test","1","","101","","","","square","circle","97","6","5","0.9587628865979382","","","","","","","",""
"null","250125","SARL_v6","SARL_v698ofuhju","594ec90eca6e670001b2c184","freq_resp","","","img/orange_2bandit_a.png","70","img/orange_2bandit_a.png","70","test","","","","","","","","","","","5","","","","","","","","",""
"null","250280","SARL_v6","SARL_v698ofuhju","594ec90eca6e670001b2c184","fixation","","","img/fixation.png","null","","","test","","","","","","","","","","","","","","","","","","","",""
"296","250581","SARL_v6","SARL_v698ofuhju","594ec90eca6e670001b2c184","freq","","","img/orange_2bandit_a2.png","70","","70","test","1","","102","","","","square","circle","98","7","5","0.9591836734693877","","","","","","","",""
"null","251099","SARL_v6","SARL_v698ofuhju","594ec90eca6e670001b2c184","freq_resp","","","img/orange_2bandit_a.png","70","img/orange_2bandit_a.png","70","test","","","","","","","","","","","5","","","","","","","","",""
"null","251254","SARL_v6","SARL_v698ofuhju","594ec90eca6e670001b2c184","fixation","","","img/fixation.png","null","","","test","","","","","","","","","","","","","","","","","","","",""
"214.90000000596046","251474","SARL_v6","SARL_v698ofuhju","594ec90eca6e670001b2c184","freq","","","img/orange_2bandit_a2.png","70","","70","test","1","","103","","","","square","circle","99","8","5","0.9595959595959596","","","","","","","",""
"null","252074","SARL_v6","SARL_v698ofuhju","594ec90eca6e670001b2c184","freq_resp","","","img/orange_2bandit_a.png","70","img/orange_2bandit_a.png","70","test","","","","","","","","","","","5","","","","","","","","",""
"null","252243","SARL_v6","SARL_v698ofuhju","594ec90eca6e670001b2c184","fixation","","","img/fixation.png","null","","","test","","","","","","","","","","","","","","","","","","","",""
"230.20000000298023","252478","SARL_v6","SARL_v698ofuhju","594ec90eca6e670001b2c184","freq","","","img/orange_2bandit_a2.png","70","","70","test","1","","104","","","","square","circle","100","9","5","0.96","","","","","","","",""
"null","253054","SARL_v6","SARL_v698ofuhju","594ec90eca6e670001b2c184","freq_resp","","","img/orange_2bandit_a.png","70","img/orange_2bandit_a.png","70","test","","","","","","","","","","","5","","","","","","","","",""
"null","253223","SARL_v6","SARL_v698ofuhju","594ec90eca6e670001b2c184","fixation","","","img/fixation.png","null","","","test","","","","","","","","","","","","","","","","","","","",""
"304.59999999403954","253533","SARL_v6","SARL_v698ofuhju","594ec90eca6e670001b2c184","freq","","","img/orange_2bandit_a2.png","70","","70","test","1","","105","","","","square","circle","101","10","5","0.9603960396039604","","","","","","","",""
"null","254034","SARL_v6","SARL_v698ofuhju","594ec90eca6e670001b2c184","freq_resp","","","img/orange_2bandit_a.png","70","img/orange_2bandit_a.png","70","test","","","","","","","","","","","5","","","","","","","","",""
"null","254205","SARL_v6","SARL_v698ofuhju","594ec90eca6e670001b2c184","fixation","","","img/fixation.png","null","","","test","","","","","","","","","","","","","","","","","","","",""
"270.90000000596046","254479","SARL_v6","SARL_v698ofuhju","594ec90eca6e670001b2c184","infreq","","","img/blue_2bandit_a2.png","70","","68","test","0","","106","","","","square","circle","102","11","5","0.9509803921568627","","","","","","","",""
"null","255025","SARL_v6","SARL_v698ofuhju","594ec90eca6e670001b2c184","infreq_resp","","","img/blue_2bandit_a.png","70","img/blue_2bandit_a.png","68","test","","","","","","","","","","","5","","","","","","","","",""
"null","255180","SARL_v6","SARL_v698ofuhju","594ec90eca6e670001b2c184","fixation","","","img/fixation.png","null","","","test","","","","","","","","","","","","","","","","","","","",""
"460.69999998807907","255645","SARL_v6","SARL_v698ofuhju","594ec90eca6e670001b2c184","freq","","","img/orange_2bandit_a2.png","70","","70","test","1","","107","","","","square","circle","103","12","5","0.9514563106796117","","","","","","","",""
"null","256005","SARL_v6","SARL_v698ofuhju","594ec90eca6e670001b2c184","freq_resp","","","img/orange_2bandit_a.png","70","img/orange_2bandit_a.png","70","test","","","","","","","","","","","5","","","","","","","","",""
"null","256172","SARL_v6","SARL_v698ofuhju","594ec90eca6e670001b2c184","fixation","","","img/fixation.png","null","","","test","","","","","","","","","","","","","","","","","","","",""
"591.2000000029802","256768","SARL_v6","SARL_v698ofuhju","594ec90eca6e670001b2c184","freq","","","img/orange_2bandit_a2.png","70","","70","test","1","","108","","","","square","circle","104","13","5","0.9519230769230769","","","","","","","",""
"null","256993","SARL_v6","SARL_v698ofuhju","594ec90eca6e670001b2c184","freq_resp","","","img/orange_2bandit_a.png","70","img/orange_2bandit_a.png","70","test","","","","","","","","","","","5","","","","","","","","",""
"null","257148","SARL_v6","SARL_v698ofuhju","594ec90eca6e670001b2c184","fixation","","","img/fixation.png","null","","","test","","","","","","","","","","","","","","","","","","","",""
"447.90000000596046","257600","SARL_v6","SARL_v698ofuhju","594ec90eca6e670001b2c184","freq","","","img/orange_2bandit_a2.png","70","","70","test","1","","109","","","","square","circle","105","14","5","0.9523809523809523","","","","","","","",""
"null","257958","SARL_v6","SARL_v698ofuhju","594ec90eca6e670001b2c184","freq_resp","","","img/orange_2bandit_a.png","70","img/orange_2bandit_a.png","70","test","","","","","","","","","","","5","","","","","","","","",""
"null","258117","SARL_v6","SARL_v698ofuhju","594ec90eca6e670001b2c184","fixation","","","img/fixation.png","null","","","test","","","","","","","","","","","","","","","","","","","",""
"475.90000000596046","258599","SARL_v6","SARL_v698ofuhju","594ec90eca6e670001b2c184","freq","","","img/orange_2bandit_a2.png","70","","70","test","1","","110","","","","square","circle","106","15","5","0.9528301886792453","","","","","","","",""
"null","258937","SARL_v6","SARL_v698ofuhju","594ec90eca6e670001b2c184","freq_resp","","","img/orange_2bandit_a.png","70","img/orange_2bandit_a.png","70","test","","","","","","","","","","","5","","","","","","","","",""
"null","259092","SARL_v6","SARL_v698ofuhju","594ec90eca6e670001b2c184","fixation","","","img/fixation.png","null","","","test","","","","","","","","","","","","","","","","","","","",""
"632.6000000089407","259730","SARL_v6","SARL_v698ofuhju","594ec90eca6e670001b2c184","infreq","","","img/blue_2bandit_a2.png","68","","68","test","1","","111","","","","square","circle","107","16","5","0.9532710280373832","","","","","","","",""
"null","259904","SARL_v6","SARL_v698ofuhju","594ec90eca6e670001b2c184","infreq_resp","","","img/blue_2bandit_a.png","68","img/blue_2bandit_a.png","68","test","","","","","","","","","","","5","","","","","","","","",""
"null","260073","SARL_v6","SARL_v698ofuhju","594ec90eca6e670001b2c184","fixation","","","img/fixation.png","null","","","test","","","","","","","","","","","","","","","","","","","",""
"590.2000000029802","260668","SARL_v6","SARL_v698ofuhju","594ec90eca6e670001b2c184","freq","","","img/orange_2bandit_a2.png","70","","70","test","1","","112","","","","square","circle","108","17","5","0.9537037037037037","","","","","","","",""
"null","260889","SARL_v6","SARL_v698ofuhju","594ec90eca6e670001b2c184","freq_resp","","","img/orange_2bandit_a.png","70","img/orange_2bandit_a.png","70","test","","","","","","","","","","","5","","","","","","","","",""
"null","261043","SARL_v6","SARL_v698ofuhju","594ec90eca6e670001b2c184","fixation","","","img/fixation.png","null","","","test","","","","","","","","","","","","","","","","","","","",""
"510.79999999701977","261556","SARL_v6","SARL_v698ofuhju","594ec90eca6e670001b2c184","freq","","","img/orange_2bandit_a2.png","70","","70","test","1","","113","","","","square","circle","109","18","5","0.9541284403669725","","","","","","","",""
"null","261854","SARL_v6","SARL_v698ofuhju","594ec90eca6e670001b2c184","freq_resp","","","img/orange_2bandit_a.png","70","img/orange_2bandit_a.png","70","test","","","","","","","","","","","5","","","","","","","","",""
"null","262007","SARL_v6","SARL_v698ofuhju","594ec90eca6e670001b2c184","fixation","","","img/fixation.png","null","","","test","","","","","","","","","","","","","","","","","","","",""
"464.40000000596046","262475","SARL_v6","SARL_v698ofuhju","594ec90eca6e670001b2c184","freq","","","img/orange_2bandit_a2.png","70","","70","test","1","","114","","","","square","circle","110","19","5","0.9545454545454546","","","","","","","",""
"null","262816","SARL_v6","SARL_v698ofuhju","594ec90eca6e670001b2c184","freq_resp","","","img/orange_2bandit_a.png","70","img/orange_2bandit_a.png","70","test","","","","","","","","","","","5","","","","","","","","",""
"null","262972","SARL_v6","SARL_v698ofuhju","594ec90eca6e670001b2c184","fixation","","","img/fixation.png","null","","","test","","","","","","","","","","","","","","","","","","","",""
"448.90000000596046","263426","SARL_v6","SARL_v698ofuhju","594ec90eca6e670001b2c184","freq","","","img/orange_2bandit_a2.png","70","","70","test","1","","115","","","","square","circle","111","20","5","0.954954954954955","","","","","","","",""
"null","263797","SARL_v6","SARL_v698ofuhju","594ec90eca6e670001b2c184","freq_resp","","","img/orange_2bandit_a.png","70","img/orange_2bandit_a.png","70","test","","","","","","","","","","","5","","","","","","","","",""
"null","263954","SARL_v6","SARL_v698ofuhju","594ec90eca6e670001b2c184","fixation","","","img/fixation.png","null","","","test","","","","","","","","","","","","","","","","","","","",""
"null","264774","SARL_v6","SARL_v698ofuhju","594ec90eca6e670001b2c184","freq","","","img/orange_2bandit_a2.png","null","","70","test","0","","116","","","","square","circle","112","21","5","0.9464285714285714","","","","","","","",""
"null","264944","SARL_v6","SARL_v698ofuhju","594ec90eca6e670001b2c184","fixation","","","img/fixation.png","null","","","test","","","","","","","","","","","","","","","","","","","",""
"null","265762","SARL_v6","SARL_v698ofuhju","594ec90eca6e670001b2c184","freq","","","img/orange_2bandit_a2.png","null","","70","test","0","","117","","","","square","circle","113","22","5","0.9380530973451328","","","","","","","",""
"null","265919","SARL_v6","SARL_v698ofuhju","594ec90eca6e670001b2c184","fixation","","","img/fixation.png","null","","","test","","","","","","","","","","","","","","","","","","","",""
"0.29999999701976776","265924","SARL_v6","SARL_v698ofuhju","594ec90eca6e670001b2c184","freq","","","img/orange_2bandit_a2.png","68","","70","test","0","","118","","","","square","circle","114","23","5","0.9298245614035088","","","","","","","",""
"null","266737","SARL_v6","SARL_v698ofuhju","594ec90eca6e670001b2c184","freq_resp","","","img/orange_2bandit_a.png","68","img/orange_2bandit_a.png","70","test","","","","","","","","","","","5","","","","","","","","",""
"null","266893","SARL_v6","SARL_v698ofuhju","594ec90eca6e670001b2c184","fixation","","","img/fixation.png","null","","","test","","","","","","","","","","","","","","","","","","","",""
"1006","267905","SARL_v6","SARL_v698ofuhju","594ec90eca6e670001b2c184","rl","","","img/black_2bandit_a2.png","75","","0","test","","","119","","","4","square","circle","","0","5","","75","4","-7","-7","4","circle","5","0"
"null","268665","SARL_v6","SARL_v698ofuhju","594ec90eca6e670001b2c184","feedback","","","<div class=""veryhighPoints""> 4 </div>","null","","na","test","","","NaN","","","","","","","","5","","75","","","","","","5",""
"484.5","269155","SARL_v6","SARL_v698ofuhju","594ec90eca6e670001b2c184","freq","","","img/orange_2bandit_a2.png","70","","70","test","1","","120","","","","square","circle","115","1","6","0.9304347826086956","","","","","","","",""
"null","269486","SARL_v6","SARL_v698ofuhju","594ec90eca6e670001b2c184","freq_resp","","","img/orange_2bandit_a.png","70","img/orange_2bandit_a.png","70","test","","","","","","","","","","","6","","","","","","","","",""
"null","269639","SARL_v6","SARL_v698ofuhju","594ec90eca6e670001b2c184","fixation","","","img/fixation.png","null","","","test","","","","","","","","","","","","","","","","","","","",""
"503.70000000298023","270147","SARL_v6","SARL_v698ofuhju","594ec90eca6e670001b2c184","freq","","","img/orange_2bandit_a2.png","70","","70","test","1","","121","","","","square","circle","116","2","6","0.9310344827586207","","","","","","","",""
"null","270463","SARL_v6","SARL_v698ofuhju","594ec90eca6e670001b2c184","freq_resp","","","img/orange_2bandit_a.png","70","img/orange_2bandit_a.png","70","test","","","","","","","","","","","6","","","","","","","","",""
"null","270618","SARL_v6","SARL_v698ofuhju","594ec90eca6e670001b2c184","fixation","","","img/fixation.png","null","","","test","","","","","","","","","","","","","","","","","","","",""
"553.2999999970198","271177","SARL_v6","SARL_v698ofuhju","594ec90eca6e670001b2c184","freq","","","img/orange_2bandit_a2.png","70","","70","test","1","","122","","","","square","circle","117","3","6","0.9316239316239316","","","","","","","",""
"null","271437","SARL_v6","SARL_v698ofuhju","594ec90eca6e670001b2c184","freq_resp","","","img/orange_2bandit_a.png","70","img/orange_2bandit_a.png","70","test","","","","","","","","","","","6","","","","","","","","",""
"null","271591","SARL_v6","SARL_v698ofuhju","594ec90eca6e670001b2c184","fixation","","","img/fixation.png","null","","","test","","","","","","","","","","","","","","","","","","","",""
"null","272399","SARL_v6","SARL_v698ofuhju","594ec90eca6e670001b2c184","freq","","","img/orange_2bandit_a2.png","null","","70","test","0","","123","","","","square","circle","118","4","6","0.923728813559322","","","","","","","",""
"null","272558","SARL_v6","SARL_v698ofuhju","594ec90eca6e670001b2c184","fixation","","","img/fixation.png","null","","","test","","","","","","","","","","","","","","","","","","","",""
"534.3999999910593","273097","SARL_v6","SARL_v698ofuhju","594ec90eca6e670001b2c184","freq","","","img/orange_2bandit_a2.png","70","","70","test","1","","124","","","","square","circle","119","5","6","0.9243697478991597","","","","","","","",""
"null","273375","SARL_v6","SARL_v698ofuhju","594ec90eca6e670001b2c184","freq_resp","","","img/orange_2bandit_a.png","70","img/orange_2bandit_a.png","70","test","","","","","","","","","","","6","","","","","","","","",""
"null","273529","SARL_v6","SARL_v698ofuhju","594ec90eca6e670001b2c184","fixation","","","img/fixation.png","null","","","test","","","","","","","","","","","","","","","","","","","",""
"438.5","273972","SARL_v6","SARL_v698ofuhju","594ec90eca6e670001b2c184","freq","","","img/orange_2bandit_a2.png","70","","70","test","1","","125","","","","square","circle","120","6","6","0.925","","","","","","","",""
"null","274336","SARL_v6","SARL_v698ofuhju","594ec90eca6e670001b2c184","freq_resp","","","img/orange_2bandit_a.png","70","img/orange_2bandit_a.png","70","test","","","","","","","","","","","6","","","","","","","","",""
"null","274492","SARL_v6","SARL_v698ofuhju","594ec90eca6e670001b2c184","fixation","","","img/fixation.png","null","","","test","","","","","","","","","","","","","","","","","","","",""
"409.20000000298023","274905","SARL_v6","SARL_v698ofuhju","594ec90eca6e670001b2c184","freq","","","img/orange_2bandit_a2.png","70","","70","test","1","","126","","","","square","circle","121","7","6","0.9256198347107438","","","","","","","",""
"null","275311","SARL_v6","SARL_v698ofuhju","594ec90eca6e670001b2c184","freq_resp","","","img/orange_2bandit_a.png","70","img/orange_2bandit_a.png","70","test","","","","","","","","","","","6","","","","","","","","",""
"null","275465","SARL_v6","SARL_v698ofuhju","594ec90eca6e670001b2c184","fixation","","","img/fixation.png","null","","","test","","","","","","","","","","","","","","","","","","","",""
"384.8999999910593","275853","SARL_v6","SARL_v698ofuhju","594ec90eca6e670001b2c184","freq","","","img/orange_2bandit_a2.png","70","","70","test","1","","127","","","","square","circle","122","8","6","0.9262295081967213","","","","","","","",""
"null","276287","SARL_v6","SARL_v698ofuhju","594ec90eca6e670001b2c184","freq_resp","","","img/orange_2bandit_a.png","70","img/orange_2bandit_a.png","70","test","","","","","","","","","","","6","","","","","","","","",""
"null","276445","SARL_v6","SARL_v698ofuhju","594ec90eca6e670001b2c184","fixation","","","img/fixation.png","null","","","test","","","","","","","","","","","","","","","","","","","",""
"398.19999998807907","276848","SARL_v6","SARL_v698ofuhju","594ec90eca6e670001b2c184","freq","","","img/orange_2bandit_a2.png","70","","70","test","1","","128","","","","square","circle","123","9","6","0.926829268292683","","","","","","","",""
"null","277267","SARL_v6","SARL_v698ofuhju","594ec90eca6e670001b2c184","freq_resp","","","img/orange_2bandit_a.png","70","img/orange_2bandit_a.png","70","test","","","","","","","","","","","6","","","","","","","","",""
"null","277426","SARL_v6","SARL_v698ofuhju","594ec90eca6e670001b2c184","fixation","","","img/fixation.png","null","","","test","","","","","","","","","","","","","","","","","","","",""
"736","278167","SARL_v6","SARL_v698ofuhju","594ec90eca6e670001b2c184","infreq","","","img/blue_2bandit_a2.png","68","","68","test","1","","129","","","","square","circle","124","10","6","0.9274193548387096","","","","","","","",""
"null","278236","SARL_v6","SARL_v698ofuhju","594ec90eca6e670001b2c184","infreq_resp","","","img/blue_2bandit_a.png","68","img/blue_2bandit_a.png","68","test","","","","","","","","","","","6","","","","","","","","",""
"null","278402","SARL_v6","SARL_v698ofuhju","594ec90eca6e670001b2c184","fixation","","","img/fixation.png","null","","","test","","","","","","","","","","","","","","","","","","","",""
"713.7999999970198","279120","SARL_v6","SARL_v698ofuhju","594ec90eca6e670001b2c184","freq","","","img/orange_2bandit_a2.png","70","","70","test","1","","130","","","","square","circle","125","11","6","0.928","","","","","","","",""
"null","279212","SARL_v6","SARL_v698ofuhju","594ec90eca6e670001b2c184","freq_resp","","","img/orange_2bandit_a.png","70","img/orange_2bandit_a.png","70","test","","","","","","","","","","","6","","","","","","","","",""
"null","279366","SARL_v6","SARL_v698ofuhju","594ec90eca6e670001b2c184","fixation","","","img/fixation.png","null","","","test","","","","","","","","","","","","","","","","","","","",""
"643.5","280013","SARL_v6","SARL_v698ofuhju","594ec90eca6e670001b2c184","freq","","","img/orange_2bandit_a2.png","70","","70","test","1","","131","","","","square","circle","126","12","6","0.9285714285714286","","","","","","","",""
