"rt","time_elapsed","expId","subject","prolificID","trialType","rlType","attType","stimulus","key_press","stim","corrresp","phase","corr","pracCounter","trialNum","rewardOne","rewardTwo","reward","bandOne","bandTwo","attentionNum","attentionRunNum","blockNum","performance","bandChosen","circleVal","squareVal","bandOneVal","bandTwoVal","shapeChosen","rlNum","badFlag"
"18393.099999964237","18398","SARL_v6","SARL_v6t8yvtdy0","62fc25ef4ce0d3d169b7a120","","","","","","","","","","","","","","","","","","","","","","","","","","","",""
"","22188","SARL_v6","SARL_v6t8yvtdy0","62fc25ef4ce0d3d169b7a120","fullscreen","fullscreen","fullscreen","","","","","","","","","","","","","","","","","","","","","","","","",""
"186376.10000002384","208570","SARL_v6","SARL_v6t8yvtdy0","62fc25ef4ce0d3d169b7a120","","","","","","","","","","","","","","","","","","","","","","","","","","","",""
"null","209388","SARL_v6","SARL_v6t8yvtdy0","62fc25ef4ce0d3d169b7a120","freqPrac","","","img/blue_2bandit_b2.png","null","img/blue_2bandit_b2.png","70","prac","0","1","","","","","","","","","","","","","","","","","",""
"null","210397","SARL_v6","SARL_v6t8yvtdy0","62fc25ef4ce0d3d169b7a120","feedback","","","img/tooSlow.png","null","","na","prac","","","","","","","","","","","","","","","","","","","",""
"null","210563","SARL_v6","SARL_v6t8yvtdy0","62fc25ef4ce0d3d169b7a120","fixation","","","img/fixation.png","null","","","prac","","","","","","","","","","","","","","","","","","","",""
"616.5","211183","SARL_v6","SARL_v6t8yvtdy0","62fc25ef4ce0d3d169b7a120","infreqPrac","","","img/orange_2bandit_b2.png","68","img/orange_2bandit_b2.png","68","prac","1","1","","","","","","","","","","","","","","","","","",""
"616.5","211382","SARL_v6","SARL_v6t8yvtdy0","62fc25ef4ce0d3d169b7a120","infreqPrac_resp","","","img/orange_2bandit_b.png","68","img/orange_2bandit_b.png","68","prac","","","","","","","","","","","","","","","","","","","",""
"null","211549","SARL_v6","SARL_v6t8yvtdy0","62fc25ef4ce0d3d169b7a120","fixation","","","img/fixation.png","null","","","prac","","","","","","","","","","","","","","","","","","","",""
"557.7000000476837","212110","SARL_v6","SARL_v6t8yvtdy0","62fc25ef4ce0d3d169b7a120","freqPrac","","","img/blue_2bandit_b2.png","70","img/blue_2bandit_b2.png","70","prac","1","1","","","","","","","","","","","","","","","","","",""
"557.7000000476837","212363","SARL_v6","SARL_v6t8yvtdy0","62fc25ef4ce0d3d169b7a120","freqPrac_resp","","","img/blue_2bandit_b.png","70","img/blue_2bandit_b.png","70","prac","","","","","","","","","","","","","","","","","","","",""
"null","212518","SARL_v6","SARL_v6t8yvtdy0","62fc25ef4ce0d3d169b7a120","fixation","","","img/fixation.png","null","","","prac","","","","","","","","","","","","","","","","","","","",""
"340.30000001192093","212864","SARL_v6","SARL_v6t8yvtdy0","62fc25ef4ce0d3d169b7a120","infreqPrac","","","img/orange_2bandit_b2.png","68","img/orange_2bandit_b2.png","68","prac","1","1","","","","","","","","","","","","","","","","","",""
"340.30000001192093","213331","SARL_v6","SARL_v6t8yvtdy0","62fc25ef4ce0d3d169b7a120","infreqPrac_resp","","","img/orange_2bandit_b.png","68","img/orange_2bandit_b.png","68","prac","","","","","","","","","","","","","","","","","","","",""
"null","213488","SARL_v6","SARL_v6t8yvtdy0","62fc25ef4ce0d3d169b7a120","fixation","","","img/fixation.png","null","","","prac","","","","","","","","","","","","","","","","","","","",""
"371.19999998807907","213863","SARL_v6","SARL_v6t8yvtdy0","62fc25ef4ce0d3d169b7a120","infreqPrac","","","img/orange_2bandit_b2.png","68","img/orange_2bandit_b2.png","68","prac","1","1","","","","","","","","","","","","","","","","","",""
"371.19999998807907","214303","SARL_v6","SARL_v6t8yvtdy0","62fc25ef4ce0d3d169b7a120","infreqPrac_resp","","","img/orange_2bandit_b.png","68","img/orange_2bandit_b.png","68","prac","","","","","","","","","","","","","","","","","","","",""
"null","214469","SARL_v6","SARL_v6t8yvtdy0","62fc25ef4ce0d3d169b7a120","fixation","","","img/fixation.png","null","","","prac","","","","","","","","","","","","","","","","","","","",""
"343","214816","SARL_v6","SARL_v6t8yvtdy0","62fc25ef4ce0d3d169b7a120","infreqPrac","","","img/orange_2bandit_b2.png","68","img/orange_2bandit_b2.png","68","prac","1","1","","","","","","","","","","","","","","","","","",""
"343","215284","SARL_v6","SARL_v6t8yvtdy0","62fc25ef4ce0d3d169b7a120","infreqPrac_resp","","","img/orange_2bandit_b.png","68","img/orange_2bandit_b.png","68","prac","","","","","","","","","","","","","","","","","","","",""
"null","215440","SARL_v6","SARL_v6t8yvtdy0","62fc25ef4ce0d3d169b7a120","fixation","","","img/fixation.png","null","","","prac","","","","","","","","","","","","","","","","","","","",""
"451.39999997615814","215896","SARL_v6","SARL_v6t8yvtdy0","62fc25ef4ce0d3d169b7a120","freqPrac","","","img/blue_2bandit_b2.png","70","img/blue_2bandit_b2.png","70","prac","1","1","","","","","","","","","","","","","","","","","",""
"451.39999997615814","216260","SARL_v6","SARL_v6t8yvtdy0","62fc25ef4ce0d3d169b7a120","freqPrac_resp","","","img/blue_2bandit_b.png","70","img/blue_2bandit_b.png","70","prac","","","","","","","","","","","","","","","","","","","",""
"null","216426","SARL_v6","SARL_v6t8yvtdy0","62fc25ef4ce0d3d169b7a120","fixation","","","img/fixation.png","null","","","prac","","","","","","","","","","","","","","","","","","","",""
"351.80000001192093","216781","SARL_v6","SARL_v6t8yvtdy0","62fc25ef4ce0d3d169b7a120","infreqPrac","","","img/orange_2bandit_b2.png","68","img/orange_2bandit_b2.png","68","prac","1","1","","","","","","","","","","","","","","","","","",""
"351.80000001192093","217236","SARL_v6","SARL_v6t8yvtdy0","62fc25ef4ce0d3d169b7a120","infreqPrac_resp","","","img/orange_2bandit_b.png","68","img/orange_2bandit_b.png","68","prac","","","","","","","","","","","","","","","","","","","",""
"null","217395","SARL_v6","SARL_v6t8yvtdy0","62fc25ef4ce0d3d169b7a120","fixation","","","img/fixation.png","null","","","prac","","","","","","","","","","","","","","","","","","","",""
"296.19999998807907","217696","SARL_v6","SARL_v6t8yvtdy0","62fc25ef4ce0d3d169b7a120","freqPrac","","","img/blue_2bandit_b2.png","70","img/blue_2bandit_b2.png","70","prac","1","1","","","","","","","","","","","","","","","","","",""
"296.19999998807907","218204","SARL_v6","SARL_v6t8yvtdy0","62fc25ef4ce0d3d169b7a120","freqPrac_resp","","","img/blue_2bandit_b.png","70","img/blue_2bandit_b.png","70","prac","","","","","","","","","","","","","","","","","","","",""
"null","218362","SARL_v6","SARL_v6t8yvtdy0","62fc25ef4ce0d3d169b7a120","fixation","","","img/fixation.png","null","","","prac","","","","","","","","","","","","","","","","","","","",""
"353.10000002384186","218720","SARL_v6","SARL_v6t8yvtdy0","62fc25ef4ce0d3d169b7a120","freqPrac","","","img/blue_2bandit_b2.png","70","img/blue_2bandit_b2.png","70","prac","1","1","","","","","","","","","","","","","","","","","",""
"353.10000002384186","219177","SARL_v6","SARL_v6t8yvtdy0","62fc25ef4ce0d3d169b7a120","freqPrac_resp","","","img/blue_2bandit_b.png","70","img/blue_2bandit_b.png","70","prac","","","","","","","","","","","","","","","","","","","",""
"null","219346","SARL_v6","SARL_v6t8yvtdy0","62fc25ef4ce0d3d169b7a120","fixation","","","img/fixation.png","null","","","prac","","","","","","","","","","","","","","","","","","","",""
"66697.30000001192","286049","SARL_v6","SARL_v6t8yvtdy0","62fc25ef4ce0d3d169b7a120","","","","","","","","prac","","","","","","","","","","","","","","","","","","","",""
"1049.699999988079","287100","SARL_v6","SARL_v6t8yvtdy0","62fc25ef4ce0d3d169b7a120","rlPractice","","","img/black_2bandit_b2.png","75","img/black_2bandit_b2.png","","prac","","","0","","","","","","","","","","","","","","","","",""
"null","287860","SARL_v6","SARL_v6t8yvtdy0","62fc25ef4ce0d3d169b7a120","feedback","","","<div class=""verylowPoints_sq""> -14 </div>","null","","na","prac","","","1","10","-14","10","","","","","","","","","","","","","",""
"null","288019","SARL_v6","SARL_v6t8yvtdy0","62fc25ef4ce0d3d169b7a120","fixation","","","img/fixation.png","null","","","prac","","","","","","","","","","","","","","","","","","","",""
"479.5999999642372","288503","SARL_v6","SARL_v6t8yvtdy0","62fc25ef4ce0d3d169b7a120","rlPractice","","","img/black_2bandit_b2.png","74","img/black_2bandit_b2.png","","prac","","","1","","","","","","","","","","","","","","","","",""
"null","289263","SARL_v6","SARL_v6t8yvtdy0","62fc25ef4ce0d3d169b7a120","feedback","","","<div class=""veryhighPoints""> 5 </div>","null","","na","prac","","","2","5","-5","5","","","","","","","","","","","","","",""
"null","289421","SARL_v6","SARL_v6t8yvtdy0","62fc25ef4ce0d3d169b7a120","fixation","","","img/fixation.png","null","","","prac","","","","","","","","","","","","","","","","","","","",""
"486.19999998807907","289912","SARL_v6","SARL_v6t8yvtdy0","62fc25ef4ce0d3d169b7a120","rlPractice","","","img/black_2bandit_b2.png","74","img/black_2bandit_b2.png","","prac","","","2","","","","","","","","","","","","","","","","",""
"null","290680","SARL_v6","SARL_v6t8yvtdy0","62fc25ef4ce0d3d169b7a120","feedback","","","<div class=""veryhighPoints""> 30 </div>","null","","na","prac","","","3","30","2","30","","","","","","","","","","","","","",""
"null","290840","SARL_v6","SARL_v6t8yvtdy0","62fc25ef4ce0d3d169b7a120","fixation","","","img/fixation.png","null","","","prac","","","","","","","","","","","","","","","","","","","",""
"530.6000000238419","291376","SARL_v6","SARL_v6t8yvtdy0","62fc25ef4ce0d3d169b7a120","rlPractice","","","img/black_2bandit_b2.png","74","img/black_2bandit_b2.png","","prac","","","3","","","","","","","","","","","","","","","","",""
"null","292135","SARL_v6","SARL_v6t8yvtdy0","62fc25ef4ce0d3d169b7a120","feedback","","","<div class=""verylowPoints""> -2 </div>","null","","na","prac","","","4","-2","20","-2","","","","","","","","","","","","","",""
"null","292300","SARL_v6","SARL_v6t8yvtdy0","62fc25ef4ce0d3d169b7a120","fixation","","","img/fixation.png","null","","","prac","","","","","","","","","","","","","","","","","","","",""
"49209.5","341513","SARL_v6","SARL_v6t8yvtdy0","62fc25ef4ce0d3d169b7a120","","","","","","","","prac","","","","","","","","","","","","","","","","","","","",""
"689.5999999642372","342206","SARL_v6","SARL_v6t8yvtdy0","62fc25ef4ce0d3d169b7a120","mixAttFreqPrac","","","img/blue_2bandit_b2.png","70","img/blue_2bandit_b2.png","70","prac","","","1","","","","","","","","","","","","","","","","",""
"689.5999999642372","342332","SARL_v6","SARL_v6t8yvtdy0","62fc25ef4ce0d3d169b7a120","freqPrac_resp","","","img/blue_2bandit_b.png","70","img/blue_2bandit_b.png","70","prac","","","1","","","","","","","","","","","","","","","","",""
"null","342498","SARL_v6","SARL_v6t8yvtdy0","62fc25ef4ce0d3d169b7a120","fixation","","","img/fixation.png","null","","","prac","","","","","","","","","","","","","","","","","","","",""
"441.39999997615814","342944","SARL_v6","SARL_v6t8yvtdy0","62fc25ef4ce0d3d169b7a120","mixAttInfreqPrac","","","img/orange_2bandit_b2.png","68","img/orange_2bandit_b2.png","68","prac","","","2","","","","","","","","","","","","","","","","",""
"441.39999997615814","343315","SARL_v6","SARL_v6t8yvtdy0","62fc25ef4ce0d3d169b7a120","infreqPrac_resp","","","img/orange_2bandit_b.png","68","img/blue_2bandit_b.png","68","prac","","","2","","","","","","","","","","","","","","","","",""
"null","343481","SARL_v6","SARL_v6t8yvtdy0","62fc25ef4ce0d3d169b7a120","fixation","","","img/fixation.png","null","","","prac","","","","","","","","","","","","","","","","","","","",""
"457.5","343944","SARL_v6","SARL_v6t8yvtdy0","62fc25ef4ce0d3d169b7a120","mixAttInfreqPrac","","","img/orange_2bandit_b2.png","68","img/orange_2bandit_b2.png","68","prac","","","3","","","","","","","","","","","","","","","","",""
"457.5","344303","SARL_v6","SARL_v6t8yvtdy0","62fc25ef4ce0d3d169b7a120","infreqPrac_resp","","","img/orange_2bandit_b.png","68","img/blue_2bandit_b.png","68","prac","","","3","","","","","","","","","","","","","","","","",""
"null","344466","SARL_v6","SARL_v6t8yvtdy0","62fc25ef4ce0d3d169b7a120","fixation","","","img/fixation.png","null","","","prac","","","","","","","","","","","","","","","","","","","",""
"425.10000002384186","344895","SARL_v6","SARL_v6t8yvtdy0","62fc25ef4ce0d3d169b7a120","mixAttInfreqPrac","","","img/orange_2bandit_b2.png","68","img/orange_2bandit_b2.png","68","prac","","","4","","","","","","","","","","","","","","","","",""
"425.10000002384186","345286","SARL_v6","SARL_v6t8yvtdy0","62fc25ef4ce0d3d169b7a120","infreqPrac_resp","","","img/orange_2bandit_b.png","68","img/blue_2bandit_b.png","68","prac","","","4","","","","","","","","","","","","","","","","",""
"null","345453","SARL_v6","SARL_v6t8yvtdy0","62fc25ef4ce0d3d169b7a120","fixation","","","img/fixation.png","null","","","prac","","","","","","","","","","","","","","","","","","","",""
"486.10000002384186","345943","SARL_v6","SARL_v6t8yvtdy0","62fc25ef4ce0d3d169b7a120","mixAttFreqPrac","","","img/blue_2bandit_b2.png","70","img/blue_2bandit_b2.png","70","prac","","","5","","","","","","","","","","","","","","","","",""
"486.10000002384186","346276","SARL_v6","SARL_v6t8yvtdy0","62fc25ef4ce0d3d169b7a120","freqPrac_resp","","","img/blue_2bandit_b.png","70","img/blue_2bandit_b.png","70","prac","","","5","","","","","","","","","","","","","","","","",""
"null","346438","SARL_v6","SARL_v6t8yvtdy0","62fc25ef4ce0d3d169b7a120","fixation","","","img/fixation.png","null","","","prac","","","","","","","","","","","","","","","","","","","",""
"796.7999999523163","347239","SARL_v6","SARL_v6t8yvtdy0","62fc25ef4ce0d3d169b7a120","mixRLPractice","","","img/black_2bandit_b2.png","75","img/black_2bandit_b2.png","","prac","","","5","","","","","","","","","","","","","","","","",""
"null","347999","SARL_v6","SARL_v6t8yvtdy0","62fc25ef4ce0d3d169b7a120","feedback","","","<div class=""veryhighPoints_sq""> 10 </div>","null","","na","prac","","","6","-14","10","-14","","","","","","","","","","","","","",""
"null","348158","SARL_v6","SARL_v6t8yvtdy0","62fc25ef4ce0d3d169b7a120","fixation","","","img/fixation.png","null","","","prac","","","","","","","","","","","","","","","","","","","",""
"508.9000000357628","348671","SARL_v6","SARL_v6t8yvtdy0","62fc25ef4ce0d3d169b7a120","mixAttFreqPrac","","","img/blue_2bandit_b2.png","70","img/blue_2bandit_b2.png","70","prac","","","7","","","","","","","","","","","","","","","","",""
"508.9000000357628","348983","SARL_v6","SARL_v6t8yvtdy0","62fc25ef4ce0d3d169b7a120","freqPrac_resp","","","img/blue_2bandit_b.png","70","img/blue_2bandit_b.png","70","prac","","","7","","","","","","","","","","","","","","","","",""
"null","349143","SARL_v6","SARL_v6t8yvtdy0","62fc25ef4ce0d3d169b7a120","fixation","","","img/fixation.png","null","","","prac","","","","","","","","","","","","","","","","","","","",""
"483.5","349629","SARL_v6","SARL_v6t8yvtdy0","62fc25ef4ce0d3d169b7a120","mixAttInfreqPrac","","","img/orange_2bandit_b2.png","68","img/orange_2bandit_b2.png","68","prac","","","8","","","","","","","","","","","","","","","","",""
"483.5","349950","SARL_v6","SARL_v6t8yvtdy0","62fc25ef4ce0d3d169b7a120","infreqPrac_resp","","","img/orange_2bandit_b.png","68","img/blue_2bandit_b.png","68","prac","","","8","","","","","","","","","","","","","","","","",""
"null","350110","SARL_v6","SARL_v6t8yvtdy0","62fc25ef4ce0d3d169b7a120","fixation","","","img/fixation.png","null","","","prac","","","","","","","","","","","","","","","","","","","",""
"469.89999997615814","350583","SARL_v6","SARL_v6t8yvtdy0","62fc25ef4ce0d3d169b7a120","mixAttFreqPrac","","","img/blue_2bandit_b2.png","70","img/blue_2bandit_b2.png","70","prac","","","9","","","","","","","","","","","","","","","","",""
"469.89999997615814","350917","SARL_v6","SARL_v6t8yvtdy0","62fc25ef4ce0d3d169b7a120","freqPrac_resp","","","img/blue_2bandit_b.png","70","img/blue_2bandit_b.png","70","prac","","","9","","","","","","","","","","","","","","","","",""
"null","351079","SARL_v6","SARL_v6t8yvtdy0","62fc25ef4ce0d3d169b7a120","fixation","","","img/fixation.png","null","","","prac","","","","","","","","","","","","","","","","","","","",""
"563","351645","SARL_v6","SARL_v6t8yvtdy0","62fc25ef4ce0d3d169b7a120","mixAttFreqPrac","","","img/blue_2bandit_b2.png","70","img/blue_2bandit_b2.png","70","prac","","","10","","","","","","","","","","","","","","","","",""
"563","351888","SARL_v6","SARL_v6t8yvtdy0","62fc25ef4ce0d3d169b7a120","freqPrac_resp","","","img/blue_2bandit_b.png","70","img/blue_2bandit_b.png","70","prac","","","10","","","","","","","","","","","","","","","","",""
"null","352054","SARL_v6","SARL_v6t8yvtdy0","62fc25ef4ce0d3d169b7a120","fixation","","","img/fixation.png","null","","","prac","","","","","","","","","","","","","","","","","","","",""
"525.3000000119209","352584","SARL_v6","SARL_v6t8yvtdy0","62fc25ef4ce0d3d169b7a120","mixAttInfreqPrac","","","img/orange_2bandit_b2.png","68","img/orange_2bandit_b2.png","68","prac","","","11","","","","","","","","","","","","","","","","",""
"525.3000000119209","352868","SARL_v6","SARL_v6t8yvtdy0","62fc25ef4ce0d3d169b7a120","infreqPrac_resp","","","img/orange_2bandit_b.png","68","img/blue_2bandit_b.png","68","prac","","","11","","","","","","","","","","","","","","","","",""
"null","353031","SARL_v6","SARL_v6t8yvtdy0","62fc25ef4ce0d3d169b7a120","fixation","","","img/fixation.png","null","","","prac","","","","","","","","","","","","","","","","","","","",""
"740.8999999761581","353775","SARL_v6","SARL_v6t8yvtdy0","62fc25ef4ce0d3d169b7a120","mixRLPractice","","","img/black_2bandit_b2.png","75","img/black_2bandit_b2.png","","prac","","","11","","","","","","","","","","","","","","","","",""
"null","354544","SARL_v6","SARL_v6t8yvtdy0","62fc25ef4ce0d3d169b7a120","feedback","","","<div class=""verylowPoints_sq""> -5 </div>","null","","na","prac","","","12","5","-5","5","","","","","","","","","","","","","",""
"null","354703","SARL_v6","SARL_v6t8yvtdy0","62fc25ef4ce0d3d169b7a120","fixation","","","img/fixation.png","null","","","prac","","","","","","","","","","","","","","","","","","","",""
"62301.90000003576","417009","SARL_v6","SARL_v6t8yvtdy0","62fc25ef4ce0d3d169b7a120","","","","","","","","prac","","","","","","","","","","","","","","","","","","","",""
"609.5999999642372","417623","SARL_v6","SARL_v6t8yvtdy0","62fc25ef4ce0d3d169b7a120","freq","","","img/blue_2bandit_b2.png","70","","70","test","1","","1","","","","circle","square","1","1","1","1","","","","","","","",""
"null","417827","SARL_v6","SARL_v6t8yvtdy0","62fc25ef4ce0d3d169b7a120","freq_resp","","","img/blue_2bandit_b.png","70","img/blue_2bandit_b.png","70","test","","","","","","","","","","","1","","","","","","","","",""
"null","417996","SARL_v6","SARL_v6t8yvtdy0","62fc25ef4ce0d3d169b7a120","fixation","","","img/fixation.png","null","","","test","","","","","","","","","","","","","","","","","","","",""
"487","418487","SARL_v6","SARL_v6t8yvtdy0","62fc25ef4ce0d3d169b7a120","freq","","","img/blue_2bandit_b2.png","70","","70","test","1","","2","","","","circle","square","2","2","1","1","","","","","","","",""
"null","418805","SARL_v6","SARL_v6t8yvtdy0","62fc25ef4ce0d3d169b7a120","freq_resp","","","img/blue_2bandit_b.png","70","img/blue_2bandit_b.png","70","test","","","","","","","","","","","1","","","","","","","","",""
"null","418965","SARL_v6","SARL_v6t8yvtdy0","62fc25ef4ce0d3d169b7a120","fixation","","","img/fixation.png","null","","","test","","","","","","","","","","","","","","","","","","","",""
"404.9000000357628","419372","SARL_v6","SARL_v6t8yvtdy0","62fc25ef4ce0d3d169b7a120","freq","","","img/blue_2bandit_b2.png","70","","70","test","1","","3","","","","circle","square","3","3","1","1","","","","","","","",""
"null","419783","SARL_v6","SARL_v6t8yvtdy0","62fc25ef4ce0d3d169b7a120","freq_resp","","","img/blue_2bandit_b.png","70","img/blue_2bandit_b.png","70","test","","","","","","","","","","","1","","","","","","","","",""
"null","419949","SARL_v6","SARL_v6t8yvtdy0","62fc25ef4ce0d3d169b7a120","fixation","","","img/fixation.png","null","","","test","","","","","","","","","","","","","","","","","","","",""
"405.5","420359","SARL_v6","SARL_v6t8yvtdy0","62fc25ef4ce0d3d169b7a120","freq","","","img/blue_2bandit_b2.png","70","","70","test","1","","4","","","","circle","square","4","4","1","1","","","","","","","",""
"null","420768","SARL_v6","SARL_v6t8yvtdy0","62fc25ef4ce0d3d169b7a120","freq_resp","","","img/blue_2bandit_b.png","70","img/blue_2bandit_b.png","70","test","","","","","","","","","","","1","","","","","","","","",""
"null","420935","SARL_v6","SARL_v6t8yvtdy0","62fc25ef4ce0d3d169b7a120","fixation","","","img/fixation.png","null","","","test","","","","","","","","","","","","","","","","","","","",""
"379.69999998807907","421319","SARL_v6","SARL_v6t8yvtdy0","62fc25ef4ce0d3d169b7a120","freq","","","img/blue_2bandit_b2.png","70","","70","test","1","","5","","","","circle","square","5","5","1","1","","","","","","","",""
"null","421751","SARL_v6","SARL_v6t8yvtdy0","62fc25ef4ce0d3d169b7a120","freq_resp","","","img/blue_2bandit_b.png","70","img/blue_2bandit_b.png","70","test","","","","","","","","","","","1","","","","","","","","",""
"null","421919","SARL_v6","SARL_v6t8yvtdy0","62fc25ef4ce0d3d169b7a120","fixation","","","img/fixation.png","null","","","test","","","","","","","","","","","","","","","","","","","",""
"402.69999998807907","422325","SARL_v6","SARL_v6t8yvtdy0","62fc25ef4ce0d3d169b7a120","freq","","","img/blue_2bandit_b2.png","70","","70","test","1","","6","","","","circle","square","6","6","1","1","","","","","","","",""
"null","422737","SARL_v6","SARL_v6t8yvtdy0","62fc25ef4ce0d3d169b7a120","freq_resp","","","img/blue_2bandit_b.png","70","img/blue_2bandit_b.png","70","test","","","","","","","","","","","1","","","","","","","","",""
"null","422904","SARL_v6","SARL_v6t8yvtdy0","62fc25ef4ce0d3d169b7a120","fixation","","","img/fixation.png","null","","","test","","","","","","","","","","","","","","","","","","","",""
"402.69999998807907","423311","SARL_v6","SARL_v6t8yvtdy0","62fc25ef4ce0d3d169b7a120","freq","","","img/blue_2bandit_b2.png","70","","70","test","1","","7","","","","circle","square","7","7","1","1","","","","","","","",""
"null","423723","SARL_v6","SARL_v6t8yvtdy0","62fc25ef4ce0d3d169b7a120","freq_resp","","","img/blue_2bandit_b.png","70","img/blue_2bandit_b.png","70","test","","","","","","","","","","","1","","","","","","","","",""
"null","423889","SARL_v6","SARL_v6t8yvtdy0","62fc25ef4ce0d3d169b7a120","fixation","","","img/fixation.png","null","","","test","","","","","","","","","","","","","","","","","","","",""
"689.3999999761581","424583","SARL_v6","SARL_v6t8yvtdy0","62fc25ef4ce0d3d169b7a120","freq","","","img/blue_2bandit_b2.png","70","","70","test","1","","8","","","","circle","square","8","8","1","1","","","","","","","",""
"null","424711","SARL_v6","SARL_v6t8yvtdy0","62fc25ef4ce0d3d169b7a120","freq_resp","","","img/blue_2bandit_b.png","70","img/blue_2bandit_b.png","70","test","","","","","","","","","","","1","","","","","","","","",""
"null","424876","SARL_v6","SARL_v6t8yvtdy0","62fc25ef4ce0d3d169b7a120","fixation","","","img/fixation.png","null","","","test","","","","","","","","","","","","","","","","","","","",""
"702.8999999761581","425583","SARL_v6","SARL_v6t8yvtdy0","62fc25ef4ce0d3d169b7a120","freq","","","img/blue_2bandit_b2.png","70","","70","test","1","","9","","","","circle","square","9","9","1","1","","","","","","","",""
"null","425695","SARL_v6","SARL_v6t8yvtdy0","62fc25ef4ce0d3d169b7a120","freq_resp","","","img/blue_2bandit_b.png","70","img/blue_2bandit_b.png","70","test","","","","","","","","","","","1","","","","","","","","",""
"null","425861","SARL_v6","SARL_v6t8yvtdy0","62fc25ef4ce0d3d169b7a120","fixation","","","img/fixation.png","null","","","test","","","","","","","","","","","","","","","","","","","",""
"533.3999999761581","426399","SARL_v6","SARL_v6t8yvtdy0","62fc25ef4ce0d3d169b7a120","infreq","","","img/orange_2bandit_b2.png","68","","68","test","1","","10","","","","circle","square","10","10","1","1","","","","","","","",""
"null","426672","SARL_v6","SARL_v6t8yvtdy0","62fc25ef4ce0d3d169b7a120","infreq_resp","","","img/orange_2bandit_b.png","68","img/orange_2bandit_b.png","68","test","","","","","","","","","","","1","","","","","","","","",""
"null","426830","SARL_v6","SARL_v6t8yvtdy0","62fc25ef4ce0d3d169b7a120","fixation","","","img/fixation.png","null","","","test","","","","","","","","","","","","","","","","","","","",""
"460.30000001192093","427293","SARL_v6","SARL_v6t8yvtdy0","62fc25ef4ce0d3d169b7a120","freq","","","img/blue_2bandit_b2.png","70","","70","test","1","","11","","","","circle","square","11","11","1","1","","","","","","","",""
"null","427649","SARL_v6","SARL_v6t8yvtdy0","62fc25ef4ce0d3d169b7a120","freq_resp","","","img/blue_2bandit_b.png","70","img/blue_2bandit_b.png","70","test","","","","","","","","","","","1","","","","","","","","",""
"null","427815","SARL_v6","SARL_v6t8yvtdy0","62fc25ef4ce0d3d169b7a120","fixation","","","img/fixation.png","null","","","test","","","","","","","","","","","","","","","","","","","",""
"595.1999999880791","428412","SARL_v6","SARL_v6t8yvtdy0","62fc25ef4ce0d3d169b7a120","freq","","","img/blue_2bandit_b2.png","70","","70","test","1","","12","","","","circle","square","12","12","1","1","","","","","","","",""
"null","428628","SARL_v6","SARL_v6t8yvtdy0","62fc25ef4ce0d3d169b7a120","freq_resp","","","img/blue_2bandit_b.png","70","img/blue_2bandit_b.png","70","test","","","","","","","","","","","1","","","","","","","","",""
"null","428781","SARL_v6","SARL_v6t8yvtdy0","62fc25ef4ce0d3d169b7a120","fixation","","","img/fixation.png","null","","","test","","","","","","","","","","","","","","","","","","","",""
"462.4000000357628","429247","SARL_v6","SARL_v6t8yvtdy0","62fc25ef4ce0d3d169b7a120","freq","","","img/blue_2bandit_b2.png","70","","70","test","1","","13","","","","circle","square","13","13","1","1","","","","","","","",""
"null","429603","SARL_v6","SARL_v6t8yvtdy0","62fc25ef4ce0d3d169b7a120","freq_resp","","","img/blue_2bandit_b.png","70","img/blue_2bandit_b.png","70","test","","","","","","","","","","","1","","","","","","","","",""
"null","429767","SARL_v6","SARL_v6t8yvtdy0","62fc25ef4ce0d3d169b7a120","fixation","","","img/fixation.png","null","","","test","","","","","","","","","","","","","","","","","","","",""
"427.7000000476837","430199","SARL_v6","SARL_v6t8yvtdy0","62fc25ef4ce0d3d169b7a120","infreq","","","img/orange_2bandit_b2.png","68","","68","test","1","","14","","","","circle","square","14","14","1","1","","","","","","","",""
"null","430584","SARL_v6","SARL_v6t8yvtdy0","62fc25ef4ce0d3d169b7a120","infreq_resp","","","img/orange_2bandit_b.png","68","img/orange_2bandit_b.png","68","test","","","","","","","","","","","1","","","","","","","","",""
"null","430751","SARL_v6","SARL_v6t8yvtdy0","62fc25ef4ce0d3d169b7a120","fixation","","","img/fixation.png","null","","","test","","","","","","","","","","","","","","","","","","","",""
"474.80000001192093","431228","SARL_v6","SARL_v6t8yvtdy0","62fc25ef4ce0d3d169b7a120","freq","","","img/blue_2bandit_b2.png","70","","70","test","1","","15","","","","circle","square","15","15","1","1","","","","","","","",""
"null","431558","SARL_v6","SARL_v6t8yvtdy0","62fc25ef4ce0d3d169b7a120","freq_resp","","","img/blue_2bandit_b.png","70","img/blue_2bandit_b.png","70","test","","","","","","","","","","","1","","","","","","","","",""
"null","431719","SARL_v6","SARL_v6t8yvtdy0","62fc25ef4ce0d3d169b7a120","fixation","","","img/fixation.png","null","","","test","","","","","","","","","","","","","","","","","","","",""
"427.19999998807907","432149","SARL_v6","SARL_v6t8yvtdy0","62fc25ef4ce0d3d169b7a120","freq","","","img/blue_2bandit_b2.png","70","","70","test","1","","16","","","","circle","square","16","16","1","1","","","","","","","",""
"null","432541","SARL_v6","SARL_v6t8yvtdy0","62fc25ef4ce0d3d169b7a120","freq_resp","","","img/blue_2bandit_b.png","70","img/blue_2bandit_b.png","70","test","","","","","","","","","","","1","","","","","","","","",""
"null","432706","SARL_v6","SARL_v6t8yvtdy0","62fc25ef4ce0d3d169b7a120","fixation","","","img/fixation.png","null","","","test","","","","","","","","","","","","","","","","","","","",""
"455.80000001192093","433167","SARL_v6","SARL_v6t8yvtdy0","62fc25ef4ce0d3d169b7a120","freq","","","img/blue_2bandit_b2.png","70","","70","test","1","","17","","","","circle","square","17","17","1","1","","","","","","","",""
"null","433527","SARL_v6","SARL_v6t8yvtdy0","62fc25ef4ce0d3d169b7a120","freq_resp","","","img/blue_2bandit_b.png","70","img/blue_2bandit_b.png","70","test","","","","","","","","","","","1","","","","","","","","",""
"null","433690","SARL_v6","SARL_v6t8yvtdy0","62fc25ef4ce0d3d169b7a120","fixation","","","img/fixation.png","null","","","test","","","","","","","","","","","","","","","","","","","",""
"407.69999998807907","434102","SARL_v6","SARL_v6t8yvtdy0","62fc25ef4ce0d3d169b7a120","freq","","","img/blue_2bandit_b2.png","70","","70","test","1","","18","","","","circle","square","18","18","1","1","","","","","","","",""
"null","434509","SARL_v6","SARL_v6t8yvtdy0","62fc25ef4ce0d3d169b7a120","freq_resp","","","img/blue_2bandit_b.png","70","img/blue_2bandit_b.png","70","test","","","","","","","","","","","1","","","","","","","","",""
"null","434675","SARL_v6","SARL_v6t8yvtdy0","62fc25ef4ce0d3d169b7a120","fixation","","","img/fixation.png","null","","","test","","","","","","","","","","","","","","","","","","","",""
"447.2000000476837","435126","SARL_v6","SARL_v6t8yvtdy0","62fc25ef4ce0d3d169b7a120","freq","","","img/blue_2bandit_b2.png","70","","70","test","1","","19","","","","circle","square","19","19","1","1","","","","","","","",""
"null","435496","SARL_v6","SARL_v6t8yvtdy0","62fc25ef4ce0d3d169b7a120","freq_resp","","","img/blue_2bandit_b.png","70","img/blue_2bandit_b.png","70","test","","","","","","","","","","","1","","","","","","","","",""
"null","435661","SARL_v6","SARL_v6t8yvtdy0","62fc25ef4ce0d3d169b7a120","fixation","","","img/fixation.png","null","","","test","","","","","","","","","","","","","","","","","","","",""
"572.1999999880791","436236","SARL_v6","SARL_v6t8yvtdy0","62fc25ef4ce0d3d169b7a120","freq","","","img/blue_2bandit_b2.png","70","","70","test","1","","20","","","","circle","square","20","20","1","1","","","","","","","",""
"null","436475","SARL_v6","SARL_v6t8yvtdy0","62fc25ef4ce0d3d169b7a120","freq_resp","","","img/blue_2bandit_b.png","70","img/blue_2bandit_b.png","70","test","","","","","","","","","","","1","","","","","","","","",""
"null","436630","SARL_v6","SARL_v6t8yvtdy0","62fc25ef4ce0d3d169b7a120","fixation","","","img/fixation.png","null","","","test","","","","","","","","","","","","","","","","","","","",""
"485","437119","SARL_v6","SARL_v6t8yvtdy0","62fc25ef4ce0d3d169b7a120","freq","","","img/blue_2bandit_b2.png","70","","70","test","1","","21","","","","circle","square","21","21","1","1","","","","","","","",""
"null","437452","SARL_v6","SARL_v6t8yvtdy0","62fc25ef4ce0d3d169b7a120","freq_resp","","","img/blue_2bandit_b.png","70","img/blue_2bandit_b.png","70","test","","","","","","","","","","","1","","","","","","","","",""
"null","437613","SARL_v6","SARL_v6t8yvtdy0","62fc25ef4ce0d3d169b7a120","fixation","","","img/fixation.png","null","","","test","","","","","","","","","","","","","","","","","","","",""
"646.3999999761581","438263","SARL_v6","SARL_v6t8yvtdy0","62fc25ef4ce0d3d169b7a120","rl","","","img/black_2bandit_b2.png","75","","0","test","","","22","","","-3","circle","square","","0","1","","75","-3","-3","-3","-3","square","1","0"
"null","439025","SARL_v6","SARL_v6t8yvtdy0","62fc25ef4ce0d3d169b7a120","feedback","","","<div class=""verylowPoints_sq""> -3 </div>","null","","na","test","","","NaN","","","","","","","","1","","75","","","","","","1",""
"543.8999999761581","439572","SARL_v6","SARL_v6t8yvtdy0","62fc25ef4ce0d3d169b7a120","freq","","","img/blue_2bandit_b2.png","70","","70","test","1","","23","","","","circle","square","22","1","2","1","","","","","","","",""
"null","439844","SARL_v6","SARL_v6t8yvtdy0","62fc25ef4ce0d3d169b7a120","freq_resp","","","img/blue_2bandit_b.png","70","img/blue_2bandit_b.png","70","test","","","","","","","","","","","2","","","","","","","","",""
"null","440003","SARL_v6","SARL_v6t8yvtdy0","62fc25ef4ce0d3d169b7a120","fixation","","","img/fixation.png","null","","","test","","","","","","","","","","","","","","","","","","","",""
"391.0999999642372","440399","SARL_v6","SARL_v6t8yvtdy0","62fc25ef4ce0d3d169b7a120","freq","","","img/blue_2bandit_b2.png","70","","70","test","1","","24","","","","circle","square","23","2","2","1","","","","","","","",""
"null","440818","SARL_v6","SARL_v6t8yvtdy0","62fc25ef4ce0d3d169b7a120","freq_resp","","","img/blue_2bandit_b.png","70","img/blue_2bandit_b.png","70","test","","","","","","","","","","","2","","","","","","","","",""
"null","440987","SARL_v6","SARL_v6t8yvtdy0","62fc25ef4ce0d3d169b7a120","fixation","","","img/fixation.png","null","","","test","","","","","","","","","","","","","","","","","","","",""
"359.69999998807907","441350","SARL_v6","SARL_v6t8yvtdy0","62fc25ef4ce0d3d169b7a120","freq","","","img/blue_2bandit_b2.png","70","","70","test","1","","25","","","","circle","square","24","3","2","1","","","","","","","",""
"null","441801","SARL_v6","SARL_v6t8yvtdy0","62fc25ef4ce0d3d169b7a120","freq_resp","","","img/blue_2bandit_b.png","70","img/blue_2bandit_b.png","70","test","","","","","","","","","","","2","","","","","","","","",""
"null","441962","SARL_v6","SARL_v6t8yvtdy0","62fc25ef4ce0d3d169b7a120","fixation","","","img/fixation.png","null","","","test","","","","","","","","","","","","","","","","","","","",""
"328.80000001192093","442295","SARL_v6","SARL_v6t8yvtdy0","62fc25ef4ce0d3d169b7a120","freq","","","img/blue_2bandit_b2.png","70","","70","test","1","","26","","","","circle","square","25","4","2","1","","","","","","","",""
"null","442784","SARL_v6","SARL_v6t8yvtdy0","62fc25ef4ce0d3d169b7a120","freq_resp","","","img/blue_2bandit_b.png","70","img/blue_2bandit_b.png","70","test","","","","","","","","","","","2","","","","","","","","",""
"null","442940","SARL_v6","SARL_v6t8yvtdy0","62fc25ef4ce0d3d169b7a120","fixation","","","img/fixation.png","null","","","test","","","","","","","","","","","","","","","","","","","",""
"319.80000001192093","443263","SARL_v6","SARL_v6t8yvtdy0","62fc25ef4ce0d3d169b7a120","freq","","","img/blue_2bandit_b2.png","70","","70","test","1","","27","","","","circle","square","26","5","2","1","","","","","","","",""
"null","443753","SARL_v6","SARL_v6t8yvtdy0","62fc25ef4ce0d3d169b7a120","freq_resp","","","img/blue_2bandit_b.png","70","img/blue_2bandit_b.png","70","test","","","","","","","","","","","2","","","","","","","","",""
"null","443910","SARL_v6","SARL_v6t8yvtdy0","62fc25ef4ce0d3d169b7a120","fixation","","","img/fixation.png","null","","","test","","","","","","","","","","","","","","","","","","","",""
"309","444223","SARL_v6","SARL_v6t8yvtdy0","62fc25ef4ce0d3d169b7a120","freq","","","img/blue_2bandit_b2.png","70","","70","test","1","","28","","","","circle","square","27","6","2","1","","","","","","","",""
"null","444720","SARL_v6","SARL_v6t8yvtdy0","62fc25ef4ce0d3d169b7a120","freq_resp","","","img/blue_2bandit_b.png","70","img/blue_2bandit_b.png","70","test","","","","","","","","","","","2","","","","","","","","",""
"null","444878","SARL_v6","SARL_v6t8yvtdy0","62fc25ef4ce0d3d169b7a120","fixation","","","img/fixation.png","null","","","test","","","","","","","","","","","","","","","","","","","",""
"341","445224","SARL_v6","SARL_v6t8yvtdy0","62fc25ef4ce0d3d169b7a120","freq","","","img/blue_2bandit_b2.png","70","","70","test","1","","29","","","","circle","square","28","7","2","1","","","","","","","",""
"null","445691","SARL_v6","SARL_v6t8yvtdy0","62fc25ef4ce0d3d169b7a120","freq_resp","","","img/blue_2bandit_b.png","70","img/blue_2bandit_b.png","70","test","","","","","","","","","","","2","","","","","","","","",""
"null","445862","SARL_v6","SARL_v6t8yvtdy0","62fc25ef4ce0d3d169b7a120","fixation","","","img/fixation.png","null","","","test","","","","","","","","","","","","","","","","","","","",""
"348.89999997615814","446215","SARL_v6","SARL_v6t8yvtdy0","62fc25ef4ce0d3d169b7a120","freq","","","img/blue_2bandit_b2.png","70","","70","test","1","","30","","","","circle","square","29","8","2","1","","","","","","","",""
"null","446676","SARL_v6","SARL_v6t8yvtdy0","62fc25ef4ce0d3d169b7a120","freq_resp","","","img/blue_2bandit_b.png","70","img/blue_2bandit_b.png","70","test","","","","","","","","","","","2","","","","","","","","",""
"null","446832","SARL_v6","SARL_v6t8yvtdy0","62fc25ef4ce0d3d169b7a120","fixation","","","img/fixation.png","null","","","test","","","","","","","","","","","","","","","","","","","",""
"330.2999999523163","447167","SARL_v6","SARL_v6t8yvtdy0","62fc25ef4ce0d3d169b7a120","freq","","","img/blue_2bandit_b2.png","70","","70","test","1","","31","","","","circle","square","30","9","2","1","","","","","","","",""
"null","447645","SARL_v6","SARL_v6t8yvtdy0","62fc25ef4ce0d3d169b7a120","freq_resp","","","img/blue_2bandit_b.png","70","img/blue_2bandit_b.png","70","test","","","","","","","","","","","2","","","","","","","","",""
"null","447815","SARL_v6","SARL_v6t8yvtdy0","62fc25ef4ce0d3d169b7a120","fixation","","","img/fixation.png","null","","","test","","","","","","","","","","","","","","","","","","","",""
"443.60000002384186","448263","SARL_v6","SARL_v6t8yvtdy0","62fc25ef4ce0d3d169b7a120","infreq","","","img/orange_2bandit_b2.png","68","","68","test","1","","32","","","","circle","square","31","10","2","1","","","","","","","",""
"null","448636","SARL_v6","SARL_v6t8yvtdy0","62fc25ef4ce0d3d169b7a120","infreq_resp","","","img/orange_2bandit_b.png","68","img/orange_2bandit_b.png","68","test","","","","","","","","","","","2","","","","","","","","",""
"null","448802","SARL_v6","SARL_v6t8yvtdy0","62fc25ef4ce0d3d169b7a120","fixation","","","img/fixation.png","null","","","test","","","","","","","","","","","","","","","","","","","",""
"392.7999999523163","449200","SARL_v6","SARL_v6t8yvtdy0","62fc25ef4ce0d3d169b7a120","freq","","","img/blue_2bandit_b2.png","70","","70","test","1","","33","","","","circle","square","32","11","2","1","","","","","","","",""
"null","449617","SARL_v6","SARL_v6t8yvtdy0","62fc25ef4ce0d3d169b7a120","freq_resp","","","img/blue_2bandit_b.png","70","img/blue_2bandit_b.png","70","test","","","","","","","","","","","2","","","","","","","","",""
"null","449785","SARL_v6","SARL_v6t8yvtdy0","62fc25ef4ce0d3d169b7a120","fixation","","","img/fixation.png","null","","","test","","","","","","","","","","","","","","","","","","","",""
"657.0999999642372","450448","SARL_v6","SARL_v6t8yvtdy0","62fc25ef4ce0d3d169b7a120","freq","","","img/blue_2bandit_b2.png","70","","70","test","1","","34","","","","circle","square","33","12","2","1","","","","","","","",""
"null","450605","SARL_v6","SARL_v6t8yvtdy0","62fc25ef4ce0d3d169b7a120","freq_resp","","","img/blue_2bandit_b.png","70","img/blue_2bandit_b.png","70","test","","","","","","","","","","","2","","","","","","","","",""
"null","450770","SARL_v6","SARL_v6t8yvtdy0","62fc25ef4ce0d3d169b7a120","fixation","","","img/fixation.png","null","","","test","","","","","","","","","","","","","","","","","","","",""
"696.2999999523163","451471","SARL_v6","SARL_v6t8yvtdy0","62fc25ef4ce0d3d169b7a120","infreq","","","img/orange_2bandit_b2.png","68","","68","test","1","","35","","","","circle","square","34","13","2","1","","","","","","","",""
"null","451589","SARL_v6","SARL_v6t8yvtdy0","62fc25ef4ce0d3d169b7a120","infreq_resp","","","img/orange_2bandit_b.png","68","img/orange_2bandit_b.png","68","test","","","","","","","","","","","2","","","","","","","","",""
"null","451754","SARL_v6","SARL_v6t8yvtdy0","62fc25ef4ce0d3d169b7a120","fixation","","","img/fixation.png","null","","","test","","","","","","","","","","","","","","","","","","","",""
"561.3000000119209","452320","SARL_v6","SARL_v6t8yvtdy0","62fc25ef4ce0d3d169b7a120","freq","","","img/blue_2bandit_b2.png","70","","70","test","1","","36","","","","circle","square","35","14","2","1","","","","","","","",""
"null","452568","SARL_v6","SARL_v6t8yvtdy0","62fc25ef4ce0d3d169b7a120","freq_resp","","","img/blue_2bandit_b.png","70","img/blue_2bandit_b.png","70","test","","","","","","","","","","","2","","","","","","","","",""
"null","452723","SARL_v6","SARL_v6t8yvtdy0","62fc25ef4ce0d3d169b7a120","fixation","","","img/fixation.png","null","","","test","","","","","","","","","","","","","","","","","","","",""
"608.1999999880791","453335","SARL_v6","SARL_v6t8yvtdy0","62fc25ef4ce0d3d169b7a120","freq","","","img/blue_2bandit_b2.png","70","","70","test","1","","37","","","","circle","square","36","15","2","1","","","","","","","",""
"null","453537","SARL_v6","SARL_v6t8yvtdy0","62fc25ef4ce0d3d169b7a120","freq_resp","","","img/blue_2bandit_b.png","70","img/blue_2bandit_b.png","70","test","","","","","","","","","","","2","","","","","","","","",""
"null","453693","SARL_v6","SARL_v6t8yvtdy0","62fc25ef4ce0d3d169b7a120","fixation","","","img/fixation.png","null","","","test","","","","","","","","","","","","","","","","","","","",""
"572.5","454269","SARL_v6","SARL_v6t8yvtdy0","62fc25ef4ce0d3d169b7a120","freq","","","img/blue_2bandit_b2.png","70","","70","test","1","","38","","","","circle","square","37","16","2","1","","","","","","","",""
"null","454505","SARL_v6","SARL_v6t8yvtdy0","62fc25ef4ce0d3d169b7a120","freq_resp","","","img/blue_2bandit_b.png","70","img/blue_2bandit_b.png","70","test","","","","","","","","","","","2","","","","","","","","",""
"null","454661","SARL_v6","SARL_v6t8yvtdy0","62fc25ef4ce0d3d169b7a120","fixation","","","img/fixation.png","null","","","test","","","","","","","","","","","","","","","","","","","",""
"573.6999999880791","455239","SARL_v6","SARL_v6t8yvtdy0","62fc25ef4ce0d3d169b7a120","freq","","","img/blue_2bandit_b2.png","70","","70","test","1","","39","","","","circle","square","38","17","2","1","","","","","","","",""
"null","455475","SARL_v6","SARL_v6t8yvtdy0","62fc25ef4ce0d3d169b7a120","freq_resp","","","img/blue_2bandit_b.png","70","img/blue_2bandit_b.png","70","test","","","","","","","","","","","2","","","","","","","","",""
"null","455631","SARL_v6","SARL_v6t8yvtdy0","62fc25ef4ce0d3d169b7a120","fixation","","","img/fixation.png","null","","","test","","","","","","","","","","","","","","","","","","","",""
"547.6000000238419","456183","SARL_v6","SARL_v6t8yvtdy0","62fc25ef4ce0d3d169b7a120","freq","","","img/blue_2bandit_b2.png","70","","70","test","1","","40","","","","circle","square","39","18","2","1","","","","","","","",""
"null","456443","SARL_v6","SARL_v6t8yvtdy0","62fc25ef4ce0d3d169b7a120","freq_resp","","","img/blue_2bandit_b.png","70","img/blue_2bandit_b.png","70","test","","","","","","","","","","","2","","","","","","","","",""
"null","456598","SARL_v6","SARL_v6t8yvtdy0","62fc25ef4ce0d3d169b7a120","fixation","","","img/fixation.png","null","","","test","","","","","","","","","","","","","","","","","","","",""
"452.69999998807907","457055","SARL_v6","SARL_v6t8yvtdy0","62fc25ef4ce0d3d169b7a120","infreq","","","img/orange_2bandit_b2.png","68","","68","test","1","","41","","","","circle","square","40","19","2","1","","","","","","","",""
"null","457419","SARL_v6","SARL_v6t8yvtdy0","62fc25ef4ce0d3d169b7a120","infreq_resp","","","img/orange_2bandit_b.png","68","img/orange_2bandit_b.png","68","test","","","","","","","","","","","2","","","","","","","","",""
"null","457584","SARL_v6","SARL_v6t8yvtdy0","62fc25ef4ce0d3d169b7a120","fixation","","","img/fixation.png","null","","","test","","","","","","","","","","","","","","","","","","","",""
"402.60000002384186","457991","SARL_v6","SARL_v6t8yvtdy0","62fc25ef4ce0d3d169b7a120","freq","","","img/blue_2bandit_b2.png","70","","70","test","1","","42","","","","circle","square","41","20","2","1","","","","","","","",""
"null","458401","SARL_v6","SARL_v6t8yvtdy0","62fc25ef4ce0d3d169b7a120","freq_resp","","","img/blue_2bandit_b.png","70","img/blue_2bandit_b.png","70","test","","","","","","","","","","","2","","","","","","","","",""
"null","458567","SARL_v6","SARL_v6t8yvtdy0","62fc25ef4ce0d3d169b7a120","fixation","","","img/fixation.png","null","","","test","","","","","","","","","","","","","","","","","","","",""
"395.80000001192093","458967","SARL_v6","SARL_v6t8yvtdy0","62fc25ef4ce0d3d169b7a120","freq","","","img/blue_2bandit_b2.png","70","","70","test","1","","43","","","","circle","square","42","21","2","1","","","","","","","",""
"null","459383","SARL_v6","SARL_v6t8yvtdy0","62fc25ef4ce0d3d169b7a120","freq_resp","","","img/blue_2bandit_b.png","70","img/blue_2bandit_b.png","70","test","","","","","","","","","","","2","","","","","","","","",""
"null","459552","SARL_v6","SARL_v6t8yvtdy0","62fc25ef4ce0d3d169b7a120","fixation","","","img/fixation.png","null","","","test","","","","","","","","","","","","","","","","","","","",""
"338.89999997615814","459894","SARL_v6","SARL_v6t8yvtdy0","62fc25ef4ce0d3d169b7a120","freq","","","img/blue_2bandit_b2.png","70","","70","test","1","","44","","","","circle","square","43","22","2","1","","","","","","","",""
"null","460367","SARL_v6","SARL_v6t8yvtdy0","62fc25ef4ce0d3d169b7a120","freq_resp","","","img/blue_2bandit_b.png","70","img/blue_2bandit_b.png","70","test","","","","","","","","","","","2","","","","","","","","",""
"null","460521","SARL_v6","SARL_v6t8yvtdy0","62fc25ef4ce0d3d169b7a120","fixation","","","img/fixation.png","null","","","test","","","","","","","","","","","","","","","","","","","",""
"338.5","460863","SARL_v6","SARL_v6t8yvtdy0","62fc25ef4ce0d3d169b7a120","freq","","","img/blue_2bandit_b2.png","70","","70","test","1","","45","","","","circle","square","44","23","2","1","","","","","","","",""
"null","461335","SARL_v6","SARL_v6t8yvtdy0","62fc25ef4ce0d3d169b7a120","freq_resp","","","img/blue_2bandit_b.png","70","img/blue_2bandit_b.png","70","test","","","","","","","","","","","2","","","","","","","","",""
"null","461490","SARL_v6","SARL_v6t8yvtdy0","62fc25ef4ce0d3d169b7a120","fixation","","","img/fixation.png","null","","","test","","","","","","","","","","","","","","","","","","","",""
"360.60000002384186","461856","SARL_v6","SARL_v6t8yvtdy0","62fc25ef4ce0d3d169b7a120","freq","","","img/blue_2bandit_b2.png","70","","70","test","1","","46","","","","circle","square","45","24","2","1","","","","","","","",""
"null","462303","SARL_v6","SARL_v6t8yvtdy0","62fc25ef4ce0d3d169b7a120","freq_resp","","","img/blue_2bandit_b.png","70","img/blue_2bandit_b.png","70","test","","","","","","","","","","","2","","","","","","","","",""
"null","462459","SARL_v6","SARL_v6t8yvtdy0","62fc25ef4ce0d3d169b7a120","fixation","","","img/fixation.png","null","","","test","","","","","","","","","","","","","","","","","","","",""
"375.5999999642372","462839","SARL_v6","SARL_v6t8yvtdy0","62fc25ef4ce0d3d169b7a120","freq","","","img/blue_2bandit_b2.png","70","","70","test","1","","47","","","","circle","square","46","25","2","1","","","","","","","",""
"null","463273","SARL_v6","SARL_v6t8yvtdy0","62fc25ef4ce0d3d169b7a120","freq_resp","","","img/blue_2bandit_b.png","70","img/blue_2bandit_b.png","70","test","","","","","","","","","","","2","","","","","","","","",""
"null","463443","SARL_v6","SARL_v6t8yvtdy0","62fc25ef4ce0d3d169b7a120","fixation","","","img/fixation.png","null","","","test","","","","","","","","","","","","","","","","","","","",""
"935.3999999761581","464384","SARL_v6","SARL_v6t8yvtdy0","62fc25ef4ce0d3d169b7a120","rl","","","img/black_2bandit_b2.png","74","","0","test","","","48","","","-5","circle","square","","0","2","","74","-5","-8","-5","-8","circle","2","0"
"null","465139","SARL_v6","SARL_v6t8yvtdy0","62fc25ef4ce0d3d169b7a120","feedback","","","<div class=""verylowPoints""> -5 </div>","null","","na","test","","","NaN","","","","","","","","2","","74","","","","","","2",""
"647.3999999761581","465791","SARL_v6","SARL_v6t8yvtdy0","62fc25ef4ce0d3d169b7a120","freq","","","img/blue_2bandit_b2.png","70","","70","test","1","","49","","","","circle","square","47","1","3","1","","","","","","","",""
"null","465948","SARL_v6","SARL_v6t8yvtdy0","62fc25ef4ce0d3d169b7a120","freq_resp","","","img/blue_2bandit_b.png","70","img/blue_2bandit_b.png","70","test","","","","","","","","","","","3","","","","","","","","",""
"null","466116","SARL_v6","SARL_v6t8yvtdy0","62fc25ef4ce0d3d169b7a120","fixation","","","img/fixation.png","null","","","test","","","","","","","","","","","","","","","","","","","",""
"590.3000000119209","466709","SARL_v6","SARL_v6t8yvtdy0","62fc25ef4ce0d3d169b7a120","freq","","","img/blue_2bandit_b2.png","70","","70","test","1","","50","","","","circle","square","48","2","3","1","","","","","","","",""
"null","466929","SARL_v6","SARL_v6t8yvtdy0","62fc25ef4ce0d3d169b7a120","freq_resp","","","img/blue_2bandit_b.png","70","img/blue_2bandit_b.png","70","test","","","","","","","","","","","3","","","","","","","","",""
"null","467099","SARL_v6","SARL_v6t8yvtdy0","62fc25ef4ce0d3d169b7a120","fixation","","","img/fixation.png","null","","","test","","","","","","","","","","","","","","","","","","","",""
"558.9000000357628","467661","SARL_v6","SARL_v6t8yvtdy0","62fc25ef4ce0d3d169b7a120","freq","","","img/blue_2bandit_b2.png","70","","70","test","1","","51","","","","circle","square","49","3","3","1","","","","","","","",""
"null","467912","SARL_v6","SARL_v6t8yvtdy0","62fc25ef4ce0d3d169b7a120","freq_resp","","","img/blue_2bandit_b.png","70","img/blue_2bandit_b.png","70","test","","","","","","","","","","","3","","","","","","","","",""
"null","468068","SARL_v6","SARL_v6t8yvtdy0","62fc25ef4ce0d3d169b7a120","fixation","","","img/fixation.png","null","","","test","","","","","","","","","","","","","","","","","","","",""
"550.0999999642372","468623","SARL_v6","SARL_v6t8yvtdy0","62fc25ef4ce0d3d169b7a120","freq","","","img/blue_2bandit_b2.png","70","","70","test","1","","52","","","","circle","square","50","4","3","1","","","","","","","",""
"null","468879","SARL_v6","SARL_v6t8yvtdy0","62fc25ef4ce0d3d169b7a120","freq_resp","","","img/blue_2bandit_b.png","70","img/blue_2bandit_b.png","70","test","","","","","","","","","","","3","","","","","","","","",""
"null","469036","SARL_v6","SARL_v6t8yvtdy0","62fc25ef4ce0d3d169b7a120","fixation","","","img/fixation.png","null","","","test","","","","","","","","","","","","","","","","","","","",""
"478.10000002384186","469519","SARL_v6","SARL_v6t8yvtdy0","62fc25ef4ce0d3d169b7a120","infreq","","","img/orange_2bandit_b2.png","68","","68","test","1","","53","","","","circle","square","51","5","3","1","","","","","","","",""
"null","469858","SARL_v6","SARL_v6t8yvtdy0","62fc25ef4ce0d3d169b7a120","infreq_resp","","","img/orange_2bandit_b.png","68","img/orange_2bandit_b.png","68","test","","","","","","","","","","","3","","","","","","","","",""
"null","470021","SARL_v6","SARL_v6t8yvtdy0","62fc25ef4ce0d3d169b7a120","fixation","","","img/fixation.png","null","","","test","","","","","","","","","","","","","","","","","","","",""
"486.60000002384186","470512","SARL_v6","SARL_v6t8yvtdy0","62fc25ef4ce0d3d169b7a120","freq","","","img/blue_2bandit_b2.png","70","","70","test","1","","54","","","","circle","square","52","6","3","1","","","","","","","",""
"null","470843","SARL_v6","SARL_v6t8yvtdy0","62fc25ef4ce0d3d169b7a120","freq_resp","","","img/blue_2bandit_b.png","70","img/blue_2bandit_b.png","70","test","","","","","","","","","","","3","","","","","","","","",""
"null","471007","SARL_v6","SARL_v6t8yvtdy0","62fc25ef4ce0d3d169b7a120","fixation","","","img/fixation.png","null","","","test","","","","","","","","","","","","","","","","","","","",""
"451.89999997615814","471463","SARL_v6","SARL_v6t8yvtdy0","62fc25ef4ce0d3d169b7a120","freq","","","img/blue_2bandit_b2.png","70","","70","test","1","","55","","","","circle","square","53","7","3","1","","","","","","","",""
"null","471828","SARL_v6","SARL_v6t8yvtdy0","62fc25ef4ce0d3d169b7a120","freq_resp","","","img/blue_2bandit_b.png","70","img/blue_2bandit_b.png","70","test","","","","","","","","","","","3","","","","","","","","",""
"null","471992","SARL_v6","SARL_v6t8yvtdy0","62fc25ef4ce0d3d169b7a120","fixation","","","img/fixation.png","null","","","test","","","","","","","","","","","","","","","","","","","",""
"426.2999999523163","472423","SARL_v6","SARL_v6t8yvtdy0","62fc25ef4ce0d3d169b7a120","freq","","","img/blue_2bandit_b2.png","70","","70","test","1","","56","","","","circle","square","54","8","3","1","","","","","","","",""
"null","472811","SARL_v6","SARL_v6t8yvtdy0","62fc25ef4ce0d3d169b7a120","freq_resp","","","img/blue_2bandit_b.png","70","img/blue_2bandit_b.png","70","test","","","","","","","","","","","3","","","","","","","","",""
"null","472976","SARL_v6","SARL_v6t8yvtdy0","62fc25ef4ce0d3d169b7a120","fixation","","","img/fixation.png","null","","","test","","","","","","","","","","","","","","","","","","","",""
"530.5","473509","SARL_v6","SARL_v6t8yvtdy0","62fc25ef4ce0d3d169b7a120","freq","","","img/blue_2bandit_b2.png","70","","70","test","1","","57","","","","circle","square","55","9","3","1","","","","","","","",""
"null","473787","SARL_v6","SARL_v6t8yvtdy0","62fc25ef4ce0d3d169b7a120","freq_resp","","","img/blue_2bandit_b.png","70","img/blue_2bandit_b.png","70","test","","","","","","","","","","","3","","","","","","","","",""
"null","473946","SARL_v6","SARL_v6t8yvtdy0","62fc25ef4ce0d3d169b7a120","fixation","","","img/fixation.png","null","","","test","","","","","","","","","","","","","","","","","","","",""
"545.1000000238419","474496","SARL_v6","SARL_v6t8yvtdy0","62fc25ef4ce0d3d169b7a120","freq","","","img/blue_2bandit_b2.png","70","","70","test","1","","58","","","","circle","square","56","10","3","1","","","","","","","",""
"null","474756","SARL_v6","SARL_v6t8yvtdy0","62fc25ef4ce0d3d169b7a120","freq_resp","","","img/blue_2bandit_b.png","70","img/blue_2bandit_b.png","70","test","","","","","","","","","","","3","","","","","","","","",""
"null","474913","SARL_v6","SARL_v6t8yvtdy0","62fc25ef4ce0d3d169b7a120","fixation","","","img/fixation.png","null","","","test","","","","","","","","","","","","","","","","","","","",""
"481.19999998807907","475399","SARL_v6","SARL_v6t8yvtdy0","62fc25ef4ce0d3d169b7a120","infreq","","","img/orange_2bandit_b2.png","68","","68","test","1","","59","","","","circle","square","57","11","3","1","","","","","","","",""
"null","475734","SARL_v6","SARL_v6t8yvtdy0","62fc25ef4ce0d3d169b7a120","infreq_resp","","","img/orange_2bandit_b.png","68","img/orange_2bandit_b.png","68","test","","","","","","","","","","","3","","","","","","","","",""
"null","475898","SARL_v6","SARL_v6t8yvtdy0","62fc25ef4ce0d3d169b7a120","fixation","","","img/fixation.png","null","","","test","","","","","","","","","","","","","","","","","","","",""
"432.5","476336","SARL_v6","SARL_v6t8yvtdy0","62fc25ef4ce0d3d169b7a120","freq","","","img/blue_2bandit_b2.png","70","","70","test","1","","60","","","","circle","square","58","12","3","1","","","","","","","",""
"null","476714","SARL_v6","SARL_v6t8yvtdy0","62fc25ef4ce0d3d169b7a120","freq_resp","","","img/blue_2bandit_b.png","70","img/blue_2bandit_b.png","70","test","","","","","","","","","","","3","","","","","","","","",""
"null","476882","SARL_v6","SARL_v6t8yvtdy0","62fc25ef4ce0d3d169b7a120","fixation","","","img/fixation.png","null","","","test","","","","","","","","","","","","","","","","","","","",""
"376.30000001192093","477264","SARL_v6","SARL_v6t8yvtdy0","62fc25ef4ce0d3d169b7a120","freq","","","img/blue_2bandit_b2.png","70","","70","test","1","","61","","","","circle","square","59","13","3","1","","","","","","","",""
"null","477699","SARL_v6","SARL_v6t8yvtdy0","62fc25ef4ce0d3d169b7a120","freq_resp","","","img/blue_2bandit_b.png","70","img/blue_2bandit_b.png","70","test","","","","","","","","","","","3","","","","","","","","",""
"null","477868","SARL_v6","SARL_v6t8yvtdy0","62fc25ef4ce0d3d169b7a120","fixation","","","img/fixation.png","null","","","test","","","","","","","","","","","","","","","","","","","",""
"439.30000001192093","478312","SARL_v6","SARL_v6t8yvtdy0","62fc25ef4ce0d3d169b7a120","freq","","","img/blue_2bandit_b2.png","70","","70","test","1","","62","","","","circle","square","60","14","3","1","","","","","","","",""
"null","478689","SARL_v6","SARL_v6t8yvtdy0","62fc25ef4ce0d3d169b7a120","freq_resp","","","img/blue_2bandit_b.png","70","img/blue_2bandit_b.png","70","test","","","","","","","","","","","3","","","","","","","","",""
"null","478855","SARL_v6","SARL_v6t8yvtdy0","62fc25ef4ce0d3d169b7a120","fixation","","","img/fixation.png","null","","","test","","","","","","","","","","","","","","","","","","","",""
"370.80000001192093","479228","SARL_v6","SARL_v6t8yvtdy0","62fc25ef4ce0d3d169b7a120","freq","","","img/blue_2bandit_b2.png","70","","70","test","1","","63","","","","circle","square","61","15","3","1","","","","","","","",""
"null","479668","SARL_v6","SARL_v6t8yvtdy0","62fc25ef4ce0d3d169b7a120","freq_resp","","","img/blue_2bandit_b.png","70","img/blue_2bandit_b.png","70","test","","","","","","","","","","","3","","","","","","","","",""
"null","479822","SARL_v6","SARL_v6t8yvtdy0","62fc25ef4ce0d3d169b7a120","fixation","","","img/fixation.png","null","","","test","","","","","","","","","","","","","","","","","","","",""
"492.30000001192093","480319","SARL_v6","SARL_v6t8yvtdy0","62fc25ef4ce0d3d169b7a120","freq","","","img/blue_2bandit_b2.png","70","","70","test","1","","64","","","","circle","square","62","16","3","1","","","","","","","",""
"null","480631","SARL_v6","SARL_v6t8yvtdy0","62fc25ef4ce0d3d169b7a120","freq_resp","","","img/blue_2bandit_b.png","70","img/blue_2bandit_b.png","70","test","","","","","","","","","","","3","","","","","","","","",""
"null","480791","SARL_v6","SARL_v6t8yvtdy0","62fc25ef4ce0d3d169b7a120","fixation","","","img/fixation.png","null","","","test","","","","","","","","","","","","","","","","","","","",""
"596.3999999761581","481391","SARL_v6","SARL_v6t8yvtdy0","62fc25ef4ce0d3d169b7a120","freq","","","img/blue_2bandit_b2.png","70","","70","test","1","","65","","","","circle","square","63","17","3","1","","","","","","","",""
"null","481605","SARL_v6","SARL_v6t8yvtdy0","62fc25ef4ce0d3d169b7a120","freq_resp","","","img/blue_2bandit_b.png","70","img/blue_2bandit_b.png","70","test","","","","","","","","","","","3","","","","","","","","",""
"null","481774","SARL_v6","SARL_v6t8yvtdy0","62fc25ef4ce0d3d169b7a120","fixation","","","img/fixation.png","null","","","test","","","","","","","","","","","","","","","","","","","",""
"564.3999999761581","482344","SARL_v6","SARL_v6t8yvtdy0","62fc25ef4ce0d3d169b7a120","freq","","","img/blue_2bandit_b2.png","70","","70","test","1","","66","","","","circle","square","64","18","3","1","","","","","","","",""
"null","482589","SARL_v6","SARL_v6t8yvtdy0","62fc25ef4ce0d3d169b7a120","freq_resp","","","img/blue_2bandit_b.png","70","img/blue_2bandit_b.png","70","test","","","","","","","","","","","3","","","","","","","","",""
"null","482744","SARL_v6","SARL_v6t8yvtdy0","62fc25ef4ce0d3d169b7a120","fixation","","","img/fixation.png","null","","","test","","","","","","","","","","","","","","","","","","","",""
"594.6999999880791","483344","SARL_v6","SARL_v6t8yvtdy0","62fc25ef4ce0d3d169b7a120","freq","","","img/blue_2bandit_b2.png","70","","70","test","1","","67","","","","circle","square","65","19","3","1","","","","","","","",""
"null","483558","SARL_v6","SARL_v6t8yvtdy0","62fc25ef4ce0d3d169b7a120","freq_resp","","","img/blue_2bandit_b.png","70","img/blue_2bandit_b.png","70","test","","","","","","","","","","","3","","","","","","","","",""
"null","483729","SARL_v6","SARL_v6t8yvtdy0","62fc25ef4ce0d3d169b7a120","fixation","","","img/fixation.png","null","","","test","","","","","","","","","","","","","","","","","","","",""
"578.1000000238419","484311","SARL_v6","SARL_v6t8yvtdy0","62fc25ef4ce0d3d169b7a120","freq","","","img/blue_2bandit_b2.png","70","","70","test","1","","68","","","","circle","square","66","20","3","1","","","","","","","",""
"null","484543","SARL_v6","SARL_v6t8yvtdy0","62fc25ef4ce0d3d169b7a120","freq_resp","","","img/blue_2bandit_b.png","70","img/blue_2bandit_b.png","70","test","","","","","","","","","","","3","","","","","","","","",""
"null","484698","SARL_v6","SARL_v6t8yvtdy0","62fc25ef4ce0d3d169b7a120","fixation","","","img/fixation.png","null","","","test","","","","","","","","","","","","","","","","","","","",""
"576.6000000238419","485280","SARL_v6","SARL_v6t8yvtdy0","62fc25ef4ce0d3d169b7a120","rl","","","img/black_2bandit_b2.png","75","","0","test","","","69","","","-8","circle","square","","0","3","","75","-4","-8","-4","-8","square","3","0"
"null","486041","SARL_v6","SARL_v6t8yvtdy0","62fc25ef4ce0d3d169b7a120","feedback","","","<div class=""verylowPoints_sq""> -8 </div>","null","","na","test","","","NaN","","","","","","","","3","","75","","","","","","3",""
"386.60000002384186","486432","SARL_v6","SARL_v6t8yvtdy0","62fc25ef4ce0d3d169b7a120","freq","","","img/blue_2bandit_b2.png","70","","70","test","1","","70","","","","circle","square","67","1","4","1","","","","","","","",""
"null","486850","SARL_v6","SARL_v6t8yvtdy0","62fc25ef4ce0d3d169b7a120","freq_resp","","","img/blue_2bandit_b.png","70","img/blue_2bandit_b.png","70","test","","","","","","","","","","","4","","","","","","","","",""
"null","487007","SARL_v6","SARL_v6t8yvtdy0","62fc25ef4ce0d3d169b7a120","fixation","","","img/fixation.png","null","","","test","","","","","","","","","","","","","","","","","","","",""
"419.30000001192093","487431","SARL_v6","SARL_v6t8yvtdy0","62fc25ef4ce0d3d169b7a120","freq","","","img/blue_2bandit_b2.png","70","","70","test","1","","71","","","","circle","square","68","2","4","1","","","","","","","",""
"null","487821","SARL_v6","SARL_v6t8yvtdy0","62fc25ef4ce0d3d169b7a120","freq_resp","","","img/blue_2bandit_b.png","70","img/blue_2bandit_b.png","70","test","","","","","","","","","","","4","","","","","","","","",""
"null","487987","SARL_v6","SARL_v6t8yvtdy0","62fc25ef4ce0d3d169b7a120","fixation","","","img/fixation.png","null","","","test","","","","","","","","","","","","","","","","","","","",""
"416.19999998807907","488407","SARL_v6","SARL_v6t8yvtdy0","62fc25ef4ce0d3d169b7a120","freq","","","img/blue_2bandit_b2.png","70","","70","test","1","","72","","","","circle","square","69","3","4","1","","","","","","","",""
"null","488806","SARL_v6","SARL_v6t8yvtdy0","62fc25ef4ce0d3d169b7a120","freq_resp","","","img/blue_2bandit_b.png","70","img/blue_2bandit_b.png","70","test","","","","","","","","","","","4","","","","","","","","",""
"null","488972","SARL_v6","SARL_v6t8yvtdy0","62fc25ef4ce0d3d169b7a120","fixation","","","img/fixation.png","null","","","test","","","","","","","","","","","","","","","","","","","",""
"462.39999997615814","489437","SARL_v6","SARL_v6t8yvtdy0","62fc25ef4ce0d3d169b7a120","freq","","","img/blue_2bandit_b2.png","70","","70","test","1","","73","","","","circle","square","70","4","4","1","","","","","","","",""
"null","489791","SARL_v6","SARL_v6t8yvtdy0","62fc25ef4ce0d3d169b7a120","freq_resp","","","img/blue_2bandit_b.png","70","img/blue_2bandit_b.png","70","test","","","","","","","","","","","4","","","","","","","","",""
"null","489956","SARL_v6","SARL_v6t8yvtdy0","62fc25ef4ce0d3d169b7a120","fixation","","","img/fixation.png","null","","","test","","","","","","","","","","","","","","","","","","","",""
"399.2000000476837","490359","SARL_v6","SARL_v6t8yvtdy0","62fc25ef4ce0d3d169b7a120","freq","","","img/blue_2bandit_b2.png","70","","70","test","1","","74","","","","circle","square","71","5","4","1","","","","","","","",""
"null","490774","SARL_v6","SARL_v6t8yvtdy0","62fc25ef4ce0d3d169b7a120","freq_resp","","","img/blue_2bandit_b.png","70","img/blue_2bandit_b.png","70","test","","","","","","","","","","","4","","","","","","","","",""
"null","490942","SARL_v6","SARL_v6t8yvtdy0","62fc25ef4ce0d3d169b7a120","fixation","","","img/fixation.png","null","","","test","","","","","","","","","","","","","","","","","","","",""
"428.10000002384186","491372","SARL_v6","SARL_v6t8yvtdy0","62fc25ef4ce0d3d169b7a120","freq","","","img/blue_2bandit_b2.png","70","","70","test","1","","75","","","","circle","square","72","6","4","1","","","","","","","",""
"null","491761","SARL_v6","SARL_v6t8yvtdy0","62fc25ef4ce0d3d169b7a120","freq_resp","","","img/blue_2bandit_b.png","70","img/blue_2bandit_b.png","70","test","","","","","","","","","","","4","","","","","","","","",""
"null","491927","SARL_v6","SARL_v6t8yvtdy0","62fc25ef4ce0d3d169b7a120","fixation","","","img/fixation.png","null","","","test","","","","","","","","","","","","","","","","","","","",""
"507.60000002384186","492438","SARL_v6","SARL_v6t8yvtdy0","62fc25ef4ce0d3d169b7a120","infreq","","","img/orange_2bandit_b2.png","68","","68","test","1","","76","","","","circle","square","73","7","4","1","","","","","","","",""
"null","492735","SARL_v6","SARL_v6t8yvtdy0","62fc25ef4ce0d3d169b7a120","infreq_resp","","","img/orange_2bandit_b.png","68","img/orange_2bandit_b.png","68","test","","","","","","","","","","","4","","","","","","","","",""
"null","492895","SARL_v6","SARL_v6t8yvtdy0","62fc25ef4ce0d3d169b7a120","fixation","","","img/fixation.png","null","","","test","","","","","","","","","","","","","","","","","","","",""
"508.60000002384186","493408","SARL_v6","SARL_v6t8yvtdy0","62fc25ef4ce0d3d169b7a120","freq","","","img/blue_2bandit_b2.png","70","","70","test","1","","77","","","","circle","square","74","8","4","1","","","","","","","",""
"null","493703","SARL_v6","SARL_v6t8yvtdy0","62fc25ef4ce0d3d169b7a120","freq_resp","","","img/blue_2bandit_b.png","70","img/blue_2bandit_b.png","70","test","","","","","","","","","","","4","","","","","","","","",""
"null","493863","SARL_v6","SARL_v6t8yvtdy0","62fc25ef4ce0d3d169b7a120","fixation","","","img/fixation.png","null","","","test","","","","","","","","","","","","","","","","","","","",""
"620.6000000238419","494487","SARL_v6","SARL_v6t8yvtdy0","62fc25ef4ce0d3d169b7a120","freq","","","img/blue_2bandit_b2.png","70","","70","test","1","","78","","","","circle","square","75","9","4","1","","","","","","","",""
"null","494681","SARL_v6","SARL_v6t8yvtdy0","62fc25ef4ce0d3d169b7a120","freq_resp","","","img/blue_2bandit_b.png","70","img/blue_2bandit_b.png","70","test","","","","","","","","","","","4","","","","","","","","",""
"null","494848","SARL_v6","SARL_v6t8yvtdy0","62fc25ef4ce0d3d169b7a120","fixation","","","img/fixation.png","null","","","test","","","","","","","","","","","","","","","","","","","",""
"611.1999999880791","495464","SARL_v6","SARL_v6t8yvtdy0","62fc25ef4ce0d3d169b7a120","freq","","","img/blue_2bandit_b2.png","70","","70","test","1","","79","","","","circle","square","76","10","4","1","","","","","","","",""
"null","495664","SARL_v6","SARL_v6t8yvtdy0","62fc25ef4ce0d3d169b7a120","freq_resp","","","img/blue_2bandit_b.png","70","img/blue_2bandit_b.png","70","test","","","","","","","","","","","4","","","","","","","","",""
"null","495833","SARL_v6","SARL_v6t8yvtdy0","62fc25ef4ce0d3d169b7a120","fixation","","","img/fixation.png","null","","","test","","","","","","","","","","","","","","","","","","","",""
"586.3000000119209","496423","SARL_v6","SARL_v6t8yvtdy0","62fc25ef4ce0d3d169b7a120","freq","","","img/blue_2bandit_b2.png","70","","70","test","1","","80","","","","circle","square","77","11","4","1","","","","","","","",""
"null","496648","SARL_v6","SARL_v6t8yvtdy0","62fc25ef4ce0d3d169b7a120","freq_resp","","","img/blue_2bandit_b.png","70","img/blue_2bandit_b.png","70","test","","","","","","","","","","","4","","","","","","","","",""
"null","496819","SARL_v6","SARL_v6t8yvtdy0","62fc25ef4ce0d3d169b7a120","fixation","","","img/fixation.png","null","","","test","","","","","","","","","","","","","","","","","","","",""
"631.6999999880791","497455","SARL_v6","SARL_v6t8yvtdy0","62fc25ef4ce0d3d169b7a120","freq","","","img/blue_2bandit_b2.png","70","","70","test","1","","81","","","","circle","square","78","12","4","1","","","","","","","",""
"null","497634","SARL_v6","SARL_v6t8yvtdy0","62fc25ef4ce0d3d169b7a120","freq_resp","","","img/blue_2bandit_b.png","70","img/blue_2bandit_b.png","70","test","","","","","","","","","","","4","","","","","","","","",""
"null","497788","SARL_v6","SARL_v6t8yvtdy0","62fc25ef4ce0d3d169b7a120","fixation","","","img/fixation.png","null","","","test","","","","","","","","","","","","","","","","","","","",""
"654.1999999880791","498447","SARL_v6","SARL_v6t8yvtdy0","62fc25ef4ce0d3d169b7a120","freq","","","img/blue_2bandit_b2.png","70","","70","test","1","","82","","","","circle","square","79","13","4","1","","","","","","","",""
"null","498606","SARL_v6","SARL_v6t8yvtdy0","62fc25ef4ce0d3d169b7a120","freq_resp","","","img/blue_2bandit_b.png","70","img/blue_2bandit_b.png","70","test","","","","","","","","","","","4","","","","","","","","",""
"null","498772","SARL_v6","SARL_v6t8yvtdy0","62fc25ef4ce0d3d169b7a120","fixation","","","img/fixation.png","null","","","test","","","","","","","","","","","","","","","","","","","",""
"630.8999999761581","499408","SARL_v6","SARL_v6t8yvtdy0","62fc25ef4ce0d3d169b7a120","infreq","","","img/orange_2bandit_b2.png","68","","68","test","1","","83","","","","circle","square","80","14","4","1","","","","","","","",""
"null","499588","SARL_v6","SARL_v6t8yvtdy0","62fc25ef4ce0d3d169b7a120","infreq_resp","","","img/orange_2bandit_b.png","68","img/orange_2bandit_b.png","68","test","","","","","","","","","","","4","","","","","","","","",""
"null","499756","SARL_v6","SARL_v6t8yvtdy0","62fc25ef4ce0d3d169b7a120","fixation","","","img/fixation.png","null","","","test","","","","","","","","","","","","","","","","","","","",""
"494.19999998807907","500255","SARL_v6","SARL_v6t8yvtdy0","62fc25ef4ce0d3d169b7a120","freq","","","img/blue_2bandit_b2.png","70","","70","test","1","","84","","","","circle","square","81","15","4","1","","","","","","","",""
"null","500563","SARL_v6","SARL_v6t8yvtdy0","62fc25ef4ce0d3d169b7a120","freq_resp","","","img/blue_2bandit_b.png","70","img/blue_2bandit_b.png","70","test","","","","","","","","","","","4","","","","","","","","",""
"null","500725","SARL_v6","SARL_v6t8yvtdy0","62fc25ef4ce0d3d169b7a120","fixation","","","img/fixation.png","null","","","test","","","","","","","","","","","","","","","","","","","",""
"477.19999998807907","501207","SARL_v6","SARL_v6t8yvtdy0","62fc25ef4ce0d3d169b7a120","freq","","","img/blue_2bandit_b2.png","70","","70","test","1","","85","","","","circle","square","82","16","4","1","","","","","","","",""
"null","501548","SARL_v6","SARL_v6t8yvtdy0","62fc25ef4ce0d3d169b7a120","freq_resp","","","img/blue_2bandit_b.png","70","img/blue_2bandit_b.png","70","test","","","","","","","","","","","4","","","","","","","","",""
"null","501710","SARL_v6","SARL_v6t8yvtdy0","62fc25ef4ce0d3d169b7a120","fixation","","","img/fixation.png","null","","","test","","","","","","","","","","","","","","","","","","","",""
"542","502256","SARL_v6","SARL_v6t8yvtdy0","62fc25ef4ce0d3d169b7a120","freq","","","img/blue_2bandit_b2.png","70","","70","test","1","","86","","","","circle","square","83","17","4","1","","","","","","","",""
"null","502521","SARL_v6","SARL_v6t8yvtdy0","62fc25ef4ce0d3d169b7a120","freq_resp","","","img/blue_2bandit_b.png","70","img/blue_2bandit_b.png","70","test","","","","","","","","","","","4","","","","","","","","",""
"null","502680","SARL_v6","SARL_v6t8yvtdy0","62fc25ef4ce0d3d169b7a120","fixation","","","img/fixation.png","null","","","test","","","","","","","","","","","","","","","","","","","",""
"537.6000000238419","503220","SARL_v6","SARL_v6t8yvtdy0","62fc25ef4ce0d3d169b7a120","freq","","","img/blue_2bandit_b2.png","70","","70","test","1","","87","","","","circle","square","84","18","4","1","","","","","","","",""
"null","503489","SARL_v6","SARL_v6t8yvtdy0","62fc25ef4ce0d3d169b7a120","freq_resp","","","img/blue_2bandit_b.png","70","img/blue_2bandit_b.png","70","test","","","","","","","","","","","4","","","","","","","","",""
"null","503648","SARL_v6","SARL_v6t8yvtdy0","62fc25ef4ce0d3d169b7a120","fixation","","","img/fixation.png","null","","","test","","","","","","","","","","","","","","","","","","","",""
"578.8999999761581","504232","SARL_v6","SARL_v6t8yvtdy0","62fc25ef4ce0d3d169b7a120","freq","","","img/blue_2bandit_b2.png","70","","70","test","1","","88","","","","circle","square","85","19","4","1","","","","","","","",""
"null","504462","SARL_v6","SARL_v6t8yvtdy0","62fc25ef4ce0d3d169b7a120","freq_resp","","","img/blue_2bandit_b.png","70","img/blue_2bandit_b.png","70","test","","","","","","","","","","","4","","","","","","","","",""
"null","504631","SARL_v6","SARL_v6t8yvtdy0","62fc25ef4ce0d3d169b7a120","fixation","","","img/fixation.png","null","","","test","","","","","","","","","","","","","","","","","","","",""
"563.5","505200","SARL_v6","SARL_v6t8yvtdy0","62fc25ef4ce0d3d169b7a120","freq","","","img/blue_2bandit_b2.png","70","","70","test","1","","89","","","","circle","square","86","20","4","1","","","","","","","",""
"null","505445","SARL_v6","SARL_v6t8yvtdy0","62fc25ef4ce0d3d169b7a120","freq_resp","","","img/blue_2bandit_b.png","70","img/blue_2bandit_b.png","70","test","","","","","","","","","","","4","","","","","","","","",""
"null","505601","SARL_v6","SARL_v6t8yvtdy0","62fc25ef4ce0d3d169b7a120","fixation","","","img/fixation.png","null","","","test","","","","","","","","","","","","","","","","","","","",""
"545","506152","SARL_v6","SARL_v6t8yvtdy0","62fc25ef4ce0d3d169b7a120","rl","","","img/black_2bandit_b2.png","75","","0","test","","","90","","","-12","circle","square","","0","4","","75","0","-12","0","-12","square","4","0"
"null","506912","SARL_v6","SARL_v6t8yvtdy0","62fc25ef4ce0d3d169b7a120","feedback","","","<div class=""verylowPoints_sq""> -12 </div>","null","","na","test","","","NaN","","","","","","","","4","","75","","","","","","4",""
"346.5","507261","SARL_v6","SARL_v6t8yvtdy0","62fc25ef4ce0d3d169b7a120","freq","","","img/blue_2bandit_b2.png","70","","70","test","1","","91","","","","circle","square","87","1","5","1","","","","","","","",""
"null","507718","SARL_v6","SARL_v6t8yvtdy0","62fc25ef4ce0d3d169b7a120","freq_resp","","","img/blue_2bandit_b.png","70","img/blue_2bandit_b.png","70","test","","","","","","","","","","","5","","","","","","","","",""
"null","507887","SARL_v6","SARL_v6t8yvtdy0","62fc25ef4ce0d3d169b7a120","fixation","","","img/fixation.png","null","","","test","","","","","","","","","","","","","","","","","","","",""
"291.2999999523163","508183","SARL_v6","SARL_v6t8yvtdy0","62fc25ef4ce0d3d169b7a120","freq","","","img/blue_2bandit_b2.png","70","","70","test","1","","92","","","","circle","square","88","2","5","1","","","","","","","",""
"null","508698","SARL_v6","SARL_v6t8yvtdy0","62fc25ef4ce0d3d169b7a120","freq_resp","","","img/blue_2bandit_b.png","70","img/blue_2bandit_b.png","70","test","","","","","","","","","","","5","","","","","","","","",""
"null","508858","SARL_v6","SARL_v6t8yvtdy0","62fc25ef4ce0d3d169b7a120","fixation","","","img/fixation.png","null","","","test","","","","","","","","","","","","","","","","","","","",""
"321.0999999642372","509183","SARL_v6","SARL_v6t8yvtdy0","62fc25ef4ce0d3d169b7a120","freq","","","img/blue_2bandit_b2.png","70","","70","test","1","","93","","","","circle","square","89","3","5","1","","","","","","","",""
"null","509668","SARL_v6","SARL_v6t8yvtdy0","62fc25ef4ce0d3d169b7a120","freq_resp","","","img/blue_2bandit_b.png","70","img/blue_2bandit_b.png","70","test","","","","","","","","","","","5","","","","","","","","",""
"null","509826","SARL_v6","SARL_v6t8yvtdy0","62fc25ef4ce0d3d169b7a120","fixation","","","img/fixation.png","null","","","test","","","","","","","","","","","","","","","","","","","",""
"632.6000000238419","510464","SARL_v6","SARL_v6t8yvtdy0","62fc25ef4ce0d3d169b7a120","infreq","","","img/orange_2bandit_b2.png","68","","68","test","1","","94","","","","circle","square","90","4","5","1","","","","","","","",""
"null","510643","SARL_v6","SARL_v6t8yvtdy0","62fc25ef4ce0d3d169b7a120","infreq_resp","","","img/orange_2bandit_b.png","68","img/orange_2bandit_b.png","68","test","","","","","","","","","","","5","","","","","","","","",""
"null","510810","SARL_v6","SARL_v6t8yvtdy0","62fc25ef4ce0d3d169b7a120","fixation","","","img/fixation.png","null","","","test","","","","","","","","","","","","","","","","","","","",""
"616.6999999880791","511431","SARL_v6","SARL_v6t8yvtdy0","62fc25ef4ce0d3d169b7a120","freq","","","img/blue_2bandit_b2.png","70","","70","test","1","","95","","","","circle","square","91","5","5","1","","","","","","","",""
"null","511626","SARL_v6","SARL_v6t8yvtdy0","62fc25ef4ce0d3d169b7a120","freq_resp","","","img/blue_2bandit_b.png","70","img/blue_2bandit_b.png","70","test","","","","","","","","","","","5","","","","","","","","",""
"null","511793","SARL_v6","SARL_v6t8yvtdy0","62fc25ef4ce0d3d169b7a120","fixation","","","img/fixation.png","null","","","test","","","","","","","","","","","","","","","","","","","",""
"537.5","512336","SARL_v6","SARL_v6t8yvtdy0","62fc25ef4ce0d3d169b7a120","freq","","","img/blue_2bandit_b2.png","70","","70","test","1","","96","","","","circle","square","92","6","5","1","","","","","","","",""
"null","512607","SARL_v6","SARL_v6t8yvtdy0","62fc25ef4ce0d3d169b7a120","freq_resp","","","img/blue_2bandit_b.png","70","img/blue_2bandit_b.png","70","test","","","","","","","","","","","5","","","","","","","","",""
"null","512763","SARL_v6","SARL_v6t8yvtdy0","62fc25ef4ce0d3d169b7a120","fixation","","","img/fixation.png","null","","","test","","","","","","","","","","","","","","","","","","","",""
"567.5","513335","SARL_v6","SARL_v6t8yvtdy0","62fc25ef4ce0d3d169b7a120","freq","","","img/blue_2bandit_b2.png","70","","70","test","1","","97","","","","circle","square","93","7","5","1","","","","","","","",""
"null","513577","SARL_v6","SARL_v6t8yvtdy0","62fc25ef4ce0d3d169b7a120","freq_resp","","","img/blue_2bandit_b.png","70","img/blue_2bandit_b.png","70","test","","","","","","","","","","","5","","","","","","","","",""
"null","513733","SARL_v6","SARL_v6t8yvtdy0","62fc25ef4ce0d3d169b7a120","fixation","","","img/fixation.png","null","","","test","","","","","","","","","","","","","","","","","","","",""
"549.8999999761581","514287","SARL_v6","SARL_v6t8yvtdy0","62fc25ef4ce0d3d169b7a120","freq","","","img/blue_2bandit_b2.png","70","","70","test","1","","98","","","","circle","square","94","8","5","1","","","","","","","",""
"null","514545","SARL_v6","SARL_v6t8yvtdy0","62fc25ef4ce0d3d169b7a120","freq_resp","","","img/blue_2bandit_b.png","70","img/blue_2bandit_b.png","70","test","","","","","","","","","","","5","","","","","","","","",""
"null","514702","SARL_v6","SARL_v6t8yvtdy0","62fc25ef4ce0d3d169b7a120","fixation","","","img/fixation.png","null","","","test","","","","","","","","","","","","","","","","","","","",""
"531.8999999761581","515237","SARL_v6","SARL_v6t8yvtdy0","62fc25ef4ce0d3d169b7a120","freq","","","img/blue_2bandit_b2.png","70","","70","test","1","","99","","","","circle","square","95","9","5","1","","","","","","","",""
"null","515509","SARL_v6","SARL_v6t8yvtdy0","62fc25ef4ce0d3d169b7a120","freq_resp","","","img/blue_2bandit_b.png","70","img/blue_2bandit_b.png","70","test","","","","","","","","","","","5","","","","","","","","",""
"null","515669","SARL_v6","SARL_v6t8yvtdy0","62fc25ef4ce0d3d169b7a120","fixation","","","img/fixation.png","null","","","test","","","","","","","","","","","","","","","","","","","",""
"510","516184","SARL_v6","SARL_v6t8yvtdy0","62fc25ef4ce0d3d169b7a120","freq","","","img/blue_2bandit_b2.png","70","","70","test","1","","100","","","","circle","square","96","10","5","1","","","","","","","",""
"null","516493","SARL_v6","SARL_v6t8yvtdy0","62fc25ef4ce0d3d169b7a120","freq_resp","","","img/blue_2bandit_b.png","70","img/blue_2bandit_b.png","70","test","","","","","","","","","","","5","","","","","","","","",""
"null","516655","SARL_v6","SARL_v6t8yvtdy0","62fc25ef4ce0d3d169b7a120","fixation","","","img/fixation.png","null","","","test","","","","","","","","","","","","","","","","","","","",""
"548.1000000238419","517208","SARL_v6","SARL_v6t8yvtdy0","62fc25ef4ce0d3d169b7a120","freq","","","img/blue_2bandit_b2.png","70","","70","test","1","","101","","","","circle","square","97","11","5","1","","","","","","","",""
"null","517466","SARL_v6","SARL_v6t8yvtdy0","62fc25ef4ce0d3d169b7a120","freq_resp","","","img/blue_2bandit_b.png","70","img/blue_2bandit_b.png","70","test","","","","","","","","","","","5","","","","","","","","",""
"null","517622","SARL_v6","SARL_v6t8yvtdy0","62fc25ef4ce0d3d169b7a120","fixation","","","img/fixation.png","null","","","test","","","","","","","","","","","","","","","","","","","",""
"533.1000000238419","518159","SARL_v6","SARL_v6t8yvtdy0","62fc25ef4ce0d3d169b7a120","infreq","","","img/orange_2bandit_b2.png","70","","68","test","0","","102","","","","circle","square","98","12","5","0.9897959183673469","","","","","","","",""
"null","518433","SARL_v6","SARL_v6t8yvtdy0","62fc25ef4ce0d3d169b7a120","infreq_resp","","","img/orange_2bandit_b.png","70","img/orange_2bandit_b.png","68","test","","","","","","","","","","","5","","","","","","","","",""
"null","518592","SARL_v6","SARL_v6t8yvtdy0","62fc25ef4ce0d3d169b7a120","fixation","","","img/fixation.png","null","","","test","","","","","","","","","","","","","","","","","","","",""
"595.1999999880791","519191","SARL_v6","SARL_v6t8yvtdy0","62fc25ef4ce0d3d169b7a120","freq","","","img/blue_2bandit_b2.png","70","","70","test","1","","103","","","","circle","square","99","13","5","0.98989898989899","","","","","","","",""
"null","519405","SARL_v6","SARL_v6t8yvtdy0","62fc25ef4ce0d3d169b7a120","freq_resp","","","img/blue_2bandit_b.png","70","img/blue_2bandit_b.png","70","test","","","","","","","","","","","5","","","","","","","","",""
"null","519575","SARL_v6","SARL_v6t8yvtdy0","62fc25ef4ce0d3d169b7a120","fixation","","","img/fixation.png","null","","","test","","","","","","","","","","","","","","","","","","","",""
"571.5","520151","SARL_v6","SARL_v6t8yvtdy0","62fc25ef4ce0d3d169b7a120","freq","","","img/blue_2bandit_b2.png","70","","70","test","1","","104","","","","circle","square","100","14","5","0.99","","","","","","","",""
"null","520389","SARL_v6","SARL_v6t8yvtdy0","62fc25ef4ce0d3d169b7a120","freq_resp","","","img/blue_2bandit_b.png","70","img/blue_2bandit_b.png","70","test","","","","","","","","","","","5","","","","","","","","",""
"null","520545","SARL_v6","SARL_v6t8yvtdy0","62fc25ef4ce0d3d169b7a120","fixation","","","img/fixation.png","null","","","test","","","","","","","","","","","","","","","","","","","",""
"594.1000000238419","521143","SARL_v6","SARL_v6t8yvtdy0","62fc25ef4ce0d3d169b7a120","freq","","","img/blue_2bandit_b2.png","70","","70","test","1","","105","","","","circle","square","101","15","5","0.9900990099009901","","","","","","","",""
"null","521359","SARL_v6","SARL_v6t8yvtdy0","62fc25ef4ce0d3d169b7a120","freq_resp","","","img/blue_2bandit_b.png","70","img/blue_2bandit_b.png","70","test","","","","","","","","","","","5","","","","","","","","",""
"null","521528","SARL_v6","SARL_v6t8yvtdy0","62fc25ef4ce0d3d169b7a120","fixation","","","img/fixation.png","null","","","test","","","","","","","","","","","","","","","","","","","",""
"538.0999999642372","522069","SARL_v6","SARL_v6t8yvtdy0","62fc25ef4ce0d3d169b7a120","freq","","","img/blue_2bandit_b2.png","70","","70","test","1","","106","","","","circle","square","102","16","5","0.9901960784313726","","","","","","","",""
"null","522340","SARL_v6","SARL_v6t8yvtdy0","62fc25ef4ce0d3d169b7a120","freq_resp","","","img/blue_2bandit_b.png","70","img/blue_2bandit_b.png","70","test","","","","","","","","","","","5","","","","","","","","",""
"null","522498","SARL_v6","SARL_v6t8yvtdy0","62fc25ef4ce0d3d169b7a120","fixation","","","img/fixation.png","null","","","test","","","","","","","","","","","","","","","","","","","",""
"520.6999999880791","523023","SARL_v6","SARL_v6t8yvtdy0","62fc25ef4ce0d3d169b7a120","freq","","","img/blue_2bandit_b2.png","70","","70","test","1","","107","","","","circle","square","103","17","5","0.9902912621359223","","","","","","","",""
"null","523308","SARL_v6","SARL_v6t8yvtdy0","62fc25ef4ce0d3d169b7a120","freq_resp","","","img/blue_2bandit_b.png","70","img/blue_2bandit_b.png","70","test","","","","","","","","","","","5","","","","","","","","",""
"null","523466","SARL_v6","SARL_v6t8yvtdy0","62fc25ef4ce0d3d169b7a120","fixation","","","img/fixation.png","null","","","test","","","","","","","","","","","","","","","","","","","",""
"504.10000002384186","523974","SARL_v6","SARL_v6t8yvtdy0","62fc25ef4ce0d3d169b7a120","freq","","","img/blue_2bandit_b2.png","70","","70","test","1","","108","","","","circle","square","104","18","5","0.9903846153846154","","","","","","","",""
"null","524276","SARL_v6","SARL_v6t8yvtdy0","62fc25ef4ce0d3d169b7a120","freq_resp","","","img/blue_2bandit_b.png","70","img/blue_2bandit_b.png","70","test","","","","","","","","","","","5","","","","","","","","",""
"null","524435","SARL_v6","SARL_v6t8yvtdy0","62fc25ef4ce0d3d169b7a120","fixation","","","img/fixation.png","null","","","test","","","","","","","","","","","","","","","","","","","",""
"575.1999999880791","525015","SARL_v6","SARL_v6t8yvtdy0","62fc25ef4ce0d3d169b7a120","freq","","","img/blue_2bandit_b2.png","70","","70","test","1","","109","","","","circle","square","105","19","5","0.9904761904761905","","","","","","","",""
"null","525248","SARL_v6","SARL_v6t8yvtdy0","62fc25ef4ce0d3d169b7a120","freq_resp","","","img/blue_2bandit_b.png","70","img/blue_2bandit_b.png","70","test","","","","","","","","","","","5","","","","","","","","",""
"null","525403","SARL_v6","SARL_v6t8yvtdy0","62fc25ef4ce0d3d169b7a120","fixation","","","img/fixation.png","null","","","test","","","","","","","","","","","","","","","","","","","",""
"575","525981","SARL_v6","SARL_v6t8yvtdy0","62fc25ef4ce0d3d169b7a120","freq","","","img/blue_2bandit_b2.png","70","","70","test","1","","110","","","","circle","square","106","20","5","0.9905660377358491","","","","","","","",""
"null","526216","SARL_v6","SARL_v6t8yvtdy0","62fc25ef4ce0d3d169b7a120","freq_resp","","","img/blue_2bandit_b.png","70","img/blue_2bandit_b.png","70","test","","","","","","","","","","","5","","","","","","","","",""
"null","526372","SARL_v6","SARL_v6t8yvtdy0","62fc25ef4ce0d3d169b7a120","fixation","","","img/fixation.png","null","","","test","","","","","","","","","","","","","","","","","","","",""
"655.1000000238419","527031","SARL_v6","SARL_v6t8yvtdy0","62fc25ef4ce0d3d169b7a120","freq","","","img/blue_2bandit_b2.png","70","","70","test","1","","111","","","","circle","square","107","21","5","0.9906542056074766","","","","","","","",""
"null","527190","SARL_v6","SARL_v6t8yvtdy0","62fc25ef4ce0d3d169b7a120","freq_resp","","","img/blue_2bandit_b.png","70","img/blue_2bandit_b.png","70","test","","","","","","","","","","","5","","","","","","","","",""
"null","527356","SARL_v6","SARL_v6t8yvtdy0","62fc25ef4ce0d3d169b7a120","fixation","","","img/fixation.png","null","","","test","","","","","","","","","","","","","","","","","","","",""
"733.6000000238419","528092","SARL_v6","SARL_v6t8yvtdy0","62fc25ef4ce0d3d169b7a120","freq","","","img/blue_2bandit_b2.png","70","","70","test","1","","112","","","","circle","square","108","22","5","0.9907407407407407","","","","","","","",""
"null","528164","SARL_v6","SARL_v6t8yvtdy0","62fc25ef4ce0d3d169b7a120","freq_resp","","","img/blue_2bandit_b.png","70","img/blue_2bandit_b.png","70","test","","","","","","","","","","","5","","","","","","","","",""
"null","528326","SARL_v6","SARL_v6t8yvtdy0","62fc25ef4ce0d3d169b7a120","fixation","","","img/fixation.png","null","","","test","","","","","","","","","","","","","","","","","","","",""
"748.8999999761581","529080","SARL_v6","SARL_v6t8yvtdy0","62fc25ef4ce0d3d169b7a120","freq","","","img/blue_2bandit_b2.png","70","","70","test","1","","113","","","","circle","square","109","23","5","0.9908256880733946","","","","","","","",""
"null","529148","SARL_v6","SARL_v6t8yvtdy0","62fc25ef4ce0d3d169b7a120","freq_resp","","","img/blue_2bandit_b.png","70","img/blue_2bandit_b.png","70","test","","","","","","","","","","","5","","","","","","","","",""
"null","529309","SARL_v6","SARL_v6t8yvtdy0","62fc25ef4ce0d3d169b7a120","fixation","","","img/fixation.png","null","","","test","","","","","","","","","","","","","","","","","","","",""
"709.9000000357628","530021","SARL_v6","SARL_v6t8yvtdy0","62fc25ef4ce0d3d169b7a120","rl","","","img/black_2bandit_b2.png","74","","0","test","","","114","","","4","circle","square","","0","5","","74","4","-7","4","-7","circle","5","0"
"null","530787","SARL_v6","SARL_v6t8yvtdy0","62fc25ef4ce0d3d169b7a120","feedback","","","<div class=""veryhighPoints""> 4 </div>","null","","na","test","","","NaN","","","","","","","","5","","74","","","","","","5",""
"383.10000002384186","531173","SARL_v6","SARL_v6t8yvtdy0","62fc25ef4ce0d3d169b7a120","freq","","","img/blue_2bandit_b2.png","70","","70","test","1","","115","","","","circle","square","110","1","6","0.990909090909091","","","","","","","",""
"null","531596","SARL_v6","SARL_v6t8yvtdy0","62fc25ef4ce0d3d169b7a120","freq_resp","","","img/blue_2bandit_b.png","70","img/blue_2bandit_b.png","70","test","","","","","","","","","","","6","","","","","","","","",""
"null","531763","SARL_v6","SARL_v6t8yvtdy0","62fc25ef4ce0d3d169b7a120","fixation","","","img/fixation.png","null","","","test","","","","","","","","","","","","","","","","","","","",""
"392.60000002384186","532160","SARL_v6","SARL_v6t8yvtdy0","62fc25ef4ce0d3d169b7a120","freq","","","img/blue_2bandit_b2.png","70","","70","test","1","","116","","","","circle","square","111","2","6","0.990990990990991","","","","","","","",""
"null","532582","SARL_v6","SARL_v6t8yvtdy0","62fc25ef4ce0d3d169b7a120","freq_resp","","","img/blue_2bandit_b.png","70","img/blue_2bandit_b.png","70","test","","","","","","","","","","","6","","","","","","","","",""
"null","532749","SARL_v6","SARL_v6t8yvtdy0","62fc25ef4ce0d3d169b7a120","fixation","","","img/fixation.png","null","","","test","","","","","","","","","","","","","","","","","","","",""
"438.10000002384186","533191","SARL_v6","SARL_v6t8yvtdy0","62fc25ef4ce0d3d169b7a120","freq","","","img/blue_2bandit_b2.png","70","","70","test","1","","117","","","","circle","square","112","3","6","0.9910714285714286","","","","","","","",""
"null","533570","SARL_v6","SARL_v6t8yvtdy0","62fc25ef4ce0d3d169b7a120","freq_resp","","","img/blue_2bandit_b.png","70","img/blue_2bandit_b.png","70","test","","","","","","","","","","","6","","","","","","","","",""
"null","533734","SARL_v6","SARL_v6t8yvtdy0","62fc25ef4ce0d3d169b7a120","fixation","","","img/fixation.png","null","","","test","","","","","","","","","","","","","","","","","","","",""
"517","534256","SARL_v6","SARL_v6t8yvtdy0","62fc25ef4ce0d3d169b7a120","freq","","","img/blue_2bandit_b2.png","70","","70","test","1","","118","","","","circle","square","113","4","6","0.9911504424778761","","","","","","","",""
"null","534543","SARL_v6","SARL_v6t8yvtdy0","62fc25ef4ce0d3d169b7a120","freq_resp","","","img/blue_2bandit_b.png","70","img/blue_2bandit_b.png","70","test","","","","","","","","","","","6","","","","","","","","",""
"null","534704","SARL_v6","SARL_v6t8yvtdy0","62fc25ef4ce0d3d169b7a120","fixation","","","img/fixation.png","null","","","test","","","","","","","","","","","","","","","","","","","",""
"539.0999999642372","535248","SARL_v6","SARL_v6t8yvtdy0","62fc25ef4ce0d3d169b7a120","freq","","","img/blue_2bandit_b2.png","70","","70","test","1","","119","","","","circle","square","114","5","6","0.9912280701754386","","","","","","","",""
"null","535514","SARL_v6","SARL_v6t8yvtdy0","62fc25ef4ce0d3d169b7a120","freq_resp","","","img/blue_2bandit_b.png","70","img/blue_2bandit_b.png","70","test","","","","","","","","","","","6","","","","","","","","",""
"null","535671","SARL_v6","SARL_v6t8yvtdy0","62fc25ef4ce0d3d169b7a120","fixation","","","img/fixation.png","null","","","test","","","","","","","","","","","","","","","","","","","",""
"524.6999999880791","536200","SARL_v6","SARL_v6t8yvtdy0","62fc25ef4ce0d3d169b7a120","infreq","","","img/orange_2bandit_b2.png","68","","68","test","1","","120","","","","circle","square","115","6","6","0.991304347826087","","","","","","","",""
"null","536481","SARL_v6","SARL_v6t8yvtdy0","62fc25ef4ce0d3d169b7a120","infreq_resp","","","img/orange_2bandit_b.png","68","img/orange_2bandit_b.png","68","test","","","","","","","","","","","6","","","","","","","","",""
"null","536640","SARL_v6","SARL_v6t8yvtdy0","62fc25ef4ce0d3d169b7a120","fixation","","","img/fixation.png","null","","","test","","","","","","","","","","","","","","","","","","","",""
"418.10000002384186","537061","SARL_v6","SARL_v6t8yvtdy0","62fc25ef4ce0d3d169b7a120","freq","","","img/blue_2bandit_b2.png","70","","70","test","1","","121","","","","circle","square","116","7","6","0.9913793103448276","","","","","","","",""
"null","537458","SARL_v6","SARL_v6t8yvtdy0","62fc25ef4ce0d3d169b7a120","freq_resp","","","img/blue_2bandit_b.png","70","img/blue_2bandit_b.png","70","test","","","","","","","","","","","6","","","","","","","","",""
"null","537625","SARL_v6","SARL_v6t8yvtdy0","62fc25ef4ce0d3d169b7a120","fixation","","","img/fixation.png","null","","","test","","","","","","","","","","","","","","","","","","","",""
"361.69999998807907","537989","SARL_v6","SARL_v6t8yvtdy0","62fc25ef4ce0d3d169b7a120","freq","","","img/blue_2bandit_b2.png","70","","70","test","1","","122","","","","circle","square","117","8","6","0.9914529914529915","","","","","","","",""
"null","538440","SARL_v6","SARL_v6t8yvtdy0","62fc25ef4ce0d3d169b7a120","freq_resp","","","img/blue_2bandit_b.png","70","img/blue_2bandit_b.png","70","test","","","","","","","","","","","6","","","","","","","","",""
"null","538610","SARL_v6","SARL_v6t8yvtdy0","62fc25ef4ce0d3d169b7a120","fixation","","","img/fixation.png","null","","","test","","","","","","","","","","","","","","","","","","","",""
"344.19999998807907","538957","SARL_v6","SARL_v6t8yvtdy0","62fc25ef4ce0d3d169b7a120","infreq","","","img/orange_2bandit_b2.png","70","","68","test","0","","123","","","","circle","square","118","9","6","0.9830508474576272","","","","","","","",""
"null","539422","SARL_v6","SARL_v6t8yvtdy0","62fc25ef4ce0d3d169b7a120","infreq_resp","","","img/orange_2bandit_b.png","70","img/orange_2bandit_b.png","68","test","","","","","","","","","","","6","","","","","","","","",""
"null","539580","SARL_v6","SARL_v6t8yvtdy0","62fc25ef4ce0d3d169b7a120","fixation","","","img/fixation.png","null","","","test","","","","","","","","","","","","","","","","","","","",""
"598.5999999642372","540181","SARL_v6","SARL_v6t8yvtdy0","62fc25ef4ce0d3d169b7a120","freq","","","img/blue_2bandit_b2.png","70","","70","test","1","","124","","","","circle","square","119","10","6","0.9831932773109243","","","","","","","",""
"null","540393","SARL_v6","SARL_v6t8yvtdy0","62fc25ef4ce0d3d169b7a120","freq_resp","","","img/blue_2bandit_b.png","70","img/blue_2bandit_b.png","70","test","","","","","","","","","","","6","","","","","","","","",""
"null","540563","SARL_v6","SARL_v6t8yvtdy0","62fc25ef4ce0d3d169b7a120","fixation","","","img/fixation.png","null","","","test","","","","","","","","","","","","","","","","","","","",""
"575.8000000119209","541144","SARL_v6","SARL_v6t8yvtdy0","62fc25ef4ce0d3d169b7a120","freq","","","img/blue_2bandit_b2.png","70","","70","test","1","","125","","","","circle","square","120","11","6","0.9833333333333333","","","","","","","",""
"null","541376","SARL_v6","SARL_v6t8yvtdy0","62fc25ef4ce0d3d169b7a120","freq_resp","","","img/blue_2bandit_b.png","70","img/blue_2bandit_b.png","70","test","","","","","","","","","","","6","","","","","","","","",""
"null","541532","SARL_v6","SARL_v6t8yvtdy0","62fc25ef4ce0d3d169b7a120","fixation","","","img/fixation.png","null","","","test","","","","","","","","","","","","","","","","","","","",""
"518.6000000238419","542053","SARL_v6","SARL_v6t8yvtdy0","62fc25ef4ce0d3d169b7a120","freq","","","img/blue_2bandit_b2.png","70","","70","test","1","","126","","","","circle","square","121","12","6","0.9834710743801653","","","","","","","",""
"null","542342","SARL_v6","SARL_v6t8yvtdy0","62fc25ef4ce0d3d169b7a120","freq_resp","","","img/blue_2bandit_b.png","70","img/blue_2bandit_b.png","70","test","","","","","","","","","","","6","","","","","","","","",""
"null","542500","SARL_v6","SARL_v6t8yvtdy0","62fc25ef4ce0d3d169b7a120","fixation","","","img/fixation.png","null","","","test","","","","","","","","","","","","","","","","","","","",""
"519.1000000238419","543023","SARL_v6","SARL_v6t8yvtdy0","62fc25ef4ce0d3d169b7a120","freq","","","img/blue_2bandit_b2.png","70","","70","test","1","","127","","","","circle","square","122","13","6","0.9836065573770492","","","","","","","",""
"null","543310","SARL_v6","SARL_v6t8yvtdy0","62fc25ef4ce0d3d169b7a120","freq_resp","","","img/blue_2bandit_b.png","70","img/blue_2bandit_b.png","70","test","","","","","","","","","","","6","","","","","","","","",""
"null","543469","SARL_v6","SARL_v6t8yvtdy0","62fc25ef4ce0d3d169b7a120","fixation","","","img/fixation.png","null","","","test","","","","","","","","","","","","","","","","","","","",""
"438.39999997615814","543911","SARL_v6","SARL_v6t8yvtdy0","62fc25ef4ce0d3d169b7a120","freq","","","img/blue_2bandit_b2.png","70","","70","test","1","","128","","","","circle","square","123","14","6","0.983739837398374","","","","","","","",""
"null","544289","SARL_v6","SARL_v6t8yvtdy0","62fc25ef4ce0d3d169b7a120","freq_resp","","","img/blue_2bandit_b.png","70","img/blue_2bandit_b.png","70","test","","","","","","","","","","","6","","","","","","","","",""
"null","544454","SARL_v6","SARL_v6t8yvtdy0","62fc25ef4ce0d3d169b7a120","fixation","","","img/fixation.png","null","","","test","","","","","","","","","","","","","","","","","","","",""
"332.5999999642372","544789","SARL_v6","SARL_v6t8yvtdy0","62fc25ef4ce0d3d169b7a120","freq","","","img/blue_2bandit_b2.png","70","","70","test","1","","129","","","","circle","square","124","15","6","0.9838709677419355","","","","","","","",""
"null","545267","SARL_v6","SARL_v6t8yvtdy0","62fc25ef4ce0d3d169b7a120","freq_resp","","","img/blue_2bandit_b.png","70","img/blue_2bandit_b.png","70","test","","","","","","","","","","","6","","","","","","","","",""
"null","545422","SARL_v6","SARL_v6t8yvtdy0","62fc25ef4ce0d3d169b7a120","fixation","","","img/fixation.png","null","","","test","","","","","","","","","","","","","","","","","","","",""
"348.80000001192093","545776","SARL_v6","SARL_v6t8yvtdy0","62fc25ef4ce0d3d169b7a120","freq","","","img/blue_2bandit_b2.png","70","","70","test","1","","130","","","","circle","square","125","16","6","0.984","","","","","","","",""
"null","546236","SARL_v6","SARL_v6t8yvtdy0","62fc25ef4ce0d3d169b7a120","freq_resp","","","img/blue_2bandit_b.png","70","img/blue_2bandit_b.png","70","test","","","","","","","","","","","6","","","","","","","","",""
"null","546405","SARL_v6","SARL_v6t8yvtdy0","62fc25ef4ce0d3d169b7a120","fixation","","","img/fixation.png","null","","","test","","","","","","","","","","","","","","","","","","","",""
"446.19999998807907","546857","SARL_v6","SARL_v6t8yvtdy0","62fc25ef4ce0d3d169b7a120","infreq","","","img/orange_2bandit_b2.png","68","","68","test","1","","131","","","","circle","square","126","17","6","0.9841269841269841","","","","","","","",""
"null","547226","SARL_v6","SARL_v6t8yvtdy0","62fc25ef4ce0d3d169b7a120","infreq_resp","","","img/orange_2bandit_b.png","68","img/orange_2bandit_b.png","68","test","","","","","","","","","","","6","","","","","","","","",""
