"rt","time_elapsed","expId","subject","prolificID","trialType","rlType","attType","stimulus","key_press","stim","corrresp","phase","corr","pracCounter","trialNum","rewardOne","rewardTwo","reward","bandOne","bandTwo","attentionNum","attentionRunNum","blockNum","performance","bandChosen","circleVal","squareVal","bandOneVal","bandTwoVal","shapeChosen","rlNum","badFlag"
"11688.100000023842","11694","SARL_v6","SARL_v62ctjlzyf","5b97f70161c19e00018db4a8","","","","","","","","","","","","","","","","","","","","","","","","","","","",""
"","14697","SARL_v6","SARL_v62ctjlzyf","5b97f70161c19e00018db4a8","fullscreen","fullscreen","fullscreen","","","","","","","","","","","","","","","","","","","","","","","","",""
"3499.2000000476837","18203","SARL_v6","SARL_v62ctjlzyf","5b97f70161c19e00018db4a8","","","","","","","","","","","","","","","","","","","","","","","","","","","",""
"779.3999999761581","18990","SARL_v6","SARL_v62ctjlzyf","5b97f70161c19e00018db4a8","freqPrac","","","img/blue_2bandit_b2.png","68","img/blue_2bandit_b2.png","70","prac","0","1","","","","","","","","","","","","","","","","","",""
"779.3999999761581","19019","SARL_v6","SARL_v62ctjlzyf","5b97f70161c19e00018db4a8","freqPrac_resp","","","img/blue_2bandit_b.png","68","img/blue_2bandit_b.png","70","prac","","","","","","","","","","","","","","","","","","","",""
"null","20026","SARL_v6","SARL_v62ctjlzyf","5b97f70161c19e00018db4a8","feedback","","","img/wrongKey.png","null","","na","prac","","","","","","","","","","","","","","","","","","","",""
"null","20197","SARL_v6","SARL_v62ctjlzyf","5b97f70161c19e00018db4a8","fixation","","","img/fixation.png","null","","","prac","","","","","","","","","","","","","","","","","","","",""
"null","21020","SARL_v6","SARL_v62ctjlzyf","5b97f70161c19e00018db4a8","infreqPrac","","","img/orange_2bandit_b2.png","null","img/orange_2bandit_b2.png","68","prac","0","2","","","","","","","","","","","","","","","","","",""
"null","22033","SARL_v6","SARL_v62ctjlzyf","5b97f70161c19e00018db4a8","feedback","","","img/tooSlow.png","null","","na","prac","","","","","","","","","","","","","","","","","","","",""
"null","22198","SARL_v6","SARL_v62ctjlzyf","5b97f70161c19e00018db4a8","fixation","","","img/fixation.png","null","","","prac","","","","","","","","","","","","","","","","","","","",""
"594.1000000238419","22797","SARL_v6","SARL_v62ctjlzyf","5b97f70161c19e00018db4a8","freqPrac","","","img/blue_2bandit_b2.png","68","img/blue_2bandit_b2.png","70","prac","0","3","","","","","","","","","","","","","","","","","",""
"594.1000000238419","23008","SARL_v6","SARL_v62ctjlzyf","5b97f70161c19e00018db4a8","freqPrac_resp","","","img/blue_2bandit_b.png","68","img/blue_2bandit_b.png","70","prac","","","","","","","","","","","","","","","","","","","",""
"null","24027","SARL_v6","SARL_v62ctjlzyf","5b97f70161c19e00018db4a8","feedback","","","img/wrongKey.png","null","","na","prac","","","","","","","","","","","","","","","","","","","",""
"null","24196","SARL_v6","SARL_v62ctjlzyf","5b97f70161c19e00018db4a8","fixation","","","img/fixation.png","null","","","prac","","","","","","","","","","","","","","","","","","","",""
"null","25004","SARL_v6","SARL_v62ctjlzyf","5b97f70161c19e00018db4a8","infreqPrac","","","img/orange_2bandit_b2.png","null","img/orange_2bandit_b2.png","68","prac","0","4","","","","","","","","","","","","","","","","","",""
"null","26019","SARL_v6","SARL_v62ctjlzyf","5b97f70161c19e00018db4a8","feedback","","","img/tooSlow.png","null","","na","prac","","","","","","","","","","","","","","","","","","","",""
"null","26180","SARL_v6","SARL_v62ctjlzyf","5b97f70161c19e00018db4a8","fixation","","","img/fixation.png","null","","","prac","","","","","","","","","","","","","","","","","","","",""
"363.8000000715256","26551","SARL_v6","SARL_v62ctjlzyf","5b97f70161c19e00018db4a8","infreqPrac","","","img/orange_2bandit_b2.png","70","img/orange_2bandit_b2.png","68","prac","0","5","","","","","","","","","","","","","","","","","",""
"363.8000000715256","26995","SARL_v6","SARL_v62ctjlzyf","5b97f70161c19e00018db4a8","infreqPrac_resp","","","img/orange_2bandit_b.png","70","img/orange_2bandit_b.png","68","prac","","","","","","","","","","","","","","","","","","","",""
"null","28010","SARL_v6","SARL_v62ctjlzyf","5b97f70161c19e00018db4a8","feedback","","","img/wrongKey.png","null","","na","prac","","","","","","","","","","","","","","","","","","","",""
"null","28185","SARL_v6","SARL_v62ctjlzyf","5b97f70161c19e00018db4a8","fixation","","","img/fixation.png","null","","","prac","","","","","","","","","","","","","","","","","","","",""
"565.3000000715256","28758","SARL_v6","SARL_v62ctjlzyf","5b97f70161c19e00018db4a8","infreqPrac","","","img/orange_2bandit_b2.png","68","img/orange_2bandit_b2.png","68","prac","1","5","","","","","","","","","","","","","","","","","",""
"565.3000000715256","29009","SARL_v6","SARL_v62ctjlzyf","5b97f70161c19e00018db4a8","infreqPrac_resp","","","img/orange_2bandit_b.png","68","img/orange_2bandit_b.png","68","prac","","","","","","","","","","","","","","","","","","","",""
"null","29179","SARL_v6","SARL_v62ctjlzyf","5b97f70161c19e00018db4a8","fixation","","","img/fixation.png","null","","","prac","","","","","","","","","","","","","","","","","","","",""
"555.3999999761581","29739","SARL_v6","SARL_v62ctjlzyf","5b97f70161c19e00018db4a8","freqPrac","","","img/blue_2bandit_b2.png","70","img/blue_2bandit_b2.png","70","prac","1","5","","","","","","","","","","","","","","","","","",""
"555.3999999761581","30019","SARL_v6","SARL_v62ctjlzyf","5b97f70161c19e00018db4a8","freqPrac_resp","","","img/blue_2bandit_b.png","70","img/blue_2bandit_b.png","70","prac","","","","","","","","","","","","","","","","","","","",""
"null","30188","SARL_v6","SARL_v62ctjlzyf","5b97f70161c19e00018db4a8","fixation","","","img/fixation.png","null","","","prac","","","","","","","","","","","","","","","","","","","",""
"561.6000000238419","30759","SARL_v6","SARL_v62ctjlzyf","5b97f70161c19e00018db4a8","infreqPrac","","","img/orange_2bandit_b2.png","68","img/orange_2bandit_b2.png","68","prac","1","5","","","","","","","","","","","","","","","","","",""
"561.6000000238419","31007","SARL_v6","SARL_v62ctjlzyf","5b97f70161c19e00018db4a8","infreqPrac_resp","","","img/orange_2bandit_b.png","68","img/orange_2bandit_b.png","68","prac","","","","","","","","","","","","","","","","","","","",""
"null","31163","SARL_v6","SARL_v62ctjlzyf","5b97f70161c19e00018db4a8","fixation","","","img/fixation.png","null","","","prac","","","","","","","","","","","","","","","","","","","",""
"412.7000000476837","31583","SARL_v6","SARL_v62ctjlzyf","5b97f70161c19e00018db4a8","freqPrac","","","img/blue_2bandit_b2.png","70","img/blue_2bandit_b2.png","70","prac","1","5","","","","","","","","","","","","","","","","","",""
"412.7000000476837","31983","SARL_v6","SARL_v62ctjlzyf","5b97f70161c19e00018db4a8","freqPrac_resp","","","img/blue_2bandit_b.png","70","img/blue_2bandit_b.png","70","prac","","","","","","","","","","","","","","","","","","","",""
"null","32147","SARL_v6","SARL_v62ctjlzyf","5b97f70161c19e00018db4a8","fixation","","","img/fixation.png","null","","","prac","","","","","","","","","","","","","","","","","","","",""
"427.10000002384186","32580","SARL_v6","SARL_v62ctjlzyf","5b97f70161c19e00018db4a8","freqPrac","","","img/blue_2bandit_b2.png","70","img/blue_2bandit_b2.png","70","prac","1","5","","","","","","","","","","","","","","","","","",""
"427.10000002384186","32966","SARL_v6","SARL_v62ctjlzyf","5b97f70161c19e00018db4a8","freqPrac_resp","","","img/blue_2bandit_b.png","70","img/blue_2bandit_b.png","70","prac","","","","","","","","","","","","","","","","","","","",""
"null","33133","SARL_v6","SARL_v62ctjlzyf","5b97f70161c19e00018db4a8","fixation","","","img/fixation.png","null","","","prac","","","","","","","","","","","","","","","","","","","",""
"4354.299999952316","37492","SARL_v6","SARL_v62ctjlzyf","5b97f70161c19e00018db4a8","","","","","","","","prac","","","","","","","","","","","","","","","","","","","",""
"689.1000000238419","38187","SARL_v6","SARL_v62ctjlzyf","5b97f70161c19e00018db4a8","rlPractice","","","img/black_2bandit_b2.png","75","img/black_2bandit_b2.png","","prac","","","0","","","","","","","","","","","","","","","","",""
"null","38954","SARL_v6","SARL_v62ctjlzyf","5b97f70161c19e00018db4a8","feedback","","","<div class=""verylowPoints_sq""> -14 </div>","null","","na","prac","","","1","10","-14","10","","","","","","","","","","","","","",""
"null","39116","SARL_v6","SARL_v62ctjlzyf","5b97f70161c19e00018db4a8","fixation","","","img/fixation.png","null","","","prac","","","","","","","","","","","","","","","","","","","",""
"321.39999997615814","39443","SARL_v6","SARL_v62ctjlzyf","5b97f70161c19e00018db4a8","rlPractice","","","img/black_2bandit_b2.png","74","img/black_2bandit_b2.png","","prac","","","1","","","","","","","","","","","","","","","","",""
"null","40210","SARL_v6","SARL_v62ctjlzyf","5b97f70161c19e00018db4a8","feedback","","","<div class=""veryhighPoints""> 5 </div>","null","","na","prac","","","2","5","-5","5","","","","","","","","","","","","","",""
"null","40383","SARL_v6","SARL_v62ctjlzyf","5b97f70161c19e00018db4a8","fixation","","","img/fixation.png","null","","","prac","","","","","","","","","","","","","","","","","","","",""
"328.10000002384186","40719","SARL_v6","SARL_v62ctjlzyf","5b97f70161c19e00018db4a8","rlPractice","","","img/black_2bandit_b2.png","74","img/black_2bandit_b2.png","","prac","","","2","","","","","","","","","","","","","","","","",""
"null","41476","SARL_v6","SARL_v62ctjlzyf","5b97f70161c19e00018db4a8","feedback","","","<div class=""veryhighPoints""> 30 </div>","null","","na","prac","","","3","30","2","30","","","","","","","","","","","","","",""
"null","41648","SARL_v6","SARL_v62ctjlzyf","5b97f70161c19e00018db4a8","fixation","","","img/fixation.png","null","","","prac","","","","","","","","","","","","","","","","","","","",""
"340","41994","SARL_v6","SARL_v62ctjlzyf","5b97f70161c19e00018db4a8","rlPractice","","","img/black_2bandit_b2.png","74","img/black_2bandit_b2.png","","prac","","","3","","","","","","","","","","","","","","","","",""
"null","42757","SARL_v6","SARL_v62ctjlzyf","5b97f70161c19e00018db4a8","feedback","","","<div class=""verylowPoints""> -2 </div>","null","","na","prac","","","4","-2","20","-2","","","","","","","","","","","","","",""
"null","42925","SARL_v6","SARL_v62ctjlzyf","5b97f70161c19e00018db4a8","fixation","","","img/fixation.png","null","","","prac","","","","","","","","","","","","","","","","","","","",""
"6706","49635","SARL_v6","SARL_v62ctjlzyf","5b97f70161c19e00018db4a8","","","","","","","","prac","","","","","","","","","","","","","","","","","","","",""
"null","50453","SARL_v6","SARL_v62ctjlzyf","5b97f70161c19e00018db4a8","mixAttFreqPrac","","","img/blue_2bandit_b2.png","null","img/blue_2bandit_b2.png","70","prac","","","1","","","","","","","","","","","","","","","","",""
"79.60000002384186","50618","SARL_v6","SARL_v62ctjlzyf","5b97f70161c19e00018db4a8","fixation","","","img/fixation.png","70","","","prac","","","","","","","","","","","","","","","","","","","",""
"740.5","51365","SARL_v6","SARL_v62ctjlzyf","5b97f70161c19e00018db4a8","mixAttInfreqPrac","","","img/orange_2bandit_b2.png","68","img/orange_2bandit_b2.png","68","prac","","","2","","","","","","","","","","","","","","","","",""
"740.5","51428","SARL_v6","SARL_v62ctjlzyf","5b97f70161c19e00018db4a8","infreqPrac_resp","","","img/orange_2bandit_b.png","68","img/blue_2bandit_b.png","68","prac","","","2","","","","","","","","","","","","","","","","",""
"null","51595","SARL_v6","SARL_v62ctjlzyf","5b97f70161c19e00018db4a8","fixation","","","img/fixation.png","null","","","prac","","","","","","","","","","","","","","","","","","","",""
"467.60000002384186","52069","SARL_v6","SARL_v62ctjlzyf","5b97f70161c19e00018db4a8","mixAttInfreqPrac","","","img/orange_2bandit_b2.png","68","img/orange_2bandit_b2.png","68","prac","","","3","","","","","","","","","","","","","","","","",""
"467.60000002384186","52410","SARL_v6","SARL_v62ctjlzyf","5b97f70161c19e00018db4a8","infreqPrac_resp","","","img/orange_2bandit_b.png","68","img/blue_2bandit_b.png","68","prac","","","3","","","","","","","","","","","","","","","","",""
"null","52578","SARL_v6","SARL_v62ctjlzyf","5b97f70161c19e00018db4a8","fixation","","","img/fixation.png","null","","","prac","","","","","","","","","","","","","","","","","","","",""
"427.5","53012","SARL_v6","SARL_v62ctjlzyf","5b97f70161c19e00018db4a8","mixAttInfreqPrac","","","img/orange_2bandit_b2.png","68","img/orange_2bandit_b2.png","68","prac","","","4","","","","","","","","","","","","","","","","",""
"427.5","53423","SARL_v6","SARL_v62ctjlzyf","5b97f70161c19e00018db4a8","infreqPrac_resp","","","img/orange_2bandit_b.png","68","img/blue_2bandit_b.png","68","prac","","","4","","","","","","","","","","","","","","","","",""
"null","53577","SARL_v6","SARL_v62ctjlzyf","5b97f70161c19e00018db4a8","fixation","","","img/fixation.png","null","","","prac","","","","","","","","","","","","","","","","","","","",""
"349.89999997615814","53935","SARL_v6","SARL_v62ctjlzyf","5b97f70161c19e00018db4a8","mixAttFreqPrac","","","img/blue_2bandit_b2.png","70","img/blue_2bandit_b2.png","70","prac","","","5","","","","","","","","","","","","","","","","",""
"349.89999997615814","54395","SARL_v6","SARL_v62ctjlzyf","5b97f70161c19e00018db4a8","freqPrac_resp","","","img/blue_2bandit_b.png","70","img/blue_2bandit_b.png","70","prac","","","5","","","","","","","","","","","","","","","","",""
"null","54563","SARL_v6","SARL_v62ctjlzyf","5b97f70161c19e00018db4a8","fixation","","","img/fixation.png","null","","","prac","","","","","","","","","","","","","","","","","","","",""
"716","55285","SARL_v6","SARL_v62ctjlzyf","5b97f70161c19e00018db4a8","mixRLPractice","","","img/black_2bandit_b2.png","74","img/black_2bandit_b2.png","","prac","","","5","","","","","","","","","","","","","","","","",""
"null","56056","SARL_v6","SARL_v62ctjlzyf","5b97f70161c19e00018db4a8","feedback","","","<div class=""verylowPoints""> -14 </div>","null","","na","prac","","","6","-14","10","-14","","","","","","","","","","","","","",""
"null","56214","SARL_v6","SARL_v62ctjlzyf","5b97f70161c19e00018db4a8","fixation","","","img/fixation.png","null","","","prac","","","","","","","","","","","","","","","","","","","",""
"590.5","56811","SARL_v6","SARL_v62ctjlzyf","5b97f70161c19e00018db4a8","mixAttFreqPrac","","","img/blue_2bandit_b2.png","70","img/blue_2bandit_b2.png","70","prac","","","7","","","","","","","","","","","","","","","","",""
"590.5","57027","SARL_v6","SARL_v62ctjlzyf","5b97f70161c19e00018db4a8","freqPrac_resp","","","img/blue_2bandit_b.png","70","img/blue_2bandit_b.png","70","prac","","","7","","","","","","","","","","","","","","","","",""
"null","57196","SARL_v6","SARL_v62ctjlzyf","5b97f70161c19e00018db4a8","fixation","","","img/fixation.png","null","","","prac","","","","","","","","","","","","","","","","","","","",""
"586.2000000476837","57788","SARL_v6","SARL_v62ctjlzyf","5b97f70161c19e00018db4a8","mixAttInfreqPrac","","","img/orange_2bandit_b2.png","68","img/orange_2bandit_b2.png","68","prac","","","8","","","","","","","","","","","","","","","","",""
"586.2000000476837","58009","SARL_v6","SARL_v62ctjlzyf","5b97f70161c19e00018db4a8","infreqPrac_resp","","","img/orange_2bandit_b.png","68","img/blue_2bandit_b.png","68","prac","","","8","","","","","","","","","","","","","","","","",""
"null","58185","SARL_v6","SARL_v62ctjlzyf","5b97f70161c19e00018db4a8","fixation","","","img/fixation.png","null","","","prac","","","","","","","","","","","","","","","","","","","",""
"381.90000009536743","58574","SARL_v6","SARL_v62ctjlzyf","5b97f70161c19e00018db4a8","mixAttFreqPrac","","","img/blue_2bandit_b2.png","70","img/blue_2bandit_b2.png","70","prac","","","9","","","","","","","","","","","","","","","","",""
"381.90000009536743","59012","SARL_v6","SARL_v62ctjlzyf","5b97f70161c19e00018db4a8","freqPrac_resp","","","img/blue_2bandit_b.png","70","img/blue_2bandit_b.png","70","prac","","","9","","","","","","","","","","","","","","","","",""
"null","59181","SARL_v6","SARL_v62ctjlzyf","5b97f70161c19e00018db4a8","fixation","","","img/fixation.png","null","","","prac","","","","","","","","","","","","","","","","","","","",""
"475.6999999284744","59662","SARL_v6","SARL_v62ctjlzyf","5b97f70161c19e00018db4a8","mixAttFreqPrac","","","img/blue_2bandit_b2.png","70","img/blue_2bandit_b2.png","70","prac","","","10","","","","","","","","","","","","","","","","",""
"475.6999999284744","60002","SARL_v6","SARL_v62ctjlzyf","5b97f70161c19e00018db4a8","freqPrac_resp","","","img/blue_2bandit_b.png","70","img/blue_2bandit_b.png","70","prac","","","10","","","","","","","","","","","","","","","","",""
"null","60163","SARL_v6","SARL_v62ctjlzyf","5b97f70161c19e00018db4a8","fixation","","","img/fixation.png","null","","","prac","","","","","","","","","","","","","","","","","","","",""
"547.6000000238419","60719","SARL_v6","SARL_v62ctjlzyf","5b97f70161c19e00018db4a8","mixAttInfreqPrac","","","img/orange_2bandit_b2.png","68","img/orange_2bandit_b2.png","68","prac","","","11","","","","","","","","","","","","","","","","",""
"547.6000000238419","60990","SARL_v6","SARL_v62ctjlzyf","5b97f70161c19e00018db4a8","infreqPrac_resp","","","img/orange_2bandit_b.png","68","img/blue_2bandit_b.png","68","prac","","","11","","","","","","","","","","","","","","","","",""
"null","61163","SARL_v6","SARL_v62ctjlzyf","5b97f70161c19e00018db4a8","fixation","","","img/fixation.png","null","","","prac","","","","","","","","","","","","","","","","","","","",""
"936.7000000476837","62107","SARL_v6","SARL_v62ctjlzyf","5b97f70161c19e00018db4a8","mixRLPractice","","","img/black_2bandit_b2.png","74","img/black_2bandit_b2.png","","prac","","","11","","","","","","","","","","","","","","","","",""
"null","62878","SARL_v6","SARL_v62ctjlzyf","5b97f70161c19e00018db4a8","feedback","","","<div class=""veryhighPoints""> 5 </div>","null","","na","prac","","","12","5","-5","5","","","","","","","","","","","","","",""
"null","63046","SARL_v6","SARL_v62ctjlzyf","5b97f70161c19e00018db4a8","fixation","","","img/fixation.png","null","","","prac","","","","","","","","","","","","","","","","","","","",""
"11882","74937","SARL_v6","SARL_v62ctjlzyf","5b97f70161c19e00018db4a8","","","","","","","","prac","","","","","","","","","","","","","","","","","","","",""
"539.5999999046326","75480","SARL_v6","SARL_v62ctjlzyf","5b97f70161c19e00018db4a8","freq","","","img/blue_2bandit_b2.png","70","","70","test","1","","1","","","","circle","square","1","1","1","1","","","","","","","",""
"null","75757","SARL_v6","SARL_v62ctjlzyf","5b97f70161c19e00018db4a8","freq_resp","","","img/blue_2bandit_b.png","70","img/blue_2bandit_b.png","70","test","","","","","","","","","","","1","","","","","","","","",""
"null","75916","SARL_v6","SARL_v62ctjlzyf","5b97f70161c19e00018db4a8","fixation","","","img/fixation.png","null","","","test","","","","","","","","","","","","","","","","","","","",""
"441.89999997615814","76370","SARL_v6","SARL_v62ctjlzyf","5b97f70161c19e00018db4a8","freq","","","img/blue_2bandit_b2.png","70","","70","test","1","","2","","","","circle","square","2","2","1","1","","","","","","","",""
"null","76740","SARL_v6","SARL_v62ctjlzyf","5b97f70161c19e00018db4a8","freq_resp","","","img/blue_2bandit_b.png","70","img/blue_2bandit_b.png","70","test","","","","","","","","","","","1","","","","","","","","",""
"null","76896","SARL_v6","SARL_v62ctjlzyf","5b97f70161c19e00018db4a8","fixation","","","img/fixation.png","null","","","test","","","","","","","","","","","","","","","","","","","",""
"420.5","77322","SARL_v6","SARL_v62ctjlzyf","5b97f70161c19e00018db4a8","freq","","","img/blue_2bandit_b2.png","70","","70","test","1","","3","","","","circle","square","3","3","1","1","","","","","","","",""
"null","77717","SARL_v6","SARL_v62ctjlzyf","5b97f70161c19e00018db4a8","freq_resp","","","img/blue_2bandit_b.png","70","img/blue_2bandit_b.png","70","test","","","","","","","","","","","1","","","","","","","","",""
"null","77880","SARL_v6","SARL_v62ctjlzyf","5b97f70161c19e00018db4a8","fixation","","","img/fixation.png","null","","","test","","","","","","","","","","","","","","","","","","","",""
"413.8000000715256","78301","SARL_v6","SARL_v62ctjlzyf","5b97f70161c19e00018db4a8","freq","","","img/blue_2bandit_b2.png","70","","70","test","1","","4","","","","circle","square","4","4","1","1","","","","","","","",""
"null","78701","SARL_v6","SARL_v62ctjlzyf","5b97f70161c19e00018db4a8","freq_resp","","","img/blue_2bandit_b.png","70","img/blue_2bandit_b.png","70","test","","","","","","","","","","","1","","","","","","","","",""
"null","78864","SARL_v6","SARL_v62ctjlzyf","5b97f70161c19e00018db4a8","fixation","","","img/fixation.png","null","","","test","","","","","","","","","","","","","","","","","","","",""
"420","79291","SARL_v6","SARL_v62ctjlzyf","5b97f70161c19e00018db4a8","freq","","","img/blue_2bandit_b2.png","70","","70","test","1","","5","","","","circle","square","5","5","1","1","","","","","","","",""
"null","79682","SARL_v6","SARL_v62ctjlzyf","5b97f70161c19e00018db4a8","freq_resp","","","img/blue_2bandit_b.png","70","img/blue_2bandit_b.png","70","test","","","","","","","","","","","1","","","","","","","","",""
"null","79847","SARL_v6","SARL_v62ctjlzyf","5b97f70161c19e00018db4a8","fixation","","","img/fixation.png","null","","","test","","","","","","","","","","","","","","","","","","","",""
"381.8000000715256","80236","SARL_v6","SARL_v62ctjlzyf","5b97f70161c19e00018db4a8","freq","","","img/blue_2bandit_b2.png","70","","70","test","1","","6","","","","circle","square","6","6","1","1","","","","","","","",""
"null","80662","SARL_v6","SARL_v62ctjlzyf","5b97f70161c19e00018db4a8","freq_resp","","","img/blue_2bandit_b.png","70","img/blue_2bandit_b.png","70","test","","","","","","","","","","","1","","","","","","","","",""
"null","80833","SARL_v6","SARL_v62ctjlzyf","5b97f70161c19e00018db4a8","fixation","","","img/fixation.png","null","","","test","","","","","","","","","","","","","","","","","","","",""
"364.7999999523163","81202","SARL_v6","SARL_v62ctjlzyf","5b97f70161c19e00018db4a8","freq","","","img/blue_2bandit_b2.png","70","","70","test","1","","7","","","","circle","square","7","7","1","1","","","","","","","",""
"null","81646","SARL_v6","SARL_v62ctjlzyf","5b97f70161c19e00018db4a8","freq_resp","","","img/blue_2bandit_b.png","70","img/blue_2bandit_b.png","70","test","","","","","","","","","","","1","","","","","","","","",""
"null","81813","SARL_v6","SARL_v62ctjlzyf","5b97f70161c19e00018db4a8","fixation","","","img/fixation.png","null","","","test","","","","","","","","","","","","","","","","","","","",""
"370.5","82194","SARL_v6","SARL_v62ctjlzyf","5b97f70161c19e00018db4a8","freq","","","img/blue_2bandit_b2.png","70","","70","test","1","","8","","","","circle","square","8","8","1","1","","","","","","","",""
"null","82647","SARL_v6","SARL_v62ctjlzyf","5b97f70161c19e00018db4a8","freq_resp","","","img/blue_2bandit_b.png","70","img/blue_2bandit_b.png","70","test","","","","","","","","","","","1","","","","","","","","",""
"null","82813","SARL_v6","SARL_v62ctjlzyf","5b97f70161c19e00018db4a8","fixation","","","img/fixation.png","null","","","test","","","","","","","","","","","","","","","","","","","",""
"352.89999997615814","83175","SARL_v6","SARL_v62ctjlzyf","5b97f70161c19e00018db4a8","freq","","","img/blue_2bandit_b2.png","70","","70","test","1","","9","","","","circle","square","9","9","1","1","","","","","","","",""
"null","83641","SARL_v6","SARL_v62ctjlzyf","5b97f70161c19e00018db4a8","freq_resp","","","img/blue_2bandit_b.png","70","img/blue_2bandit_b.png","70","test","","","","","","","","","","","1","","","","","","","","",""
"null","83813","SARL_v6","SARL_v62ctjlzyf","5b97f70161c19e00018db4a8","fixation","","","img/fixation.png","null","","","test","","","","","","","","","","","","","","","","","","","",""
"350.59999990463257","84171","SARL_v6","SARL_v62ctjlzyf","5b97f70161c19e00018db4a8","freq","","","img/blue_2bandit_b2.png","70","","70","test","1","","10","","","","circle","square","10","10","1","1","","","","","","","",""
"null","84629","SARL_v6","SARL_v62ctjlzyf","5b97f70161c19e00018db4a8","freq_resp","","","img/blue_2bandit_b.png","70","img/blue_2bandit_b.png","70","test","","","","","","","","","","","1","","","","","","","","",""
"null","84797","SARL_v6","SARL_v62ctjlzyf","5b97f70161c19e00018db4a8","fixation","","","img/fixation.png","null","","","test","","","","","","","","","","","","","","","","","","","",""
"380.60000002384186","85183","SARL_v6","SARL_v62ctjlzyf","5b97f70161c19e00018db4a8","freq","","","img/blue_2bandit_b2.png","70","","70","test","1","","11","","","","circle","square","11","11","1","1","","","","","","","",""
"null","85620","SARL_v6","SARL_v62ctjlzyf","5b97f70161c19e00018db4a8","freq_resp","","","img/blue_2bandit_b.png","70","img/blue_2bandit_b.png","70","test","","","","","","","","","","","1","","","","","","","","",""
"null","85784","SARL_v6","SARL_v62ctjlzyf","5b97f70161c19e00018db4a8","fixation","","","img/fixation.png","null","","","test","","","","","","","","","","","","","","","","","","","",""
"324.2999999523163","86114","SARL_v6","SARL_v62ctjlzyf","5b97f70161c19e00018db4a8","infreq","","","img/orange_2bandit_b2.png","70","","68","test","0","","12","","","","circle","square","12","12","1","0.9166666666666666","","","","","","","",""
"null","86608","SARL_v6","SARL_v62ctjlzyf","5b97f70161c19e00018db4a8","infreq_resp","","","img/orange_2bandit_b.png","70","img/orange_2bandit_b.png","68","test","","","","","","","","","","","1","","","","","","","","",""
"null","86772","SARL_v6","SARL_v62ctjlzyf","5b97f70161c19e00018db4a8","fixation","","","img/fixation.png","null","","","test","","","","","","","","","","","","","","","","","","","",""
"497","87282","SARL_v6","SARL_v62ctjlzyf","5b97f70161c19e00018db4a8","freq","","","img/blue_2bandit_b2.png","70","","70","test","1","","13","","","","circle","square","13","13","1","0.9230769230769231","","","","","","","",""
"null","87602","SARL_v6","SARL_v62ctjlzyf","5b97f70161c19e00018db4a8","freq_resp","","","img/blue_2bandit_b.png","70","img/blue_2bandit_b.png","70","test","","","","","","","","","","","1","","","","","","","","",""
"null","87763","SARL_v6","SARL_v62ctjlzyf","5b97f70161c19e00018db4a8","fixation","","","img/fixation.png","null","","","test","","","","","","","","","","","","","","","","","","","",""
"420.60000002384186","88191","SARL_v6","SARL_v62ctjlzyf","5b97f70161c19e00018db4a8","freq","","","img/blue_2bandit_b2.png","70","","70","test","1","","14","","","","circle","square","14","14","1","0.9285714285714286","","","","","","","",""
"null","88580","SARL_v6","SARL_v62ctjlzyf","5b97f70161c19e00018db4a8","freq_resp","","","img/blue_2bandit_b.png","70","img/blue_2bandit_b.png","70","test","","","","","","","","","","","1","","","","","","","","",""
"null","88746","SARL_v6","SARL_v62ctjlzyf","5b97f70161c19e00018db4a8","fixation","","","img/fixation.png","null","","","test","","","","","","","","","","","","","","","","","","","",""
"363","89114","SARL_v6","SARL_v62ctjlzyf","5b97f70161c19e00018db4a8","freq","","","img/blue_2bandit_b2.png","70","","70","test","1","","15","","","","circle","square","15","15","1","0.9333333333333333","","","","","","","",""
"null","89578","SARL_v6","SARL_v62ctjlzyf","5b97f70161c19e00018db4a8","freq_resp","","","img/blue_2bandit_b.png","70","img/blue_2bandit_b.png","70","test","","","","","","","","","","","1","","","","","","","","",""
"null","89746","SARL_v6","SARL_v62ctjlzyf","5b97f70161c19e00018db4a8","fixation","","","img/fixation.png","null","","","test","","","","","","","","","","","","","","","","","","","",""
"370.2999999523163","90122","SARL_v6","SARL_v62ctjlzyf","5b97f70161c19e00018db4a8","freq","","","img/blue_2bandit_b2.png","70","","70","test","1","","16","","","","circle","square","16","16","1","0.9375","","","","","","","",""
"null","90562","SARL_v6","SARL_v62ctjlzyf","5b97f70161c19e00018db4a8","freq_resp","","","img/blue_2bandit_b.png","70","img/blue_2bandit_b.png","70","test","","","","","","","","","","","1","","","","","","","","",""
"null","90728","SARL_v6","SARL_v62ctjlzyf","5b97f70161c19e00018db4a8","fixation","","","img/fixation.png","null","","","test","","","","","","","","","","","","","","","","","","","",""
"285.89999997615814","91021","SARL_v6","SARL_v62ctjlzyf","5b97f70161c19e00018db4a8","freq","","","img/blue_2bandit_b2.png","70","","70","test","1","","17","","","","circle","square","17","17","1","0.9411764705882353","","","","","","","",""
"null","91543","SARL_v6","SARL_v62ctjlzyf","5b97f70161c19e00018db4a8","freq_resp","","","img/blue_2bandit_b.png","70","img/blue_2bandit_b.png","70","test","","","","","","","","","","","1","","","","","","","","",""
"null","91714","SARL_v6","SARL_v62ctjlzyf","5b97f70161c19e00018db4a8","fixation","","","img/fixation.png","null","","","test","","","","","","","","","","","","","","","","","","","",""
"321.1999999284744","92042","SARL_v6","SARL_v62ctjlzyf","5b97f70161c19e00018db4a8","freq","","","img/blue_2bandit_b2.png","70","","70","test","1","","18","","","","circle","square","18","18","1","0.9444444444444444","","","","","","","",""
"null","92531","SARL_v6","SARL_v62ctjlzyf","5b97f70161c19e00018db4a8","freq_resp","","","img/blue_2bandit_b.png","70","img/blue_2bandit_b.png","70","test","","","","","","","","","","","1","","","","","","","","",""
"null","92696","SARL_v6","SARL_v62ctjlzyf","5b97f70161c19e00018db4a8","fixation","","","img/fixation.png","null","","","test","","","","","","","","","","","","","","","","","","","",""
"381.89999997615814","93087","SARL_v6","SARL_v62ctjlzyf","5b97f70161c19e00018db4a8","freq","","","img/blue_2bandit_b2.png","70","","70","test","1","","19","","","","circle","square","19","19","1","0.9473684210526315","","","","","","","",""
"null","93514","SARL_v6","SARL_v62ctjlzyf","5b97f70161c19e00018db4a8","freq_resp","","","img/blue_2bandit_b.png","70","img/blue_2bandit_b.png","70","test","","","","","","","","","","","1","","","","","","","","",""
"null","93678","SARL_v6","SARL_v62ctjlzyf","5b97f70161c19e00018db4a8","fixation","","","img/fixation.png","null","","","test","","","","","","","","","","","","","","","","","","","",""
"373.39999997615814","94056","SARL_v6","SARL_v62ctjlzyf","5b97f70161c19e00018db4a8","freq","","","img/blue_2bandit_b2.png","70","","70","test","1","","20","","","","circle","square","20","20","1","0.95","","","","","","","",""
"null","94496","SARL_v6","SARL_v62ctjlzyf","5b97f70161c19e00018db4a8","freq_resp","","","img/blue_2bandit_b.png","70","img/blue_2bandit_b.png","70","test","","","","","","","","","","","1","","","","","","","","",""
"null","94663","SARL_v6","SARL_v62ctjlzyf","5b97f70161c19e00018db4a8","fixation","","","img/fixation.png","null","","","test","","","","","","","","","","","","","","","","","","","",""
"334.2999999523163","95004","SARL_v6","SARL_v62ctjlzyf","5b97f70161c19e00018db4a8","freq","","","img/blue_2bandit_b2.png","70","","70","test","1","","21","","","","circle","square","21","21","1","0.9523809523809523","","","","","","","",""
"null","95476","SARL_v6","SARL_v62ctjlzyf","5b97f70161c19e00018db4a8","freq_resp","","","img/blue_2bandit_b.png","70","img/blue_2bandit_b.png","70","test","","","","","","","","","","","1","","","","","","","","",""
"null","95647","SARL_v6","SARL_v62ctjlzyf","5b97f70161c19e00018db4a8","fixation","","","img/fixation.png","null","","","test","","","","","","","","","","","","","","","","","","","",""
"560.5","96212","SARL_v6","SARL_v62ctjlzyf","5b97f70161c19e00018db4a8","infreq","","","img/orange_2bandit_b2.png","68","","68","test","1","","22","","","","circle","square","22","22","1","0.9545454545454546","","","","","","","",""
"null","96455","SARL_v6","SARL_v62ctjlzyf","5b97f70161c19e00018db4a8","infreq_resp","","","img/orange_2bandit_b.png","68","img/orange_2bandit_b.png","68","test","","","","","","","","","","","1","","","","","","","","",""
"null","96612","SARL_v6","SARL_v62ctjlzyf","5b97f70161c19e00018db4a8","fixation","","","img/fixation.png","null","","","test","","","","","","","","","","","","","","","","","","","",""
"423.59999990463257","97039","SARL_v6","SARL_v62ctjlzyf","5b97f70161c19e00018db4a8","freq","","","img/blue_2bandit_b2.png","70","","70","test","1","","23","","","","circle","square","23","23","1","0.9565217391304348","","","","","","","",""
"null","97434","SARL_v6","SARL_v62ctjlzyf","5b97f70161c19e00018db4a8","freq_resp","","","img/blue_2bandit_b.png","70","img/blue_2bandit_b.png","70","test","","","","","","","","","","","1","","","","","","","","",""
"null","97597","SARL_v6","SARL_v62ctjlzyf","5b97f70161c19e00018db4a8","fixation","","","img/fixation.png","null","","","test","","","","","","","","","","","","","","","","","","","",""
"336.60000002384186","97941","SARL_v6","SARL_v62ctjlzyf","5b97f70161c19e00018db4a8","freq","","","img/blue_2bandit_b2.png","70","","70","test","1","","24","","","","circle","square","24","24","1","0.9583333333333334","","","","","","","",""
"null","98428","SARL_v6","SARL_v62ctjlzyf","5b97f70161c19e00018db4a8","freq_resp","","","img/blue_2bandit_b.png","70","img/blue_2bandit_b.png","70","test","","","","","","","","","","","1","","","","","","","","",""
"null","98597","SARL_v6","SARL_v62ctjlzyf","5b97f70161c19e00018db4a8","fixation","","","img/fixation.png","null","","","test","","","","","","","","","","","","","","","","","","","",""
"168","98774","SARL_v6","SARL_v62ctjlzyf","5b97f70161c19e00018db4a8","freq","","","img/blue_2bandit_b2.png","70","","70","test","1","","25","","","","circle","square","25","25","1","0.96","","","","","","","",""
"null","99418","SARL_v6","SARL_v62ctjlzyf","5b97f70161c19e00018db4a8","freq_resp","","","img/blue_2bandit_b.png","70","img/blue_2bandit_b.png","70","test","","","","","","","","","","","1","","","","","","","","",""
"null","99583","SARL_v6","SARL_v62ctjlzyf","5b97f70161c19e00018db4a8","fixation","","","img/fixation.png","null","","","test","","","","","","","","","","","","","","","","","","","",""
"365.39999997615814","99955","SARL_v6","SARL_v62ctjlzyf","5b97f70161c19e00018db4a8","freq","","","img/blue_2bandit_b2.png","70","","70","test","1","","26","","","","circle","square","26","26","1","0.9615384615384616","","","","","","","",""
"null","100409","SARL_v6","SARL_v62ctjlzyf","5b97f70161c19e00018db4a8","freq_resp","","","img/blue_2bandit_b.png","70","img/blue_2bandit_b.png","70","test","","","","","","","","","","","1","","","","","","","","",""
"null","100580","SARL_v6","SARL_v62ctjlzyf","5b97f70161c19e00018db4a8","fixation","","","img/fixation.png","null","","","test","","","","","","","","","","","","","","","","","","","",""
"1160.6000000238419","101750","SARL_v6","SARL_v62ctjlzyf","5b97f70161c19e00018db4a8","rl","","","img/black_2bandit_b2.png","74","","0","test","","","27","","","-3","circle","square","","0","1","","74","-3","-3","-3","-3","circle","1","0"
"null","102521","SARL_v6","SARL_v62ctjlzyf","5b97f70161c19e00018db4a8","feedback","","","<div class=""verylowPoints""> -3 </div>","null","","na","test","","","NaN","","","","","","","","1","","74","","","","","","1",""
"null","103337","SARL_v6","SARL_v62ctjlzyf","5b97f70161c19e00018db4a8","freq","","","img/blue_2bandit_b2.png","null","","70","test","0","","28","","","","circle","square","27","1","2","0.9259259259259259","","","","","","","",""
"null","103499","SARL_v6","SARL_v62ctjlzyf","5b97f70161c19e00018db4a8","fixation","","","img/fixation.png","null","","","test","","","","","","","","","","","","","","","","","","","",""
"610.7000000476837","104118","SARL_v6","SARL_v62ctjlzyf","5b97f70161c19e00018db4a8","freq","","","img/blue_2bandit_b2.png","70","","70","test","1","","29","","","","circle","square","28","2","2","0.9285714285714286","","","","","","","",""
"null","104327","SARL_v6","SARL_v62ctjlzyf","5b97f70161c19e00018db4a8","freq_resp","","","img/blue_2bandit_b.png","70","img/blue_2bandit_b.png","70","test","","","","","","","","","","","2","","","","","","","","",""
"null","104500","SARL_v6","SARL_v62ctjlzyf","5b97f70161c19e00018db4a8","fixation","","","img/fixation.png","null","","","test","","","","","","","","","","","","","","","","","","","",""
"401.3000000715256","104908","SARL_v6","SARL_v62ctjlzyf","5b97f70161c19e00018db4a8","freq","","","img/blue_2bandit_b2.png","70","","70","test","1","","30","","","","circle","square","29","3","2","0.9310344827586207","","","","","","","",""
"null","105319","SARL_v6","SARL_v62ctjlzyf","5b97f70161c19e00018db4a8","freq_resp","","","img/blue_2bandit_b.png","70","img/blue_2bandit_b.png","70","test","","","","","","","","","","","2","","","","","","","","",""
"null","105481","SARL_v6","SARL_v62ctjlzyf","5b97f70161c19e00018db4a8","fixation","","","img/fixation.png","null","","","test","","","","","","","","","","","","","","","","","","","",""
"420.5","105908","SARL_v6","SARL_v62ctjlzyf","5b97f70161c19e00018db4a8","freq","","","img/blue_2bandit_b2.png","70","","70","test","1","","31","","","","circle","square","30","4","2","0.9333333333333333","","","","","","","",""
"null","106301","SARL_v6","SARL_v62ctjlzyf","5b97f70161c19e00018db4a8","freq_resp","","","img/blue_2bandit_b.png","70","img/blue_2bandit_b.png","70","test","","","","","","","","","","","2","","","","","","","","",""
"null","106464","SARL_v6","SARL_v62ctjlzyf","5b97f70161c19e00018db4a8","fixation","","","img/fixation.png","null","","","test","","","","","","","","","","","","","","","","","","","",""
"394.89999997615814","106866","SARL_v6","SARL_v62ctjlzyf","5b97f70161c19e00018db4a8","freq","","","img/blue_2bandit_b2.png","70","","70","test","1","","32","","","","circle","square","31","5","2","0.9354838709677419","","","","","","","",""
"null","107289","SARL_v6","SARL_v62ctjlzyf","5b97f70161c19e00018db4a8","freq_resp","","","img/blue_2bandit_b.png","70","img/blue_2bandit_b.png","70","test","","","","","","","","","","","2","","","","","","","","",""
"null","107448","SARL_v6","SARL_v62ctjlzyf","5b97f70161c19e00018db4a8","fixation","","","img/fixation.png","null","","","test","","","","","","","","","","","","","","","","","","","",""
"354.10000002384186","107807","SARL_v6","SARL_v62ctjlzyf","5b97f70161c19e00018db4a8","freq","","","img/blue_2bandit_b2.png","70","","70","test","1","","33","","","","circle","square","32","6","2","0.9375","","","","","","","",""
"null","108261","SARL_v6","SARL_v62ctjlzyf","5b97f70161c19e00018db4a8","freq_resp","","","img/blue_2bandit_b.png","70","img/blue_2bandit_b.png","70","test","","","","","","","","","","","2","","","","","","","","",""
"null","108432","SARL_v6","SARL_v62ctjlzyf","5b97f70161c19e00018db4a8","fixation","","","img/fixation.png","null","","","test","","","","","","","","","","","","","","","","","","","",""
"346.10000002384186","108783","SARL_v6","SARL_v62ctjlzyf","5b97f70161c19e00018db4a8","freq","","","img/blue_2bandit_b2.png","70","","70","test","1","","34","","","","circle","square","33","7","2","0.9393939393939394","","","","","","","",""
"null","109242","SARL_v6","SARL_v62ctjlzyf","5b97f70161c19e00018db4a8","freq_resp","","","img/blue_2bandit_b.png","70","img/blue_2bandit_b.png","70","test","","","","","","","","","","","2","","","","","","","","",""
"null","109401","SARL_v6","SARL_v62ctjlzyf","5b97f70161c19e00018db4a8","fixation","","","img/fixation.png","null","","","test","","","","","","","","","","","","","","","","","","","",""
"713.8999999761581","110119","SARL_v6","SARL_v62ctjlzyf","5b97f70161c19e00018db4a8","infreq","","","img/orange_2bandit_b2.png","68","","68","test","1","","35","","","","circle","square","34","8","2","0.9411764705882353","","","","","","","",""
"null","110217","SARL_v6","SARL_v62ctjlzyf","5b97f70161c19e00018db4a8","infreq_resp","","","img/orange_2bandit_b.png","68","img/orange_2bandit_b.png","68","test","","","","","","","","","","","2","","","","","","","","",""
"null","110378","SARL_v6","SARL_v62ctjlzyf","5b97f70161c19e00018db4a8","fixation","","","img/fixation.png","null","","","test","","","","","","","","","","","","","","","","","","","",""
"474","110856","SARL_v6","SARL_v62ctjlzyf","5b97f70161c19e00018db4a8","freq","","","img/blue_2bandit_b2.png","70","","70","test","1","","36","","","","circle","square","35","9","2","0.9428571428571428","","","","","","","",""
"null","111204","SARL_v6","SARL_v62ctjlzyf","5b97f70161c19e00018db4a8","freq_resp","","","img/blue_2bandit_b.png","70","img/blue_2bandit_b.png","70","test","","","","","","","","","","","2","","","","","","","","",""
"null","111366","SARL_v6","SARL_v62ctjlzyf","5b97f70161c19e00018db4a8","fixation","","","img/fixation.png","null","","","test","","","","","","","","","","","","","","","","","","","",""
"381","111752","SARL_v6","SARL_v62ctjlzyf","5b97f70161c19e00018db4a8","freq","","","img/blue_2bandit_b2.png","70","","70","test","1","","37","","","","circle","square","36","10","2","0.9444444444444444","","","","","","","",""
"null","112179","SARL_v6","SARL_v62ctjlzyf","5b97f70161c19e00018db4a8","freq_resp","","","img/blue_2bandit_b.png","70","img/blue_2bandit_b.png","70","test","","","","","","","","","","","2","","","","","","","","",""
"null","112345","SARL_v6","SARL_v62ctjlzyf","5b97f70161c19e00018db4a8","fixation","","","img/fixation.png","null","","","test","","","","","","","","","","","","","","","","","","","",""
"355.2999999523163","112703","SARL_v6","SARL_v62ctjlzyf","5b97f70161c19e00018db4a8","freq","","","img/blue_2bandit_b2.png","70","","70","test","1","","38","","","","circle","square","37","11","2","0.9459459459459459","","","","","","","",""
"null","113162","SARL_v6","SARL_v62ctjlzyf","5b97f70161c19e00018db4a8","freq_resp","","","img/blue_2bandit_b.png","70","img/blue_2bandit_b.png","70","test","","","","","","","","","","","2","","","","","","","","",""
"null","113332","SARL_v6","SARL_v62ctjlzyf","5b97f70161c19e00018db4a8","fixation","","","img/fixation.png","null","","","test","","","","","","","","","","","","","","","","","","","",""
"356.5","113699","SARL_v6","SARL_v62ctjlzyf","5b97f70161c19e00018db4a8","freq","","","img/blue_2bandit_b2.png","70","","70","test","1","","39","","","","circle","square","38","12","2","0.9473684210526315","","","","","","","",""
"null","114162","SARL_v6","SARL_v62ctjlzyf","5b97f70161c19e00018db4a8","freq_resp","","","img/blue_2bandit_b.png","70","img/blue_2bandit_b.png","70","test","","","","","","","","","","","2","","","","","","","","",""
"null","114328","SARL_v6","SARL_v62ctjlzyf","5b97f70161c19e00018db4a8","fixation","","","img/fixation.png","null","","","test","","","","","","","","","","","","","","","","","","","",""
"342.5","114677","SARL_v6","SARL_v62ctjlzyf","5b97f70161c19e00018db4a8","freq","","","img/blue_2bandit_b2.png","70","","70","test","1","","40","","","","circle","square","39","13","2","0.9487179487179487","","","","","","","",""
"null","115144","SARL_v6","SARL_v62ctjlzyf","5b97f70161c19e00018db4a8","freq_resp","","","img/blue_2bandit_b.png","70","img/blue_2bandit_b.png","70","test","","","","","","","","","","","2","","","","","","","","",""
"null","115311","SARL_v6","SARL_v62ctjlzyf","5b97f70161c19e00018db4a8","fixation","","","img/fixation.png","null","","","test","","","","","","","","","","","","","","","","","","","",""
"333","115648","SARL_v6","SARL_v62ctjlzyf","5b97f70161c19e00018db4a8","freq","","","img/blue_2bandit_b2.png","70","","70","test","1","","41","","","","circle","square","40","14","2","0.95","","","","","","","",""
"null","116125","SARL_v6","SARL_v62ctjlzyf","5b97f70161c19e00018db4a8","freq_resp","","","img/blue_2bandit_b.png","70","img/blue_2bandit_b.png","70","test","","","","","","","","","","","2","","","","","","","","",""
"null","116298","SARL_v6","SARL_v62ctjlzyf","5b97f70161c19e00018db4a8","fixation","","","img/fixation.png","null","","","test","","","","","","","","","","","","","","","","","","","",""
"536.9000000953674","116843","SARL_v6","SARL_v62ctjlzyf","5b97f70161c19e00018db4a8","infreq","","","img/orange_2bandit_b2.png","68","","68","test","1","","42","","","","circle","square","41","15","2","0.9512195121951219","","","","","","","",""
"null","117123","SARL_v6","SARL_v62ctjlzyf","5b97f70161c19e00018db4a8","infreq_resp","","","img/orange_2bandit_b.png","68","img/orange_2bandit_b.png","68","test","","","","","","","","","","","2","","","","","","","","",""
"null","117281","SARL_v6","SARL_v62ctjlzyf","5b97f70161c19e00018db4a8","fixation","","","img/fixation.png","null","","","test","","","","","","","","","","","","","","","","","","","",""
"430.2000000476837","117717","SARL_v6","SARL_v62ctjlzyf","5b97f70161c19e00018db4a8","freq","","","img/blue_2bandit_b2.png","70","","70","test","1","","43","","","","circle","square","42","16","2","0.9523809523809523","","","","","","","",""
"null","118102","SARL_v6","SARL_v62ctjlzyf","5b97f70161c19e00018db4a8","freq_resp","","","img/blue_2bandit_b.png","70","img/blue_2bandit_b.png","70","test","","","","","","","","","","","2","","","","","","","","",""
"null","118264","SARL_v6","SARL_v62ctjlzyf","5b97f70161c19e00018db4a8","fixation","","","img/fixation.png","null","","","test","","","","","","","","","","","","","","","","","","","",""
"364.10000002384186","118631","SARL_v6","SARL_v62ctjlzyf","5b97f70161c19e00018db4a8","freq","","","img/blue_2bandit_b2.png","70","","70","test","1","","44","","","","circle","square","43","17","2","0.9534883720930233","","","","","","","",""
"null","119078","SARL_v6","SARL_v62ctjlzyf","5b97f70161c19e00018db4a8","freq_resp","","","img/blue_2bandit_b.png","70","img/blue_2bandit_b.png","70","test","","","","","","","","","","","2","","","","","","","","",""
"null","119246","SARL_v6","SARL_v62ctjlzyf","5b97f70161c19e00018db4a8","fixation","","","img/fixation.png","null","","","test","","","","","","","","","","","","","","","","","","","",""
"380.60000002384186","119631","SARL_v6","SARL_v62ctjlzyf","5b97f70161c19e00018db4a8","freq","","","img/blue_2bandit_b2.png","70","","70","test","1","","45","","","","circle","square","44","18","2","0.9545454545454546","","","","","","","",""
"null","120057","SARL_v6","SARL_v62ctjlzyf","5b97f70161c19e00018db4a8","freq_resp","","","img/blue_2bandit_b.png","70","img/blue_2bandit_b.png","70","test","","","","","","","","","","","2","","","","","","","","",""
"null","120214","SARL_v6","SARL_v62ctjlzyf","5b97f70161c19e00018db4a8","fixation","","","img/fixation.png","null","","","test","","","","","","","","","","","","","","","","","","","",""
"374.8000000715256","120595","SARL_v6","SARL_v62ctjlzyf","5b97f70161c19e00018db4a8","freq","","","img/blue_2bandit_b2.png","70","","70","test","1","","46","","","","circle","square","45","19","2","0.9555555555555556","","","","","","","",""
"null","121030","SARL_v6","SARL_v62ctjlzyf","5b97f70161c19e00018db4a8","freq_resp","","","img/blue_2bandit_b.png","70","img/blue_2bandit_b.png","70","test","","","","","","","","","","","2","","","","","","","","",""
"null","121195","SARL_v6","SARL_v62ctjlzyf","5b97f70161c19e00018db4a8","fixation","","","img/fixation.png","null","","","test","","","","","","","","","","","","","","","","","","","",""
"336.60000002384186","121536","SARL_v6","SARL_v62ctjlzyf","5b97f70161c19e00018db4a8","freq","","","img/blue_2bandit_b2.png","70","","70","test","1","","47","","","","circle","square","46","20","2","0.9565217391304348","","","","","","","",""
"null","122006","SARL_v6","SARL_v62ctjlzyf","5b97f70161c19e00018db4a8","freq_resp","","","img/blue_2bandit_b.png","70","img/blue_2bandit_b.png","70","test","","","","","","","","","","","2","","","","","","","","",""
"null","122164","SARL_v6","SARL_v62ctjlzyf","5b97f70161c19e00018db4a8","fixation","","","img/fixation.png","null","","","test","","","","","","","","","","","","","","","","","","","",""
"366.89999997615814","122535","SARL_v6","SARL_v62ctjlzyf","5b97f70161c19e00018db4a8","freq","","","img/blue_2bandit_b2.png","70","","70","test","1","","48","","","","circle","square","47","21","2","0.9574468085106383","","","","","","","",""
"null","122976","SARL_v6","SARL_v62ctjlzyf","5b97f70161c19e00018db4a8","freq_resp","","","img/blue_2bandit_b.png","70","img/blue_2bandit_b.png","70","test","","","","","","","","","","","2","","","","","","","","",""
"null","123146","SARL_v6","SARL_v62ctjlzyf","5b97f70161c19e00018db4a8","fixation","","","img/fixation.png","null","","","test","","","","","","","","","","","","","","","","","","","",""
"361","123511","SARL_v6","SARL_v62ctjlzyf","5b97f70161c19e00018db4a8","freq","","","img/blue_2bandit_b2.png","70","","70","test","1","","49","","","","circle","square","48","22","2","0.9583333333333334","","","","","","","",""
"null","123966","SARL_v6","SARL_v62ctjlzyf","5b97f70161c19e00018db4a8","freq_resp","","","img/blue_2bandit_b.png","70","img/blue_2bandit_b.png","70","test","","","","","","","","","","","2","","","","","","","","",""
"null","124128","SARL_v6","SARL_v62ctjlzyf","5b97f70161c19e00018db4a8","fixation","","","img/fixation.png","null","","","test","","","","","","","","","","","","","","","","","","","",""
"348","124479","SARL_v6","SARL_v62ctjlzyf","5b97f70161c19e00018db4a8","freq","","","img/blue_2bandit_b2.png","70","","70","test","1","","50","","","","circle","square","49","23","2","0.9591836734693877","","","","","","","",""
"null","124942","SARL_v6","SARL_v62ctjlzyf","5b97f70161c19e00018db4a8","freq_resp","","","img/blue_2bandit_b.png","70","img/blue_2bandit_b.png","70","test","","","","","","","","","","","2","","","","","","","","",""
"null","125095","SARL_v6","SARL_v62ctjlzyf","5b97f70161c19e00018db4a8","fixation","","","img/fixation.png","null","","","test","","","","","","","","","","","","","","","","","","","",""
"359.2999999523163","125462","SARL_v6","SARL_v62ctjlzyf","5b97f70161c19e00018db4a8","freq","","","img/blue_2bandit_b2.png","70","","70","test","1","","51","","","","circle","square","50","24","2","0.96","","","","","","","",""
"null","125911","SARL_v6","SARL_v62ctjlzyf","5b97f70161c19e00018db4a8","freq_resp","","","img/blue_2bandit_b.png","70","img/blue_2bandit_b.png","70","test","","","","","","","","","","","2","","","","","","","","",""
"null","126078","SARL_v6","SARL_v62ctjlzyf","5b97f70161c19e00018db4a8","fixation","","","img/fixation.png","null","","","test","","","","","","","","","","","","","","","","","","","",""
"838.2999999523163","126920","SARL_v6","SARL_v62ctjlzyf","5b97f70161c19e00018db4a8","rl","","","img/black_2bandit_b2.png","75","","0","test","","","52","","","-8","circle","square","","0","2","","75","-5","-8","-5","-8","square","2","0"
"null","127689","SARL_v6","SARL_v62ctjlzyf","5b97f70161c19e00018db4a8","feedback","","","<div class=""verylowPoints_sq""> -8 </div>","null","","na","test","","","NaN","","","","","","","","2","","75","","","","","","2",""
"null","128505","SARL_v6","SARL_v62ctjlzyf","5b97f70161c19e00018db4a8","freq","","","img/blue_2bandit_b2.png","null","","70","test","0","","53","","","","circle","square","51","1","3","0.9411764705882353","","","","","","","",""
"null","128665","SARL_v6","SARL_v62ctjlzyf","5b97f70161c19e00018db4a8","fixation","","","img/fixation.png","null","","","test","","","","","","","","","","","","","","","","","","","",""
"520.6000000238419","129193","SARL_v6","SARL_v62ctjlzyf","5b97f70161c19e00018db4a8","freq","","","img/blue_2bandit_b2.png","70","","70","test","1","","54","","","","circle","square","52","2","3","0.9423076923076923","","","","","","","",""
"null","129487","SARL_v6","SARL_v62ctjlzyf","5b97f70161c19e00018db4a8","freq_resp","","","img/blue_2bandit_b.png","70","img/blue_2bandit_b.png","70","test","","","","","","","","","","","3","","","","","","","","",""
"null","129644","SARL_v6","SARL_v62ctjlzyf","5b97f70161c19e00018db4a8","fixation","","","img/fixation.png","null","","","test","","","","","","","","","","","","","","","","","","","",""
"391.60000002384186","130039","SARL_v6","SARL_v62ctjlzyf","5b97f70161c19e00018db4a8","freq","","","img/blue_2bandit_b2.png","70","","70","test","1","","55","","","","circle","square","53","3","3","0.9433962264150944","","","","","","","",""
"null","130463","SARL_v6","SARL_v62ctjlzyf","5b97f70161c19e00018db4a8","freq_resp","","","img/blue_2bandit_b.png","70","img/blue_2bandit_b.png","70","test","","","","","","","","","","","3","","","","","","","","",""
"null","130628","SARL_v6","SARL_v62ctjlzyf","5b97f70161c19e00018db4a8","fixation","","","img/fixation.png","null","","","test","","","","","","","","","","","","","","","","","","","",""
"361.1999999284744","130995","SARL_v6","SARL_v62ctjlzyf","5b97f70161c19e00018db4a8","freq","","","img/blue_2bandit_b2.png","70","","70","test","1","","56","","","","circle","square","54","4","3","0.9444444444444444","","","","","","","",""
"null","131446","SARL_v6","SARL_v62ctjlzyf","5b97f70161c19e00018db4a8","freq_resp","","","img/blue_2bandit_b.png","70","img/blue_2bandit_b.png","70","test","","","","","","","","","","","3","","","","","","","","",""
"null","131611","SARL_v6","SARL_v62ctjlzyf","5b97f70161c19e00018db4a8","fixation","","","img/fixation.png","null","","","test","","","","","","","","","","","","","","","","","","","",""
"273.8000000715256","131892","SARL_v6","SARL_v62ctjlzyf","5b97f70161c19e00018db4a8","freq","","","img/blue_2bandit_b2.png","70","","70","test","1","","57","","","","circle","square","55","5","3","0.9454545454545454","","","","","","","",""
"null","132440","SARL_v6","SARL_v62ctjlzyf","5b97f70161c19e00018db4a8","freq_resp","","","img/blue_2bandit_b.png","70","img/blue_2bandit_b.png","70","test","","","","","","","","","","","3","","","","","","","","",""
"null","132595","SARL_v6","SARL_v62ctjlzyf","5b97f70161c19e00018db4a8","fixation","","","img/fixation.png","null","","","test","","","","","","","","","","","","","","","","","","","",""
"369.2000000476837","132970","SARL_v6","SARL_v62ctjlzyf","5b97f70161c19e00018db4a8","freq","","","img/blue_2bandit_b2.png","70","","70","test","1","","58","","","","circle","square","56","6","3","0.9464285714285714","","","","","","","",""
"null","133411","SARL_v6","SARL_v62ctjlzyf","5b97f70161c19e00018db4a8","freq_resp","","","img/blue_2bandit_b.png","70","img/blue_2bandit_b.png","70","test","","","","","","","","","","","3","","","","","","","","",""
"null","133579","SARL_v6","SARL_v62ctjlzyf","5b97f70161c19e00018db4a8","fixation","","","img/fixation.png","null","","","test","","","","","","","","","","","","","","","","","","","",""
"353.40000009536743","133936","SARL_v6","SARL_v62ctjlzyf","5b97f70161c19e00018db4a8","freq","","","img/blue_2bandit_b2.png","70","","70","test","1","","59","","","","circle","square","57","7","3","0.9473684210526315","","","","","","","",""
"null","134393","SARL_v6","SARL_v62ctjlzyf","5b97f70161c19e00018db4a8","freq_resp","","","img/blue_2bandit_b.png","70","img/blue_2bandit_b.png","70","test","","","","","","","","","","","3","","","","","","","","",""
"null","134562","SARL_v6","SARL_v62ctjlzyf","5b97f70161c19e00018db4a8","fixation","","","img/fixation.png","null","","","test","","","","","","","","","","","","","","","","","","","",""
"449.7000000476837","135015","SARL_v6","SARL_v62ctjlzyf","5b97f70161c19e00018db4a8","infreq","","","img/orange_2bandit_b2.png","68","","68","test","1","","60","","","","circle","square","58","8","3","0.9482758620689655","","","","","","","",""
"null","135385","SARL_v6","SARL_v62ctjlzyf","5b97f70161c19e00018db4a8","infreq_resp","","","img/orange_2bandit_b.png","68","img/orange_2bandit_b.png","68","test","","","","","","","","","","","3","","","","","","","","",""
"null","135546","SARL_v6","SARL_v62ctjlzyf","5b97f70161c19e00018db4a8","fixation","","","img/fixation.png","null","","","test","","","","","","","","","","","","","","","","","","","",""
"493.60000002384186","136047","SARL_v6","SARL_v62ctjlzyf","5b97f70161c19e00018db4a8","infreq","","","img/orange_2bandit_b2.png","68","","68","test","1","","61","","","","circle","square","59","9","3","0.9491525423728814","","","","","","","",""
"null","136372","SARL_v6","SARL_v62ctjlzyf","5b97f70161c19e00018db4a8","infreq_resp","","","img/orange_2bandit_b.png","68","img/orange_2bandit_b.png","68","test","","","","","","","","","","","3","","","","","","","","",""
"null","136528","SARL_v6","SARL_v62ctjlzyf","5b97f70161c19e00018db4a8","fixation","","","img/fixation.png","null","","","test","","","","","","","","","","","","","","","","","","","",""
"461.09999990463257","136995","SARL_v6","SARL_v62ctjlzyf","5b97f70161c19e00018db4a8","freq","","","img/blue_2bandit_b2.png","70","","70","test","1","","62","","","","circle","square","60","10","3","0.95","","","","","","","",""
"null","137355","SARL_v6","SARL_v62ctjlzyf","5b97f70161c19e00018db4a8","freq_resp","","","img/blue_2bandit_b.png","70","img/blue_2bandit_b.png","70","test","","","","","","","","","","","3","","","","","","","","",""
"null","137516","SARL_v6","SARL_v62ctjlzyf","5b97f70161c19e00018db4a8","fixation","","","img/fixation.png","null","","","test","","","","","","","","","","","","","","","","","","","",""
"392.2999999523163","137918","SARL_v6","SARL_v62ctjlzyf","5b97f70161c19e00018db4a8","freq","","","img/blue_2bandit_b2.png","70","","70","test","1","","63","","","","circle","square","61","11","3","0.9508196721311475","","","","","","","",""
"null","138335","SARL_v6","SARL_v62ctjlzyf","5b97f70161c19e00018db4a8","freq_resp","","","img/blue_2bandit_b.png","70","img/blue_2bandit_b.png","70","test","","","","","","","","","","","3","","","","","","","","",""
"null","138498","SARL_v6","SARL_v62ctjlzyf","5b97f70161c19e00018db4a8","fixation","","","img/fixation.png","null","","","test","","","","","","","","","","","","","","","","","","","",""
"370","138873","SARL_v6","SARL_v62ctjlzyf","5b97f70161c19e00018db4a8","freq","","","img/blue_2bandit_b2.png","70","","70","test","1","","64","","","","circle","square","62","12","3","0.9516129032258065","","","","","","","",""
"null","139314","SARL_v6","SARL_v62ctjlzyf","5b97f70161c19e00018db4a8","freq_resp","","","img/blue_2bandit_b.png","70","img/blue_2bandit_b.png","70","test","","","","","","","","","","","3","","","","","","","","",""
"null","139483","SARL_v6","SARL_v62ctjlzyf","5b97f70161c19e00018db4a8","fixation","","","img/fixation.png","null","","","test","","","","","","","","","","","","","","","","","","","",""
"395.10000002384186","139888","SARL_v6","SARL_v62ctjlzyf","5b97f70161c19e00018db4a8","freq","","","img/blue_2bandit_b2.png","70","","70","test","1","","65","","","","circle","square","63","13","3","0.9523809523809523","","","","","","","",""
"null","140314","SARL_v6","SARL_v62ctjlzyf","5b97f70161c19e00018db4a8","freq_resp","","","img/blue_2bandit_b.png","70","img/blue_2bandit_b.png","70","test","","","","","","","","","","","3","","","","","","","","",""
"null","140481","SARL_v6","SARL_v62ctjlzyf","5b97f70161c19e00018db4a8","fixation","","","img/fixation.png","null","","","test","","","","","","","","","","","","","","","","","","","",""
"380.2000000476837","140869","SARL_v6","SARL_v62ctjlzyf","5b97f70161c19e00018db4a8","freq","","","img/blue_2bandit_b2.png","70","","70","test","1","","66","","","","circle","square","64","14","3","0.953125","","","","","","","",""
"null","141294","SARL_v6","SARL_v62ctjlzyf","5b97f70161c19e00018db4a8","freq_resp","","","img/blue_2bandit_b.png","70","img/blue_2bandit_b.png","70","test","","","","","","","","","","","3","","","","","","","","",""
"null","141463","SARL_v6","SARL_v62ctjlzyf","5b97f70161c19e00018db4a8","fixation","","","img/fixation.png","null","","","test","","","","","","","","","","","","","","","","","","","",""
"380.5","141852","SARL_v6","SARL_v62ctjlzyf","5b97f70161c19e00018db4a8","freq","","","img/blue_2bandit_b2.png","70","","70","test","1","","67","","","","circle","square","65","15","3","0.9538461538461539","","","","","","","",""
"null","142286","SARL_v6","SARL_v62ctjlzyf","5b97f70161c19e00018db4a8","freq_resp","","","img/blue_2bandit_b.png","70","img/blue_2bandit_b.png","70","test","","","","","","","","","","","3","","","","","","","","",""
"null","142450","SARL_v6","SARL_v62ctjlzyf","5b97f70161c19e00018db4a8","fixation","","","img/fixation.png","null","","","test","","","","","","","","","","","","","","","","","","","",""
"361.59999990463257","142816","SARL_v6","SARL_v62ctjlzyf","5b97f70161c19e00018db4a8","freq","","","img/blue_2bandit_b2.png","70","","70","test","1","","68","","","","circle","square","66","16","3","0.9545454545454546","","","","","","","",""
"null","143259","SARL_v6","SARL_v62ctjlzyf","5b97f70161c19e00018db4a8","freq_resp","","","img/blue_2bandit_b.png","70","img/blue_2bandit_b.png","70","test","","","","","","","","","","","3","","","","","","","","",""
"null","143414","SARL_v6","SARL_v62ctjlzyf","5b97f70161c19e00018db4a8","fixation","","","img/fixation.png","null","","","test","","","","","","","","","","","","","","","","","","","",""
"373.5","143791","SARL_v6","SARL_v62ctjlzyf","5b97f70161c19e00018db4a8","freq","","","img/blue_2bandit_b2.png","70","","70","test","1","","69","","","","circle","square","67","17","3","0.9552238805970149","","","","","","","",""
"null","144229","SARL_v6","SARL_v62ctjlzyf","5b97f70161c19e00018db4a8","freq_resp","","","img/blue_2bandit_b.png","70","img/blue_2bandit_b.png","70","test","","","","","","","","","","","3","","","","","","","","",""
"null","144396","SARL_v6","SARL_v62ctjlzyf","5b97f70161c19e00018db4a8","fixation","","","img/fixation.png","null","","","test","","","","","","","","","","","","","","","","","","","",""
"328.7000000476837","144734","SARL_v6","SARL_v62ctjlzyf","5b97f70161c19e00018db4a8","freq","","","img/blue_2bandit_b2.png","70","","70","test","1","","70","","","","circle","square","68","18","3","0.9558823529411765","","","","","","","",""
"null","145225","SARL_v6","SARL_v62ctjlzyf","5b97f70161c19e00018db4a8","freq_resp","","","img/blue_2bandit_b.png","70","img/blue_2bandit_b.png","70","test","","","","","","","","","","","3","","","","","","","","",""
"null","145382","SARL_v6","SARL_v62ctjlzyf","5b97f70161c19e00018db4a8","fixation","","","img/fixation.png","null","","","test","","","","","","","","","","","","","","","","","","","",""
"348.7000000476837","145743","SARL_v6","SARL_v62ctjlzyf","5b97f70161c19e00018db4a8","freq","","","img/blue_2bandit_b2.png","70","","70","test","1","","71","","","","circle","square","69","19","3","0.9565217391304348","","","","","","","",""
"null","146211","SARL_v6","SARL_v62ctjlzyf","5b97f70161c19e00018db4a8","freq_resp","","","img/blue_2bandit_b.png","70","img/blue_2bandit_b.png","70","test","","","","","","","","","","","3","","","","","","","","",""
"null","146381","SARL_v6","SARL_v62ctjlzyf","5b97f70161c19e00018db4a8","fixation","","","img/fixation.png","null","","","test","","","","","","","","","","","","","","","","","","","",""
"343.7999999523163","146731","SARL_v6","SARL_v62ctjlzyf","5b97f70161c19e00018db4a8","freq","","","img/blue_2bandit_b2.png","70","","70","test","1","","72","","","","circle","square","70","20","3","0.9571428571428572","","","","","","","",""
"null","147209","SARL_v6","SARL_v62ctjlzyf","5b97f70161c19e00018db4a8","freq_resp","","","img/blue_2bandit_b.png","70","img/blue_2bandit_b.png","70","test","","","","","","","","","","","3","","","","","","","","",""
"null","147365","SARL_v6","SARL_v62ctjlzyf","5b97f70161c19e00018db4a8","fixation","","","img/fixation.png","null","","","test","","","","","","","","","","","","","","","","","","","",""
"328.59999990463257","147699","SARL_v6","SARL_v62ctjlzyf","5b97f70161c19e00018db4a8","freq","","","img/blue_2bandit_b2.png","70","","70","test","1","","73","","","","circle","square","71","21","3","0.9577464788732394","","","","","","","",""
"null","148193","SARL_v6","SARL_v62ctjlzyf","5b97f70161c19e00018db4a8","freq_resp","","","img/blue_2bandit_b.png","70","img/blue_2bandit_b.png","70","test","","","","","","","","","","","3","","","","","","","","",""
"null","148348","SARL_v6","SARL_v62ctjlzyf","5b97f70161c19e00018db4a8","fixation","","","img/fixation.png","null","","","test","","","","","","","","","","","","","","","","","","","",""
"367.6999999284744","148723","SARL_v6","SARL_v62ctjlzyf","5b97f70161c19e00018db4a8","freq","","","img/blue_2bandit_b2.png","70","","70","test","1","","74","","","","circle","square","72","22","3","0.9583333333333334","","","","","","","",""
"null","149170","SARL_v6","SARL_v62ctjlzyf","5b97f70161c19e00018db4a8","freq_resp","","","img/blue_2bandit_b.png","70","img/blue_2bandit_b.png","70","test","","","","","","","","","","","3","","","","","","","","",""
"null","149335","SARL_v6","SARL_v62ctjlzyf","5b97f70161c19e00018db4a8","fixation","","","img/fixation.png","null","","","test","","","","","","","","","","","","","","","","","","","",""
"996.6000000238419","150337","SARL_v6","SARL_v62ctjlzyf","5b97f70161c19e00018db4a8","rl","","","img/black_2bandit_b2.png","74","","0","test","","","75","","","-4","circle","square","","0","3","","74","-4","-8","-4","-8","circle","3","0"
"null","151107","SARL_v6","SARL_v62ctjlzyf","5b97f70161c19e00018db4a8","feedback","","","<div class=""verylowPoints""> -4 </div>","null","","na","test","","","NaN","","","","","","","","3","","74","","","","","","3",""
"576.9000000953674","151690","SARL_v6","SARL_v62ctjlzyf","5b97f70161c19e00018db4a8","freq","","","img/blue_2bandit_b2.png","70","","70","test","1","","76","","","","circle","square","73","1","4","0.958904109589041","","","","","","","",""
"null","151926","SARL_v6","SARL_v62ctjlzyf","5b97f70161c19e00018db4a8","freq_resp","","","img/blue_2bandit_b.png","70","img/blue_2bandit_b.png","70","test","","","","","","","","","","","4","","","","","","","","",""
"null","152080","SARL_v6","SARL_v62ctjlzyf","5b97f70161c19e00018db4a8","fixation","","","img/fixation.png","null","","","test","","","","","","","","","","","","","","","","","","","",""
"565.1000000238419","152654","SARL_v6","SARL_v62ctjlzyf","5b97f70161c19e00018db4a8","freq","","","img/blue_2bandit_b2.png","70","","70","test","1","","77","","","","circle","square","74","2","4","0.9594594594594594","","","","","","","",""
"null","152906","SARL_v6","SARL_v62ctjlzyf","5b97f70161c19e00018db4a8","freq_resp","","","img/blue_2bandit_b.png","70","img/blue_2bandit_b.png","70","test","","","","","","","","","","","4","","","","","","","","",""
"null","153070","SARL_v6","SARL_v62ctjlzyf","5b97f70161c19e00018db4a8","fixation","","","img/fixation.png","null","","","test","","","","","","","","","","","","","","","","","","","",""
"468.3000000715256","153544","SARL_v6","SARL_v62ctjlzyf","5b97f70161c19e00018db4a8","freq","","","img/blue_2bandit_b2.png","70","","70","test","1","","78","","","","circle","square","75","3","4","0.96","","","","","","","",""
"null","153886","SARL_v6","SARL_v62ctjlzyf","5b97f70161c19e00018db4a8","freq_resp","","","img/blue_2bandit_b.png","70","img/blue_2bandit_b.png","70","test","","","","","","","","","","","4","","","","","","","","",""
"null","154048","SARL_v6","SARL_v62ctjlzyf","5b97f70161c19e00018db4a8","fixation","","","img/fixation.png","null","","","test","","","","","","","","","","","","","","","","","","","",""
"372.89999997615814","154427","SARL_v6","SARL_v62ctjlzyf","5b97f70161c19e00018db4a8","freq","","","img/blue_2bandit_b2.png","70","","70","test","1","","79","","","","circle","square","76","4","4","0.9605263157894737","","","","","","","",""
"null","154862","SARL_v6","SARL_v62ctjlzyf","5b97f70161c19e00018db4a8","freq_resp","","","img/blue_2bandit_b.png","70","img/blue_2bandit_b.png","70","test","","","","","","","","","","","4","","","","","","","","",""
"null","155031","SARL_v6","SARL_v62ctjlzyf","5b97f70161c19e00018db4a8","fixation","","","img/fixation.png","null","","","test","","","","","","","","","","","","","","","","","","","",""
"390.3000000715256","155439","SARL_v6","SARL_v62ctjlzyf","5b97f70161c19e00018db4a8","freq","","","img/blue_2bandit_b2.png","70","","70","test","1","","80","","","","circle","square","77","5","4","0.961038961038961","","","","","","","",""
"null","155865","SARL_v6","SARL_v62ctjlzyf","5b97f70161c19e00018db4a8","freq_resp","","","img/blue_2bandit_b.png","70","img/blue_2bandit_b.png","70","test","","","","","","","","","","","4","","","","","","","","",""
"null","156030","SARL_v6","SARL_v62ctjlzyf","5b97f70161c19e00018db4a8","fixation","","","img/fixation.png","null","","","test","","","","","","","","","","","","","","","","","","","",""
"669.4000000953674","156705","SARL_v6","SARL_v62ctjlzyf","5b97f70161c19e00018db4a8","infreq","","","img/orange_2bandit_b2.png","68","","68","test","1","","81","","","","circle","square","78","6","4","0.9615384615384616","","","","","","","",""
"null","156853","SARL_v6","SARL_v62ctjlzyf","5b97f70161c19e00018db4a8","infreq_resp","","","img/orange_2bandit_b.png","68","img/orange_2bandit_b.png","68","test","","","","","","","","","","","4","","","","","","","","",""
"null","157012","SARL_v6","SARL_v62ctjlzyf","5b97f70161c19e00018db4a8","fixation","","","img/fixation.png","null","","","test","","","","","","","","","","","","","","","","","","","",""
"408.89999997615814","157427","SARL_v6","SARL_v62ctjlzyf","5b97f70161c19e00018db4a8","freq","","","img/blue_2bandit_b2.png","70","","70","test","1","","82","","","","circle","square","79","7","4","0.9620253164556962","","","","","","","",""
"null","157837","SARL_v6","SARL_v62ctjlzyf","5b97f70161c19e00018db4a8","freq_resp","","","img/blue_2bandit_b.png","70","img/blue_2bandit_b.png","70","test","","","","","","","","","","","4","","","","","","","","",""
"null","157998","SARL_v6","SARL_v62ctjlzyf","5b97f70161c19e00018db4a8","fixation","","","img/fixation.png","null","","","test","","","","","","","","","","","","","","","","","","","",""
"310.40000009536743","158314","SARL_v6","SARL_v62ctjlzyf","5b97f70161c19e00018db4a8","freq","","","img/blue_2bandit_b2.png","70","","70","test","1","","83","","","","circle","square","80","8","4","0.9625","","","","","","","",""
"null","158822","SARL_v6","SARL_v62ctjlzyf","5b97f70161c19e00018db4a8","freq_resp","","","img/blue_2bandit_b.png","70","img/blue_2bandit_b.png","70","test","","","","","","","","","","","4","","","","","","","","",""
"null","158981","SARL_v6","SARL_v62ctjlzyf","5b97f70161c19e00018db4a8","fixation","","","img/fixation.png","null","","","test","","","","","","","","","","","","","","","","","","","",""
"431.2000000476837","159420","SARL_v6","SARL_v62ctjlzyf","5b97f70161c19e00018db4a8","freq","","","img/blue_2bandit_b2.png","70","","70","test","1","","84","","","","circle","square","81","9","4","0.9629629629629629","","","","","","","",""
"null","159804","SARL_v6","SARL_v62ctjlzyf","5b97f70161c19e00018db4a8","freq_resp","","","img/blue_2bandit_b.png","70","img/blue_2bandit_b.png","70","test","","","","","","","","","","","4","","","","","","","","",""
"null","159965","SARL_v6","SARL_v62ctjlzyf","5b97f70161c19e00018db4a8","fixation","","","img/fixation.png","null","","","test","","","","","","","","","","","","","","","","","","","",""
"368.39999997615814","160339","SARL_v6","SARL_v62ctjlzyf","5b97f70161c19e00018db4a8","freq","","","img/blue_2bandit_b2.png","70","","70","test","1","","85","","","","circle","square","82","10","4","0.9634146341463414","","","","","","","",""
"null","160781","SARL_v6","SARL_v62ctjlzyf","5b97f70161c19e00018db4a8","freq_resp","","","img/blue_2bandit_b.png","70","img/blue_2bandit_b.png","70","test","","","","","","","","","","","4","","","","","","","","",""
"null","160948","SARL_v6","SARL_v62ctjlzyf","5b97f70161c19e00018db4a8","fixation","","","img/fixation.png","null","","","test","","","","","","","","","","","","","","","","","","","",""
"336","161291","SARL_v6","SARL_v62ctjlzyf","5b97f70161c19e00018db4a8","freq","","","img/blue_2bandit_b2.png","70","","70","test","1","","86","","","","circle","square","83","11","4","0.963855421686747","","","","","","","",""
"null","161764","SARL_v6","SARL_v62ctjlzyf","5b97f70161c19e00018db4a8","freq_resp","","","img/blue_2bandit_b.png","70","img/blue_2bandit_b.png","70","test","","","","","","","","","","","4","","","","","","","","",""
"null","161932","SARL_v6","SARL_v62ctjlzyf","5b97f70161c19e00018db4a8","fixation","","","img/fixation.png","null","","","test","","","","","","","","","","","","","","","","","","","",""
"360","162299","SARL_v6","SARL_v62ctjlzyf","5b97f70161c19e00018db4a8","freq","","","img/blue_2bandit_b2.png","70","","70","test","1","","87","","","","circle","square","84","12","4","0.9642857142857143","","","","","","","",""
"null","162765","SARL_v6","SARL_v62ctjlzyf","5b97f70161c19e00018db4a8","freq_resp","","","img/blue_2bandit_b.png","70","img/blue_2bandit_b.png","70","test","","","","","","","","","","","4","","","","","","","","",""
"null","162932","SARL_v6","SARL_v62ctjlzyf","5b97f70161c19e00018db4a8","fixation","","","img/fixation.png","null","","","test","","","","","","","","","","","","","","","","","","","",""
"524.6000000238419","163463","SARL_v6","SARL_v62ctjlzyf","5b97f70161c19e00018db4a8","infreq","","","img/orange_2bandit_b2.png","68","","68","test","1","","88","","","","circle","square","85","13","4","0.9647058823529412","","","","","","","",""
"null","163754","SARL_v6","SARL_v62ctjlzyf","5b97f70161c19e00018db4a8","infreq_resp","","","img/orange_2bandit_b.png","68","img/orange_2bandit_b.png","68","test","","","","","","","","","","","4","","","","","","","","",""
"null","163915","SARL_v6","SARL_v62ctjlzyf","5b97f70161c19e00018db4a8","fixation","","","img/fixation.png","null","","","test","","","","","","","","","","","","","","","","","","","",""
"439.89999997615814","164368","SARL_v6","SARL_v62ctjlzyf","5b97f70161c19e00018db4a8","freq","","","img/blue_2bandit_b2.png","70","","70","test","1","","89","","","","circle","square","86","14","4","0.9651162790697675","","","","","","","",""
"null","164738","SARL_v6","SARL_v62ctjlzyf","5b97f70161c19e00018db4a8","freq_resp","","","img/blue_2bandit_b.png","70","img/blue_2bandit_b.png","70","test","","","","","","","","","","","4","","","","","","","","",""
"null","164900","SARL_v6","SARL_v62ctjlzyf","5b97f70161c19e00018db4a8","fixation","","","img/fixation.png","null","","","test","","","","","","","","","","","","","","","","","","","",""
"326.10000002384186","165232","SARL_v6","SARL_v62ctjlzyf","5b97f70161c19e00018db4a8","freq","","","img/blue_2bandit_b2.png","70","","70","test","1","","90","","","","circle","square","87","15","4","0.9655172413793104","","","","","","","",""
"null","165711","SARL_v6","SARL_v62ctjlzyf","5b97f70161c19e00018db4a8","freq_resp","","","img/blue_2bandit_b.png","70","img/blue_2bandit_b.png","70","test","","","","","","","","","","","4","","","","","","","","",""
"null","165882","SARL_v6","SARL_v62ctjlzyf","5b97f70161c19e00018db4a8","fixation","","","img/fixation.png","null","","","test","","","","","","","","","","","","","","","","","","","",""
"407.7000000476837","166298","SARL_v6","SARL_v62ctjlzyf","5b97f70161c19e00018db4a8","freq","","","img/blue_2bandit_b2.png","70","","70","test","1","","91","","","","circle","square","88","16","4","0.9659090909090909","","","","","","","",""
"null","166698","SARL_v6","SARL_v62ctjlzyf","5b97f70161c19e00018db4a8","freq_resp","","","img/blue_2bandit_b.png","70","img/blue_2bandit_b.png","70","test","","","","","","","","","","","4","","","","","","","","",""
"null","166868","SARL_v6","SARL_v62ctjlzyf","5b97f70161c19e00018db4a8","fixation","","","img/fixation.png","null","","","test","","","","","","","","","","","","","","","","","","","",""
"351.10000002384186","167225","SARL_v6","SARL_v62ctjlzyf","5b97f70161c19e00018db4a8","freq","","","img/blue_2bandit_b2.png","70","","70","test","1","","92","","","","circle","square","89","17","4","0.9662921348314607","","","","","","","",""
"null","167684","SARL_v6","SARL_v62ctjlzyf","5b97f70161c19e00018db4a8","freq_resp","","","img/blue_2bandit_b.png","70","img/blue_2bandit_b.png","70","test","","","","","","","","","","","4","","","","","","","","",""
"null","167850","SARL_v6","SARL_v62ctjlzyf","5b97f70161c19e00018db4a8","fixation","","","img/fixation.png","null","","","test","","","","","","","","","","","","","","","","","","","",""
"367.09999990463257","168222","SARL_v6","SARL_v62ctjlzyf","5b97f70161c19e00018db4a8","freq","","","img/blue_2bandit_b2.png","70","","70","test","1","","93","","","","circle","square","90","18","4","0.9666666666666667","","","","","","","",""
"null","168664","SARL_v6","SARL_v62ctjlzyf","5b97f70161c19e00018db4a8","freq_resp","","","img/blue_2bandit_b.png","70","img/blue_2bandit_b.png","70","test","","","","","","","","","","","4","","","","","","","","",""
"null","168832","SARL_v6","SARL_v62ctjlzyf","5b97f70161c19e00018db4a8","fixation","","","img/fixation.png","null","","","test","","","","","","","","","","","","","","","","","","","",""
"370.5","169206","SARL_v6","SARL_v62ctjlzyf","5b97f70161c19e00018db4a8","freq","","","img/blue_2bandit_b2.png","70","","70","test","1","","94","","","","circle","square","91","19","4","0.967032967032967","","","","","","","",""
"null","169648","SARL_v6","SARL_v62ctjlzyf","5b97f70161c19e00018db4a8","freq_resp","","","img/blue_2bandit_b.png","70","img/blue_2bandit_b.png","70","test","","","","","","","","","","","4","","","","","","","","",""
"null","169818","SARL_v6","SARL_v62ctjlzyf","5b97f70161c19e00018db4a8","fixation","","","img/fixation.png","null","","","test","","","","","","","","","","","","","","","","","","","",""
"888.8999999761581","170712","SARL_v6","SARL_v62ctjlzyf","5b97f70161c19e00018db4a8","rl","","","img/black_2bandit_b2.png","74","","0","test","","","95","","","0","circle","square","","0","4","","74","0","-12","0","-12","circle","4","0"
"null","171487","SARL_v6","SARL_v62ctjlzyf","5b97f70161c19e00018db4a8","feedback","","","<div class=""verylowPoints""> 0 </div>","null","","na","test","","","NaN","","","","","","","","4","","74","","","","","","4",""
"387.5","171884","SARL_v6","SARL_v62ctjlzyf","5b97f70161c19e00018db4a8","freq","","","img/blue_2bandit_b2.png","70","","70","test","1","","96","","","","circle","square","92","1","5","0.967391304347826","","","","","","","",""
"null","172314","SARL_v6","SARL_v62ctjlzyf","5b97f70161c19e00018db4a8","freq_resp","","","img/blue_2bandit_b.png","70","img/blue_2bandit_b.png","70","test","","","","","","","","","","","5","","","","","","","","",""
"null","172482","SARL_v6","SARL_v62ctjlzyf","5b97f70161c19e00018db4a8","fixation","","","img/fixation.png","null","","","test","","","","","","","","","","","","","","","","","","","",""
"329.59999990463257","172821","SARL_v6","SARL_v62ctjlzyf","5b97f70161c19e00018db4a8","freq","","","img/blue_2bandit_b2.png","70","","70","test","1","","97","","","","circle","square","93","2","5","0.967741935483871","","","","","","","",""
"null","173311","SARL_v6","SARL_v62ctjlzyf","5b97f70161c19e00018db4a8","freq_resp","","","img/blue_2bandit_b.png","70","img/blue_2bandit_b.png","70","test","","","","","","","","","","","5","","","","","","","","",""
"null","173480","SARL_v6","SARL_v62ctjlzyf","5b97f70161c19e00018db4a8","fixation","","","img/fixation.png","null","","","test","","","","","","","","","","","","","","","","","","","",""
"388.3000000715256","173875","SARL_v6","SARL_v62ctjlzyf","5b97f70161c19e00018db4a8","freq","","","img/blue_2bandit_b2.png","70","","70","test","1","","98","","","","circle","square","94","3","5","0.9680851063829787","","","","","","","",""
"null","174304","SARL_v6","SARL_v62ctjlzyf","5b97f70161c19e00018db4a8","freq_resp","","","img/blue_2bandit_b.png","70","img/blue_2bandit_b.png","70","test","","","","","","","","","","","5","","","","","","","","",""
"null","174465","SARL_v6","SARL_v62ctjlzyf","5b97f70161c19e00018db4a8","fixation","","","img/fixation.png","null","","","test","","","","","","","","","","","","","","","","","","","",""
"377.3000000715256","174845","SARL_v6","SARL_v62ctjlzyf","5b97f70161c19e00018db4a8","freq","","","img/blue_2bandit_b2.png","70","","70","test","1","","99","","","","circle","square","95","4","5","0.968421052631579","","","","","","","",""
"null","175289","SARL_v6","SARL_v62ctjlzyf","5b97f70161c19e00018db4a8","freq_resp","","","img/blue_2bandit_b.png","70","img/blue_2bandit_b.png","70","test","","","","","","","","","","","5","","","","","","","","",""
"null","175449","SARL_v6","SARL_v62ctjlzyf","5b97f70161c19e00018db4a8","fixation","","","img/fixation.png","null","","","test","","","","","","","","","","","","","","","","","","","",""
"384.89999997615814","175842","SARL_v6","SARL_v62ctjlzyf","5b97f70161c19e00018db4a8","freq","","","img/blue_2bandit_b2.png","70","","70","test","1","","100","","","","circle","square","96","5","5","0.96875","","","","","","","",""
"null","176274","SARL_v6","SARL_v62ctjlzyf","5b97f70161c19e00018db4a8","freq_resp","","","img/blue_2bandit_b.png","70","img/blue_2bandit_b.png","70","test","","","","","","","","","","","5","","","","","","","","",""
"null","176430","SARL_v6","SARL_v62ctjlzyf","5b97f70161c19e00018db4a8","fixation","","","img/fixation.png","null","","","test","","","","","","","","","","","","","","","","","","","",""
"341.6999999284744","176778","SARL_v6","SARL_v62ctjlzyf","5b97f70161c19e00018db4a8","freq","","","img/blue_2bandit_b2.png","70","","70","test","1","","101","","","","circle","square","97","6","5","0.9690721649484536","","","","","","","",""
"null","177243","SARL_v6","SARL_v62ctjlzyf","5b97f70161c19e00018db4a8","freq_resp","","","img/blue_2bandit_b.png","70","img/blue_2bandit_b.png","70","test","","","","","","","","","","","5","","","","","","","","",""
"null","177420","SARL_v6","SARL_v62ctjlzyf","5b97f70161c19e00018db4a8","fixation","","","img/fixation.png","null","","","test","","","","","","","","","","","","","","","","","","","",""
"343","177770","SARL_v6","SARL_v62ctjlzyf","5b97f70161c19e00018db4a8","freq","","","img/blue_2bandit_b2.png","70","","70","test","1","","102","","","","circle","square","98","7","5","0.9693877551020408","","","","","","","",""
"null","178241","SARL_v6","SARL_v62ctjlzyf","5b97f70161c19e00018db4a8","freq_resp","","","img/blue_2bandit_b.png","70","img/blue_2bandit_b.png","70","test","","","","","","","","","","","5","","","","","","","","",""
"null","178398","SARL_v6","SARL_v62ctjlzyf","5b97f70161c19e00018db4a8","fixation","","","img/fixation.png","null","","","test","","","","","","","","","","","","","","","","","","","",""
"379.89999997615814","178785","SARL_v6","SARL_v62ctjlzyf","5b97f70161c19e00018db4a8","freq","","","img/blue_2bandit_b2.png","70","","70","test","1","","103","","","","circle","square","99","8","5","0.9696969696969697","","","","","","","",""
"null","179213","SARL_v6","SARL_v62ctjlzyf","5b97f70161c19e00018db4a8","freq_resp","","","img/blue_2bandit_b.png","70","img/blue_2bandit_b.png","70","test","","","","","","","","","","","5","","","","","","","","",""
"null","179382","SARL_v6","SARL_v62ctjlzyf","5b97f70161c19e00018db4a8","fixation","","","img/fixation.png","null","","","test","","","","","","","","","","","","","","","","","","","",""
"365.10000002384186","179753","SARL_v6","SARL_v62ctjlzyf","5b97f70161c19e00018db4a8","freq","","","img/blue_2bandit_b2.png","70","","70","test","1","","104","","","","circle","square","100","9","5","0.97","","","","","","","",""
"null","180195","SARL_v6","SARL_v62ctjlzyf","5b97f70161c19e00018db4a8","freq_resp","","","img/blue_2bandit_b.png","70","img/blue_2bandit_b.png","70","test","","","","","","","","","","","5","","","","","","","","",""
"null","180370","SARL_v6","SARL_v62ctjlzyf","5b97f70161c19e00018db4a8","fixation","","","img/fixation.png","null","","","test","","","","","","","","","","","","","","","","","","","",""
"384.5","180762","SARL_v6","SARL_v62ctjlzyf","5b97f70161c19e00018db4a8","freq","","","img/blue_2bandit_b2.png","70","","70","test","1","","105","","","","circle","square","101","10","5","0.9702970297029703","","","","","","","",""
"null","181195","SARL_v6","SARL_v62ctjlzyf","5b97f70161c19e00018db4a8","freq_resp","","","img/blue_2bandit_b.png","70","img/blue_2bandit_b.png","70","test","","","","","","","","","","","5","","","","","","","","",""
"null","181365","SARL_v6","SARL_v62ctjlzyf","5b97f70161c19e00018db4a8","fixation","","","img/fixation.png","null","","","test","","","","","","","","","","","","","","","","","","","",""
"398.5","181771","SARL_v6","SARL_v62ctjlzyf","5b97f70161c19e00018db4a8","infreq","","","img/orange_2bandit_b2.png","68","","68","test","1","","106","","","","circle","square","102","11","5","0.9705882352941176","","","","","","","",""
"null","182185","SARL_v6","SARL_v62ctjlzyf","5b97f70161c19e00018db4a8","infreq_resp","","","img/orange_2bandit_b.png","68","img/orange_2bandit_b.png","68","test","","","","","","","","","","","5","","","","","","","","",""
"null","182347","SARL_v6","SARL_v62ctjlzyf","5b97f70161c19e00018db4a8","fixation","","","img/fixation.png","null","","","test","","","","","","","","","","","","","","","","","","","",""
"344.3000000715256","182699","SARL_v6","SARL_v62ctjlzyf","5b97f70161c19e00018db4a8","freq","","","img/blue_2bandit_b2.png","70","","70","test","1","","107","","","","circle","square","103","12","5","0.970873786407767","","","","","","","",""
"null","183164","SARL_v6","SARL_v62ctjlzyf","5b97f70161c19e00018db4a8","freq_resp","","","img/blue_2bandit_b.png","70","img/blue_2bandit_b.png","70","test","","","","","","","","","","","5","","","","","","","","",""
"null","183333","SARL_v6","SARL_v62ctjlzyf","5b97f70161c19e00018db4a8","fixation","","","img/fixation.png","null","","","test","","","","","","","","","","","","","","","","","","","",""
"248.70000004768372","183589","SARL_v6","SARL_v62ctjlzyf","5b97f70161c19e00018db4a8","freq","","","img/blue_2bandit_b2.png","70","","70","test","1","","108","","","","circle","square","104","13","5","0.9711538461538461","","","","","","","",""
"null","184149","SARL_v6","SARL_v62ctjlzyf","5b97f70161c19e00018db4a8","freq_resp","","","img/blue_2bandit_b.png","70","img/blue_2bandit_b.png","70","test","","","","","","","","","","","5","","","","","","","","",""
"null","184313","SARL_v6","SARL_v62ctjlzyf","5b97f70161c19e00018db4a8","fixation","","","img/fixation.png","null","","","test","","","","","","","","","","","","","","","","","","","",""
"339","184657","SARL_v6","SARL_v62ctjlzyf","5b97f70161c19e00018db4a8","freq","","","img/blue_2bandit_b2.png","70","","70","test","1","","109","","","","circle","square","105","14","5","0.9714285714285714","","","","","","","",""
"null","185127","SARL_v6","SARL_v62ctjlzyf","5b97f70161c19e00018db4a8","freq_resp","","","img/blue_2bandit_b.png","70","img/blue_2bandit_b.png","70","test","","","","","","","","","","","5","","","","","","","","",""
"null","185298","SARL_v6","SARL_v62ctjlzyf","5b97f70161c19e00018db4a8","fixation","","","img/fixation.png","null","","","test","","","","","","","","","","","","","","","","","","","",""
"314.2000000476837","185620","SARL_v6","SARL_v62ctjlzyf","5b97f70161c19e00018db4a8","freq","","","img/blue_2bandit_b2.png","70","","70","test","1","","110","","","","circle","square","106","15","5","0.9716981132075472","","","","","","","",""
"null","186126","SARL_v6","SARL_v62ctjlzyf","5b97f70161c19e00018db4a8","freq_resp","","","img/blue_2bandit_b.png","70","img/blue_2bandit_b.png","70","test","","","","","","","","","","","5","","","","","","","","",""
"null","186286","SARL_v6","SARL_v62ctjlzyf","5b97f70161c19e00018db4a8","fixation","","","img/fixation.png","null","","","test","","","","","","","","","","","","","","","","","","","",""
"285","186577","SARL_v6","SARL_v62ctjlzyf","5b97f70161c19e00018db4a8","infreq","","","img/orange_2bandit_b2.png","70","","68","test","0","","111","","","","circle","square","107","16","5","0.9626168224299065","","","","","","","",""
"null","187106","SARL_v6","SARL_v62ctjlzyf","5b97f70161c19e00018db4a8","infreq_resp","","","img/orange_2bandit_b.png","70","img/orange_2bandit_b.png","68","test","","","","","","","","","","","5","","","","","","","","",""
"null","187264","SARL_v6","SARL_v62ctjlzyf","5b97f70161c19e00018db4a8","fixation","","","img/fixation.png","null","","","test","","","","","","","","","","","","","","","","","","","",""
"458.10000002384186","187731","SARL_v6","SARL_v62ctjlzyf","5b97f70161c19e00018db4a8","freq","","","img/blue_2bandit_b2.png","70","","70","test","1","","112","","","","circle","square","108","17","5","0.9629629629629629","","","","","","","",""
"null","188087","SARL_v6","SARL_v62ctjlzyf","5b97f70161c19e00018db4a8","freq_resp","","","img/blue_2bandit_b.png","70","img/blue_2bandit_b.png","70","test","","","","","","","","","","","5","","","","","","","","",""
"null","188248","SARL_v6","SARL_v62ctjlzyf","5b97f70161c19e00018db4a8","fixation","","","img/fixation.png","null","","","test","","","","","","","","","","","","","","","","","","","",""
"683.6000000238419","188938","SARL_v6","SARL_v62ctjlzyf","5b97f70161c19e00018db4a8","freq","","","img/blue_2bandit_b2.png","70","","70","test","1","","113","","","","circle","square","109","18","5","0.963302752293578","","","","","","","",""
"null","189065","SARL_v6","SARL_v62ctjlzyf","5b97f70161c19e00018db4a8","freq_resp","","","img/blue_2bandit_b.png","70","img/blue_2bandit_b.png","70","test","","","","","","","","","","","5","","","","","","","","",""
"null","189228","SARL_v6","SARL_v62ctjlzyf","5b97f70161c19e00018db4a8","fixation","","","img/fixation.png","null","","","test","","","","","","","","","","","","","","","","","","","",""
"463.2999999523163","189697","SARL_v6","SARL_v62ctjlzyf","5b97f70161c19e00018db4a8","freq","","","img/blue_2bandit_b2.png","70","","70","test","1","","114","","","","circle","square","110","19","5","0.9636363636363636","","","","","","","",""
"null","190059","SARL_v6","SARL_v62ctjlzyf","5b97f70161c19e00018db4a8","freq_resp","","","img/blue_2bandit_b.png","70","img/blue_2bandit_b.png","70","test","","","","","","","","","","","5","","","","","","","","",""
"null","190232","SARL_v6","SARL_v62ctjlzyf","5b97f70161c19e00018db4a8","fixation","","","img/fixation.png","null","","","test","","","","","","","","","","","","","","","","","","","",""
"345.2000000476837","190588","SARL_v6","SARL_v62ctjlzyf","5b97f70161c19e00018db4a8","freq","","","img/blue_2bandit_b2.png","70","","70","test","1","","115","","","","circle","square","111","20","5","0.963963963963964","","","","","","","",""
"null","191062","SARL_v6","SARL_v62ctjlzyf","5b97f70161c19e00018db4a8","freq_resp","","","img/blue_2bandit_b.png","70","img/blue_2bandit_b.png","70","test","","","","","","","","","","","5","","","","","","","","",""
"null","191232","SARL_v6","SARL_v62ctjlzyf","5b97f70161c19e00018db4a8","fixation","","","img/fixation.png","null","","","test","","","","","","","","","","","","","","","","","","","",""
"380.7999999523163","191618","SARL_v6","SARL_v62ctjlzyf","5b97f70161c19e00018db4a8","freq","","","img/blue_2bandit_b2.png","70","","70","test","1","","116","","","","circle","square","112","21","5","0.9642857142857143","","","","","","","",""
"null","192047","SARL_v6","SARL_v62ctjlzyf","5b97f70161c19e00018db4a8","freq_resp","","","img/blue_2bandit_b.png","70","img/blue_2bandit_b.png","70","test","","","","","","","","","","","5","","","","","","","","",""
"null","192216","SARL_v6","SARL_v62ctjlzyf","5b97f70161c19e00018db4a8","fixation","","","img/fixation.png","null","","","test","","","","","","","","","","","","","","","","","","","",""
"394.8000000715256","192620","SARL_v6","SARL_v62ctjlzyf","5b97f70161c19e00018db4a8","freq","","","img/blue_2bandit_b2.png","70","","70","test","1","","117","","","","circle","square","113","22","5","0.9646017699115044","","","","","","","",""
"null","193039","SARL_v6","SARL_v62ctjlzyf","5b97f70161c19e00018db4a8","freq_resp","","","img/blue_2bandit_b.png","70","img/blue_2bandit_b.png","70","test","","","","","","","","","","","5","","","","","","","","",""
"null","193198","SARL_v6","SARL_v62ctjlzyf","5b97f70161c19e00018db4a8","fixation","","","img/fixation.png","null","","","test","","","","","","","","","","","","","","","","","","","",""
"348.8000000715256","193553","SARL_v6","SARL_v62ctjlzyf","5b97f70161c19e00018db4a8","freq","","","img/blue_2bandit_b2.png","70","","70","test","1","","118","","","","circle","square","114","23","5","0.9649122807017544","","","","","","","",""
"null","194011","SARL_v6","SARL_v62ctjlzyf","5b97f70161c19e00018db4a8","freq_resp","","","img/blue_2bandit_b.png","70","img/blue_2bandit_b.png","70","test","","","","","","","","","","","5","","","","","","","","",""
"null","194183","SARL_v6","SARL_v62ctjlzyf","5b97f70161c19e00018db4a8","fixation","","","img/fixation.png","null","","","test","","","","","","","","","","","","","","","","","","","",""
"1259.7999999523163","195450","SARL_v6","SARL_v62ctjlzyf","5b97f70161c19e00018db4a8","rl","","","img/black_2bandit_b2.png","74","","0","test","","","119","","","4","circle","square","","0","5","","74","4","-7","4","-7","circle","5","0"
"null","196209","SARL_v6","SARL_v62ctjlzyf","5b97f70161c19e00018db4a8","feedback","","","<div class=""veryhighPoints""> 4 </div>","null","","na","test","","","NaN","","","","","","","","5","","74","","","","","","5",""
"491","196707","SARL_v6","SARL_v62ctjlzyf","5b97f70161c19e00018db4a8","freq","","","img/blue_2bandit_b2.png","70","","70","test","1","","120","","","","circle","square","115","1","6","0.9652173913043478","","","","","","","",""
"null","197022","SARL_v6","SARL_v62ctjlzyf","5b97f70161c19e00018db4a8","freq_resp","","","img/blue_2bandit_b.png","70","img/blue_2bandit_b.png","70","test","","","","","","","","","","","6","","","","","","","","",""
"null","197182","SARL_v6","SARL_v62ctjlzyf","5b97f70161c19e00018db4a8","fixation","","","img/fixation.png","null","","","test","","","","","","","","","","","","","","","","","","","",""
"419.8000000715256","197608","SARL_v6","SARL_v62ctjlzyf","5b97f70161c19e00018db4a8","freq","","","img/blue_2bandit_b2.png","70","","70","test","1","","121","","","","circle","square","116","2","6","0.9655172413793104","","","","","","","",""
"null","198001","SARL_v6","SARL_v62ctjlzyf","5b97f70161c19e00018db4a8","freq_resp","","","img/blue_2bandit_b.png","70","img/blue_2bandit_b.png","70","test","","","","","","","","","","","6","","","","","","","","",""
"null","198164","SARL_v6","SARL_v62ctjlzyf","5b97f70161c19e00018db4a8","fixation","","","img/fixation.png","null","","","test","","","","","","","","","","","","","","","","","","","",""
"383.10000002384186","198553","SARL_v6","SARL_v62ctjlzyf","5b97f70161c19e00018db4a8","freq","","","img/blue_2bandit_b2.png","70","","70","test","1","","122","","","","circle","square","117","3","6","0.9658119658119658","","","","","","","",""
"null","198981","SARL_v6","SARL_v62ctjlzyf","5b97f70161c19e00018db4a8","freq_resp","","","img/blue_2bandit_b.png","70","img/blue_2bandit_b.png","70","test","","","","","","","","","","","6","","","","","","","","",""
"null","199148","SARL_v6","SARL_v62ctjlzyf","5b97f70161c19e00018db4a8","fixation","","","img/fixation.png","null","","","test","","","","","","","","","","","","","","","","","","","",""
"374.2999999523163","199528","SARL_v6","SARL_v62ctjlzyf","5b97f70161c19e00018db4a8","freq","","","img/blue_2bandit_b2.png","70","","70","test","1","","123","","","","circle","square","118","4","6","0.9661016949152542","","","","","","","",""
"null","199966","SARL_v6","SARL_v62ctjlzyf","5b97f70161c19e00018db4a8","freq_resp","","","img/blue_2bandit_b.png","70","img/blue_2bandit_b.png","70","test","","","","","","","","","","","6","","","","","","","","",""
"null","200136","SARL_v6","SARL_v62ctjlzyf","5b97f70161c19e00018db4a8","fixation","","","img/fixation.png","null","","","test","","","","","","","","","","","","","","","","","","","",""
"370.60000002384186","200512","SARL_v6","SARL_v62ctjlzyf","5b97f70161c19e00018db4a8","freq","","","img/blue_2bandit_b2.png","70","","70","test","1","","124","","","","circle","square","119","5","6","0.9663865546218487","","","","","","","",""
"null","200963","SARL_v6","SARL_v62ctjlzyf","5b97f70161c19e00018db4a8","freq_resp","","","img/blue_2bandit_b.png","70","img/blue_2bandit_b.png","70","test","","","","","","","","","","","6","","","","","","","","",""
"null","201132","SARL_v6","SARL_v62ctjlzyf","5b97f70161c19e00018db4a8","fixation","","","img/fixation.png","null","","","test","","","","","","","","","","","","","","","","","","","",""
"422.2000000476837","201561","SARL_v6","SARL_v62ctjlzyf","5b97f70161c19e00018db4a8","freq","","","img/blue_2bandit_b2.png","70","","70","test","1","","125","","","","circle","square","120","6","6","0.9666666666666667","","","","","","","",""
"null","201956","SARL_v6","SARL_v62ctjlzyf","5b97f70161c19e00018db4a8","freq_resp","","","img/blue_2bandit_b.png","70","img/blue_2bandit_b.png","70","test","","","","","","","","","","","6","","","","","","","","",""
"null","202115","SARL_v6","SARL_v62ctjlzyf","5b97f70161c19e00018db4a8","fixation","","","img/fixation.png","null","","","test","","","","","","","","","","","","","","","","","","","",""
"406.7000000476837","202528","SARL_v6","SARL_v62ctjlzyf","5b97f70161c19e00018db4a8","freq","","","img/blue_2bandit_b2.png","70","","70","test","1","","126","","","","circle","square","121","7","6","0.9669421487603306","","","","","","","",""
"null","202935","SARL_v6","SARL_v62ctjlzyf","5b97f70161c19e00018db4a8","freq_resp","","","img/blue_2bandit_b.png","70","img/blue_2bandit_b.png","70","test","","","","","","","","","","","6","","","","","","","","",""
"null","203098","SARL_v6","SARL_v62ctjlzyf","5b97f70161c19e00018db4a8","fixation","","","img/fixation.png","null","","","test","","","","","","","","","","","","","","","","","","","",""
"399","203502","SARL_v6","SARL_v62ctjlzyf","5b97f70161c19e00018db4a8","freq","","","img/blue_2bandit_b2.png","70","","70","test","1","","127","","","","circle","square","122","8","6","0.9672131147540983","","","","","","","",""
"null","203915","SARL_v6","SARL_v62ctjlzyf","5b97f70161c19e00018db4a8","freq_resp","","","img/blue_2bandit_b.png","70","img/blue_2bandit_b.png","70","test","","","","","","","","","","","6","","","","","","","","",""
"null","204082","SARL_v6","SARL_v62ctjlzyf","5b97f70161c19e00018db4a8","fixation","","","img/fixation.png","null","","","test","","","","","","","","","","","","","","","","","","","",""
"392.10000002384186","204478","SARL_v6","SARL_v62ctjlzyf","5b97f70161c19e00018db4a8","freq","","","img/blue_2bandit_b2.png","70","","70","test","1","","128","","","","circle","square","123","9","6","0.967479674796748","","","","","","","",""
"null","204897","SARL_v6","SARL_v62ctjlzyf","5b97f70161c19e00018db4a8","freq_resp","","","img/blue_2bandit_b.png","70","img/blue_2bandit_b.png","70","test","","","","","","","","","","","6","","","","","","","","",""
"null","205062","SARL_v6","SARL_v62ctjlzyf","5b97f70161c19e00018db4a8","fixation","","","img/fixation.png","null","","","test","","","","","","","","","","","","","","","","","","","",""
"437.1999999284744","205507","SARL_v6","SARL_v62ctjlzyf","5b97f70161c19e00018db4a8","infreq","","","img/orange_2bandit_b2.png","68","","68","test","1","","129","","","","circle","square","124","10","6","0.967741935483871","","","","","","","",""
"null","205885","SARL_v6","SARL_v62ctjlzyf","5b97f70161c19e00018db4a8","infreq_resp","","","img/orange_2bandit_b.png","68","img/orange_2bandit_b.png","68","test","","","","","","","","","","","6","","","","","","","","",""
"null","206048","SARL_v6","SARL_v62ctjlzyf","5b97f70161c19e00018db4a8","fixation","","","img/fixation.png","null","","","test","","","","","","","","","","","","","","","","","","","",""
"330.60000002384186","206387","SARL_v6","SARL_v62ctjlzyf","5b97f70161c19e00018db4a8","freq","","","img/blue_2bandit_b2.png","70","","70","test","1","","130","","","","circle","square","125","11","6","0.968","","","","","","","",""
