"rt","time_elapsed","expId","subject","prolificID","trialType","rlType","attType","stimulus","key_press","stim","corrresp","phase","corr","pracCounter","trialNum","rewardOne","rewardTwo","reward","bandOne","bandTwo","attentionNum","attentionRunNum","blockNum","performance","bandChosen","circleVal","squareVal","bandOneVal","bandTwoVal","shapeChosen","rlNum","badFlag"
"9188.400000095367","9192","SARL_v6","SARL_v67vp01wbf","63dd3dd2593c92be97d8dbde","","","","","","","","","","","","","","","","","","","","","","","","","","","",""
"","11495","SARL_v6","SARL_v67vp01wbf","63dd3dd2593c92be97d8dbde","fullscreen","fullscreen","fullscreen","","","","","","","","","","","","","","","","","","","","","","","","",""
"24345.200000286102","35842","SARL_v6","SARL_v67vp01wbf","63dd3dd2593c92be97d8dbde","","","","","","","","","","","","","","","","","","","","","","","","","","","",""
"null","36646","SARL_v6","SARL_v67vp01wbf","63dd3dd2593c92be97d8dbde","freqPrac","","","img/blue_2bandit_a2.png","null","img/blue_2bandit_a2.png","70","prac","0","1","","","","","","","","","","","","","","","","","",""
"null","37648","SARL_v6","SARL_v67vp01wbf","63dd3dd2593c92be97d8dbde","feedback","","","img/tooSlow.png","null","","na","prac","","","","","","","","","","","","","","","","","","","",""
"null","37801","SARL_v6","SARL_v67vp01wbf","63dd3dd2593c92be97d8dbde","fixation","","","img/fixation.png","null","","","prac","","","","","","","","","","","","","","","","","","","",""
"611.6999998092651","38414","SARL_v6","SARL_v67vp01wbf","63dd3dd2593c92be97d8dbde","infreqPrac","","","img/orange_2bandit_a2.png","68","img/orange_2bandit_a2.png","68","prac","1","1","","","","","","","","","","","","","","","","","",""
"611.6999998092651","38604","SARL_v6","SARL_v67vp01wbf","63dd3dd2593c92be97d8dbde","infreqPrac_resp","","","img/orange_2bandit_a.png","68","img/orange_2bandit_a.png","68","prac","","","","","","","","","","","","","","","","","","","",""
"null","38757","SARL_v6","SARL_v67vp01wbf","63dd3dd2593c92be97d8dbde","fixation","","","img/fixation.png","null","","","prac","","","","","","","","","","","","","","","","","","","",""
"455.5","39214","SARL_v6","SARL_v67vp01wbf","63dd3dd2593c92be97d8dbde","freqPrac","","","img/blue_2bandit_a2.png","70","img/blue_2bandit_a2.png","70","prac","1","1","","","","","","","","","","","","","","","","","",""
"455.5","39560","SARL_v6","SARL_v67vp01wbf","63dd3dd2593c92be97d8dbde","freqPrac_resp","","","img/blue_2bandit_a.png","70","img/blue_2bandit_a.png","70","prac","","","","","","","","","","","","","","","","","","","",""
"null","39712","SARL_v6","SARL_v67vp01wbf","63dd3dd2593c92be97d8dbde","fixation","","","img/fixation.png","null","","","prac","","","","","","","","","","","","","","","","","","","",""
"436.5","40150","SARL_v6","SARL_v67vp01wbf","63dd3dd2593c92be97d8dbde","infreqPrac","","","img/orange_2bandit_a2.png","68","img/orange_2bandit_a2.png","68","prac","1","1","","","","","","","","","","","","","","","","","",""
"436.5","40515","SARL_v6","SARL_v67vp01wbf","63dd3dd2593c92be97d8dbde","infreqPrac_resp","","","img/orange_2bandit_a.png","68","img/orange_2bandit_a.png","68","prac","","","","","","","","","","","","","","","","","","","",""
"null","40667","SARL_v6","SARL_v67vp01wbf","63dd3dd2593c92be97d8dbde","fixation","","","img/fixation.png","null","","","prac","","","","","","","","","","","","","","","","","","","",""
"361.2999997138977","41030","SARL_v6","SARL_v67vp01wbf","63dd3dd2593c92be97d8dbde","infreqPrac","","","img/orange_2bandit_a2.png","68","img/orange_2bandit_a2.png","68","prac","1","1","","","","","","","","","","","","","","","","","",""
"361.2999997138977","41472","SARL_v6","SARL_v67vp01wbf","63dd3dd2593c92be97d8dbde","infreqPrac_resp","","","img/orange_2bandit_a.png","68","img/orange_2bandit_a.png","68","prac","","","","","","","","","","","","","","","","","","","",""
"null","41624","SARL_v6","SARL_v67vp01wbf","63dd3dd2593c92be97d8dbde","fixation","","","img/fixation.png","null","","","prac","","","","","","","","","","","","","","","","","","","",""
"324.7000002861023","41950","SARL_v6","SARL_v67vp01wbf","63dd3dd2593c92be97d8dbde","infreqPrac","","","img/orange_2bandit_a2.png","68","img/orange_2bandit_a2.png","68","prac","1","1","","","","","","","","","","","","","","","","","",""
"324.7000002861023","42428","SARL_v6","SARL_v67vp01wbf","63dd3dd2593c92be97d8dbde","infreqPrac_resp","","","img/orange_2bandit_a.png","68","img/orange_2bandit_a.png","68","prac","","","","","","","","","","","","","","","","","","","",""
"null","42580","SARL_v6","SARL_v67vp01wbf","63dd3dd2593c92be97d8dbde","fixation","","","img/fixation.png","null","","","prac","","","","","","","","","","","","","","","","","","","",""
"392.80000019073486","42974","SARL_v6","SARL_v67vp01wbf","63dd3dd2593c92be97d8dbde","freqPrac","","","img/blue_2bandit_a2.png","70","img/blue_2bandit_a2.png","70","prac","1","1","","","","","","","","","","","","","","","","","",""
"392.80000019073486","43384","SARL_v6","SARL_v67vp01wbf","63dd3dd2593c92be97d8dbde","freqPrac_resp","","","img/blue_2bandit_a.png","70","img/blue_2bandit_a.png","70","prac","","","","","","","","","","","","","","","","","","","",""
"null","43537","SARL_v6","SARL_v67vp01wbf","63dd3dd2593c92be97d8dbde","fixation","","","img/fixation.png","null","","","prac","","","","","","","","","","","","","","","","","","","",""
"331.5","43871","SARL_v6","SARL_v67vp01wbf","63dd3dd2593c92be97d8dbde","infreqPrac","","","img/orange_2bandit_a2.png","68","img/orange_2bandit_a2.png","68","prac","1","1","","","","","","","","","","","","","","","","","",""
"331.5","44342","SARL_v6","SARL_v67vp01wbf","63dd3dd2593c92be97d8dbde","infreqPrac_resp","","","img/orange_2bandit_a.png","68","img/orange_2bandit_a.png","68","prac","","","","","","","","","","","","","","","","","","","",""
"null","44495","SARL_v6","SARL_v67vp01wbf","63dd3dd2593c92be97d8dbde","fixation","","","img/fixation.png","null","","","prac","","","","","","","","","","","","","","","","","","","",""
"326.2000002861023","44823","SARL_v6","SARL_v67vp01wbf","63dd3dd2593c92be97d8dbde","freqPrac","","","img/blue_2bandit_a2.png","68","img/blue_2bandit_a2.png","70","prac","0","2","","","","","","","","","","","","","","","","","",""
"326.2000002861023","45298","SARL_v6","SARL_v67vp01wbf","63dd3dd2593c92be97d8dbde","freqPrac_resp","","","img/blue_2bandit_a.png","68","img/blue_2bandit_a.png","70","prac","","","","","","","","","","","","","","","","","","","",""
"null","46300","SARL_v6","SARL_v67vp01wbf","63dd3dd2593c92be97d8dbde","feedback","","","img/wrongKey.png","null","","na","prac","","","","","","","","","","","","","","","","","","","",""
"null","46452","SARL_v6","SARL_v67vp01wbf","63dd3dd2593c92be97d8dbde","fixation","","","img/fixation.png","null","","","prac","","","","","","","","","","","","","","","","","","","",""
"505.40000009536743","46959","SARL_v6","SARL_v67vp01wbf","63dd3dd2593c92be97d8dbde","freqPrac","","","img/blue_2bandit_a2.png","70","img/blue_2bandit_a2.png","70","prac","1","2","","","","","","","","","","","","","","","","","",""
"505.40000009536743","47255","SARL_v6","SARL_v67vp01wbf","63dd3dd2593c92be97d8dbde","freqPrac_resp","","","img/blue_2bandit_a.png","70","img/blue_2bandit_a.png","70","prac","","","","","","","","","","","","","","","","","","","",""
"null","47408","SARL_v6","SARL_v67vp01wbf","63dd3dd2593c92be97d8dbde","fixation","","","img/fixation.png","null","","","prac","","","","","","","","","","","","","","","","","","","",""
"32699","80108","SARL_v6","SARL_v67vp01wbf","63dd3dd2593c92be97d8dbde","","","","","","","","prac","","","","","","","","","","","","","","","","","","","",""
"1005.5999999046326","81116","SARL_v6","SARL_v67vp01wbf","63dd3dd2593c92be97d8dbde","rlPractice","","","img/black_2bandit_a2.png","75","img/black_2bandit_a2.png","","prac","","","0","","","","","","","","","","","","","","","","",""
"null","81869","SARL_v6","SARL_v67vp01wbf","63dd3dd2593c92be97d8dbde","feedback","","","<div class=""veryhighPoints""> 10 </div>","null","","na","prac","","","1","10","-14","10","","","","","","","","","","","","","",""
"null","82022","SARL_v6","SARL_v67vp01wbf","63dd3dd2593c92be97d8dbde","fixation","","","img/fixation.png","null","","","prac","","","","","","","","","","","","","","","","","","","",""
"413","82436","SARL_v6","SARL_v67vp01wbf","63dd3dd2593c92be97d8dbde","rlPractice","","","img/black_2bandit_a2.png","75","img/black_2bandit_a2.png","","prac","","","1","","","","","","","","","","","","","","","","",""
"null","83190","SARL_v6","SARL_v67vp01wbf","63dd3dd2593c92be97d8dbde","feedback","","","<div class=""veryhighPoints""> 5 </div>","null","","na","prac","","","2","5","-5","5","","","","","","","","","","","","","",""
"null","83342","SARL_v6","SARL_v67vp01wbf","63dd3dd2593c92be97d8dbde","fixation","","","img/fixation.png","null","","","prac","","","","","","","","","","","","","","","","","","","",""
"261","83604","SARL_v6","SARL_v67vp01wbf","63dd3dd2593c92be97d8dbde","rlPractice","","","img/black_2bandit_a2.png","75","img/black_2bandit_a2.png","","prac","","","2","","","","","","","","","","","","","","","","",""
"null","84357","SARL_v6","SARL_v67vp01wbf","63dd3dd2593c92be97d8dbde","feedback","","","<div class=""veryhighPoints""> 30 </div>","null","","na","prac","","","3","30","2","30","","","","","","","","","","","","","",""
"null","84510","SARL_v6","SARL_v67vp01wbf","63dd3dd2593c92be97d8dbde","fixation","","","img/fixation.png","null","","","prac","","","","","","","","","","","","","","","","","","","",""
"684.5","85196","SARL_v6","SARL_v67vp01wbf","63dd3dd2593c92be97d8dbde","rlPractice","","","img/black_2bandit_a2.png","75","img/black_2bandit_a2.png","","prac","","","3","","","","","","","","","","","","","","","","",""
"null","85948","SARL_v6","SARL_v67vp01wbf","63dd3dd2593c92be97d8dbde","feedback","","","<div class=""verylowPoints""> -2 </div>","null","","na","prac","","","4","-2","20","-2","","","","","","","","","","","","","",""
"null","86100","SARL_v6","SARL_v67vp01wbf","63dd3dd2593c92be97d8dbde","fixation","","","img/fixation.png","null","","","prac","","","","","","","","","","","","","","","","","","","",""
"9000.699999809265","95102","SARL_v6","SARL_v67vp01wbf","63dd3dd2593c92be97d8dbde","","","","","","","","prac","","","","","","","","","","","","","","","","","","","",""
"422.40000009536743","95526","SARL_v6","SARL_v67vp01wbf","63dd3dd2593c92be97d8dbde","mixAttFreqPrac","","","img/blue_2bandit_a2.png","70","img/blue_2bandit_a2.png","70","prac","","","1","","","","","","","","","","","","","","","","",""
"422.40000009536743","95905","SARL_v6","SARL_v67vp01wbf","63dd3dd2593c92be97d8dbde","freqPrac_resp","","","img/blue_2bandit_a.png","70","img/blue_2bandit_a.png","70","prac","","","1","","","","","","","","","","","","","","","","",""
"null","96058","SARL_v6","SARL_v67vp01wbf","63dd3dd2593c92be97d8dbde","fixation","","","img/fixation.png","null","","","prac","","","","","","","","","","","","","","","","","","","",""
"362.40000009536743","96422","SARL_v6","SARL_v67vp01wbf","63dd3dd2593c92be97d8dbde","mixAttInfreqPrac","","","img/orange_2bandit_a2.png","68","img/orange_2bandit_a2.png","68","prac","","","2","","","","","","","","","","","","","","","","",""
"362.40000009536743","96862","SARL_v6","SARL_v67vp01wbf","63dd3dd2593c92be97d8dbde","infreqPrac_resp","","","img/orange_2bandit_a.png","68","img/blue_2bandit_a.png","68","prac","","","2","","","","","","","","","","","","","","","","",""
"null","97014","SARL_v6","SARL_v67vp01wbf","63dd3dd2593c92be97d8dbde","fixation","","","img/fixation.png","null","","","prac","","","","","","","","","","","","","","","","","","","",""
"358.40000009536743","97375","SARL_v6","SARL_v67vp01wbf","63dd3dd2593c92be97d8dbde","mixAttInfreqPrac","","","img/orange_2bandit_a2.png","68","img/orange_2bandit_a2.png","68","prac","","","3","","","","","","","","","","","","","","","","",""
"358.40000009536743","97818","SARL_v6","SARL_v67vp01wbf","63dd3dd2593c92be97d8dbde","infreqPrac_resp","","","img/orange_2bandit_a.png","68","img/blue_2bandit_a.png","68","prac","","","3","","","","","","","","","","","","","","","","",""
"null","97970","SARL_v6","SARL_v67vp01wbf","63dd3dd2593c92be97d8dbde","fixation","","","img/fixation.png","null","","","prac","","","","","","","","","","","","","","","","","","","",""
"306.19999980926514","98278","SARL_v6","SARL_v67vp01wbf","63dd3dd2593c92be97d8dbde","mixAttInfreqPrac","","","img/orange_2bandit_a2.png","68","img/orange_2bandit_a2.png","68","prac","","","4","","","","","","","","","","","","","","","","",""
"306.19999980926514","98775","SARL_v6","SARL_v67vp01wbf","63dd3dd2593c92be97d8dbde","infreqPrac_resp","","","img/orange_2bandit_a.png","68","img/blue_2bandit_a.png","68","prac","","","4","","","","","","","","","","","","","","","","",""
"null","98928","SARL_v6","SARL_v67vp01wbf","63dd3dd2593c92be97d8dbde","fixation","","","img/fixation.png","null","","","prac","","","","","","","","","","","","","","","","","","","",""
"325","99254","SARL_v6","SARL_v67vp01wbf","63dd3dd2593c92be97d8dbde","mixAttFreqPrac","","","img/blue_2bandit_a2.png","70","img/blue_2bandit_a2.png","70","prac","","","5","","","","","","","","","","","","","","","","",""
"325","99732","SARL_v6","SARL_v67vp01wbf","63dd3dd2593c92be97d8dbde","freqPrac_resp","","","img/blue_2bandit_a.png","70","img/blue_2bandit_a.png","70","prac","","","5","","","","","","","","","","","","","","","","",""
"null","99884","SARL_v6","SARL_v67vp01wbf","63dd3dd2593c92be97d8dbde","fixation","","","img/fixation.png","null","","","prac","","","","","","","","","","","","","","","","","","","",""
"584.8000001907349","100470","SARL_v6","SARL_v67vp01wbf","63dd3dd2593c92be97d8dbde","mixRLPractice","","","img/black_2bandit_a2.png","74","img/black_2bandit_a2.png","","prac","","","5","","","","","","","","","","","","","","","","",""
"null","101223","SARL_v6","SARL_v67vp01wbf","63dd3dd2593c92be97d8dbde","feedback","","","<div class=""veryhighPoints_sq""> 10 </div>","null","","na","prac","","","6","-14","10","-14","","","","","","","","","","","","","",""
"null","101376","SARL_v6","SARL_v67vp01wbf","63dd3dd2593c92be97d8dbde","fixation","","","img/fixation.png","null","","","prac","","","","","","","","","","","","","","","","","","","",""
"null","102178","SARL_v6","SARL_v67vp01wbf","63dd3dd2593c92be97d8dbde","mixAttFreqPrac","","","img/blue_2bandit_a2.png","null","img/blue_2bandit_a2.png","70","prac","","","7","","","","","","","","","","","","","","","","",""
"18.90000009536743","102330","SARL_v6","SARL_v67vp01wbf","63dd3dd2593c92be97d8dbde","fixation","","","img/fixation.png","70","","","prac","","","","","","","","","","","","","","","","","","","",""
"null","103133","SARL_v6","SARL_v67vp01wbf","63dd3dd2593c92be97d8dbde","mixAttInfreqPrac","","","img/orange_2bandit_a2.png","null","img/orange_2bandit_a2.png","68","prac","","","8","","","","","","","","","","","","","","","","",""
"64.09999990463257","103285","SARL_v6","SARL_v67vp01wbf","63dd3dd2593c92be97d8dbde","fixation","","","img/fixation.png","68","","","prac","","","","","","","","","","","","","","","","","","","",""
"472.40000009536743","103759","SARL_v6","SARL_v67vp01wbf","63dd3dd2593c92be97d8dbde","mixAttFreqPrac","","","img/blue_2bandit_a2.png","70","img/blue_2bandit_a2.png","70","prac","","","9","","","","","","","","","","","","","","","","",""
"472.40000009536743","104089","SARL_v6","SARL_v67vp01wbf","63dd3dd2593c92be97d8dbde","freqPrac_resp","","","img/blue_2bandit_a.png","70","img/blue_2bandit_a.png","70","prac","","","9","","","","","","","","","","","","","","","","",""
"null","104242","SARL_v6","SARL_v67vp01wbf","63dd3dd2593c92be97d8dbde","fixation","","","img/fixation.png","null","","","prac","","","","","","","","","","","","","","","","","","","",""
"379.69999980926514","104623","SARL_v6","SARL_v67vp01wbf","63dd3dd2593c92be97d8dbde","mixAttFreqPrac","","","img/blue_2bandit_a2.png","70","img/blue_2bandit_a2.png","70","prac","","","10","","","","","","","","","","","","","","","","",""
"379.69999980926514","105045","SARL_v6","SARL_v67vp01wbf","63dd3dd2593c92be97d8dbde","freqPrac_resp","","","img/blue_2bandit_a.png","70","img/blue_2bandit_a.png","70","prac","","","10","","","","","","","","","","","","","","","","",""
"null","105197","SARL_v6","SARL_v67vp01wbf","63dd3dd2593c92be97d8dbde","fixation","","","img/fixation.png","null","","","prac","","","","","","","","","","","","","","","","","","","",""
"400.69999980926514","105599","SARL_v6","SARL_v67vp01wbf","63dd3dd2593c92be97d8dbde","mixAttInfreqPrac","","","img/orange_2bandit_a2.png","68","img/orange_2bandit_a2.png","68","prac","","","11","","","","","","","","","","","","","","","","",""
"400.69999980926514","106000","SARL_v6","SARL_v67vp01wbf","63dd3dd2593c92be97d8dbde","infreqPrac_resp","","","img/orange_2bandit_a.png","68","img/blue_2bandit_a.png","68","prac","","","11","","","","","","","","","","","","","","","","",""
"null","106152","SARL_v6","SARL_v67vp01wbf","63dd3dd2593c92be97d8dbde","fixation","","","img/fixation.png","null","","","prac","","","","","","","","","","","","","","","","","","","",""
"501.59999990463257","106655","SARL_v6","SARL_v67vp01wbf","63dd3dd2593c92be97d8dbde","mixRLPractice","","","img/black_2bandit_a2.png","74","img/black_2bandit_a2.png","","prac","","","11","","","","","","","","","","","","","","","","",""
"null","107407","SARL_v6","SARL_v67vp01wbf","63dd3dd2593c92be97d8dbde","feedback","","","<div class=""verylowPoints_sq""> -5 </div>","null","","na","prac","","","12","5","-5","5","","","","","","","","","","","","","",""
"null","107560","SARL_v6","SARL_v67vp01wbf","63dd3dd2593c92be97d8dbde","fixation","","","img/fixation.png","null","","","prac","","","","","","","","","","","","","","","","","","","",""
"1494.8999996185303","109056","SARL_v6","SARL_v67vp01wbf","63dd3dd2593c92be97d8dbde","","","","","","","","prac","","","","","","","","","","","","","","","","","","","",""
"622.7999997138977","109680","SARL_v6","SARL_v67vp01wbf","63dd3dd2593c92be97d8dbde","freq","","","img/blue_2bandit_a2.png","70","","70","test","1","","1","","","","square","circle","1","1","1","1","","","","","","","",""
"null","109859","SARL_v6","SARL_v67vp01wbf","63dd3dd2593c92be97d8dbde","freq_resp","","","img/blue_2bandit_a.png","70","img/blue_2bandit_a.png","70","test","","","","","","","","","","","1","","","","","","","","",""
"null","110011","SARL_v6","SARL_v67vp01wbf","63dd3dd2593c92be97d8dbde","fixation","","","img/fixation.png","null","","","test","","","","","","","","","","","","","","","","","","","",""
"435.19999980926514","110447","SARL_v6","SARL_v67vp01wbf","63dd3dd2593c92be97d8dbde","freq","","","img/blue_2bandit_a2.png","70","","70","test","1","","2","","","","square","circle","2","2","1","1","","","","","","","",""
"null","110814","SARL_v6","SARL_v67vp01wbf","63dd3dd2593c92be97d8dbde","freq_resp","","","img/blue_2bandit_a.png","70","img/blue_2bandit_a.png","70","test","","","","","","","","","","","1","","","","","","","","",""
"null","110967","SARL_v6","SARL_v67vp01wbf","63dd3dd2593c92be97d8dbde","fixation","","","img/fixation.png","null","","","test","","","","","","","","","","","","","","","","","","","",""
"399.2000002861023","111367","SARL_v6","SARL_v67vp01wbf","63dd3dd2593c92be97d8dbde","infreq","","","img/orange_2bandit_a2.png","68","","68","test","1","","3","","","","square","circle","3","3","1","1","","","","","","","",""
"null","111771","SARL_v6","SARL_v67vp01wbf","63dd3dd2593c92be97d8dbde","infreq_resp","","","img/orange_2bandit_a.png","68","img/orange_2bandit_a.png","68","test","","","","","","","","","","","1","","","","","","","","",""
"null","111923","SARL_v6","SARL_v67vp01wbf","63dd3dd2593c92be97d8dbde","fixation","","","img/fixation.png","null","","","test","","","","","","","","","","","","","","","","","","","",""
"419.40000009536743","112344","SARL_v6","SARL_v67vp01wbf","63dd3dd2593c92be97d8dbde","freq","","","img/blue_2bandit_a2.png","70","","70","test","1","","4","","","","square","circle","4","4","1","1","","","","","","","",""
"null","112726","SARL_v6","SARL_v67vp01wbf","63dd3dd2593c92be97d8dbde","freq_resp","","","img/blue_2bandit_a.png","70","img/blue_2bandit_a.png","70","test","","","","","","","","","","","1","","","","","","","","",""
"null","112879","SARL_v6","SARL_v67vp01wbf","63dd3dd2593c92be97d8dbde","fixation","","","img/fixation.png","null","","","test","","","","","","","","","","","","","","","","","","","",""
"399.19999980926514","113280","SARL_v6","SARL_v67vp01wbf","63dd3dd2593c92be97d8dbde","freq","","","img/blue_2bandit_a2.png","70","","70","test","1","","5","","","","square","circle","5","5","1","1","","","","","","","",""
"null","113683","SARL_v6","SARL_v67vp01wbf","63dd3dd2593c92be97d8dbde","freq_resp","","","img/blue_2bandit_a.png","70","img/blue_2bandit_a.png","70","test","","","","","","","","","","","1","","","","","","","","",""
"null","113836","SARL_v6","SARL_v67vp01wbf","63dd3dd2593c92be97d8dbde","fixation","","","img/fixation.png","null","","","test","","","","","","","","","","","","","","","","","","","",""
"338.90000009536743","114176","SARL_v6","SARL_v67vp01wbf","63dd3dd2593c92be97d8dbde","freq","","","img/blue_2bandit_a2.png","70","","70","test","1","","6","","","","square","circle","6","6","1","1","","","","","","","",""
"null","114640","SARL_v6","SARL_v67vp01wbf","63dd3dd2593c92be97d8dbde","freq_resp","","","img/blue_2bandit_a.png","70","img/blue_2bandit_a.png","70","test","","","","","","","","","","","1","","","","","","","","",""
"null","114793","SARL_v6","SARL_v67vp01wbf","63dd3dd2593c92be97d8dbde","fixation","","","img/fixation.png","null","","","test","","","","","","","","","","","","","","","","","","","",""
"301.30000019073486","115096","SARL_v6","SARL_v67vp01wbf","63dd3dd2593c92be97d8dbde","freq","","","img/blue_2bandit_a2.png","70","","70","test","1","","7","","","","square","circle","7","7","1","1","","","","","","","",""
"null","115597","SARL_v6","SARL_v67vp01wbf","63dd3dd2593c92be97d8dbde","freq_resp","","","img/blue_2bandit_a.png","70","img/blue_2bandit_a.png","70","test","","","","","","","","","","","1","","","","","","","","",""
"null","115749","SARL_v6","SARL_v67vp01wbf","63dd3dd2593c92be97d8dbde","fixation","","","img/fixation.png","null","","","test","","","","","","","","","","","","","","","","","","","",""
"282.09999990463257","116032","SARL_v6","SARL_v67vp01wbf","63dd3dd2593c92be97d8dbde","freq","","","img/blue_2bandit_a2.png","70","","70","test","1","","8","","","","square","circle","8","8","1","1","","","","","","","",""
"null","116551","SARL_v6","SARL_v67vp01wbf","63dd3dd2593c92be97d8dbde","freq_resp","","","img/blue_2bandit_a.png","70","img/blue_2bandit_a.png","70","test","","","","","","","","","","","1","","","","","","","","",""
"null","116703","SARL_v6","SARL_v67vp01wbf","63dd3dd2593c92be97d8dbde","fixation","","","img/fixation.png","null","","","test","","","","","","","","","","","","","","","","","","","",""
"328.09999990463257","117032","SARL_v6","SARL_v67vp01wbf","63dd3dd2593c92be97d8dbde","freq","","","img/blue_2bandit_a2.png","70","","70","test","1","","9","","","","square","circle","9","9","1","1","","","","","","","",""
"null","117506","SARL_v6","SARL_v67vp01wbf","63dd3dd2593c92be97d8dbde","freq_resp","","","img/blue_2bandit_a.png","70","img/blue_2bandit_a.png","70","test","","","","","","","","","","","1","","","","","","","","",""
"null","117659","SARL_v6","SARL_v67vp01wbf","63dd3dd2593c92be97d8dbde","fixation","","","img/fixation.png","null","","","test","","","","","","","","","","","","","","","","","","","",""
"260.1000003814697","117920","SARL_v6","SARL_v67vp01wbf","63dd3dd2593c92be97d8dbde","freq","","","img/blue_2bandit_a2.png","70","","70","test","1","","10","","","","square","circle","10","10","1","1","","","","","","","",""
"null","118462","SARL_v6","SARL_v67vp01wbf","63dd3dd2593c92be97d8dbde","freq_resp","","","img/blue_2bandit_a.png","70","img/blue_2bandit_a.png","70","test","","","","","","","","","","","1","","","","","","","","",""
"null","118615","SARL_v6","SARL_v67vp01wbf","63dd3dd2593c92be97d8dbde","fixation","","","img/fixation.png","null","","","test","","","","","","","","","","","","","","","","","","","",""
"272.30000019073486","118889","SARL_v6","SARL_v67vp01wbf","63dd3dd2593c92be97d8dbde","freq","","","img/blue_2bandit_a2.png","70","","70","test","1","","11","","","","square","circle","11","11","1","1","","","","","","","",""
"null","119418","SARL_v6","SARL_v67vp01wbf","63dd3dd2593c92be97d8dbde","freq_resp","","","img/blue_2bandit_a.png","70","img/blue_2bandit_a.png","70","test","","","","","","","","","","","1","","","","","","","","",""
"null","119570","SARL_v6","SARL_v67vp01wbf","63dd3dd2593c92be97d8dbde","fixation","","","img/fixation.png","null","","","test","","","","","","","","","","","","","","","","","","","",""
"300.80000019073486","119873","SARL_v6","SARL_v67vp01wbf","63dd3dd2593c92be97d8dbde","freq","","","img/blue_2bandit_a2.png","70","","70","test","1","","12","","","","square","circle","12","12","1","1","","","","","","","",""
"null","120375","SARL_v6","SARL_v67vp01wbf","63dd3dd2593c92be97d8dbde","freq_resp","","","img/blue_2bandit_a.png","70","img/blue_2bandit_a.png","70","test","","","","","","","","","","","1","","","","","","","","",""
"null","120527","SARL_v6","SARL_v67vp01wbf","63dd3dd2593c92be97d8dbde","fixation","","","img/fixation.png","null","","","test","","","","","","","","","","","","","","","","","","","",""
"240.2999997138977","120769","SARL_v6","SARL_v67vp01wbf","63dd3dd2593c92be97d8dbde","freq","","","img/blue_2bandit_a2.png","70","","70","test","1","","13","","","","square","circle","13","13","1","1","","","","","","","",""
"null","121330","SARL_v6","SARL_v67vp01wbf","63dd3dd2593c92be97d8dbde","freq_resp","","","img/blue_2bandit_a.png","70","img/blue_2bandit_a.png","70","test","","","","","","","","","","","1","","","","","","","","",""
"null","121483","SARL_v6","SARL_v67vp01wbf","63dd3dd2593c92be97d8dbde","fixation","","","img/fixation.png","null","","","test","","","","","","","","","","","","","","","","","","","",""
"260.80000019073486","121745","SARL_v6","SARL_v67vp01wbf","63dd3dd2593c92be97d8dbde","freq","","","img/blue_2bandit_a2.png","70","","70","test","1","","14","","","","square","circle","14","14","1","1","","","","","","","",""
"null","122286","SARL_v6","SARL_v67vp01wbf","63dd3dd2593c92be97d8dbde","freq_resp","","","img/blue_2bandit_a.png","70","img/blue_2bandit_a.png","70","test","","","","","","","","","","","1","","","","","","","","",""
"null","122438","SARL_v6","SARL_v67vp01wbf","63dd3dd2593c92be97d8dbde","fixation","","","img/fixation.png","null","","","test","","","","","","","","","","","","","","","","","","","",""
"249.80000019073486","122689","SARL_v6","SARL_v67vp01wbf","63dd3dd2593c92be97d8dbde","freq","","","img/blue_2bandit_a2.png","70","","70","test","1","","15","","","","square","circle","15","15","1","1","","","","","","","",""
"null","123241","SARL_v6","SARL_v67vp01wbf","63dd3dd2593c92be97d8dbde","freq_resp","","","img/blue_2bandit_a.png","70","img/blue_2bandit_a.png","70","test","","","","","","","","","","","1","","","","","","","","",""
"null","123393","SARL_v6","SARL_v67vp01wbf","63dd3dd2593c92be97d8dbde","fixation","","","img/fixation.png","null","","","test","","","","","","","","","","","","","","","","","","","",""
"262.5","123657","SARL_v6","SARL_v67vp01wbf","63dd3dd2593c92be97d8dbde","freq","","","img/blue_2bandit_a2.png","70","","70","test","1","","16","","","","square","circle","16","16","1","1","","","","","","","",""
"null","124197","SARL_v6","SARL_v67vp01wbf","63dd3dd2593c92be97d8dbde","freq_resp","","","img/blue_2bandit_a.png","70","img/blue_2bandit_a.png","70","test","","","","","","","","","","","1","","","","","","","","",""
"null","124350","SARL_v6","SARL_v67vp01wbf","63dd3dd2593c92be97d8dbde","fixation","","","img/fixation.png","null","","","test","","","","","","","","","","","","","","","","","","","",""
"242.69999980926514","124594","SARL_v6","SARL_v67vp01wbf","63dd3dd2593c92be97d8dbde","freq","","","img/blue_2bandit_a2.png","70","","70","test","1","","17","","","","square","circle","17","17","1","1","","","","","","","",""
"null","125154","SARL_v6","SARL_v67vp01wbf","63dd3dd2593c92be97d8dbde","freq_resp","","","img/blue_2bandit_a.png","70","img/blue_2bandit_a.png","70","test","","","","","","","","","","","1","","","","","","","","",""
"null","125307","SARL_v6","SARL_v67vp01wbf","63dd3dd2593c92be97d8dbde","fixation","","","img/fixation.png","null","","","test","","","","","","","","","","","","","","","","","","","",""
"213.2000002861023","125521","SARL_v6","SARL_v67vp01wbf","63dd3dd2593c92be97d8dbde","infreq","","","img/orange_2bandit_a2.png","70","","68","test","0","","18","","","","square","circle","18","18","1","0.9444444444444444","","","","","","","",""
"null","126110","SARL_v6","SARL_v67vp01wbf","63dd3dd2593c92be97d8dbde","infreq_resp","","","img/orange_2bandit_a.png","70","img/orange_2bandit_a.png","68","test","","","","","","","","","","","1","","","","","","","","",""
"null","126262","SARL_v6","SARL_v67vp01wbf","63dd3dd2593c92be97d8dbde","fixation","","","img/fixation.png","null","","","test","","","","","","","","","","","","","","","","","","","",""
"394.40000009536743","126658","SARL_v6","SARL_v67vp01wbf","63dd3dd2593c92be97d8dbde","freq","","","img/blue_2bandit_a2.png","70","","70","test","1","","19","","","","square","circle","19","19","1","0.9473684210526315","","","","","","","",""
"null","127065","SARL_v6","SARL_v67vp01wbf","63dd3dd2593c92be97d8dbde","freq_resp","","","img/blue_2bandit_a.png","70","img/blue_2bandit_a.png","70","test","","","","","","","","","","","1","","","","","","","","",""
"null","127217","SARL_v6","SARL_v67vp01wbf","63dd3dd2593c92be97d8dbde","fixation","","","img/fixation.png","null","","","test","","","","","","","","","","","","","","","","","","","",""
"263.59999990463257","127482","SARL_v6","SARL_v67vp01wbf","63dd3dd2593c92be97d8dbde","freq","","","img/blue_2bandit_a2.png","70","","70","test","1","","20","","","","square","circle","20","20","1","0.95","","","","","","","",""
"null","128020","SARL_v6","SARL_v67vp01wbf","63dd3dd2593c92be97d8dbde","freq_resp","","","img/blue_2bandit_a.png","70","img/blue_2bandit_a.png","70","test","","","","","","","","","","","1","","","","","","","","",""
"null","128172","SARL_v6","SARL_v67vp01wbf","63dd3dd2593c92be97d8dbde","fixation","","","img/fixation.png","null","","","test","","","","","","","","","","","","","","","","","","","",""
"108.69999980926514","128282","SARL_v6","SARL_v67vp01wbf","63dd3dd2593c92be97d8dbde","freq","","","img/blue_2bandit_a2.png","70","","70","test","1","","21","","","","square","circle","21","21","1","0.9523809523809523","","","","","","","",""
"null","128975","SARL_v6","SARL_v67vp01wbf","63dd3dd2593c92be97d8dbde","freq_resp","","","img/blue_2bandit_a.png","70","img/blue_2bandit_a.png","70","test","","","","","","","","","","","1","","","","","","","","",""
"null","129127","SARL_v6","SARL_v67vp01wbf","63dd3dd2593c92be97d8dbde","fixation","","","img/fixation.png","null","","","test","","","","","","","","","","","","","","","","","","","",""
"137.80000019073486","129266","SARL_v6","SARL_v67vp01wbf","63dd3dd2593c92be97d8dbde","freq","","","img/blue_2bandit_a2.png","70","","70","test","1","","22","","","","square","circle","22","22","1","0.9545454545454546","","","","","","","",""
"null","129931","SARL_v6","SARL_v67vp01wbf","63dd3dd2593c92be97d8dbde","freq_resp","","","img/blue_2bandit_a.png","70","img/blue_2bandit_a.png","70","test","","","","","","","","","","","1","","","","","","","","",""
"null","130083","SARL_v6","SARL_v67vp01wbf","63dd3dd2593c92be97d8dbde","fixation","","","img/fixation.png","null","","","test","","","","","","","","","","","","","","","","","","","",""
"285.80000019073486","130370","SARL_v6","SARL_v67vp01wbf","63dd3dd2593c92be97d8dbde","freq","","","img/blue_2bandit_a2.png","70","","70","test","1","","23","","","","square","circle","23","23","1","0.9565217391304348","","","","","","","",""
"null","130886","SARL_v6","SARL_v67vp01wbf","63dd3dd2593c92be97d8dbde","freq_resp","","","img/blue_2bandit_a.png","70","img/blue_2bandit_a.png","70","test","","","","","","","","","","","1","","","","","","","","",""
"null","131038","SARL_v6","SARL_v67vp01wbf","63dd3dd2593c92be97d8dbde","fixation","","","img/fixation.png","null","","","test","","","","","","","","","","","","","","","","","","","",""
"539","131578","SARL_v6","SARL_v67vp01wbf","63dd3dd2593c92be97d8dbde","rl","","","img/black_2bandit_a2.png","75","","0","test","","","24","","","-3","square","circle","","0","1","","75","-3","-3","-3","-3","circle","1","0"
"null","132331","SARL_v6","SARL_v67vp01wbf","63dd3dd2593c92be97d8dbde","feedback","","","<div class=""verylowPoints""> -3 </div>","null","","na","test","","","NaN","","","","","","","","1","","75","","","","","","1",""
"null","133134","SARL_v6","SARL_v67vp01wbf","63dd3dd2593c92be97d8dbde","freq","","","img/blue_2bandit_a2.png","null","","70","test","0","","25","","","","square","circle","24","1","2","0.9166666666666666","","","","","","","",""
"null","133287","SARL_v6","SARL_v67vp01wbf","63dd3dd2593c92be97d8dbde","fixation","","","img/fixation.png","null","","","test","","","","","","","","","","","","","","","","","","","",""
"146.30000019073486","133435","SARL_v6","SARL_v67vp01wbf","63dd3dd2593c92be97d8dbde","freq","","","img/blue_2bandit_a2.png","70","","70","test","1","","26","","","","square","circle","25","2","2","0.92","","","","","","","",""
"null","134091","SARL_v6","SARL_v67vp01wbf","63dd3dd2593c92be97d8dbde","freq_resp","","","img/blue_2bandit_a.png","70","img/blue_2bandit_a.png","70","test","","","","","","","","","","","2","","","","","","","","",""
"null","134243","SARL_v6","SARL_v67vp01wbf","63dd3dd2593c92be97d8dbde","fixation","","","img/fixation.png","null","","","test","","","","","","","","","","","","","","","","","","","",""
"238.40000009536743","134483","SARL_v6","SARL_v67vp01wbf","63dd3dd2593c92be97d8dbde","freq","","","img/blue_2bandit_a2.png","70","","70","test","1","","27","","","","square","circle","26","3","2","0.9230769230769231","","","","","","","",""
"null","135046","SARL_v6","SARL_v67vp01wbf","63dd3dd2593c92be97d8dbde","freq_resp","","","img/blue_2bandit_a.png","70","img/blue_2bandit_a.png","70","test","","","","","","","","","","","2","","","","","","","","",""
"null","135199","SARL_v6","SARL_v67vp01wbf","63dd3dd2593c92be97d8dbde","fixation","","","img/fixation.png","null","","","test","","","","","","","","","","","","","","","","","","","",""
"154.5","135355","SARL_v6","SARL_v67vp01wbf","63dd3dd2593c92be97d8dbde","freq","","","img/blue_2bandit_a2.png","70","","70","test","1","","28","","","","square","circle","27","4","2","0.9259259259259259","","","","","","","",""
"null","136003","SARL_v6","SARL_v67vp01wbf","63dd3dd2593c92be97d8dbde","freq_resp","","","img/blue_2bandit_a.png","70","img/blue_2bandit_a.png","70","test","","","","","","","","","","","2","","","","","","","","",""
"null","136156","SARL_v6","SARL_v67vp01wbf","63dd3dd2593c92be97d8dbde","fixation","","","img/fixation.png","null","","","test","","","","","","","","","","","","","","","","","","","",""
"421.80000019073486","136579","SARL_v6","SARL_v67vp01wbf","63dd3dd2593c92be97d8dbde","infreq","","","img/orange_2bandit_a2.png","68","","68","test","1","","29","","","","square","circle","28","5","2","0.9285714285714286","","","","","","","",""
"null","136960","SARL_v6","SARL_v67vp01wbf","63dd3dd2593c92be97d8dbde","infreq_resp","","","img/orange_2bandit_a.png","68","img/orange_2bandit_a.png","68","test","","","","","","","","","","","2","","","","","","","","",""
"null","137112","SARL_v6","SARL_v67vp01wbf","63dd3dd2593c92be97d8dbde","fixation","","","img/fixation.png","null","","","test","","","","","","","","","","","","","","","","","","","",""
"322.09999990463257","137435","SARL_v6","SARL_v67vp01wbf","63dd3dd2593c92be97d8dbde","freq","","","img/blue_2bandit_a2.png","70","","70","test","1","","30","","","","square","circle","29","6","2","0.9310344827586207","","","","","","","",""
"null","137916","SARL_v6","SARL_v67vp01wbf","63dd3dd2593c92be97d8dbde","freq_resp","","","img/blue_2bandit_a.png","70","img/blue_2bandit_a.png","70","test","","","","","","","","","","","2","","","","","","","","",""
"null","138069","SARL_v6","SARL_v67vp01wbf","63dd3dd2593c92be97d8dbde","fixation","","","img/fixation.png","null","","","test","","","","","","","","","","","","","","","","","","","",""
"268.90000009536743","138339","SARL_v6","SARL_v67vp01wbf","63dd3dd2593c92be97d8dbde","freq","","","img/blue_2bandit_a2.png","70","","70","test","1","","31","","","","square","circle","30","7","2","0.9333333333333333","","","","","","","",""
"null","138873","SARL_v6","SARL_v67vp01wbf","63dd3dd2593c92be97d8dbde","freq_resp","","","img/blue_2bandit_a.png","70","img/blue_2bandit_a.png","70","test","","","","","","","","","","","2","","","","","","","","",""
"null","139026","SARL_v6","SARL_v67vp01wbf","63dd3dd2593c92be97d8dbde","fixation","","","img/fixation.png","null","","","test","","","","","","","","","","","","","","","","","","","",""
"136","139163","SARL_v6","SARL_v67vp01wbf","63dd3dd2593c92be97d8dbde","freq","","","img/blue_2bandit_a2.png","70","","70","test","1","","32","","","","square","circle","31","8","2","0.9354838709677419","","","","","","","",""
"null","139830","SARL_v6","SARL_v67vp01wbf","63dd3dd2593c92be97d8dbde","freq_resp","","","img/blue_2bandit_a.png","70","img/blue_2bandit_a.png","70","test","","","","","","","","","","","2","","","","","","","","",""
"null","139982","SARL_v6","SARL_v67vp01wbf","63dd3dd2593c92be97d8dbde","fixation","","","img/fixation.png","null","","","test","","","","","","","","","","","","","","","","","","","",""
"291.80000019073486","140275","SARL_v6","SARL_v67vp01wbf","63dd3dd2593c92be97d8dbde","freq","","","img/blue_2bandit_a2.png","70","","70","test","1","","33","","","","square","circle","32","9","2","0.9375","","","","","","","",""
"null","140786","SARL_v6","SARL_v67vp01wbf","63dd3dd2593c92be97d8dbde","freq_resp","","","img/blue_2bandit_a.png","70","img/blue_2bandit_a.png","70","test","","","","","","","","","","","2","","","","","","","","",""
"null","140938","SARL_v6","SARL_v67vp01wbf","63dd3dd2593c92be97d8dbde","fixation","","","img/fixation.png","null","","","test","","","","","","","","","","","","","","","","","","","",""
"248.30000019073486","141188","SARL_v6","SARL_v67vp01wbf","63dd3dd2593c92be97d8dbde","freq","","","img/blue_2bandit_a2.png","70","","70","test","1","","34","","","","square","circle","33","10","2","0.9393939393939394","","","","","","","",""
"null","141741","SARL_v6","SARL_v67vp01wbf","63dd3dd2593c92be97d8dbde","freq_resp","","","img/blue_2bandit_a.png","70","img/blue_2bandit_a.png","70","test","","","","","","","","","","","2","","","","","","","","",""
"null","141893","SARL_v6","SARL_v67vp01wbf","63dd3dd2593c92be97d8dbde","fixation","","","img/fixation.png","null","","","test","","","","","","","","","","","","","","","","","","","",""
"364.7999997138977","142260","SARL_v6","SARL_v67vp01wbf","63dd3dd2593c92be97d8dbde","freq","","","img/blue_2bandit_a2.png","70","","70","test","1","","35","","","","square","circle","34","11","2","0.9411764705882353","","","","","","","",""
"null","142697","SARL_v6","SARL_v67vp01wbf","63dd3dd2593c92be97d8dbde","freq_resp","","","img/blue_2bandit_a.png","70","img/blue_2bandit_a.png","70","test","","","","","","","","","","","2","","","","","","","","",""
"null","142850","SARL_v6","SARL_v67vp01wbf","63dd3dd2593c92be97d8dbde","fixation","","","img/fixation.png","null","","","test","","","","","","","","","","","","","","","","","","","",""
"224.69999980926514","143076","SARL_v6","SARL_v67vp01wbf","63dd3dd2593c92be97d8dbde","freq","","","img/blue_2bandit_a2.png","70","","70","test","1","","36","","","","square","circle","35","12","2","0.9428571428571428","","","","","","","",""
"null","143654","SARL_v6","SARL_v67vp01wbf","63dd3dd2593c92be97d8dbde","freq_resp","","","img/blue_2bandit_a.png","70","img/blue_2bandit_a.png","70","test","","","","","","","","","","","2","","","","","","","","",""
"null","143805","SARL_v6","SARL_v67vp01wbf","63dd3dd2593c92be97d8dbde","fixation","","","img/fixation.png","null","","","test","","","","","","","","","","","","","","","","","","","",""
"237.5","144044","SARL_v6","SARL_v67vp01wbf","63dd3dd2593c92be97d8dbde","freq","","","img/blue_2bandit_a2.png","70","","70","test","1","","37","","","","square","circle","36","13","2","0.9444444444444444","","","","","","","",""
"null","144610","SARL_v6","SARL_v67vp01wbf","63dd3dd2593c92be97d8dbde","freq_resp","","","img/blue_2bandit_a.png","70","img/blue_2bandit_a.png","70","test","","","","","","","","","","","2","","","","","","","","",""
"null","144762","SARL_v6","SARL_v67vp01wbf","63dd3dd2593c92be97d8dbde","fixation","","","img/fixation.png","null","","","test","","","","","","","","","","","","","","","","","","","",""
"265","145029","SARL_v6","SARL_v67vp01wbf","63dd3dd2593c92be97d8dbde","freq","","","img/blue_2bandit_a2.png","70","","70","test","1","","38","","","","square","circle","37","14","2","0.9459459459459459","","","","","","","",""
"null","145567","SARL_v6","SARL_v67vp01wbf","63dd3dd2593c92be97d8dbde","freq_resp","","","img/blue_2bandit_a.png","70","img/blue_2bandit_a.png","70","test","","","","","","","","","","","2","","","","","","","","",""
"null","145720","SARL_v6","SARL_v67vp01wbf","63dd3dd2593c92be97d8dbde","fixation","","","img/fixation.png","null","","","test","","","","","","","","","","","","","","","","","","","",""
"283.09999990463257","146004","SARL_v6","SARL_v67vp01wbf","63dd3dd2593c92be97d8dbde","infreq","","","img/orange_2bandit_a2.png","70","","68","test","0","","39","","","","square","circle","38","15","2","0.9210526315789473","","","","","","","",""
"null","146523","SARL_v6","SARL_v67vp01wbf","63dd3dd2593c92be97d8dbde","infreq_resp","","","img/orange_2bandit_a.png","70","img/orange_2bandit_a.png","68","test","","","","","","","","","","","2","","","","","","","","",""
"null","146675","SARL_v6","SARL_v67vp01wbf","63dd3dd2593c92be97d8dbde","fixation","","","img/fixation.png","null","","","test","","","","","","","","","","","","","","","","","","","",""
"320.2000002861023","146997","SARL_v6","SARL_v67vp01wbf","63dd3dd2593c92be97d8dbde","freq","","","img/blue_2bandit_a2.png","70","","70","test","1","","40","","","","square","circle","39","16","2","0.9230769230769231","","","","","","","",""
"null","147478","SARL_v6","SARL_v67vp01wbf","63dd3dd2593c92be97d8dbde","freq_resp","","","img/blue_2bandit_a.png","70","img/blue_2bandit_a.png","70","test","","","","","","","","","","","2","","","","","","","","",""
"null","147630","SARL_v6","SARL_v67vp01wbf","63dd3dd2593c92be97d8dbde","fixation","","","img/fixation.png","null","","","test","","","","","","","","","","","","","","","","","","","",""
"245.40000009536743","147877","SARL_v6","SARL_v67vp01wbf","63dd3dd2593c92be97d8dbde","freq","","","img/blue_2bandit_a2.png","70","","70","test","1","","41","","","","square","circle","40","17","2","0.925","","","","","","","",""
"null","148434","SARL_v6","SARL_v67vp01wbf","63dd3dd2593c92be97d8dbde","freq_resp","","","img/blue_2bandit_a.png","70","img/blue_2bandit_a.png","70","test","","","","","","","","","","","2","","","","","","","","",""
"null","148587","SARL_v6","SARL_v67vp01wbf","63dd3dd2593c92be97d8dbde","fixation","","","img/fixation.png","null","","","test","","","","","","","","","","","","","","","","","","","",""
"240.90000009536743","148829","SARL_v6","SARL_v67vp01wbf","63dd3dd2593c92be97d8dbde","freq","","","img/blue_2bandit_a2.png","70","","70","test","1","","42","","","","square","circle","41","18","2","0.926829268292683","","","","","","","",""
"null","149391","SARL_v6","SARL_v67vp01wbf","63dd3dd2593c92be97d8dbde","freq_resp","","","img/blue_2bandit_a.png","70","img/blue_2bandit_a.png","70","test","","","","","","","","","","","2","","","","","","","","",""
"null","149544","SARL_v6","SARL_v67vp01wbf","63dd3dd2593c92be97d8dbde","fixation","","","img/fixation.png","null","","","test","","","","","","","","","","","","","","","","","","","",""
"243.2999997138977","149789","SARL_v6","SARL_v67vp01wbf","63dd3dd2593c92be97d8dbde","freq","","","img/blue_2bandit_a2.png","70","","70","test","1","","43","","","","square","circle","42","19","2","0.9285714285714286","","","","","","","",""
"null","150348","SARL_v6","SARL_v67vp01wbf","63dd3dd2593c92be97d8dbde","freq_resp","","","img/blue_2bandit_a.png","70","img/blue_2bandit_a.png","70","test","","","","","","","","","","","2","","","","","","","","",""
"null","150500","SARL_v6","SARL_v67vp01wbf","63dd3dd2593c92be97d8dbde","fixation","","","img/fixation.png","null","","","test","","","","","","","","","","","","","","","","","","","",""
"263.6000003814697","150765","SARL_v6","SARL_v67vp01wbf","63dd3dd2593c92be97d8dbde","freq","","","img/blue_2bandit_a2.png","70","","70","test","1","","44","","","","square","circle","43","20","2","0.9302325581395349","","","","","","","",""
"null","151304","SARL_v6","SARL_v67vp01wbf","63dd3dd2593c92be97d8dbde","freq_resp","","","img/blue_2bandit_a.png","70","img/blue_2bandit_a.png","70","test","","","","","","","","","","","2","","","","","","","","",""
"null","151457","SARL_v6","SARL_v67vp01wbf","63dd3dd2593c92be97d8dbde","fixation","","","img/fixation.png","null","","","test","","","","","","","","","","","","","","","","","","","",""
"306.80000019073486","151765","SARL_v6","SARL_v67vp01wbf","63dd3dd2593c92be97d8dbde","freq","","","img/blue_2bandit_a2.png","70","","70","test","1","","45","","","","square","circle","44","21","2","0.9318181818181818","","","","","","","",""
"null","152260","SARL_v6","SARL_v67vp01wbf","63dd3dd2593c92be97d8dbde","freq_resp","","","img/blue_2bandit_a.png","70","img/blue_2bandit_a.png","70","test","","","","","","","","","","","2","","","","","","","","",""
"null","152413","SARL_v6","SARL_v67vp01wbf","63dd3dd2593c92be97d8dbde","fixation","","","img/fixation.png","null","","","test","","","","","","","","","","","","","","","","","","","",""
"310.59999990463257","152725","SARL_v6","SARL_v67vp01wbf","63dd3dd2593c92be97d8dbde","freq","","","img/blue_2bandit_a2.png","70","","70","test","1","","46","","","","square","circle","45","22","2","0.9333333333333333","","","","","","","",""
"null","153217","SARL_v6","SARL_v67vp01wbf","63dd3dd2593c92be97d8dbde","freq_resp","","","img/blue_2bandit_a.png","70","img/blue_2bandit_a.png","70","test","","","","","","","","","","","2","","","","","","","","",""
"null","153370","SARL_v6","SARL_v67vp01wbf","63dd3dd2593c92be97d8dbde","fixation","","","img/fixation.png","null","","","test","","","","","","","","","","","","","","","","","","","",""
"258.09999990463257","153630","SARL_v6","SARL_v67vp01wbf","63dd3dd2593c92be97d8dbde","freq","","","img/blue_2bandit_a2.png","70","","70","test","1","","47","","","","square","circle","46","23","2","0.9347826086956522","","","","","","","",""
"null","154173","SARL_v6","SARL_v67vp01wbf","63dd3dd2593c92be97d8dbde","freq_resp","","","img/blue_2bandit_a.png","70","img/blue_2bandit_a.png","70","test","","","","","","","","","","","2","","","","","","","","",""
"null","154325","SARL_v6","SARL_v67vp01wbf","63dd3dd2593c92be97d8dbde","fixation","","","img/fixation.png","null","","","test","","","","","","","","","","","","","","","","","","","",""
"223.30000019073486","154549","SARL_v6","SARL_v67vp01wbf","63dd3dd2593c92be97d8dbde","freq","","","img/blue_2bandit_a2.png","70","","70","test","1","","48","","","","square","circle","47","24","2","0.9361702127659575","","","","","","","",""
"null","155129","SARL_v6","SARL_v67vp01wbf","63dd3dd2593c92be97d8dbde","freq_resp","","","img/blue_2bandit_a.png","70","img/blue_2bandit_a.png","70","test","","","","","","","","","","","2","","","","","","","","",""
"null","155282","SARL_v6","SARL_v67vp01wbf","63dd3dd2593c92be97d8dbde","fixation","","","img/fixation.png","null","","","test","","","","","","","","","","","","","","","","","","","",""
"602.2000002861023","155886","SARL_v6","SARL_v67vp01wbf","63dd3dd2593c92be97d8dbde","rl","","","img/black_2bandit_a2.png","74","","0","test","","","49","","","-8","square","circle","","0","2","","74","-5","-8","-8","-5","square","2","0"
"null","156638","SARL_v6","SARL_v67vp01wbf","63dd3dd2593c92be97d8dbde","feedback","","","<div class=""verylowPoints_sq""> -8 </div>","null","","na","test","","","NaN","","","","","","","","2","","74","","","","","","2",""
"454.5","157094","SARL_v6","SARL_v67vp01wbf","63dd3dd2593c92be97d8dbde","freq","","","img/blue_2bandit_a2.png","70","","70","test","1","","50","","","","square","circle","48","1","3","0.9375","","","","","","","",""
"null","157442","SARL_v6","SARL_v67vp01wbf","63dd3dd2593c92be97d8dbde","freq_resp","","","img/blue_2bandit_a.png","70","img/blue_2bandit_a.png","70","test","","","","","","","","","","","3","","","","","","","","",""
"null","157596","SARL_v6","SARL_v67vp01wbf","63dd3dd2593c92be97d8dbde","fixation","","","img/fixation.png","null","","","test","","","","","","","","","","","","","","","","","","","",""
"272.90000009536743","157870","SARL_v6","SARL_v67vp01wbf","63dd3dd2593c92be97d8dbde","freq","","","img/blue_2bandit_a2.png","70","","70","test","1","","51","","","","square","circle","49","2","3","0.9387755102040817","","","","","","","",""
"null","158399","SARL_v6","SARL_v67vp01wbf","63dd3dd2593c92be97d8dbde","freq_resp","","","img/blue_2bandit_a.png","70","img/blue_2bandit_a.png","70","test","","","","","","","","","","","3","","","","","","","","",""
"null","158551","SARL_v6","SARL_v67vp01wbf","63dd3dd2593c92be97d8dbde","fixation","","","img/fixation.png","null","","","test","","","","","","","","","","","","","","","","","","","",""
"277.90000009536743","158831","SARL_v6","SARL_v67vp01wbf","63dd3dd2593c92be97d8dbde","freq","","","img/blue_2bandit_a2.png","70","","70","test","1","","52","","","","square","circle","50","3","3","0.94","","","","","","","",""
"null","159356","SARL_v6","SARL_v67vp01wbf","63dd3dd2593c92be97d8dbde","freq_resp","","","img/blue_2bandit_a.png","70","img/blue_2bandit_a.png","70","test","","","","","","","","","","","3","","","","","","","","",""
"null","159509","SARL_v6","SARL_v67vp01wbf","63dd3dd2593c92be97d8dbde","fixation","","","img/fixation.png","null","","","test","","","","","","","","","","","","","","","","","","","",""
"287.80000019073486","159798","SARL_v6","SARL_v67vp01wbf","63dd3dd2593c92be97d8dbde","freq","","","img/blue_2bandit_a2.png","70","","70","test","1","","53","","","","square","circle","51","4","3","0.9411764705882353","","","","","","","",""
"null","160313","SARL_v6","SARL_v67vp01wbf","63dd3dd2593c92be97d8dbde","freq_resp","","","img/blue_2bandit_a.png","70","img/blue_2bandit_a.png","70","test","","","","","","","","","","","3","","","","","","","","",""
"null","160466","SARL_v6","SARL_v67vp01wbf","63dd3dd2593c92be97d8dbde","fixation","","","img/fixation.png","null","","","test","","","","","","","","","","","","","","","","","","","",""
"219.40000009536743","160687","SARL_v6","SARL_v67vp01wbf","63dd3dd2593c92be97d8dbde","freq","","","img/blue_2bandit_a2.png","70","","70","test","1","","54","","","","square","circle","52","5","3","0.9423076923076923","","","","","","","",""
"null","161269","SARL_v6","SARL_v67vp01wbf","63dd3dd2593c92be97d8dbde","freq_resp","","","img/blue_2bandit_a.png","70","img/blue_2bandit_a.png","70","test","","","","","","","","","","","3","","","","","","","","",""
"null","161422","SARL_v6","SARL_v67vp01wbf","63dd3dd2593c92be97d8dbde","fixation","","","img/fixation.png","null","","","test","","","","","","","","","","","","","","","","","","","",""
"191.30000019073486","161615","SARL_v6","SARL_v67vp01wbf","63dd3dd2593c92be97d8dbde","freq","","","img/blue_2bandit_a2.png","70","","70","test","1","","55","","","","square","circle","53","6","3","0.9433962264150944","","","","","","","",""
"null","162225","SARL_v6","SARL_v67vp01wbf","63dd3dd2593c92be97d8dbde","freq_resp","","","img/blue_2bandit_a.png","70","img/blue_2bandit_a.png","70","test","","","","","","","","","","","3","","","","","","","","",""
"null","162377","SARL_v6","SARL_v67vp01wbf","63dd3dd2593c92be97d8dbde","fixation","","","img/fixation.png","null","","","test","","","","","","","","","","","","","","","","","","","",""
"292.30000019073486","162671","SARL_v6","SARL_v67vp01wbf","63dd3dd2593c92be97d8dbde","freq","","","img/blue_2bandit_a2.png","70","","70","test","1","","56","","","","square","circle","54","7","3","0.9444444444444444","","","","","","","",""
"null","163180","SARL_v6","SARL_v67vp01wbf","63dd3dd2593c92be97d8dbde","freq_resp","","","img/blue_2bandit_a.png","70","img/blue_2bandit_a.png","70","test","","","","","","","","","","","3","","","","","","","","",""
"null","163332","SARL_v6","SARL_v67vp01wbf","63dd3dd2593c92be97d8dbde","fixation","","","img/fixation.png","null","","","test","","","","","","","","","","","","","","","","","","","",""
"289","163623","SARL_v6","SARL_v67vp01wbf","63dd3dd2593c92be97d8dbde","freq","","","img/blue_2bandit_a2.png","70","","70","test","1","","57","","","","square","circle","55","8","3","0.9454545454545454","","","","","","","",""
"null","164136","SARL_v6","SARL_v67vp01wbf","63dd3dd2593c92be97d8dbde","freq_resp","","","img/blue_2bandit_a.png","70","img/blue_2bandit_a.png","70","test","","","","","","","","","","","3","","","","","","","","",""
"null","164288","SARL_v6","SARL_v67vp01wbf","63dd3dd2593c92be97d8dbde","fixation","","","img/fixation.png","null","","","test","","","","","","","","","","","","","","","","","","","",""
"213.09999990463257","164503","SARL_v6","SARL_v67vp01wbf","63dd3dd2593c92be97d8dbde","freq","","","img/blue_2bandit_a2.png","70","","70","test","1","","58","","","","square","circle","56","9","3","0.9464285714285714","","","","","","","",""
"null","165092","SARL_v6","SARL_v67vp01wbf","63dd3dd2593c92be97d8dbde","freq_resp","","","img/blue_2bandit_a.png","70","img/blue_2bandit_a.png","70","test","","","","","","","","","","","3","","","","","","","","",""
"null","165245","SARL_v6","SARL_v67vp01wbf","63dd3dd2593c92be97d8dbde","fixation","","","img/fixation.png","null","","","test","","","","","","","","","","","","","","","","","","","",""
"176.80000019073486","165423","SARL_v6","SARL_v67vp01wbf","63dd3dd2593c92be97d8dbde","freq","","","img/blue_2bandit_a2.png","70","","70","test","1","","59","","","","square","circle","57","10","3","0.9473684210526315","","","","","","","",""
"null","166049","SARL_v6","SARL_v67vp01wbf","63dd3dd2593c92be97d8dbde","freq_resp","","","img/blue_2bandit_a.png","70","img/blue_2bandit_a.png","70","test","","","","","","","","","","","3","","","","","","","","",""
"null","166202","SARL_v6","SARL_v67vp01wbf","63dd3dd2593c92be97d8dbde","fixation","","","img/fixation.png","null","","","test","","","","","","","","","","","","","","","","","","","",""
"164","166368","SARL_v6","SARL_v67vp01wbf","63dd3dd2593c92be97d8dbde","freq","","","img/blue_2bandit_a2.png","70","","70","test","1","","60","","","","square","circle","58","11","3","0.9482758620689655","","","","","","","",""
"null","167006","SARL_v6","SARL_v67vp01wbf","63dd3dd2593c92be97d8dbde","freq_resp","","","img/blue_2bandit_a.png","70","img/blue_2bandit_a.png","70","test","","","","","","","","","","","3","","","","","","","","",""
"null","167158","SARL_v6","SARL_v67vp01wbf","63dd3dd2593c92be97d8dbde","fixation","","","img/fixation.png","null","","","test","","","","","","","","","","","","","","","","","","","",""
"168","167327","SARL_v6","SARL_v67vp01wbf","63dd3dd2593c92be97d8dbde","freq","","","img/blue_2bandit_a2.png","70","","70","test","1","","61","","","","square","circle","59","12","3","0.9491525423728814","","","","","","","",""
"null","167961","SARL_v6","SARL_v67vp01wbf","63dd3dd2593c92be97d8dbde","freq_resp","","","img/blue_2bandit_a.png","70","img/blue_2bandit_a.png","70","test","","","","","","","","","","","3","","","","","","","","",""
"null","168113","SARL_v6","SARL_v67vp01wbf","63dd3dd2593c92be97d8dbde","fixation","","","img/fixation.png","null","","","test","","","","","","","","","","","","","","","","","","","",""
"292.7999997138977","168407","SARL_v6","SARL_v67vp01wbf","63dd3dd2593c92be97d8dbde","freq","","","img/blue_2bandit_a2.png","70","","70","test","1","","62","","","","square","circle","60","13","3","0.95","","","","","","","",""
"null","168917","SARL_v6","SARL_v67vp01wbf","63dd3dd2593c92be97d8dbde","freq_resp","","","img/blue_2bandit_a.png","70","img/blue_2bandit_a.png","70","test","","","","","","","","","","","3","","","","","","","","",""
"null","169069","SARL_v6","SARL_v67vp01wbf","63dd3dd2593c92be97d8dbde","fixation","","","img/fixation.png","null","","","test","","","","","","","","","","","","","","","","","","","",""
"265.5","169336","SARL_v6","SARL_v67vp01wbf","63dd3dd2593c92be97d8dbde","freq","","","img/blue_2bandit_a2.png","70","","70","test","1","","63","","","","square","circle","61","14","3","0.9508196721311475","","","","","","","",""
"null","169872","SARL_v6","SARL_v67vp01wbf","63dd3dd2593c92be97d8dbde","freq_resp","","","img/blue_2bandit_a.png","70","img/blue_2bandit_a.png","70","test","","","","","","","","","","","3","","","","","","","","",""
"null","170025","SARL_v6","SARL_v67vp01wbf","63dd3dd2593c92be97d8dbde","fixation","","","img/fixation.png","null","","","test","","","","","","","","","","","","","","","","","","","",""
"205.5","170232","SARL_v6","SARL_v67vp01wbf","63dd3dd2593c92be97d8dbde","freq","","","img/blue_2bandit_a2.png","70","","70","test","1","","64","","","","square","circle","62","15","3","0.9516129032258065","","","","","","","",""
"null","170828","SARL_v6","SARL_v67vp01wbf","63dd3dd2593c92be97d8dbde","freq_resp","","","img/blue_2bandit_a.png","70","img/blue_2bandit_a.png","70","test","","","","","","","","","","","3","","","","","","","","",""
"null","170981","SARL_v6","SARL_v67vp01wbf","63dd3dd2593c92be97d8dbde","fixation","","","img/fixation.png","null","","","test","","","","","","","","","","","","","","","","","","","",""
"137.59999990463257","171120","SARL_v6","SARL_v67vp01wbf","63dd3dd2593c92be97d8dbde","infreq","","","img/orange_2bandit_a2.png","70","","68","test","0","","65","","","","square","circle","63","16","3","0.9365079365079365","","","","","","","",""
"null","171784","SARL_v6","SARL_v67vp01wbf","63dd3dd2593c92be97d8dbde","infreq_resp","","","img/orange_2bandit_a.png","70","img/orange_2bandit_a.png","68","test","","","","","","","","","","","3","","","","","","","","",""
"null","171937","SARL_v6","SARL_v67vp01wbf","63dd3dd2593c92be97d8dbde","fixation","","","img/fixation.png","null","","","test","","","","","","","","","","","","","","","","","","","",""
"301.69999980926514","172240","SARL_v6","SARL_v67vp01wbf","63dd3dd2593c92be97d8dbde","freq","","","img/blue_2bandit_a2.png","70","","70","test","1","","66","","","","square","circle","64","17","3","0.9375","","","","","","","",""
"null","172741","SARL_v6","SARL_v67vp01wbf","63dd3dd2593c92be97d8dbde","freq_resp","","","img/blue_2bandit_a.png","70","img/blue_2bandit_a.png","70","test","","","","","","","","","","","3","","","","","","","","",""
"null","172894","SARL_v6","SARL_v67vp01wbf","63dd3dd2593c92be97d8dbde","fixation","","","img/fixation.png","null","","","test","","","","","","","","","","","","","","","","","","","",""
"257.30000019073486","173153","SARL_v6","SARL_v67vp01wbf","63dd3dd2593c92be97d8dbde","infreq","","","img/orange_2bandit_a2.png","70","","68","test","0","","67","","","","square","circle","65","18","3","0.9230769230769231","","","","","","","",""
"null","173698","SARL_v6","SARL_v67vp01wbf","63dd3dd2593c92be97d8dbde","infreq_resp","","","img/orange_2bandit_a.png","70","img/orange_2bandit_a.png","68","test","","","","","","","","","","","3","","","","","","","","",""
"null","173851","SARL_v6","SARL_v67vp01wbf","63dd3dd2593c92be97d8dbde","fixation","","","img/fixation.png","null","","","test","","","","","","","","","","","","","","","","","","","",""
"220.59999990463257","174073","SARL_v6","SARL_v67vp01wbf","63dd3dd2593c92be97d8dbde","freq","","","img/blue_2bandit_a2.png","70","","70","test","1","","68","","","","square","circle","66","19","3","0.9242424242424242","","","","","","","",""
"null","174654","SARL_v6","SARL_v67vp01wbf","63dd3dd2593c92be97d8dbde","freq_resp","","","img/blue_2bandit_a.png","70","img/blue_2bandit_a.png","70","test","","","","","","","","","","","3","","","","","","","","",""
"null","174806","SARL_v6","SARL_v67vp01wbf","63dd3dd2593c92be97d8dbde","fixation","","","img/fixation.png","null","","","test","","","","","","","","","","","","","","","","","","","",""
"313","175121","SARL_v6","SARL_v67vp01wbf","63dd3dd2593c92be97d8dbde","freq","","","img/blue_2bandit_a2.png","70","","70","test","1","","69","","","","square","circle","67","20","3","0.9253731343283582","","","","","","","",""
"null","175612","SARL_v6","SARL_v67vp01wbf","63dd3dd2593c92be97d8dbde","freq_resp","","","img/blue_2bandit_a.png","70","img/blue_2bandit_a.png","70","test","","","","","","","","","","","3","","","","","","","","",""
"null","175765","SARL_v6","SARL_v67vp01wbf","63dd3dd2593c92be97d8dbde","fixation","","","img/fixation.png","null","","","test","","","","","","","","","","","","","","","","","","","",""
"330.80000019073486","176098","SARL_v6","SARL_v67vp01wbf","63dd3dd2593c92be97d8dbde","freq","","","img/blue_2bandit_a2.png","70","","70","test","1","","70","","","","square","circle","68","21","3","0.9264705882352942","","","","","","","",""
"null","176569","SARL_v6","SARL_v67vp01wbf","63dd3dd2593c92be97d8dbde","freq_resp","","","img/blue_2bandit_a.png","70","img/blue_2bandit_a.png","70","test","","","","","","","","","","","3","","","","","","","","",""
"null","176722","SARL_v6","SARL_v67vp01wbf","63dd3dd2593c92be97d8dbde","fixation","","","img/fixation.png","null","","","test","","","","","","","","","","","","","","","","","","","",""
"614.0999999046326","177337","SARL_v6","SARL_v67vp01wbf","63dd3dd2593c92be97d8dbde","rl","","","img/black_2bandit_a2.png","75","","0","test","","","71","","","-4","square","circle","","0","3","","75","-4","-8","-8","-4","circle","3","0"
"null","178089","SARL_v6","SARL_v67vp01wbf","63dd3dd2593c92be97d8dbde","feedback","","","<div class=""verylowPoints""> -4 </div>","null","","na","test","","","NaN","","","","","","","","3","","75","","","","","","3",""
"382.5","178473","SARL_v6","SARL_v67vp01wbf","63dd3dd2593c92be97d8dbde","freq","","","img/blue_2bandit_a2.png","70","","70","test","1","","72","","","","square","circle","69","1","4","0.927536231884058","","","","","","","",""
"null","178893","SARL_v6","SARL_v67vp01wbf","63dd3dd2593c92be97d8dbde","freq_resp","","","img/blue_2bandit_a.png","70","img/blue_2bandit_a.png","70","test","","","","","","","","","","","4","","","","","","","","",""
"null","179045","SARL_v6","SARL_v67vp01wbf","63dd3dd2593c92be97d8dbde","fixation","","","img/fixation.png","null","","","test","","","","","","","","","","","","","","","","","","","",""
"282.69999980926514","179329","SARL_v6","SARL_v67vp01wbf","63dd3dd2593c92be97d8dbde","freq","","","img/blue_2bandit_a2.png","70","","70","test","1","","73","","","","square","circle","70","2","4","0.9285714285714286","","","","","","","",""
"null","179848","SARL_v6","SARL_v67vp01wbf","63dd3dd2593c92be97d8dbde","freq_resp","","","img/blue_2bandit_a.png","70","img/blue_2bandit_a.png","70","test","","","","","","","","","","","4","","","","","","","","",""
"null","180001","SARL_v6","SARL_v67vp01wbf","63dd3dd2593c92be97d8dbde","fixation","","","img/fixation.png","null","","","test","","","","","","","","","","","","","","","","","","","",""
"270.90000009536743","180274","SARL_v6","SARL_v67vp01wbf","63dd3dd2593c92be97d8dbde","freq","","","img/blue_2bandit_a2.png","70","","70","test","1","","74","","","","square","circle","71","3","4","0.9295774647887324","","","","","","","",""
"null","180805","SARL_v6","SARL_v67vp01wbf","63dd3dd2593c92be97d8dbde","freq_resp","","","img/blue_2bandit_a.png","70","img/blue_2bandit_a.png","70","test","","","","","","","","","","","4","","","","","","","","",""
"null","180957","SARL_v6","SARL_v67vp01wbf","63dd3dd2593c92be97d8dbde","fixation","","","img/fixation.png","null","","","test","","","","","","","","","","","","","","","","","","","",""
"411","181370","SARL_v6","SARL_v67vp01wbf","63dd3dd2593c92be97d8dbde","infreq","","","img/orange_2bandit_a2.png","68","","68","test","1","","75","","","","square","circle","72","4","4","0.9305555555555556","","","","","","","",""
"null","181760","SARL_v6","SARL_v67vp01wbf","63dd3dd2593c92be97d8dbde","infreq_resp","","","img/orange_2bandit_a.png","68","img/orange_2bandit_a.png","68","test","","","","","","","","","","","4","","","","","","","","",""
"null","181912","SARL_v6","SARL_v67vp01wbf","63dd3dd2593c92be97d8dbde","fixation","","","img/fixation.png","null","","","test","","","","","","","","","","","","","","","","","","","",""
"320","182234","SARL_v6","SARL_v67vp01wbf","63dd3dd2593c92be97d8dbde","freq","","","img/blue_2bandit_a2.png","70","","70","test","1","","76","","","","square","circle","73","5","4","0.9315068493150684","","","","","","","",""
"null","182717","SARL_v6","SARL_v67vp01wbf","63dd3dd2593c92be97d8dbde","freq_resp","","","img/blue_2bandit_a.png","70","img/blue_2bandit_a.png","70","test","","","","","","","","","","","4","","","","","","","","",""
"null","182869","SARL_v6","SARL_v67vp01wbf","63dd3dd2593c92be97d8dbde","fixation","","","img/fixation.png","null","","","test","","","","","","","","","","","","","","","","","","","",""
"260","183130","SARL_v6","SARL_v67vp01wbf","63dd3dd2593c92be97d8dbde","freq","","","img/blue_2bandit_a2.png","70","","70","test","1","","77","","","","square","circle","74","6","4","0.9324324324324325","","","","","","","",""
"null","183673","SARL_v6","SARL_v67vp01wbf","63dd3dd2593c92be97d8dbde","freq_resp","","","img/blue_2bandit_a.png","70","img/blue_2bandit_a.png","70","test","","","","","","","","","","","4","","","","","","","","",""
"null","183825","SARL_v6","SARL_v67vp01wbf","63dd3dd2593c92be97d8dbde","fixation","","","img/fixation.png","null","","","test","","","","","","","","","","","","","","","","","","","",""
"183.2000002861023","184010","SARL_v6","SARL_v67vp01wbf","63dd3dd2593c92be97d8dbde","freq","","","img/blue_2bandit_a2.png","70","","70","test","1","","78","","","","square","circle","75","7","4","0.9333333333333333","","","","","","","",""
"null","184629","SARL_v6","SARL_v67vp01wbf","63dd3dd2593c92be97d8dbde","freq_resp","","","img/blue_2bandit_a.png","70","img/blue_2bandit_a.png","70","test","","","","","","","","","","","4","","","","","","","","",""
"null","184781","SARL_v6","SARL_v67vp01wbf","63dd3dd2593c92be97d8dbde","fixation","","","img/fixation.png","null","","","test","","","","","","","","","","","","","","","","","","","",""
"123.90000009536743","184906","SARL_v6","SARL_v67vp01wbf","63dd3dd2593c92be97d8dbde","freq","","","img/blue_2bandit_a2.png","70","","70","test","1","","79","","","","square","circle","76","8","4","0.9342105263157895","","","","","","","",""
"null","185585","SARL_v6","SARL_v67vp01wbf","63dd3dd2593c92be97d8dbde","freq_resp","","","img/blue_2bandit_a.png","70","img/blue_2bandit_a.png","70","test","","","","","","","","","","","4","","","","","","","","",""
"null","185738","SARL_v6","SARL_v67vp01wbf","63dd3dd2593c92be97d8dbde","fixation","","","img/fixation.png","null","","","test","","","","","","","","","","","","","","","","","","","",""
"110.59999990463257","185851","SARL_v6","SARL_v67vp01wbf","63dd3dd2593c92be97d8dbde","freq","","","img/blue_2bandit_a2.png","70","","70","test","1","","80","","","","square","circle","77","9","4","0.935064935064935","","","","","","","",""
"null","186542","SARL_v6","SARL_v67vp01wbf","63dd3dd2593c92be97d8dbde","freq_resp","","","img/blue_2bandit_a.png","70","img/blue_2bandit_a.png","70","test","","","","","","","","","","","4","","","","","","","","",""
"null","186695","SARL_v6","SARL_v67vp01wbf","63dd3dd2593c92be97d8dbde","fixation","","","img/fixation.png","null","","","test","","","","","","","","","","","","","","","","","","","",""
"241.7000002861023","186938","SARL_v6","SARL_v67vp01wbf","63dd3dd2593c92be97d8dbde","freq","","","img/blue_2bandit_a2.png","70","","70","test","1","","81","","","","square","circle","78","10","4","0.9358974358974359","","","","","","","",""
"null","187499","SARL_v6","SARL_v67vp01wbf","63dd3dd2593c92be97d8dbde","freq_resp","","","img/blue_2bandit_a.png","70","img/blue_2bandit_a.png","70","test","","","","","","","","","","","4","","","","","","","","",""
"null","187650","SARL_v6","SARL_v67vp01wbf","63dd3dd2593c92be97d8dbde","fixation","","","img/fixation.png","null","","","test","","","","","","","","","","","","","","","","","","","",""
"247","187899","SARL_v6","SARL_v67vp01wbf","63dd3dd2593c92be97d8dbde","freq","","","img/blue_2bandit_a2.png","70","","70","test","1","","82","","","","square","circle","79","11","4","0.9367088607594937","","","","","","","",""
"null","188455","SARL_v6","SARL_v67vp01wbf","63dd3dd2593c92be97d8dbde","freq_resp","","","img/blue_2bandit_a.png","70","img/blue_2bandit_a.png","70","test","","","","","","","","","","","4","","","","","","","","",""
"null","188607","SARL_v6","SARL_v67vp01wbf","63dd3dd2593c92be97d8dbde","fixation","","","img/fixation.png","null","","","test","","","","","","","","","","","","","","","","","","","",""
"434.09999990463257","189043","SARL_v6","SARL_v67vp01wbf","63dd3dd2593c92be97d8dbde","infreq","","","img/orange_2bandit_a2.png","68","","68","test","1","","83","","","","square","circle","80","12","4","0.9375","","","","","","","",""
"null","189410","SARL_v6","SARL_v67vp01wbf","63dd3dd2593c92be97d8dbde","infreq_resp","","","img/orange_2bandit_a.png","68","img/orange_2bandit_a.png","68","test","","","","","","","","","","","4","","","","","","","","",""
"null","189563","SARL_v6","SARL_v67vp01wbf","63dd3dd2593c92be97d8dbde","fixation","","","img/fixation.png","null","","","test","","","","","","","","","","","","","","","","","","","",""
"301.80000019073486","189867","SARL_v6","SARL_v67vp01wbf","63dd3dd2593c92be97d8dbde","freq","","","img/blue_2bandit_a2.png","70","","70","test","1","","84","","","","square","circle","81","13","4","0.9382716049382716","","","","","","","",""
"null","190368","SARL_v6","SARL_v67vp01wbf","63dd3dd2593c92be97d8dbde","freq_resp","","","img/blue_2bandit_a.png","70","img/blue_2bandit_a.png","70","test","","","","","","","","","","","4","","","","","","","","",""
"null","190520","SARL_v6","SARL_v67vp01wbf","63dd3dd2593c92be97d8dbde","fixation","","","img/fixation.png","null","","","test","","","","","","","","","","","","","","","","","","","",""
"257.2000002861023","190779","SARL_v6","SARL_v67vp01wbf","63dd3dd2593c92be97d8dbde","freq","","","img/blue_2bandit_a2.png","70","","70","test","1","","85","","","","square","circle","82","14","4","0.9390243902439024","","","","","","","",""
"null","191324","SARL_v6","SARL_v67vp01wbf","63dd3dd2593c92be97d8dbde","freq_resp","","","img/blue_2bandit_a.png","70","img/blue_2bandit_a.png","70","test","","","","","","","","","","","4","","","","","","","","",""
"null","191476","SARL_v6","SARL_v67vp01wbf","63dd3dd2593c92be97d8dbde","fixation","","","img/fixation.png","null","","","test","","","","","","","","","","","","","","","","","","","",""
"141.40000009536743","191619","SARL_v6","SARL_v67vp01wbf","63dd3dd2593c92be97d8dbde","freq","","","img/blue_2bandit_a2.png","70","","70","test","1","","86","","","","square","circle","83","15","4","0.9397590361445783","","","","","","","",""
"null","192280","SARL_v6","SARL_v67vp01wbf","63dd3dd2593c92be97d8dbde","freq_resp","","","img/blue_2bandit_a.png","70","img/blue_2bandit_a.png","70","test","","","","","","","","","","","4","","","","","","","","",""
"null","192433","SARL_v6","SARL_v67vp01wbf","63dd3dd2593c92be97d8dbde","fixation","","","img/fixation.png","null","","","test","","","","","","","","","","","","","","","","","","","",""
"89.09999990463257","192523","SARL_v6","SARL_v67vp01wbf","63dd3dd2593c92be97d8dbde","freq","","","img/blue_2bandit_a2.png","70","","70","test","1","","87","","","","square","circle","84","16","4","0.9404761904761905","","","","","","","",""
"null","193237","SARL_v6","SARL_v67vp01wbf","63dd3dd2593c92be97d8dbde","freq_resp","","","img/blue_2bandit_a.png","70","img/blue_2bandit_a.png","70","test","","","","","","","","","","","4","","","","","","","","",""
"null","193389","SARL_v6","SARL_v67vp01wbf","63dd3dd2593c92be97d8dbde","fixation","","","img/fixation.png","null","","","test","","","","","","","","","","","","","","","","","","","",""
"44.59999990463257","193436","SARL_v6","SARL_v67vp01wbf","63dd3dd2593c92be97d8dbde","freq","","","img/blue_2bandit_a2.png","70","","70","test","1","","88","","","","square","circle","85","17","4","0.9411764705882353","","","","","","","",""
"null","194193","SARL_v6","SARL_v67vp01wbf","63dd3dd2593c92be97d8dbde","freq_resp","","","img/blue_2bandit_a.png","70","img/blue_2bandit_a.png","70","test","","","","","","","","","","","4","","","","","","","","",""
"null","194345","SARL_v6","SARL_v67vp01wbf","63dd3dd2593c92be97d8dbde","fixation","","","img/fixation.png","null","","","test","","","","","","","","","","","","","","","","","","","",""
"120.80000019073486","194468","SARL_v6","SARL_v67vp01wbf","63dd3dd2593c92be97d8dbde","freq","","","img/blue_2bandit_a2.png","70","","70","test","1","","89","","","","square","circle","86","18","4","0.9418604651162791","","","","","","","",""
"null","195149","SARL_v6","SARL_v67vp01wbf","63dd3dd2593c92be97d8dbde","freq_resp","","","img/blue_2bandit_a.png","70","img/blue_2bandit_a.png","70","test","","","","","","","","","","","4","","","","","","","","",""
"null","195301","SARL_v6","SARL_v67vp01wbf","63dd3dd2593c92be97d8dbde","fixation","","","img/fixation.png","null","","","test","","","","","","","","","","","","","","","","","","","",""
"133.5","195436","SARL_v6","SARL_v67vp01wbf","63dd3dd2593c92be97d8dbde","freq","","","img/blue_2bandit_a2.png","70","","70","test","1","","90","","","","square","circle","87","19","4","0.9425287356321839","","","","","","","",""
"null","196105","SARL_v6","SARL_v67vp01wbf","63dd3dd2593c92be97d8dbde","freq_resp","","","img/blue_2bandit_a.png","70","img/blue_2bandit_a.png","70","test","","","","","","","","","","","4","","","","","","","","",""
"null","196259","SARL_v6","SARL_v67vp01wbf","63dd3dd2593c92be97d8dbde","fixation","","","img/fixation.png","null","","","test","","","","","","","","","","","","","","","","","","","",""
"239.90000009536743","196501","SARL_v6","SARL_v67vp01wbf","63dd3dd2593c92be97d8dbde","freq","","","img/blue_2bandit_a2.png","70","","70","test","1","","91","","","","square","circle","88","20","4","0.9431818181818182","","","","","","","",""
"null","197063","SARL_v6","SARL_v67vp01wbf","63dd3dd2593c92be97d8dbde","freq_resp","","","img/blue_2bandit_a.png","70","img/blue_2bandit_a.png","70","test","","","","","","","","","","","4","","","","","","","","",""
"null","197217","SARL_v6","SARL_v67vp01wbf","63dd3dd2593c92be97d8dbde","fixation","","","img/fixation.png","null","","","test","","","","","","","","","","","","","","","","","","","",""
"185.7999997138977","197404","SARL_v6","SARL_v67vp01wbf","63dd3dd2593c92be97d8dbde","freq","","","img/blue_2bandit_a2.png","70","","70","test","1","","92","","","","square","circle","89","21","4","0.9438202247191011","","","","","","","",""
"null","198020","SARL_v6","SARL_v67vp01wbf","63dd3dd2593c92be97d8dbde","freq_resp","","","img/blue_2bandit_a.png","70","img/blue_2bandit_a.png","70","test","","","","","","","","","","","4","","","","","","","","",""
"null","198171","SARL_v6","SARL_v67vp01wbf","63dd3dd2593c92be97d8dbde","fixation","","","img/fixation.png","null","","","test","","","","","","","","","","","","","","","","","","","",""
"239.30000019073486","198412","SARL_v6","SARL_v67vp01wbf","63dd3dd2593c92be97d8dbde","freq","","","img/blue_2bandit_a2.png","70","","70","test","1","","93","","","","square","circle","90","22","4","0.9444444444444444","","","","","","","",""
"null","198975","SARL_v6","SARL_v67vp01wbf","63dd3dd2593c92be97d8dbde","freq_resp","","","img/blue_2bandit_a.png","70","img/blue_2bandit_a.png","70","test","","","","","","","","","","","4","","","","","","","","",""
"null","199127","SARL_v6","SARL_v67vp01wbf","63dd3dd2593c92be97d8dbde","fixation","","","img/fixation.png","null","","","test","","","","","","","","","","","","","","","","","","","",""
"267.30000019073486","199396","SARL_v6","SARL_v67vp01wbf","63dd3dd2593c92be97d8dbde","freq","","","img/blue_2bandit_a2.png","70","","70","test","1","","94","","","","square","circle","91","23","4","0.945054945054945","","","","","","","",""
"null","199931","SARL_v6","SARL_v67vp01wbf","63dd3dd2593c92be97d8dbde","freq_resp","","","img/blue_2bandit_a.png","70","img/blue_2bandit_a.png","70","test","","","","","","","","","","","4","","","","","","","","",""
"null","200083","SARL_v6","SARL_v67vp01wbf","63dd3dd2593c92be97d8dbde","fixation","","","img/fixation.png","null","","","test","","","","","","","","","","","","","","","","","","","",""
"279.90000009536743","200364","SARL_v6","SARL_v67vp01wbf","63dd3dd2593c92be97d8dbde","freq","","","img/blue_2bandit_a2.png","70","","70","test","1","","95","","","","square","circle","92","24","4","0.9456521739130435","","","","","","","",""
"null","200887","SARL_v6","SARL_v67vp01wbf","63dd3dd2593c92be97d8dbde","freq_resp","","","img/blue_2bandit_a.png","70","img/blue_2bandit_a.png","70","test","","","","","","","","","","","4","","","","","","","","",""
"null","201039","SARL_v6","SARL_v67vp01wbf","63dd3dd2593c92be97d8dbde","fixation","","","img/fixation.png","null","","","test","","","","","","","","","","","","","","","","","","","",""
"251.80000019073486","201293","SARL_v6","SARL_v67vp01wbf","63dd3dd2593c92be97d8dbde","freq","","","img/blue_2bandit_a2.png","70","","70","test","1","","96","","","","square","circle","93","25","4","0.946236559139785","","","","","","","",""
"null","201843","SARL_v6","SARL_v67vp01wbf","63dd3dd2593c92be97d8dbde","freq_resp","","","img/blue_2bandit_a.png","70","img/blue_2bandit_a.png","70","test","","","","","","","","","","","4","","","","","","","","",""
"null","201995","SARL_v6","SARL_v67vp01wbf","63dd3dd2593c92be97d8dbde","fixation","","","img/fixation.png","null","","","test","","","","","","","","","","","","","","","","","","","",""
"583.8000001907349","202581","SARL_v6","SARL_v67vp01wbf","63dd3dd2593c92be97d8dbde","rl","","","img/black_2bandit_a2.png","75","","0","test","","","97","","","0","square","circle","","0","4","","75","0","-12","-12","0","circle","4","0"
"null","203333","SARL_v6","SARL_v67vp01wbf","63dd3dd2593c92be97d8dbde","feedback","","","<div class=""verylowPoints""> 0 </div>","null","","na","test","","","NaN","","","","","","","","4","","75","","","","","","4",""
"null","204136","SARL_v6","SARL_v67vp01wbf","63dd3dd2593c92be97d8dbde","freq","","","img/blue_2bandit_a2.png","null","","70","test","0","","98","","","","square","circle","94","1","5","0.9361702127659575","","","","","","","",""
"null","204288","SARL_v6","SARL_v67vp01wbf","63dd3dd2593c92be97d8dbde","fixation","","","img/fixation.png","null","","","test","","","","","","","","","","","","","","","","","","","",""
"515.3000001907349","204805","SARL_v6","SARL_v67vp01wbf","63dd3dd2593c92be97d8dbde","infreq","","","img/orange_2bandit_a2.png","68","","68","test","1","","99","","","","square","circle","95","2","5","0.9368421052631579","","","","","","","",""
"null","205092","SARL_v6","SARL_v67vp01wbf","63dd3dd2593c92be97d8dbde","infreq_resp","","","img/orange_2bandit_a.png","68","img/orange_2bandit_a.png","68","test","","","","","","","","","","","5","","","","","","","","",""
"null","205244","SARL_v6","SARL_v67vp01wbf","63dd3dd2593c92be97d8dbde","fixation","","","img/fixation.png","null","","","test","","","","","","","","","","","","","","","","","","","",""
"335.2000002861023","205581","SARL_v6","SARL_v67vp01wbf","63dd3dd2593c92be97d8dbde","freq","","","img/blue_2bandit_a2.png","70","","70","test","1","","100","","","","square","circle","96","3","5","0.9375","","","","","","","",""
"null","206048","SARL_v6","SARL_v67vp01wbf","63dd3dd2593c92be97d8dbde","freq_resp","","","img/blue_2bandit_a.png","70","img/blue_2bandit_a.png","70","test","","","","","","","","","","","5","","","","","","","","",""
"null","206200","SARL_v6","SARL_v67vp01wbf","63dd3dd2593c92be97d8dbde","fixation","","","img/fixation.png","null","","","test","","","","","","","","","","","","","","","","","","","",""
"443.40000009536743","206645","SARL_v6","SARL_v67vp01wbf","63dd3dd2593c92be97d8dbde","freq","","","img/blue_2bandit_a2.png","70","","70","test","1","","101","","","","square","circle","97","4","5","0.9381443298969072","","","","","","","",""
"null","207004","SARL_v6","SARL_v67vp01wbf","63dd3dd2593c92be97d8dbde","freq_resp","","","img/blue_2bandit_a.png","70","img/blue_2bandit_a.png","70","test","","","","","","","","","","","5","","","","","","","","",""
"null","207156","SARL_v6","SARL_v67vp01wbf","63dd3dd2593c92be97d8dbde","fixation","","","img/fixation.png","null","","","test","","","","","","","","","","","","","","","","","","","",""
"255.5","207413","SARL_v6","SARL_v67vp01wbf","63dd3dd2593c92be97d8dbde","freq","","","img/blue_2bandit_a2.png","70","","70","test","1","","102","","","","square","circle","98","5","5","0.9387755102040817","","","","","","","",""
"null","207960","SARL_v6","SARL_v67vp01wbf","63dd3dd2593c92be97d8dbde","freq_resp","","","img/blue_2bandit_a.png","70","img/blue_2bandit_a.png","70","test","","","","","","","","","","","5","","","","","","","","",""
"null","208112","SARL_v6","SARL_v67vp01wbf","63dd3dd2593c92be97d8dbde","fixation","","","img/fixation.png","null","","","test","","","","","","","","","","","","","","","","","","","",""
"235.59999990463257","208350","SARL_v6","SARL_v67vp01wbf","63dd3dd2593c92be97d8dbde","freq","","","img/blue_2bandit_a2.png","70","","70","test","1","","103","","","","square","circle","99","6","5","0.9393939393939394","","","","","","","",""
"null","208917","SARL_v6","SARL_v67vp01wbf","63dd3dd2593c92be97d8dbde","freq_resp","","","img/blue_2bandit_a.png","70","img/blue_2bandit_a.png","70","test","","","","","","","","","","","5","","","","","","","","",""
"null","209068","SARL_v6","SARL_v67vp01wbf","63dd3dd2593c92be97d8dbde","fixation","","","img/fixation.png","null","","","test","","","","","","","","","","","","","","","","","","","",""
"271.80000019073486","209342","SARL_v6","SARL_v67vp01wbf","63dd3dd2593c92be97d8dbde","freq","","","img/blue_2bandit_a2.png","70","","70","test","1","","104","","","","square","circle","100","7","5","0.94","","","","","","","",""
"null","209871","SARL_v6","SARL_v67vp01wbf","63dd3dd2593c92be97d8dbde","freq_resp","","","img/blue_2bandit_a.png","70","img/blue_2bandit_a.png","70","test","","","","","","","","","","","5","","","","","","","","",""
"null","210024","SARL_v6","SARL_v67vp01wbf","63dd3dd2593c92be97d8dbde","fixation","","","img/fixation.png","null","","","test","","","","","","","","","","","","","","","","","","","",""
"372.7999997138977","210398","SARL_v6","SARL_v67vp01wbf","63dd3dd2593c92be97d8dbde","freq","","","img/blue_2bandit_a2.png","70","","70","test","1","","105","","","","square","circle","101","8","5","0.9405940594059405","","","","","","","",""
"null","210827","SARL_v6","SARL_v67vp01wbf","63dd3dd2593c92be97d8dbde","freq_resp","","","img/blue_2bandit_a.png","70","img/blue_2bandit_a.png","70","test","","","","","","","","","","","5","","","","","","","","",""
"null","210980","SARL_v6","SARL_v67vp01wbf","63dd3dd2593c92be97d8dbde","fixation","","","img/fixation.png","null","","","test","","","","","","","","","","","","","","","","","","","",""
"304.5","211286","SARL_v6","SARL_v67vp01wbf","63dd3dd2593c92be97d8dbde","freq","","","img/blue_2bandit_a2.png","70","","70","test","1","","106","","","","square","circle","102","9","5","0.9411764705882353","","","","","","","",""
"null","211784","SARL_v6","SARL_v67vp01wbf","63dd3dd2593c92be97d8dbde","freq_resp","","","img/blue_2bandit_a.png","70","img/blue_2bandit_a.png","70","test","","","","","","","","","","","5","","","","","","","","",""
"null","211937","SARL_v6","SARL_v67vp01wbf","63dd3dd2593c92be97d8dbde","fixation","","","img/fixation.png","null","","","test","","","","","","","","","","","","","","","","","","","",""
"260","212198","SARL_v6","SARL_v67vp01wbf","63dd3dd2593c92be97d8dbde","freq","","","img/blue_2bandit_a2.png","70","","70","test","1","","107","","","","square","circle","103","10","5","0.941747572815534","","","","","","","",""
"null","212740","SARL_v6","SARL_v67vp01wbf","63dd3dd2593c92be97d8dbde","freq_resp","","","img/blue_2bandit_a.png","70","img/blue_2bandit_a.png","70","test","","","","","","","","","","","5","","","","","","","","",""
"null","212892","SARL_v6","SARL_v67vp01wbf","63dd3dd2593c92be97d8dbde","fixation","","","img/fixation.png","null","","","test","","","","","","","","","","","","","","","","","","","",""
"168.90000009536743","213062","SARL_v6","SARL_v67vp01wbf","63dd3dd2593c92be97d8dbde","freq","","","img/blue_2bandit_a2.png","70","","70","test","1","","108","","","","square","circle","104","11","5","0.9423076923076923","","","","","","","",""
"null","213695","SARL_v6","SARL_v67vp01wbf","63dd3dd2593c92be97d8dbde","freq_resp","","","img/blue_2bandit_a.png","70","img/blue_2bandit_a.png","70","test","","","","","","","","","","","5","","","","","","","","",""
"null","213847","SARL_v6","SARL_v67vp01wbf","63dd3dd2593c92be97d8dbde","fixation","","","img/fixation.png","null","","","test","","","","","","","","","","","","","","","","","","","",""
"293.5","214142","SARL_v6","SARL_v67vp01wbf","63dd3dd2593c92be97d8dbde","infreq","","","img/orange_2bandit_a2.png","70","","68","test","0","","109","","","","square","circle","105","12","5","0.9333333333333333","","","","","","","",""
"null","214651","SARL_v6","SARL_v67vp01wbf","63dd3dd2593c92be97d8dbde","infreq_resp","","","img/orange_2bandit_a.png","70","img/orange_2bandit_a.png","68","test","","","","","","","","","","","5","","","","","","","","",""
"null","214803","SARL_v6","SARL_v67vp01wbf","63dd3dd2593c92be97d8dbde","fixation","","","img/fixation.png","null","","","test","","","","","","","","","","","","","","","","","","","",""
"265.7999997138977","215071","SARL_v6","SARL_v67vp01wbf","63dd3dd2593c92be97d8dbde","freq","","","img/blue_2bandit_a2.png","70","","70","test","1","","110","","","","square","circle","106","13","5","0.9339622641509434","","","","","","","",""
"null","215607","SARL_v6","SARL_v67vp01wbf","63dd3dd2593c92be97d8dbde","freq_resp","","","img/blue_2bandit_a.png","70","img/blue_2bandit_a.png","70","test","","","","","","","","","","","5","","","","","","","","",""
"null","215760","SARL_v6","SARL_v67vp01wbf","63dd3dd2593c92be97d8dbde","fixation","","","img/fixation.png","null","","","test","","","","","","","","","","","","","","","","","","","",""
"253.5","216014","SARL_v6","SARL_v67vp01wbf","63dd3dd2593c92be97d8dbde","freq","","","img/blue_2bandit_a2.png","70","","70","test","1","","111","","","","square","circle","107","14","5","0.9345794392523364","","","","","","","",""
"null","216563","SARL_v6","SARL_v67vp01wbf","63dd3dd2593c92be97d8dbde","freq_resp","","","img/blue_2bandit_a.png","70","img/blue_2bandit_a.png","70","test","","","","","","","","","","","5","","","","","","","","",""
"null","216714","SARL_v6","SARL_v67vp01wbf","63dd3dd2593c92be97d8dbde","fixation","","","img/fixation.png","null","","","test","","","","","","","","","","","","","","","","","","","",""
"266.90000009536743","216983","SARL_v6","SARL_v67vp01wbf","63dd3dd2593c92be97d8dbde","freq","","","img/blue_2bandit_a2.png","70","","70","test","1","","112","","","","square","circle","108","15","5","0.9351851851851852","","","","","","","",""
"null","217520","SARL_v6","SARL_v67vp01wbf","63dd3dd2593c92be97d8dbde","freq_resp","","","img/blue_2bandit_a.png","70","img/blue_2bandit_a.png","70","test","","","","","","","","","","","5","","","","","","","","",""
"null","217671","SARL_v6","SARL_v67vp01wbf","63dd3dd2593c92be97d8dbde","fixation","","","img/fixation.png","null","","","test","","","","","","","","","","","","","","","","","","","",""
"190","217863","SARL_v6","SARL_v67vp01wbf","63dd3dd2593c92be97d8dbde","freq","","","img/blue_2bandit_a2.png","70","","70","test","1","","113","","","","square","circle","109","16","5","0.9357798165137615","","","","","","","",""
"null","218474","SARL_v6","SARL_v67vp01wbf","63dd3dd2593c92be97d8dbde","freq_resp","","","img/blue_2bandit_a.png","70","img/blue_2bandit_a.png","70","test","","","","","","","","","","","5","","","","","","","","",""
"null","218626","SARL_v6","SARL_v67vp01wbf","63dd3dd2593c92be97d8dbde","fixation","","","img/fixation.png","null","","","test","","","","","","","","","","","","","","","","","","","",""
"91.09999990463257","218719","SARL_v6","SARL_v67vp01wbf","63dd3dd2593c92be97d8dbde","freq","","","img/blue_2bandit_a2.png","70","","70","test","1","","114","","","","square","circle","110","17","5","0.9363636363636364","","","","","","","",""
"null","219428","SARL_v6","SARL_v67vp01wbf","63dd3dd2593c92be97d8dbde","freq_resp","","","img/blue_2bandit_a.png","70","img/blue_2bandit_a.png","70","test","","","","","","","","","","","5","","","","","","","","",""
"null","219580","SARL_v6","SARL_v67vp01wbf","63dd3dd2593c92be97d8dbde","fixation","","","img/fixation.png","null","","","test","","","","","","","","","","","","","","","","","","","",""
"89.09999990463257","219671","SARL_v6","SARL_v67vp01wbf","63dd3dd2593c92be97d8dbde","freq","","","img/blue_2bandit_a2.png","70","","70","test","1","","115","","","","square","circle","111","18","5","0.9369369369369369","","","","","","","",""
"null","220384","SARL_v6","SARL_v67vp01wbf","63dd3dd2593c92be97d8dbde","freq_resp","","","img/blue_2bandit_a.png","70","img/blue_2bandit_a.png","70","test","","","","","","","","","","","5","","","","","","","","",""
"null","220537","SARL_v6","SARL_v67vp01wbf","63dd3dd2593c92be97d8dbde","fixation","","","img/fixation.png","null","","","test","","","","","","","","","","","","","","","","","","","",""
"125.09999990463257","220663","SARL_v6","SARL_v67vp01wbf","63dd3dd2593c92be97d8dbde","freq","","","img/blue_2bandit_a2.png","70","","70","test","1","","116","","","","square","circle","112","19","5","0.9375","","","","","","","",""
"null","221340","SARL_v6","SARL_v67vp01wbf","63dd3dd2593c92be97d8dbde","freq_resp","","","img/blue_2bandit_a.png","70","img/blue_2bandit_a.png","70","test","","","","","","","","","","","5","","","","","","","","",""
"null","221492","SARL_v6","SARL_v67vp01wbf","63dd3dd2593c92be97d8dbde","fixation","","","img/fixation.png","null","","","test","","","","","","","","","","","","","","","","","","","",""
"449.40000009536743","221943","SARL_v6","SARL_v67vp01wbf","63dd3dd2593c92be97d8dbde","freq","","","img/blue_2bandit_a2.png","70","","70","test","1","","117","","","","square","circle","113","20","5","0.9380530973451328","","","","","","","",""
"null","222295","SARL_v6","SARL_v67vp01wbf","63dd3dd2593c92be97d8dbde","freq_resp","","","img/blue_2bandit_a.png","70","img/blue_2bandit_a.png","70","test","","","","","","","","","","","5","","","","","","","","",""
"null","222448","SARL_v6","SARL_v67vp01wbf","63dd3dd2593c92be97d8dbde","fixation","","","img/fixation.png","null","","","test","","","","","","","","","","","","","","","","","","","",""
"213.80000019073486","222664","SARL_v6","SARL_v67vp01wbf","63dd3dd2593c92be97d8dbde","freq","","","img/blue_2bandit_a2.png","70","","70","test","1","","118","","","","square","circle","114","21","5","0.9385964912280702","","","","","","","",""
"null","223252","SARL_v6","SARL_v67vp01wbf","63dd3dd2593c92be97d8dbde","freq_resp","","","img/blue_2bandit_a.png","70","img/blue_2bandit_a.png","70","test","","","","","","","","","","","5","","","","","","","","",""
"null","223404","SARL_v6","SARL_v67vp01wbf","63dd3dd2593c92be97d8dbde","fixation","","","img/fixation.png","null","","","test","","","","","","","","","","","","","","","","","","","",""
"577.7000002861023","223984","SARL_v6","SARL_v67vp01wbf","63dd3dd2593c92be97d8dbde","rl","","","img/black_2bandit_a2.png","75","","0","test","","","119","","","4","square","circle","","0","5","","75","4","-7","-7","4","circle","5","0"
"null","224738","SARL_v6","SARL_v67vp01wbf","63dd3dd2593c92be97d8dbde","feedback","","","<div class=""veryhighPoints""> 4 </div>","null","","na","test","","","NaN","","","","","","","","5","","75","","","","","","5",""
"420.69999980926514","225160","SARL_v6","SARL_v67vp01wbf","63dd3dd2593c92be97d8dbde","freq","","","img/blue_2bandit_a2.png","70","","70","test","1","","120","","","","square","circle","115","1","6","0.9391304347826087","","","","","","","",""
"null","225541","SARL_v6","SARL_v67vp01wbf","63dd3dd2593c92be97d8dbde","freq_resp","","","img/blue_2bandit_a.png","70","img/blue_2bandit_a.png","70","test","","","","","","","","","","","6","","","","","","","","",""
"null","225694","SARL_v6","SARL_v67vp01wbf","63dd3dd2593c92be97d8dbde","fixation","","","img/fixation.png","null","","","test","","","","","","","","","","","","","","","","","","","",""
"344","226040","SARL_v6","SARL_v67vp01wbf","63dd3dd2593c92be97d8dbde","freq","","","img/blue_2bandit_a2.png","70","","70","test","1","","121","","","","square","circle","116","2","6","0.9396551724137931","","","","","","","",""
"null","226500","SARL_v6","SARL_v67vp01wbf","63dd3dd2593c92be97d8dbde","freq_resp","","","img/blue_2bandit_a.png","70","img/blue_2bandit_a.png","70","test","","","","","","","","","","","6","","","","","","","","",""
"null","226654","SARL_v6","SARL_v67vp01wbf","63dd3dd2593c92be97d8dbde","fixation","","","img/fixation.png","null","","","test","","","","","","","","","","","","","","","","","","","",""
"369.1000003814697","227024","SARL_v6","SARL_v67vp01wbf","63dd3dd2593c92be97d8dbde","freq","","","img/blue_2bandit_a2.png","70","","70","test","1","","122","","","","square","circle","117","3","6","0.9401709401709402","","","","","","","",""
"null","227456","SARL_v6","SARL_v67vp01wbf","63dd3dd2593c92be97d8dbde","freq_resp","","","img/blue_2bandit_a.png","70","img/blue_2bandit_a.png","70","test","","","","","","","","","","","6","","","","","","","","",""
"null","227608","SARL_v6","SARL_v67vp01wbf","63dd3dd2593c92be97d8dbde","fixation","","","img/fixation.png","null","","","test","","","","","","","","","","","","","","","","","","","",""
"278.5","227888","SARL_v6","SARL_v67vp01wbf","63dd3dd2593c92be97d8dbde","freq","","","img/blue_2bandit_a2.png","70","","70","test","1","","123","","","","square","circle","118","4","6","0.940677966101695","","","","","","","",""
"null","228411","SARL_v6","SARL_v67vp01wbf","63dd3dd2593c92be97d8dbde","freq_resp","","","img/blue_2bandit_a.png","70","img/blue_2bandit_a.png","70","test","","","","","","","","","","","6","","","","","","","","",""
"null","228563","SARL_v6","SARL_v67vp01wbf","63dd3dd2593c92be97d8dbde","fixation","","","img/fixation.png","null","","","test","","","","","","","","","","","","","","","","","","","",""
"299.5","228864","SARL_v6","SARL_v67vp01wbf","63dd3dd2593c92be97d8dbde","freq","","","img/blue_2bandit_a2.png","70","","70","test","1","","124","","","","square","circle","119","5","6","0.9411764705882353","","","","","","","",""
"null","229368","SARL_v6","SARL_v67vp01wbf","63dd3dd2593c92be97d8dbde","freq_resp","","","img/blue_2bandit_a.png","70","img/blue_2bandit_a.png","70","test","","","","","","","","","","","6","","","","","","","","",""
"null","229520","SARL_v6","SARL_v67vp01wbf","63dd3dd2593c92be97d8dbde","fixation","","","img/fixation.png","null","","","test","","","","","","","","","","","","","","","","","","","",""
"358.59999990463257","229880","SARL_v6","SARL_v67vp01wbf","63dd3dd2593c92be97d8dbde","freq","","","img/blue_2bandit_a2.png","70","","70","test","1","","125","","","","square","circle","120","6","6","0.9416666666666667","","","","","","","",""
"null","230324","SARL_v6","SARL_v67vp01wbf","63dd3dd2593c92be97d8dbde","freq_resp","","","img/blue_2bandit_a.png","70","img/blue_2bandit_a.png","70","test","","","","","","","","","","","6","","","","","","","","",""
"null","230476","SARL_v6","SARL_v67vp01wbf","63dd3dd2593c92be97d8dbde","fixation","","","img/fixation.png","null","","","test","","","","","","","","","","","","","","","","","","","",""
"370.7000002861023","230848","SARL_v6","SARL_v67vp01wbf","63dd3dd2593c92be97d8dbde","freq","","","img/blue_2bandit_a2.png","70","","70","test","1","","126","","","","square","circle","121","7","6","0.9421487603305785","","","","","","","",""
"null","231279","SARL_v6","SARL_v67vp01wbf","63dd3dd2593c92be97d8dbde","freq_resp","","","img/blue_2bandit_a.png","70","img/blue_2bandit_a.png","70","test","","","","","","","","","","","6","","","","","","","","",""
"null","231432","SARL_v6","SARL_v67vp01wbf","63dd3dd2593c92be97d8dbde","fixation","","","img/fixation.png","null","","","test","","","","","","","","","","","","","","","","","","","",""
"343.5","231777","SARL_v6","SARL_v67vp01wbf","63dd3dd2593c92be97d8dbde","freq","","","img/blue_2bandit_a2.png","70","","70","test","1","","127","","","","square","circle","122","8","6","0.9426229508196722","","","","","","","",""
"null","232235","SARL_v6","SARL_v67vp01wbf","63dd3dd2593c92be97d8dbde","freq_resp","","","img/blue_2bandit_a.png","70","img/blue_2bandit_a.png","70","test","","","","","","","","","","","6","","","","","","","","",""
"null","232388","SARL_v6","SARL_v67vp01wbf","63dd3dd2593c92be97d8dbde","fixation","","","img/fixation.png","null","","","test","","","","","","","","","","","","","","","","","","","",""
"395.30000019073486","232785","SARL_v6","SARL_v67vp01wbf","63dd3dd2593c92be97d8dbde","freq","","","img/blue_2bandit_a2.png","70","","70","test","1","","128","","","","square","circle","123","9","6","0.943089430894309","","","","","","","",""
"null","233191","SARL_v6","SARL_v67vp01wbf","63dd3dd2593c92be97d8dbde","freq_resp","","","img/blue_2bandit_a.png","70","img/blue_2bandit_a.png","70","test","","","","","","","","","","","6","","","","","","","","",""
"null","233344","SARL_v6","SARL_v67vp01wbf","63dd3dd2593c92be97d8dbde","fixation","","","img/fixation.png","null","","","test","","","","","","","","","","","","","","","","","","","",""
"399.19999980926514","233745","SARL_v6","SARL_v67vp01wbf","63dd3dd2593c92be97d8dbde","freq","","","img/blue_2bandit_a2.png","70","","70","test","1","","129","","","","square","circle","124","10","6","0.9435483870967742","","","","","","","",""
"null","234147","SARL_v6","SARL_v67vp01wbf","63dd3dd2593c92be97d8dbde","freq_resp","","","img/blue_2bandit_a.png","70","img/blue_2bandit_a.png","70","test","","","","","","","","","","","6","","","","","","","","",""
"null","234299","SARL_v6","SARL_v67vp01wbf","63dd3dd2593c92be97d8dbde","fixation","","","img/fixation.png","null","","","test","","","","","","","","","","","","","","","","","","","",""
"468.5","234769","SARL_v6","SARL_v67vp01wbf","63dd3dd2593c92be97d8dbde","freq","","","img/blue_2bandit_a2.png","70","","70","test","1","","130","","","","square","circle","125","11","6","0.944","","","","","","","",""
"null","235102","SARL_v6","SARL_v67vp01wbf","63dd3dd2593c92be97d8dbde","freq_resp","","","img/blue_2bandit_a.png","70","img/blue_2bandit_a.png","70","test","","","","","","","","","","","6","","","","","","","","",""
"null","235255","SARL_v6","SARL_v67vp01wbf","63dd3dd2593c92be97d8dbde","fixation","","","img/fixation.png","null","","","test","","","","","","","","","","","","","","","","","","","",""
"368.30000019073486","235625","SARL_v6","SARL_v67vp01wbf","63dd3dd2593c92be97d8dbde","freq","","","img/blue_2bandit_a2.png","70","","70","test","1","","131","","","","square","circle","126","12","6","0.9444444444444444","","","","","","","",""
