"rt","time_elapsed","expId","subject","prolificID","trialType","rlType","attType","stimulus","key_press","stim","corrresp","phase","corr","pracCounter","trialNum","rewardOne","rewardTwo","reward","bandOne","bandTwo","attentionNum","attentionRunNum","blockNum","performance","bandChosen","circleVal","squareVal","bandOneVal","bandTwoVal","shapeChosen","rlNum","badFlag"
"35930.699999809265","35942","SARL_v6","SARL_v6tkgopd6d","6306a29015f8667413e26eef","","","","","","","","","","","","","","","","","","","","","","","","","","","",""
"","40869","SARL_v6","SARL_v6tkgopd6d","6306a29015f8667413e26eef","fullscreen","fullscreen","fullscreen","","","","","","","","","","","","","","","","","","","","","","","","",""
"163883.20000004768","204762","SARL_v6","SARL_v6tkgopd6d","6306a29015f8667413e26eef","","","","","","","","","","","","","","","","","","","","","","","","","","","",""
"null","205581","SARL_v6","SARL_v6tkgopd6d","6306a29015f8667413e26eef","freqPrac","","","img/orange_2bandit_b2.png","null","img/orange_2bandit_b2.png","70","prac","0","1","","","","","","","","","","","","","","","","","",""
"null","206593","SARL_v6","SARL_v6tkgopd6d","6306a29015f8667413e26eef","feedback","","","img/tooSlow.png","null","","na","prac","","","","","","","","","","","","","","","","","","","",""
"null","206756","SARL_v6","SARL_v6tkgopd6d","6306a29015f8667413e26eef","fixation","","","img/fixation.png","null","","","prac","","","","","","","","","","","","","","","","","","","",""
"468.10000014305115","207232","SARL_v6","SARL_v6tkgopd6d","6306a29015f8667413e26eef","infreqPrac","","","img/blue_2bandit_b2.png","68","img/blue_2bandit_b2.png","68","prac","1","1","","","","","","","","","","","","","","","","","",""
"468.10000014305115","207584","SARL_v6","SARL_v6tkgopd6d","6306a29015f8667413e26eef","infreqPrac_resp","","","img/blue_2bandit_b.png","68","img/blue_2bandit_b.png","68","prac","","","","","","","","","","","","","","","","","","","",""
"null","207752","SARL_v6","SARL_v6tkgopd6d","6306a29015f8667413e26eef","fixation","","","img/fixation.png","null","","","prac","","","","","","","","","","","","","","","","","","","",""
"511.7999999523163","208272","SARL_v6","SARL_v6tkgopd6d","6306a29015f8667413e26eef","freqPrac","","","img/orange_2bandit_b2.png","70","img/orange_2bandit_b2.png","70","prac","1","1","","","","","","","","","","","","","","","","","",""
"511.7999999523163","208577","SARL_v6","SARL_v6tkgopd6d","6306a29015f8667413e26eef","freqPrac_resp","","","img/orange_2bandit_b.png","70","img/orange_2bandit_b.png","70","prac","","","","","","","","","","","","","","","","","","","",""
"null","208749","SARL_v6","SARL_v6tkgopd6d","6306a29015f8667413e26eef","fixation","","","img/fixation.png","null","","","prac","","","","","","","","","","","","","","","","","","","",""
"420","209176","SARL_v6","SARL_v6tkgopd6d","6306a29015f8667413e26eef","infreqPrac","","","img/blue_2bandit_b2.png","68","img/blue_2bandit_b2.png","68","prac","1","1","","","","","","","","","","","","","","","","","",""
"420","209567","SARL_v6","SARL_v6tkgopd6d","6306a29015f8667413e26eef","infreqPrac_resp","","","img/blue_2bandit_b.png","68","img/blue_2bandit_b.png","68","prac","","","","","","","","","","","","","","","","","","","",""
"null","209731","SARL_v6","SARL_v6tkgopd6d","6306a29015f8667413e26eef","fixation","","","img/fixation.png","null","","","prac","","","","","","","","","","","","","","","","","","","",""
"430.09999990463257","210168","SARL_v6","SARL_v6tkgopd6d","6306a29015f8667413e26eef","infreqPrac","","","img/blue_2bandit_b2.png","68","img/blue_2bandit_b2.png","68","prac","1","1","","","","","","","","","","","","","","","","","",""
"430.09999990463257","210554","SARL_v6","SARL_v6tkgopd6d","6306a29015f8667413e26eef","infreqPrac_resp","","","img/blue_2bandit_b.png","68","img/blue_2bandit_b.png","68","prac","","","","","","","","","","","","","","","","","","","",""
"null","210715","SARL_v6","SARL_v6tkgopd6d","6306a29015f8667413e26eef","fixation","","","img/fixation.png","null","","","prac","","","","","","","","","","","","","","","","","","","",""
"421.7999999523163","211142","SARL_v6","SARL_v6tkgopd6d","6306a29015f8667413e26eef","infreqPrac","","","img/blue_2bandit_b2.png","68","img/blue_2bandit_b2.png","68","prac","1","1","","","","","","","","","","","","","","","","","",""
"421.7999999523163","211528","SARL_v6","SARL_v6tkgopd6d","6306a29015f8667413e26eef","infreqPrac_resp","","","img/blue_2bandit_b.png","68","img/blue_2bandit_b.png","68","prac","","","","","","","","","","","","","","","","","","","",""
"null","211692","SARL_v6","SARL_v6tkgopd6d","6306a29015f8667413e26eef","fixation","","","img/fixation.png","null","","","prac","","","","","","","","","","","","","","","","","","","",""
"412.59999990463257","212111","SARL_v6","SARL_v6tkgopd6d","6306a29015f8667413e26eef","freqPrac","","","img/orange_2bandit_b2.png","70","img/orange_2bandit_b2.png","70","prac","1","1","","","","","","","","","","","","","","","","","",""
"412.59999990463257","212520","SARL_v6","SARL_v6tkgopd6d","6306a29015f8667413e26eef","freqPrac_resp","","","img/orange_2bandit_b.png","70","img/orange_2bandit_b.png","70","prac","","","","","","","","","","","","","","","","","","","",""
"null","212682","SARL_v6","SARL_v6tkgopd6d","6306a29015f8667413e26eef","fixation","","","img/fixation.png","null","","","prac","","","","","","","","","","","","","","","","","","","",""
"470.7999999523163","213158","SARL_v6","SARL_v6tkgopd6d","6306a29015f8667413e26eef","infreqPrac","","","img/blue_2bandit_b2.png","68","img/blue_2bandit_b2.png","68","prac","1","1","","","","","","","","","","","","","","","","","",""
"470.7999999523163","213506","SARL_v6","SARL_v6tkgopd6d","6306a29015f8667413e26eef","infreqPrac_resp","","","img/blue_2bandit_b.png","68","img/blue_2bandit_b.png","68","prac","","","","","","","","","","","","","","","","","","","",""
"null","213667","SARL_v6","SARL_v6tkgopd6d","6306a29015f8667413e26eef","fixation","","","img/fixation.png","null","","","prac","","","","","","","","","","","","","","","","","","","",""
"461.40000009536743","214135","SARL_v6","SARL_v6tkgopd6d","6306a29015f8667413e26eef","freqPrac","","","img/orange_2bandit_b2.png","70","img/orange_2bandit_b2.png","70","prac","1","1","","","","","","","","","","","","","","","","","",""
"461.40000009536743","214495","SARL_v6","SARL_v6tkgopd6d","6306a29015f8667413e26eef","freqPrac_resp","","","img/orange_2bandit_b.png","70","img/orange_2bandit_b.png","70","prac","","","","","","","","","","","","","","","","","","","",""
"null","214663","SARL_v6","SARL_v6tkgopd6d","6306a29015f8667413e26eef","fixation","","","img/fixation.png","null","","","prac","","","","","","","","","","","","","","","","","","","",""
"395.2000000476837","215064","SARL_v6","SARL_v6tkgopd6d","6306a29015f8667413e26eef","freqPrac","","","img/orange_2bandit_b2.png","70","img/orange_2bandit_b2.png","70","prac","1","1","","","","","","","","","","","","","","","","","",""
"395.2000000476837","215479","SARL_v6","SARL_v6tkgopd6d","6306a29015f8667413e26eef","freqPrac_resp","","","img/orange_2bandit_b.png","70","img/orange_2bandit_b.png","70","prac","","","","","","","","","","","","","","","","","","","",""
"null","215649","SARL_v6","SARL_v6tkgopd6d","6306a29015f8667413e26eef","fixation","","","img/fixation.png","null","","","prac","","","","","","","","","","","","","","","","","","","",""
"77856.5","293510","SARL_v6","SARL_v6tkgopd6d","6306a29015f8667413e26eef","","","","","","","","prac","","","","","","","","","","","","","","","","","","","",""
"1008.2000000476837","294525","SARL_v6","SARL_v6tkgopd6d","6306a29015f8667413e26eef","rlPractice","","","img/black_2bandit_b2.png","74","img/black_2bandit_b2.png","","prac","","","0","","","","","","","","","","","","","","","","",""
"null","295283","SARL_v6","SARL_v6tkgopd6d","6306a29015f8667413e26eef","feedback","","","<div class=""veryhighPoints""> 10 </div>","null","","na","prac","","","1","10","-14","10","","","","","","","","","","","","","",""
"null","295447","SARL_v6","SARL_v6tkgopd6d","6306a29015f8667413e26eef","fixation","","","img/fixation.png","null","","","prac","","","","","","","","","","","","","","","","","","","",""
"569.7000000476837","296023","SARL_v6","SARL_v6tkgopd6d","6306a29015f8667413e26eef","rlPractice","","","img/black_2bandit_b2.png","75","img/black_2bandit_b2.png","","prac","","","1","","","","","","","","","","","","","","","","",""
"null","296781","SARL_v6","SARL_v6tkgopd6d","6306a29015f8667413e26eef","feedback","","","<div class=""verylowPoints_sq""> -5 </div>","null","","na","prac","","","2","5","-5","5","","","","","","","","","","","","","",""
"null","296946","SARL_v6","SARL_v6tkgopd6d","6306a29015f8667413e26eef","fixation","","","img/fixation.png","null","","","prac","","","","","","","","","","","","","","","","","","","",""
"950.7000000476837","297903","SARL_v6","SARL_v6tkgopd6d","6306a29015f8667413e26eef","rlPractice","","","img/black_2bandit_b2.png","75","img/black_2bandit_b2.png","","prac","","","2","","","","","","","","","","","","","","","","",""
"null","298672","SARL_v6","SARL_v6tkgopd6d","6306a29015f8667413e26eef","feedback","","","<div class=""veryhighPoints_sq""> 2 </div>","null","","na","prac","","","3","30","2","30","","","","","","","","","","","","","",""
"null","298845","SARL_v6","SARL_v6tkgopd6d","6306a29015f8667413e26eef","fixation","","","img/fixation.png","null","","","prac","","","","","","","","","","","","","","","","","","","",""
"531.7999999523163","299383","SARL_v6","SARL_v6tkgopd6d","6306a29015f8667413e26eef","rlPractice","","","img/black_2bandit_b2.png","74","img/black_2bandit_b2.png","","prac","","","3","","","","","","","","","","","","","","","","",""
"null","300141","SARL_v6","SARL_v6tkgopd6d","6306a29015f8667413e26eef","feedback","","","<div class=""verylowPoints""> -2 </div>","null","","na","prac","","","4","-2","20","-2","","","","","","","","","","","","","",""
"null","300312","SARL_v6","SARL_v6tkgopd6d","6306a29015f8667413e26eef","fixation","","","img/fixation.png","null","","","prac","","","","","","","","","","","","","","","","","","","",""
"37289.700000047684","337607","SARL_v6","SARL_v6tkgopd6d","6306a29015f8667413e26eef","","","","","","","","prac","","","","","","","","","","","","","","","","","","","",""
"504.2000000476837","338118","SARL_v6","SARL_v6tkgopd6d","6306a29015f8667413e26eef","mixAttFreqPrac","","","img/orange_2bandit_b2.png","70","img/orange_2bandit_b2.png","70","prac","","","1","","","","","","","","","","","","","","","","",""
"504.2000000476837","338434","SARL_v6","SARL_v6tkgopd6d","6306a29015f8667413e26eef","freqPrac_resp","","","img/orange_2bandit_b.png","70","img/orange_2bandit_b.png","70","prac","","","1","","","","","","","","","","","","","","","","",""
"null","338592","SARL_v6","SARL_v6tkgopd6d","6306a29015f8667413e26eef","fixation","","","img/fixation.png","null","","","prac","","","","","","","","","","","","","","","","","","","",""
"488.40000009536743","339086","SARL_v6","SARL_v6tkgopd6d","6306a29015f8667413e26eef","mixAttInfreqPrac","","","img/blue_2bandit_b2.png","68","img/blue_2bandit_b2.png","68","prac","","","2","","","","","","","","","","","","","","","","",""
"488.40000009536743","339416","SARL_v6","SARL_v6tkgopd6d","6306a29015f8667413e26eef","infreqPrac_resp","","","img/blue_2bandit_b.png","68","img/orange_2bandit_b.png","68","prac","","","2","","","","","","","","","","","","","","","","",""
"null","339578","SARL_v6","SARL_v6tkgopd6d","6306a29015f8667413e26eef","fixation","","","img/fixation.png","null","","","prac","","","","","","","","","","","","","","","","","","","",""
"502.59999990463257","340088","SARL_v6","SARL_v6tkgopd6d","6306a29015f8667413e26eef","mixAttInfreqPrac","","","img/blue_2bandit_b2.png","68","img/blue_2bandit_b2.png","68","prac","","","3","","","","","","","","","","","","","","","","",""
"502.59999990463257","340400","SARL_v6","SARL_v6tkgopd6d","6306a29015f8667413e26eef","infreqPrac_resp","","","img/blue_2bandit_b.png","68","img/orange_2bandit_b.png","68","prac","","","3","","","","","","","","","","","","","","","","",""
"null","340558","SARL_v6","SARL_v6tkgopd6d","6306a29015f8667413e26eef","fixation","","","img/fixation.png","null","","","prac","","","","","","","","","","","","","","","","","","","",""
"378.09999990463257","340942","SARL_v6","SARL_v6tkgopd6d","6306a29015f8667413e26eef","mixAttInfreqPrac","","","img/blue_2bandit_b2.png","68","img/blue_2bandit_b2.png","68","prac","","","4","","","","","","","","","","","","","","","","",""
"378.09999990463257","341374","SARL_v6","SARL_v6tkgopd6d","6306a29015f8667413e26eef","infreqPrac_resp","","","img/blue_2bandit_b.png","68","img/orange_2bandit_b.png","68","prac","","","4","","","","","","","","","","","","","","","","",""
"null","341542","SARL_v6","SARL_v6tkgopd6d","6306a29015f8667413e26eef","fixation","","","img/fixation.png","null","","","prac","","","","","","","","","","","","","","","","","","","",""
"490.7000000476837","342038","SARL_v6","SARL_v6tkgopd6d","6306a29015f8667413e26eef","mixAttFreqPrac","","","img/orange_2bandit_b2.png","70","img/orange_2bandit_b2.png","70","prac","","","5","","","","","","","","","","","","","","","","",""
"490.7000000476837","342367","SARL_v6","SARL_v6tkgopd6d","6306a29015f8667413e26eef","freqPrac_resp","","","img/orange_2bandit_b.png","70","img/orange_2bandit_b.png","70","prac","","","5","","","","","","","","","","","","","","","","",""
"null","342524","SARL_v6","SARL_v6tkgopd6d","6306a29015f8667413e26eef","fixation","","","img/fixation.png","null","","","prac","","","","","","","","","","","","","","","","","","","",""
"699.5999999046326","343230","SARL_v6","SARL_v6tkgopd6d","6306a29015f8667413e26eef","mixRLPractice","","","img/black_2bandit_b2.png","75","img/black_2bandit_b2.png","","prac","","","5","","","","","","","","","","","","","","","","",""
"null","343991","SARL_v6","SARL_v6tkgopd6d","6306a29015f8667413e26eef","feedback","","","<div class=""veryhighPoints_sq""> 10 </div>","null","","na","prac","","","6","-14","10","-14","","","","","","","","","","","","","",""
"null","344158","SARL_v6","SARL_v6tkgopd6d","6306a29015f8667413e26eef","fixation","","","img/fixation.png","null","","","prac","","","","","","","","","","","","","","","","","","","",""
"673.7000000476837","344837","SARL_v6","SARL_v6tkgopd6d","6306a29015f8667413e26eef","mixAttFreqPrac","","","img/orange_2bandit_b2.png","70","img/orange_2bandit_b2.png","70","prac","","","7","","","","","","","","","","","","","","","","",""
"673.7000000476837","344974","SARL_v6","SARL_v6tkgopd6d","6306a29015f8667413e26eef","freqPrac_resp","","","img/orange_2bandit_b.png","70","img/orange_2bandit_b.png","70","prac","","","7","","","","","","","","","","","","","","","","",""
"null","345142","SARL_v6","SARL_v6tkgopd6d","6306a29015f8667413e26eef","fixation","","","img/fixation.png","null","","","prac","","","","","","","","","","","","","","","","","","","",""
"465.60000014305115","345614","SARL_v6","SARL_v6tkgopd6d","6306a29015f8667413e26eef","mixAttInfreqPrac","","","img/blue_2bandit_b2.png","68","img/blue_2bandit_b2.png","68","prac","","","8","","","","","","","","","","","","","","","","",""
"465.60000014305115","345961","SARL_v6","SARL_v6tkgopd6d","6306a29015f8667413e26eef","infreqPrac_resp","","","img/blue_2bandit_b.png","68","img/orange_2bandit_b.png","68","prac","","","8","","","","","","","","","","","","","","","","",""
"null","346126","SARL_v6","SARL_v6tkgopd6d","6306a29015f8667413e26eef","fixation","","","img/fixation.png","null","","","prac","","","","","","","","","","","","","","","","","","","",""
"498.10000014305115","346630","SARL_v6","SARL_v6tkgopd6d","6306a29015f8667413e26eef","mixAttFreqPrac","","","img/orange_2bandit_b2.png","70","img/orange_2bandit_b2.png","70","prac","","","9","","","","","","","","","","","","","","","","",""
"498.10000014305115","346943","SARL_v6","SARL_v6tkgopd6d","6306a29015f8667413e26eef","freqPrac_resp","","","img/orange_2bandit_b.png","70","img/orange_2bandit_b.png","70","prac","","","9","","","","","","","","","","","","","","","","",""
"null","347107","SARL_v6","SARL_v6tkgopd6d","6306a29015f8667413e26eef","fixation","","","img/fixation.png","null","","","prac","","","","","","","","","","","","","","","","","","","",""
"431","347544","SARL_v6","SARL_v6tkgopd6d","6306a29015f8667413e26eef","mixAttFreqPrac","","","img/orange_2bandit_b2.png","70","img/orange_2bandit_b2.png","70","prac","","","10","","","","","","","","","","","","","","","","",""
"431","347925","SARL_v6","SARL_v6tkgopd6d","6306a29015f8667413e26eef","freqPrac_resp","","","img/orange_2bandit_b.png","70","img/orange_2bandit_b.png","70","prac","","","10","","","","","","","","","","","","","","","","",""
"null","348090","SARL_v6","SARL_v6tkgopd6d","6306a29015f8667413e26eef","fixation","","","img/fixation.png","null","","","prac","","","","","","","","","","","","","","","","","","","",""
"342.59999990463257","348438","SARL_v6","SARL_v6tkgopd6d","6306a29015f8667413e26eef","mixAttInfreqPrac","","","img/blue_2bandit_b2.png","68","img/blue_2bandit_b2.png","68","prac","","","11","","","","","","","","","","","","","","","","",""
"342.59999990463257","348904","SARL_v6","SARL_v6tkgopd6d","6306a29015f8667413e26eef","infreqPrac_resp","","","img/blue_2bandit_b.png","68","img/orange_2bandit_b.png","68","prac","","","11","","","","","","","","","","","","","","","","",""
"null","349075","SARL_v6","SARL_v6tkgopd6d","6306a29015f8667413e26eef","fixation","","","img/fixation.png","null","","","prac","","","","","","","","","","","","","","","","","","","",""
"604.7000000476837","349685","SARL_v6","SARL_v6tkgopd6d","6306a29015f8667413e26eef","mixRLPractice","","","img/black_2bandit_b2.png","74","img/black_2bandit_b2.png","","prac","","","11","","","","","","","","","","","","","","","","",""
"null","350446","SARL_v6","SARL_v6tkgopd6d","6306a29015f8667413e26eef","feedback","","","<div class=""veryhighPoints""> 5 </div>","null","","na","prac","","","12","5","-5","5","","","","","","","","","","","","","",""
"null","350605","SARL_v6","SARL_v6tkgopd6d","6306a29015f8667413e26eef","fixation","","","img/fixation.png","null","","","prac","","","","","","","","","","","","","","","","","","","",""
"62677.299999952316","413287","SARL_v6","SARL_v6tkgopd6d","6306a29015f8667413e26eef","","","","","","","","prac","","","","","","","","","","","","","","","","","","","",""
"503.89999985694885","413797","SARL_v6","SARL_v6tkgopd6d","6306a29015f8667413e26eef","freq","","","img/orange_2bandit_b2.png","70","","70","test","1","","1","","","","circle","square","1","1","1","1","","","","","","","",""
"null","414115","SARL_v6","SARL_v6tkgopd6d","6306a29015f8667413e26eef","freq_resp","","","img/orange_2bandit_b.png","70","img/orange_2bandit_b.png","70","test","","","","","","","","","","","1","","","","","","","","",""
"null","414275","SARL_v6","SARL_v6tkgopd6d","6306a29015f8667413e26eef","fixation","","","img/fixation.png","null","","","test","","","","","","","","","","","","","","","","","","","",""
"341","414623","SARL_v6","SARL_v6tkgopd6d","6306a29015f8667413e26eef","freq","","","img/orange_2bandit_b2.png","70","","70","test","1","","2","","","","circle","square","2","2","1","1","","","","","","","",""
"null","415103","SARL_v6","SARL_v6tkgopd6d","6306a29015f8667413e26eef","freq_resp","","","img/orange_2bandit_b.png","70","img/orange_2bandit_b.png","70","test","","","","","","","","","","","1","","","","","","","","",""
"null","415261","SARL_v6","SARL_v6tkgopd6d","6306a29015f8667413e26eef","fixation","","","img/fixation.png","null","","","test","","","","","","","","","","","","","","","","","","","",""
"306.59999990463257","415573","SARL_v6","SARL_v6tkgopd6d","6306a29015f8667413e26eef","infreq","","","img/blue_2bandit_b2.png","68","","68","test","1","","3","","","","circle","square","3","3","1","1","","","","","","","",""
"null","416073","SARL_v6","SARL_v6tkgopd6d","6306a29015f8667413e26eef","infreq_resp","","","img/blue_2bandit_b.png","68","img/blue_2bandit_b.png","68","test","","","","","","","","","","","1","","","","","","","","",""
"null","416232","SARL_v6","SARL_v6tkgopd6d","6306a29015f8667413e26eef","fixation","","","img/fixation.png","null","","","test","","","","","","","","","","","","","","","","","","","",""
"480.10000014305115","416719","SARL_v6","SARL_v6tkgopd6d","6306a29015f8667413e26eef","freq","","","img/orange_2bandit_b2.png","70","","70","test","1","","4","","","","circle","square","4","4","1","1","","","","","","","",""
"null","417052","SARL_v6","SARL_v6tkgopd6d","6306a29015f8667413e26eef","freq_resp","","","img/orange_2bandit_b.png","70","img/orange_2bandit_b.png","70","test","","","","","","","","","","","1","","","","","","","","",""
"null","417216","SARL_v6","SARL_v6tkgopd6d","6306a29015f8667413e26eef","fixation","","","img/fixation.png","null","","","test","","","","","","","","","","","","","","","","","","","",""
"359.5","417583","SARL_v6","SARL_v6tkgopd6d","6306a29015f8667413e26eef","freq","","","img/orange_2bandit_b2.png","70","","70","test","1","","5","","","","circle","square","5","5","1","1","","","","","","","",""
"null","418042","SARL_v6","SARL_v6tkgopd6d","6306a29015f8667413e26eef","freq_resp","","","img/orange_2bandit_b.png","70","img/orange_2bandit_b.png","70","test","","","","","","","","","","","1","","","","","","","","",""
"null","418209","SARL_v6","SARL_v6tkgopd6d","6306a29015f8667413e26eef","fixation","","","img/fixation.png","null","","","test","","","","","","","","","","","","","","","","","","","",""
"382.5","418598","SARL_v6","SARL_v6tkgopd6d","6306a29015f8667413e26eef","freq","","","img/orange_2bandit_b2.png","70","","70","test","1","","6","","","","circle","square","6","6","1","1","","","","","","","",""
"null","419030","SARL_v6","SARL_v6tkgopd6d","6306a29015f8667413e26eef","freq_resp","","","img/orange_2bandit_b.png","70","img/orange_2bandit_b.png","70","test","","","","","","","","","","","1","","","","","","","","",""
"null","419190","SARL_v6","SARL_v6tkgopd6d","6306a29015f8667413e26eef","fixation","","","img/fixation.png","null","","","test","","","","","","","","","","","","","","","","","","","",""
"330.2999999523163","419526","SARL_v6","SARL_v6tkgopd6d","6306a29015f8667413e26eef","freq","","","img/orange_2bandit_b2.png","70","","70","test","1","","7","","","","circle","square","7","7","1","1","","","","","","","",""
"null","420004","SARL_v6","SARL_v6tkgopd6d","6306a29015f8667413e26eef","freq_resp","","","img/orange_2bandit_b.png","70","img/orange_2bandit_b.png","70","test","","","","","","","","","","","1","","","","","","","","",""
"null","420172","SARL_v6","SARL_v6tkgopd6d","6306a29015f8667413e26eef","fixation","","","img/fixation.png","null","","","test","","","","","","","","","","","","","","","","","","","",""
"315.5","420495","SARL_v6","SARL_v6tkgopd6d","6306a29015f8667413e26eef","freq","","","img/orange_2bandit_b2.png","70","","70","test","1","","8","","","","circle","square","8","8","1","1","","","","","","","",""
"null","420986","SARL_v6","SARL_v6tkgopd6d","6306a29015f8667413e26eef","freq_resp","","","img/orange_2bandit_b.png","70","img/orange_2bandit_b.png","70","test","","","","","","","","","","","1","","","","","","","","",""
"null","421155","SARL_v6","SARL_v6tkgopd6d","6306a29015f8667413e26eef","fixation","","","img/fixation.png","null","","","test","","","","","","","","","","","","","","","","","","","",""
"308.89999985694885","421471","SARL_v6","SARL_v6tkgopd6d","6306a29015f8667413e26eef","freq","","","img/orange_2bandit_b2.png","70","","70","test","1","","9","","","","circle","square","9","9","1","1","","","","","","","",""
"null","421973","SARL_v6","SARL_v6tkgopd6d","6306a29015f8667413e26eef","freq_resp","","","img/orange_2bandit_b.png","70","img/orange_2bandit_b.png","70","test","","","","","","","","","","","1","","","","","","","","",""
"null","422140","SARL_v6","SARL_v6tkgopd6d","6306a29015f8667413e26eef","fixation","","","img/fixation.png","null","","","test","","","","","","","","","","","","","","","","","","","",""
"251.40000009536743","422398","SARL_v6","SARL_v6tkgopd6d","6306a29015f8667413e26eef","infreq","","","img/blue_2bandit_b2.png","70","","68","test","0","","10","","","","circle","square","10","10","1","0.9","","","","","","","",""
"null","422952","SARL_v6","SARL_v6tkgopd6d","6306a29015f8667413e26eef","infreq_resp","","","img/blue_2bandit_b.png","70","img/blue_2bandit_b.png","68","test","","","","","","","","","","","1","","","","","","","","",""
"null","423123","SARL_v6","SARL_v6tkgopd6d","6306a29015f8667413e26eef","fixation","","","img/fixation.png","null","","","test","","","","","","","","","","","","","","","","","","","",""
"476.7999999523163","423605","SARL_v6","SARL_v6tkgopd6d","6306a29015f8667413e26eef","freq","","","img/orange_2bandit_b2.png","70","","70","test","1","","11","","","","circle","square","11","11","1","0.9090909090909091","","","","","","","",""
"null","423946","SARL_v6","SARL_v6tkgopd6d","6306a29015f8667413e26eef","freq_resp","","","img/orange_2bandit_b.png","70","img/orange_2bandit_b.png","70","test","","","","","","","","","","","1","","","","","","","","",""
"null","424116","SARL_v6","SARL_v6tkgopd6d","6306a29015f8667413e26eef","fixation","","","img/fixation.png","null","","","test","","","","","","","","","","","","","","","","","","","",""
"659.5999999046326","424783","SARL_v6","SARL_v6tkgopd6d","6306a29015f8667413e26eef","freq","","","img/orange_2bandit_b2.png","70","","70","test","1","","12","","","","circle","square","12","12","1","0.9166666666666666","","","","","","","",""
"null","424940","SARL_v6","SARL_v6tkgopd6d","6306a29015f8667413e26eef","freq_resp","","","img/orange_2bandit_b.png","70","img/orange_2bandit_b.png","70","test","","","","","","","","","","","1","","","","","","","","",""
"null","425100","SARL_v6","SARL_v6tkgopd6d","6306a29015f8667413e26eef","fixation","","","img/fixation.png","null","","","test","","","","","","","","","","","","","","","","","","","",""
"394.7000000476837","425501","SARL_v6","SARL_v6tkgopd6d","6306a29015f8667413e26eef","freq","","","img/orange_2bandit_b2.png","70","","70","test","1","","13","","","","circle","square","13","13","1","0.9230769230769231","","","","","","","",""
"null","425921","SARL_v6","SARL_v6tkgopd6d","6306a29015f8667413e26eef","freq_resp","","","img/orange_2bandit_b.png","70","img/orange_2bandit_b.png","70","test","","","","","","","","","","","1","","","","","","","","",""
"null","426088","SARL_v6","SARL_v6tkgopd6d","6306a29015f8667413e26eef","fixation","","","img/fixation.png","null","","","test","","","","","","","","","","","","","","","","","","","",""
"367.7999999523163","426461","SARL_v6","SARL_v6tkgopd6d","6306a29015f8667413e26eef","infreq","","","img/blue_2bandit_b2.png","68","","68","test","1","","14","","","","circle","square","14","14","1","0.9285714285714286","","","","","","","",""
"null","426907","SARL_v6","SARL_v6tkgopd6d","6306a29015f8667413e26eef","infreq_resp","","","img/blue_2bandit_b.png","68","img/blue_2bandit_b.png","68","test","","","","","","","","","","","1","","","","","","","","",""
"null","427070","SARL_v6","SARL_v6tkgopd6d","6306a29015f8667413e26eef","fixation","","","img/fixation.png","null","","","test","","","","","","","","","","","","","","","","","","","",""
"409.5","427485","SARL_v6","SARL_v6tkgopd6d","6306a29015f8667413e26eef","freq","","","img/orange_2bandit_b2.png","70","","70","test","1","","15","","","","circle","square","15","15","1","0.9333333333333333","","","","","","","",""
"null","427882","SARL_v6","SARL_v6tkgopd6d","6306a29015f8667413e26eef","freq_resp","","","img/orange_2bandit_b.png","70","img/orange_2bandit_b.png","70","test","","","","","","","","","","","1","","","","","","","","",""
"null","428055","SARL_v6","SARL_v6tkgopd6d","6306a29015f8667413e26eef","fixation","","","img/fixation.png","null","","","test","","","","","","","","","","","","","","","","","","","",""
"360.7999999523163","428421","SARL_v6","SARL_v6tkgopd6d","6306a29015f8667413e26eef","freq","","","img/orange_2bandit_b2.png","70","","70","test","1","","16","","","","circle","square","16","16","1","0.9375","","","","","","","",""
"null","428874","SARL_v6","SARL_v6tkgopd6d","6306a29015f8667413e26eef","freq_resp","","","img/orange_2bandit_b.png","70","img/orange_2bandit_b.png","70","test","","","","","","","","","","","1","","","","","","","","",""
"null","429037","SARL_v6","SARL_v6tkgopd6d","6306a29015f8667413e26eef","fixation","","","img/fixation.png","null","","","test","","","","","","","","","","","","","","","","","","","",""
"283.5","429327","SARL_v6","SARL_v6tkgopd6d","6306a29015f8667413e26eef","freq","","","img/orange_2bandit_b2.png","70","","70","test","1","","17","","","","circle","square","17","17","1","0.9411764705882353","","","","","","","",""
"null","429857","SARL_v6","SARL_v6tkgopd6d","6306a29015f8667413e26eef","freq_resp","","","img/orange_2bandit_b.png","70","img/orange_2bandit_b.png","70","test","","","","","","","","","","","1","","","","","","","","",""
"null","430021","SARL_v6","SARL_v6tkgopd6d","6306a29015f8667413e26eef","fixation","","","img/fixation.png","null","","","test","","","","","","","","","","","","","","","","","","","",""
"251.09999990463257","430278","SARL_v6","SARL_v6tkgopd6d","6306a29015f8667413e26eef","freq","","","img/orange_2bandit_b2.png","70","","70","test","1","","18","","","","circle","square","18","18","1","0.9444444444444444","","","","","","","",""
"null","430833","SARL_v6","SARL_v6tkgopd6d","6306a29015f8667413e26eef","freq_resp","","","img/orange_2bandit_b.png","70","img/orange_2bandit_b.png","70","test","","","","","","","","","","","1","","","","","","","","",""
"null","431002","SARL_v6","SARL_v6tkgopd6d","6306a29015f8667413e26eef","fixation","","","img/fixation.png","null","","","test","","","","","","","","","","","","","","","","","","","",""
"309.60000014305115","431318","SARL_v6","SARL_v6tkgopd6d","6306a29015f8667413e26eef","freq","","","img/orange_2bandit_b2.png","70","","70","test","1","","19","","","","circle","square","19","19","1","0.9473684210526315","","","","","","","",""
"null","431817","SARL_v6","SARL_v6tkgopd6d","6306a29015f8667413e26eef","freq_resp","","","img/orange_2bandit_b.png","70","img/orange_2bandit_b.png","70","test","","","","","","","","","","","1","","","","","","","","",""
"null","431980","SARL_v6","SARL_v6tkgopd6d","6306a29015f8667413e26eef","fixation","","","img/fixation.png","null","","","test","","","","","","","","","","","","","","","","","","","",""
"308","432294","SARL_v6","SARL_v6tkgopd6d","6306a29015f8667413e26eef","freq","","","img/orange_2bandit_b2.png","70","","70","test","1","","20","","","","circle","square","20","20","1","0.95","","","","","","","",""
"null","432804","SARL_v6","SARL_v6tkgopd6d","6306a29015f8667413e26eef","freq_resp","","","img/orange_2bandit_b.png","70","img/orange_2bandit_b.png","70","test","","","","","","","","","","","1","","","","","","","","",""
"null","432967","SARL_v6","SARL_v6tkgopd6d","6306a29015f8667413e26eef","fixation","","","img/fixation.png","null","","","test","","","","","","","","","","","","","","","","","","","",""
"368.7999999523163","433342","SARL_v6","SARL_v6tkgopd6d","6306a29015f8667413e26eef","freq","","","img/orange_2bandit_b2.png","70","","70","test","1","","21","","","","circle","square","21","21","1","0.9523809523809523","","","","","","","",""
"null","433784","SARL_v6","SARL_v6tkgopd6d","6306a29015f8667413e26eef","freq_resp","","","img/orange_2bandit_b.png","70","img/orange_2bandit_b.png","70","test","","","","","","","","","","","1","","","","","","","","",""
"null","433951","SARL_v6","SARL_v6tkgopd6d","6306a29015f8667413e26eef","fixation","","","img/fixation.png","null","","","test","","","","","","","","","","","","","","","","","","","",""
"369.10000014305115","434327","SARL_v6","SARL_v6tkgopd6d","6306a29015f8667413e26eef","freq","","","img/orange_2bandit_b2.png","70","","70","test","1","","22","","","","circle","square","22","22","1","0.9545454545454546","","","","","","","",""
"null","434772","SARL_v6","SARL_v6tkgopd6d","6306a29015f8667413e26eef","freq_resp","","","img/orange_2bandit_b.png","70","img/orange_2bandit_b.png","70","test","","","","","","","","","","","1","","","","","","","","",""
"null","434937","SARL_v6","SARL_v6tkgopd6d","6306a29015f8667413e26eef","fixation","","","img/fixation.png","null","","","test","","","","","","","","","","","","","","","","","","","",""
"351.7000000476837","435294","SARL_v6","SARL_v6tkgopd6d","6306a29015f8667413e26eef","freq","","","img/orange_2bandit_b2.png","70","","70","test","1","","23","","","","circle","square","23","23","1","0.9565217391304348","","","","","","","",""
"null","435750","SARL_v6","SARL_v6tkgopd6d","6306a29015f8667413e26eef","freq_resp","","","img/orange_2bandit_b.png","70","img/orange_2bandit_b.png","70","test","","","","","","","","","","","1","","","","","","","","",""
"null","435917","SARL_v6","SARL_v6tkgopd6d","6306a29015f8667413e26eef","fixation","","","img/fixation.png","null","","","test","","","","","","","","","","","","","","","","","","","",""
"578.7999999523163","436504","SARL_v6","SARL_v6tkgopd6d","6306a29015f8667413e26eef","rl","","","img/black_2bandit_b2.png","74","","0","test","","","24","","","-3","circle","square","","0","1","","74","-3","-3","-3","-3","circle","1","0"
"null","437269","SARL_v6","SARL_v6tkgopd6d","6306a29015f8667413e26eef","feedback","","","<div class=""verylowPoints""> -3 </div>","null","","na","test","","","NaN","","","","","","","","1","","74","","","","","","1",""
"595","437871","SARL_v6","SARL_v6tkgopd6d","6306a29015f8667413e26eef","freq","","","img/orange_2bandit_b2.png","70","","70","test","1","","25","","","","circle","square","24","1","2","0.9583333333333334","","","","","","","",""
"null","438083","SARL_v6","SARL_v6tkgopd6d","6306a29015f8667413e26eef","freq_resp","","","img/orange_2bandit_b.png","70","img/orange_2bandit_b.png","70","test","","","","","","","","","","","2","","","","","","","","",""
"null","438242","SARL_v6","SARL_v6tkgopd6d","6306a29015f8667413e26eef","fixation","","","img/fixation.png","null","","","test","","","","","","","","","","","","","","","","","","","",""
"494.2000000476837","438742","SARL_v6","SARL_v6tkgopd6d","6306a29015f8667413e26eef","freq","","","img/orange_2bandit_b2.png","70","","70","test","1","","26","","","","circle","square","25","2","2","0.96","","","","","","","",""
"null","439058","SARL_v6","SARL_v6tkgopd6d","6306a29015f8667413e26eef","freq_resp","","","img/orange_2bandit_b.png","70","img/orange_2bandit_b.png","70","test","","","","","","","","","","","2","","","","","","","","",""
"null","439215","SARL_v6","SARL_v6tkgopd6d","6306a29015f8667413e26eef","fixation","","","img/fixation.png","null","","","test","","","","","","","","","","","","","","","","","","","",""
"504.7999999523163","439725","SARL_v6","SARL_v6tkgopd6d","6306a29015f8667413e26eef","infreq","","","img/blue_2bandit_b2.png","68","","68","test","1","","27","","","","circle","square","26","3","2","0.9615384615384616","","","","","","","",""
"null","440036","SARL_v6","SARL_v6tkgopd6d","6306a29015f8667413e26eef","infreq_resp","","","img/blue_2bandit_b.png","68","img/blue_2bandit_b.png","68","test","","","","","","","","","","","2","","","","","","","","",""
"null","440199","SARL_v6","SARL_v6tkgopd6d","6306a29015f8667413e26eef","fixation","","","img/fixation.png","null","","","test","","","","","","","","","","","","","","","","","","","",""
"424.7999999523163","440631","SARL_v6","SARL_v6tkgopd6d","6306a29015f8667413e26eef","freq","","","img/orange_2bandit_b2.png","70","","70","test","1","","28","","","","circle","square","27","4","2","0.9629629629629629","","","","","","","",""
"null","441020","SARL_v6","SARL_v6tkgopd6d","6306a29015f8667413e26eef","freq_resp","","","img/orange_2bandit_b.png","70","img/orange_2bandit_b.png","70","test","","","","","","","","","","","2","","","","","","","","",""
"null","441182","SARL_v6","SARL_v6tkgopd6d","6306a29015f8667413e26eef","fixation","","","img/fixation.png","null","","","test","","","","","","","","","","","","","","","","","","","",""
"354.2000000476837","441542","SARL_v6","SARL_v6tkgopd6d","6306a29015f8667413e26eef","freq","","","img/orange_2bandit_b2.png","70","","70","test","1","","29","","","","circle","square","28","5","2","0.9642857142857143","","","","","","","",""
"null","441996","SARL_v6","SARL_v6tkgopd6d","6306a29015f8667413e26eef","freq_resp","","","img/orange_2bandit_b.png","70","img/orange_2bandit_b.png","70","test","","","","","","","","","","","2","","","","","","","","",""
"null","442165","SARL_v6","SARL_v6tkgopd6d","6306a29015f8667413e26eef","fixation","","","img/fixation.png","null","","","test","","","","","","","","","","","","","","","","","","","",""
"347.09999990463257","442519","SARL_v6","SARL_v6tkgopd6d","6306a29015f8667413e26eef","freq","","","img/orange_2bandit_b2.png","70","","70","test","1","","30","","","","circle","square","29","6","2","0.9655172413793104","","","","","","","",""
"null","442978","SARL_v6","SARL_v6tkgopd6d","6306a29015f8667413e26eef","freq_resp","","","img/orange_2bandit_b.png","70","img/orange_2bandit_b.png","70","test","","","","","","","","","","","2","","","","","","","","",""
"null","443148","SARL_v6","SARL_v6tkgopd6d","6306a29015f8667413e26eef","fixation","","","img/fixation.png","null","","","test","","","","","","","","","","","","","","","","","","","",""
"316.09999990463257","443469","SARL_v6","SARL_v6tkgopd6d","6306a29015f8667413e26eef","freq","","","img/orange_2bandit_b2.png","70","","70","test","1","","31","","","","circle","square","30","7","2","0.9666666666666667","","","","","","","",""
"null","443958","SARL_v6","SARL_v6tkgopd6d","6306a29015f8667413e26eef","freq_resp","","","img/orange_2bandit_b.png","70","img/orange_2bandit_b.png","70","test","","","","","","","","","","","2","","","","","","","","",""
"null","444128","SARL_v6","SARL_v6tkgopd6d","6306a29015f8667413e26eef","fixation","","","img/fixation.png","null","","","test","","","","","","","","","","","","","","","","","","","",""
"287.89999985694885","444423","SARL_v6","SARL_v6tkgopd6d","6306a29015f8667413e26eef","freq","","","img/orange_2bandit_b2.png","70","","70","test","1","","32","","","","circle","square","31","8","2","0.967741935483871","","","","","","","",""
"null","444946","SARL_v6","SARL_v6tkgopd6d","6306a29015f8667413e26eef","freq_resp","","","img/orange_2bandit_b.png","70","img/orange_2bandit_b.png","70","test","","","","","","","","","","","2","","","","","","","","",""
"null","445113","SARL_v6","SARL_v6tkgopd6d","6306a29015f8667413e26eef","fixation","","","img/fixation.png","null","","","test","","","","","","","","","","","","","","","","","","","",""
"311.2000000476837","445431","SARL_v6","SARL_v6tkgopd6d","6306a29015f8667413e26eef","freq","","","img/orange_2bandit_b2.png","70","","70","test","1","","33","","","","circle","square","32","9","2","0.96875","","","","","","","",""
"null","445938","SARL_v6","SARL_v6tkgopd6d","6306a29015f8667413e26eef","freq_resp","","","img/orange_2bandit_b.png","70","img/orange_2bandit_b.png","70","test","","","","","","","","","","","2","","","","","","","","",""
"null","446099","SARL_v6","SARL_v6tkgopd6d","6306a29015f8667413e26eef","fixation","","","img/fixation.png","null","","","test","","","","","","","","","","","","","","","","","","","",""
"404.2999999523163","446510","SARL_v6","SARL_v6tkgopd6d","6306a29015f8667413e26eef","freq","","","img/orange_2bandit_b2.png","70","","70","test","1","","34","","","","circle","square","33","10","2","0.9696969696969697","","","","","","","",""
"null","446914","SARL_v6","SARL_v6tkgopd6d","6306a29015f8667413e26eef","freq_resp","","","img/orange_2bandit_b.png","70","img/orange_2bandit_b.png","70","test","","","","","","","","","","","2","","","","","","","","",""
"null","447082","SARL_v6","SARL_v6tkgopd6d","6306a29015f8667413e26eef","fixation","","","img/fixation.png","null","","","test","","","","","","","","","","","","","","","","","","","",""
"446.39999985694885","447534","SARL_v6","SARL_v6tkgopd6d","6306a29015f8667413e26eef","freq","","","img/orange_2bandit_b2.png","70","","70","test","1","","35","","","","circle","square","34","11","2","0.9705882352941176","","","","","","","",""
"null","447901","SARL_v6","SARL_v6tkgopd6d","6306a29015f8667413e26eef","freq_resp","","","img/orange_2bandit_b.png","70","img/orange_2bandit_b.png","70","test","","","","","","","","","","","2","","","","","","","","",""
"null","448059","SARL_v6","SARL_v6tkgopd6d","6306a29015f8667413e26eef","fixation","","","img/fixation.png","null","","","test","","","","","","","","","","","","","","","","","","","",""
"372.7000000476837","448437","SARL_v6","SARL_v6tkgopd6d","6306a29015f8667413e26eef","freq","","","img/orange_2bandit_b2.png","70","","70","test","1","","36","","","","circle","square","35","12","2","0.9714285714285714","","","","","","","",""
"null","448872","SARL_v6","SARL_v6tkgopd6d","6306a29015f8667413e26eef","freq_resp","","","img/orange_2bandit_b.png","70","img/orange_2bandit_b.png","70","test","","","","","","","","","","","2","","","","","","","","",""
"null","449044","SARL_v6","SARL_v6tkgopd6d","6306a29015f8667413e26eef","fixation","","","img/fixation.png","null","","","test","","","","","","","","","","","","","","","","","","","",""
"332","449383","SARL_v6","SARL_v6tkgopd6d","6306a29015f8667413e26eef","freq","","","img/orange_2bandit_b2.png","70","","70","test","1","","37","","","","circle","square","36","13","2","0.9722222222222222","","","","","","","",""
"null","449859","SARL_v6","SARL_v6tkgopd6d","6306a29015f8667413e26eef","freq_resp","","","img/orange_2bandit_b.png","70","img/orange_2bandit_b.png","70","test","","","","","","","","","","","2","","","","","","","","",""
"null","450028","SARL_v6","SARL_v6tkgopd6d","6306a29015f8667413e26eef","fixation","","","img/fixation.png","null","","","test","","","","","","","","","","","","","","","","","","","",""
"299.90000009536743","450334","SARL_v6","SARL_v6tkgopd6d","6306a29015f8667413e26eef","freq","","","img/orange_2bandit_b2.png","70","","70","test","1","","38","","","","circle","square","37","14","2","0.972972972972973","","","","","","","",""
"null","450841","SARL_v6","SARL_v6tkgopd6d","6306a29015f8667413e26eef","freq_resp","","","img/orange_2bandit_b.png","70","img/orange_2bandit_b.png","70","test","","","","","","","","","","","2","","","","","","","","",""
"null","450998","SARL_v6","SARL_v6tkgopd6d","6306a29015f8667413e26eef","fixation","","","img/fixation.png","null","","","test","","","","","","","","","","","","","","","","","","","",""
"370.19999980926514","451374","SARL_v6","SARL_v6tkgopd6d","6306a29015f8667413e26eef","freq","","","img/orange_2bandit_b2.png","70","","70","test","1","","39","","","","circle","square","38","15","2","0.9736842105263158","","","","","","","",""
"null","451824","SARL_v6","SARL_v6tkgopd6d","6306a29015f8667413e26eef","freq_resp","","","img/orange_2bandit_b.png","70","img/orange_2bandit_b.png","70","test","","","","","","","","","","","2","","","","","","","","",""
"null","451993","SARL_v6","SARL_v6tkgopd6d","6306a29015f8667413e26eef","fixation","","","img/fixation.png","null","","","test","","","","","","","","","","","","","","","","","","","",""
"287.09999990463257","452286","SARL_v6","SARL_v6tkgopd6d","6306a29015f8667413e26eef","freq","","","img/orange_2bandit_b2.png","70","","70","test","1","","40","","","","circle","square","39","16","2","0.9743589743589743","","","","","","","",""
"null","452818","SARL_v6","SARL_v6tkgopd6d","6306a29015f8667413e26eef","freq_resp","","","img/orange_2bandit_b.png","70","img/orange_2bandit_b.png","70","test","","","","","","","","","","","2","","","","","","","","",""
"null","452975","SARL_v6","SARL_v6tkgopd6d","6306a29015f8667413e26eef","fixation","","","img/fixation.png","null","","","test","","","","","","","","","","","","","","","","","","","",""
"297.10000014305115","453278","SARL_v6","SARL_v6tkgopd6d","6306a29015f8667413e26eef","freq","","","img/orange_2bandit_b2.png","70","","70","test","1","","41","","","","circle","square","40","17","2","0.975","","","","","","","",""
"null","453796","SARL_v6","SARL_v6tkgopd6d","6306a29015f8667413e26eef","freq_resp","","","img/orange_2bandit_b.png","70","img/orange_2bandit_b.png","70","test","","","","","","","","","","","2","","","","","","","","",""
"null","453959","SARL_v6","SARL_v6tkgopd6d","6306a29015f8667413e26eef","fixation","","","img/fixation.png","null","","","test","","","","","","","","","","","","","","","","","","","",""
"272.90000009536743","454237","SARL_v6","SARL_v6tkgopd6d","6306a29015f8667413e26eef","freq","","","img/orange_2bandit_b2.png","70","","70","test","1","","42","","","","circle","square","41","18","2","0.975609756097561","","","","","","","",""
"null","454778","SARL_v6","SARL_v6tkgopd6d","6306a29015f8667413e26eef","freq_resp","","","img/orange_2bandit_b.png","70","img/orange_2bandit_b.png","70","test","","","","","","","","","","","2","","","","","","","","",""
"null","454942","SARL_v6","SARL_v6tkgopd6d","6306a29015f8667413e26eef","fixation","","","img/fixation.png","null","","","test","","","","","","","","","","","","","","","","","","","",""
"505.90000009536743","455454","SARL_v6","SARL_v6tkgopd6d","6306a29015f8667413e26eef","infreq","","","img/blue_2bandit_b2.png","68","","68","test","1","","43","","","","circle","square","42","19","2","0.9761904761904762","","","","","","","",""
"null","455757","SARL_v6","SARL_v6tkgopd6d","6306a29015f8667413e26eef","infreq_resp","","","img/blue_2bandit_b.png","68","img/blue_2bandit_b.png","68","test","","","","","","","","","","","2","","","","","","","","",""
"null","455925","SARL_v6","SARL_v6tkgopd6d","6306a29015f8667413e26eef","fixation","","","img/fixation.png","null","","","test","","","","","","","","","","","","","","","","","","","",""
"474.59999990463257","456406","SARL_v6","SARL_v6tkgopd6d","6306a29015f8667413e26eef","freq","","","img/orange_2bandit_b2.png","70","","70","test","1","","44","","","","circle","square","43","20","2","0.9767441860465116","","","","","","","",""
"null","456750","SARL_v6","SARL_v6tkgopd6d","6306a29015f8667413e26eef","freq_resp","","","img/orange_2bandit_b.png","70","img/orange_2bandit_b.png","70","test","","","","","","","","","","","2","","","","","","","","",""
"null","456922","SARL_v6","SARL_v6tkgopd6d","6306a29015f8667413e26eef","fixation","","","img/fixation.png","null","","","test","","","","","","","","","","","","","","","","","","","",""
"653","457581","SARL_v6","SARL_v6tkgopd6d","6306a29015f8667413e26eef","rl","","","img/black_2bandit_b2.png","75","","0","test","","","45","","","-8","circle","square","","0","2","","75","-5","-8","-5","-8","square","2","0"
"null","458347","SARL_v6","SARL_v6tkgopd6d","6306a29015f8667413e26eef","feedback","","","<div class=""verylowPoints_sq""> -8 </div>","null","","na","test","","","NaN","","","","","","","","2","","75","","","","","","2",""
"453","458807","SARL_v6","SARL_v6tkgopd6d","6306a29015f8667413e26eef","freq","","","img/orange_2bandit_b2.png","70","","70","test","1","","46","","","","circle","square","44","1","3","0.9772727272727273","","","","","","","",""
"null","459163","SARL_v6","SARL_v6tkgopd6d","6306a29015f8667413e26eef","freq_resp","","","img/orange_2bandit_b.png","70","img/orange_2bandit_b.png","70","test","","","","","","","","","","","3","","","","","","","","",""
"null","459322","SARL_v6","SARL_v6tkgopd6d","6306a29015f8667413e26eef","fixation","","","img/fixation.png","null","","","test","","","","","","","","","","","","","","","","","","","",""
"446.19999980926514","459774","SARL_v6","SARL_v6tkgopd6d","6306a29015f8667413e26eef","freq","","","img/orange_2bandit_b2.png","70","","70","test","1","","47","","","","circle","square","45","2","3","0.9777777777777777","","","","","","","",""
"null","460148","SARL_v6","SARL_v6tkgopd6d","6306a29015f8667413e26eef","freq_resp","","","img/orange_2bandit_b.png","70","img/orange_2bandit_b.png","70","test","","","","","","","","","","","3","","","","","","","","",""
"null","460307","SARL_v6","SARL_v6tkgopd6d","6306a29015f8667413e26eef","fixation","","","img/fixation.png","null","","","test","","","","","","","","","","","","","","","","","","","",""
"452.90000009536743","460767","SARL_v6","SARL_v6tkgopd6d","6306a29015f8667413e26eef","freq","","","img/orange_2bandit_b2.png","70","","70","test","1","","48","","","","circle","square","46","3","3","0.9782608695652174","","","","","","","",""
"null","461121","SARL_v6","SARL_v6tkgopd6d","6306a29015f8667413e26eef","freq_resp","","","img/orange_2bandit_b.png","70","img/orange_2bandit_b.png","70","test","","","","","","","","","","","3","","","","","","","","",""
"null","461291","SARL_v6","SARL_v6tkgopd6d","6306a29015f8667413e26eef","fixation","","","img/fixation.png","null","","","test","","","","","","","","","","","","","","","","","","","",""
"325.5","461622","SARL_v6","SARL_v6tkgopd6d","6306a29015f8667413e26eef","infreq","","","img/blue_2bandit_b2.png","70","","68","test","0","","49","","","","circle","square","47","4","3","0.9574468085106383","","","","","","","",""
"null","462104","SARL_v6","SARL_v6tkgopd6d","6306a29015f8667413e26eef","infreq_resp","","","img/blue_2bandit_b.png","70","img/blue_2bandit_b.png","68","test","","","","","","","","","","","3","","","","","","","","",""
"null","462267","SARL_v6","SARL_v6tkgopd6d","6306a29015f8667413e26eef","fixation","","","img/fixation.png","null","","","test","","","","","","","","","","","","","","","","","","","",""
"397.7000000476837","462670","SARL_v6","SARL_v6tkgopd6d","6306a29015f8667413e26eef","freq","","","img/orange_2bandit_b2.png","70","","70","test","1","","50","","","","circle","square","48","5","3","0.9583333333333334","","","","","","","",""
"null","463091","SARL_v6","SARL_v6tkgopd6d","6306a29015f8667413e26eef","freq_resp","","","img/orange_2bandit_b.png","70","img/orange_2bandit_b.png","70","test","","","","","","","","","","","3","","","","","","","","",""
"null","463255","SARL_v6","SARL_v6tkgopd6d","6306a29015f8667413e26eef","fixation","","","img/fixation.png","null","","","test","","","","","","","","","","","","","","","","","","","",""
"336","463597","SARL_v6","SARL_v6tkgopd6d","6306a29015f8667413e26eef","freq","","","img/orange_2bandit_b2.png","70","","70","test","1","","51","","","","circle","square","49","6","3","0.9591836734693877","","","","","","","",""
"null","464071","SARL_v6","SARL_v6tkgopd6d","6306a29015f8667413e26eef","freq_resp","","","img/orange_2bandit_b.png","70","img/orange_2bandit_b.png","70","test","","","","","","","","","","","3","","","","","","","","",""
"null","464230","SARL_v6","SARL_v6tkgopd6d","6306a29015f8667413e26eef","fixation","","","img/fixation.png","null","","","test","","","","","","","","","","","","","","","","","","","",""
"353.7000000476837","464591","SARL_v6","SARL_v6tkgopd6d","6306a29015f8667413e26eef","freq","","","img/orange_2bandit_b2.png","70","","70","test","1","","52","","","","circle","square","50","7","3","0.96","","","","","","","",""
"null","465058","SARL_v6","SARL_v6tkgopd6d","6306a29015f8667413e26eef","freq_resp","","","img/orange_2bandit_b.png","70","img/orange_2bandit_b.png","70","test","","","","","","","","","","","3","","","","","","","","",""
"null","465220","SARL_v6","SARL_v6tkgopd6d","6306a29015f8667413e26eef","fixation","","","img/fixation.png","null","","","test","","","","","","","","","","","","","","","","","","","",""
"436.09999990463257","465662","SARL_v6","SARL_v6tkgopd6d","6306a29015f8667413e26eef","freq","","","img/orange_2bandit_b2.png","70","","70","test","1","","53","","","","circle","square","51","8","3","0.9607843137254902","","","","","","","",""
"null","466047","SARL_v6","SARL_v6tkgopd6d","6306a29015f8667413e26eef","freq_resp","","","img/orange_2bandit_b.png","70","img/orange_2bandit_b.png","70","test","","","","","","","","","","","3","","","","","","","","",""
"null","466203","SARL_v6","SARL_v6tkgopd6d","6306a29015f8667413e26eef","fixation","","","img/fixation.png","null","","","test","","","","","","","","","","","","","","","","","","","",""
"620.4000000953674","466829","SARL_v6","SARL_v6tkgopd6d","6306a29015f8667413e26eef","freq","","","img/orange_2bandit_b2.png","70","","70","test","1","","54","","","","circle","square","52","9","3","0.9615384615384616","","","","","","","",""
"null","467019","SARL_v6","SARL_v6tkgopd6d","6306a29015f8667413e26eef","freq_resp","","","img/orange_2bandit_b.png","70","img/orange_2bandit_b.png","70","test","","","","","","","","","","","3","","","","","","","","",""
"null","467187","SARL_v6","SARL_v6tkgopd6d","6306a29015f8667413e26eef","fixation","","","img/fixation.png","null","","","test","","","","","","","","","","","","","","","","","","","",""
"476.7000000476837","467671","SARL_v6","SARL_v6tkgopd6d","6306a29015f8667413e26eef","freq","","","img/orange_2bandit_b2.png","70","","70","test","1","","55","","","","circle","square","53","10","3","0.9622641509433962","","","","","","","",""
"null","468008","SARL_v6","SARL_v6tkgopd6d","6306a29015f8667413e26eef","freq_resp","","","img/orange_2bandit_b.png","70","img/orange_2bandit_b.png","70","test","","","","","","","","","","","3","","","","","","","","",""
"null","468170","SARL_v6","SARL_v6tkgopd6d","6306a29015f8667413e26eef","fixation","","","img/fixation.png","null","","","test","","","","","","","","","","","","","","","","","","","",""
"349.2000000476837","468525","SARL_v6","SARL_v6tkgopd6d","6306a29015f8667413e26eef","freq","","","img/orange_2bandit_b2.png","70","","70","test","1","","56","","","","circle","square","54","11","3","0.9629629629629629","","","","","","","",""
"null","468982","SARL_v6","SARL_v6tkgopd6d","6306a29015f8667413e26eef","freq_resp","","","img/orange_2bandit_b.png","70","img/orange_2bandit_b.png","70","test","","","","","","","","","","","3","","","","","","","","",""
"null","469153","SARL_v6","SARL_v6tkgopd6d","6306a29015f8667413e26eef","fixation","","","img/fixation.png","null","","","test","","","","","","","","","","","","","","","","","","","",""
"318.7000000476837","469478","SARL_v6","SARL_v6tkgopd6d","6306a29015f8667413e26eef","freq","","","img/orange_2bandit_b2.png","70","","70","test","1","","57","","","","circle","square","55","12","3","0.9636363636363636","","","","","","","",""
"null","469978","SARL_v6","SARL_v6tkgopd6d","6306a29015f8667413e26eef","freq_resp","","","img/orange_2bandit_b.png","70","img/orange_2bandit_b.png","70","test","","","","","","","","","","","3","","","","","","","","",""
"null","470151","SARL_v6","SARL_v6tkgopd6d","6306a29015f8667413e26eef","fixation","","","img/fixation.png","null","","","test","","","","","","","","","","","","","","","","","","","",""
"337.40000009536743","470494","SARL_v6","SARL_v6tkgopd6d","6306a29015f8667413e26eef","freq","","","img/orange_2bandit_b2.png","70","","70","test","1","","58","","","","circle","square","56","13","3","0.9642857142857143","","","","","","","",""
"null","470969","SARL_v6","SARL_v6tkgopd6d","6306a29015f8667413e26eef","freq_resp","","","img/orange_2bandit_b.png","70","img/orange_2bandit_b.png","70","test","","","","","","","","","","","3","","","","","","","","",""
"null","471140","SARL_v6","SARL_v6tkgopd6d","6306a29015f8667413e26eef","fixation","","","img/fixation.png","null","","","test","","","","","","","","","","","","","","","","","","","",""
"283.90000009536743","471431","SARL_v6","SARL_v6tkgopd6d","6306a29015f8667413e26eef","freq","","","img/orange_2bandit_b2.png","70","","70","test","1","","59","","","","circle","square","57","14","3","0.9649122807017544","","","","","","","",""
"null","471958","SARL_v6","SARL_v6tkgopd6d","6306a29015f8667413e26eef","freq_resp","","","img/orange_2bandit_b.png","70","img/orange_2bandit_b.png","70","test","","","","","","","","","","","3","","","","","","","","",""
"null","472117","SARL_v6","SARL_v6tkgopd6d","6306a29015f8667413e26eef","fixation","","","img/fixation.png","null","","","test","","","","","","","","","","","","","","","","","","","",""
"330.09999990463257","472454","SARL_v6","SARL_v6tkgopd6d","6306a29015f8667413e26eef","freq","","","img/orange_2bandit_b2.png","70","","70","test","1","","60","","","","circle","square","58","15","3","0.9655172413793104","","","","","","","",""
"null","472939","SARL_v6","SARL_v6tkgopd6d","6306a29015f8667413e26eef","freq_resp","","","img/orange_2bandit_b.png","70","img/orange_2bandit_b.png","70","test","","","","","","","","","","","3","","","","","","","","",""
"null","473102","SARL_v6","SARL_v6tkgopd6d","6306a29015f8667413e26eef","fixation","","","img/fixation.png","null","","","test","","","","","","","","","","","","","","","","","","","",""
"306","473414","SARL_v6","SARL_v6tkgopd6d","6306a29015f8667413e26eef","freq","","","img/orange_2bandit_b2.png","70","","70","test","1","","61","","","","circle","square","59","16","3","0.9661016949152542","","","","","","","",""
"null","473923","SARL_v6","SARL_v6tkgopd6d","6306a29015f8667413e26eef","freq_resp","","","img/orange_2bandit_b.png","70","img/orange_2bandit_b.png","70","test","","","","","","","","","","","3","","","","","","","","",""
"null","474082","SARL_v6","SARL_v6tkgopd6d","6306a29015f8667413e26eef","fixation","","","img/fixation.png","null","","","test","","","","","","","","","","","","","","","","","","","",""
"310.5","474398","SARL_v6","SARL_v6tkgopd6d","6306a29015f8667413e26eef","freq","","","img/orange_2bandit_b2.png","70","","70","test","1","","62","","","","circle","square","60","17","3","0.9666666666666667","","","","","","","",""
"null","474898","SARL_v6","SARL_v6tkgopd6d","6306a29015f8667413e26eef","freq_resp","","","img/orange_2bandit_b.png","70","img/orange_2bandit_b.png","70","test","","","","","","","","","","","3","","","","","","","","",""
"null","475067","SARL_v6","SARL_v6tkgopd6d","6306a29015f8667413e26eef","fixation","","","img/fixation.png","null","","","test","","","","","","","","","","","","","","","","","","","",""
"316.80000019073486","475390","SARL_v6","SARL_v6tkgopd6d","6306a29015f8667413e26eef","freq","","","img/orange_2bandit_b2.png","70","","70","test","1","","63","","","","circle","square","61","18","3","0.9672131147540983","","","","","","","",""
"null","475893","SARL_v6","SARL_v6tkgopd6d","6306a29015f8667413e26eef","freq_resp","","","img/orange_2bandit_b.png","70","img/orange_2bandit_b.png","70","test","","","","","","","","","","","3","","","","","","","","",""
"null","476050","SARL_v6","SARL_v6tkgopd6d","6306a29015f8667413e26eef","fixation","","","img/fixation.png","null","","","test","","","","","","","","","","","","","","","","","","","",""
"262.7999999523163","476318","SARL_v6","SARL_v6tkgopd6d","6306a29015f8667413e26eef","freq","","","img/orange_2bandit_b2.png","70","","70","test","1","","64","","","","circle","square","62","19","3","0.967741935483871","","","","","","","",""
"null","476874","SARL_v6","SARL_v6tkgopd6d","6306a29015f8667413e26eef","freq_resp","","","img/orange_2bandit_b.png","70","img/orange_2bandit_b.png","70","test","","","","","","","","","","","3","","","","","","","","",""
"null","477033","SARL_v6","SARL_v6tkgopd6d","6306a29015f8667413e26eef","fixation","","","img/fixation.png","null","","","test","","","","","","","","","","","","","","","","","","","",""
"326.7999999523163","477365","SARL_v6","SARL_v6tkgopd6d","6306a29015f8667413e26eef","freq","","","img/orange_2bandit_b2.png","70","","70","test","1","","65","","","","circle","square","63","20","3","0.9682539682539683","","","","","","","",""
"null","477860","SARL_v6","SARL_v6tkgopd6d","6306a29015f8667413e26eef","freq_resp","","","img/orange_2bandit_b.png","70","img/orange_2bandit_b.png","70","test","","","","","","","","","","","3","","","","","","","","",""
"null","478023","SARL_v6","SARL_v6tkgopd6d","6306a29015f8667413e26eef","fixation","","","img/fixation.png","null","","","test","","","","","","","","","","","","","","","","","","","",""
"289.39999985694885","478319","SARL_v6","SARL_v6tkgopd6d","6306a29015f8667413e26eef","freq","","","img/orange_2bandit_b2.png","70","","70","test","1","","66","","","","circle","square","64","21","3","0.96875","","","","","","","",""
"null","478851","SARL_v6","SARL_v6tkgopd6d","6306a29015f8667413e26eef","freq_resp","","","img/orange_2bandit_b.png","70","img/orange_2bandit_b.png","70","test","","","","","","","","","","","3","","","","","","","","",""
"null","479015","SARL_v6","SARL_v6tkgopd6d","6306a29015f8667413e26eef","fixation","","","img/fixation.png","null","","","test","","","","","","","","","","","","","","","","","","","",""
"288.59999990463257","479311","SARL_v6","SARL_v6tkgopd6d","6306a29015f8667413e26eef","freq","","","img/orange_2bandit_b2.png","70","","70","test","1","","67","","","","circle","square","65","22","3","0.9692307692307692","","","","","","","",""
"null","479839","SARL_v6","SARL_v6tkgopd6d","6306a29015f8667413e26eef","freq_resp","","","img/orange_2bandit_b.png","70","img/orange_2bandit_b.png","70","test","","","","","","","","","","","3","","","","","","","","",""
"null","479997","SARL_v6","SARL_v6tkgopd6d","6306a29015f8667413e26eef","fixation","","","img/fixation.png","null","","","test","","","","","","","","","","","","","","","","","","","",""
"290.5","480293","SARL_v6","SARL_v6tkgopd6d","6306a29015f8667413e26eef","freq","","","img/orange_2bandit_b2.png","70","","70","test","1","","68","","","","circle","square","66","23","3","0.9696969696969697","","","","","","","",""
"null","480812","SARL_v6","SARL_v6tkgopd6d","6306a29015f8667413e26eef","freq_resp","","","img/orange_2bandit_b.png","70","img/orange_2bandit_b.png","70","test","","","","","","","","","","","3","","","","","","","","",""
"null","480983","SARL_v6","SARL_v6tkgopd6d","6306a29015f8667413e26eef","fixation","","","img/fixation.png","null","","","test","","","","","","","","","","","","","","","","","","","",""
"497.2000000476837","481485","SARL_v6","SARL_v6tkgopd6d","6306a29015f8667413e26eef","infreq","","","img/blue_2bandit_b2.png","68","","68","test","1","","69","","","","circle","square","67","24","3","0.9701492537313433","","","","","","","",""
"null","481794","SARL_v6","SARL_v6tkgopd6d","6306a29015f8667413e26eef","infreq_resp","","","img/blue_2bandit_b.png","68","img/blue_2bandit_b.png","68","test","","","","","","","","","","","3","","","","","","","","",""
"null","481960","SARL_v6","SARL_v6tkgopd6d","6306a29015f8667413e26eef","fixation","","","img/fixation.png","null","","","test","","","","","","","","","","","","","","","","","","","",""
"441","482407","SARL_v6","SARL_v6tkgopd6d","6306a29015f8667413e26eef","freq","","","img/orange_2bandit_b2.png","70","","70","test","1","","70","","","","circle","square","68","25","3","0.9705882352941176","","","","","","","",""
"null","482775","SARL_v6","SARL_v6tkgopd6d","6306a29015f8667413e26eef","freq_resp","","","img/orange_2bandit_b.png","70","img/orange_2bandit_b.png","70","test","","","","","","","","","","","3","","","","","","","","",""
"null","482933","SARL_v6","SARL_v6tkgopd6d","6306a29015f8667413e26eef","fixation","","","img/fixation.png","null","","","test","","","","","","","","","","","","","","","","","","","",""
"378.89999985694885","483317","SARL_v6","SARL_v6tkgopd6d","6306a29015f8667413e26eef","freq","","","img/orange_2bandit_b2.png","70","","70","test","1","","71","","","","circle","square","69","26","3","0.9710144927536232","","","","","","","",""
"null","483758","SARL_v6","SARL_v6tkgopd6d","6306a29015f8667413e26eef","freq_resp","","","img/orange_2bandit_b.png","70","img/orange_2bandit_b.png","70","test","","","","","","","","","","","3","","","","","","","","",""
"null","483930","SARL_v6","SARL_v6tkgopd6d","6306a29015f8667413e26eef","fixation","","","img/fixation.png","null","","","test","","","","","","","","","","","","","","","","","","","",""
"566.2000000476837","484501","SARL_v6","SARL_v6tkgopd6d","6306a29015f8667413e26eef","rl","","","img/black_2bandit_b2.png","74","","0","test","","","72","","","-4","circle","square","","0","3","","74","-4","-8","-4","-8","circle","3","0"
"null","485267","SARL_v6","SARL_v6tkgopd6d","6306a29015f8667413e26eef","feedback","","","<div class=""verylowPoints""> -4 </div>","null","","na","test","","","NaN","","","","","","","","3","","74","","","","","","3",""
"516.4000000953674","485790","SARL_v6","SARL_v6tkgopd6d","6306a29015f8667413e26eef","freq","","","img/orange_2bandit_b2.png","70","","70","test","1","","73","","","","circle","square","70","1","4","0.9714285714285714","","","","","","","",""
"null","486088","SARL_v6","SARL_v6tkgopd6d","6306a29015f8667413e26eef","freq_resp","","","img/orange_2bandit_b.png","70","img/orange_2bandit_b.png","70","test","","","","","","","","","","","4","","","","","","","","",""
"null","486259","SARL_v6","SARL_v6tkgopd6d","6306a29015f8667413e26eef","fixation","","","img/fixation.png","null","","","test","","","","","","","","","","","","","","","","","","","",""
"573.5","486839","SARL_v6","SARL_v6tkgopd6d","6306a29015f8667413e26eef","infreq","","","img/blue_2bandit_b2.png","68","","68","test","1","","74","","","","circle","square","71","2","4","0.971830985915493","","","","","","","",""
"null","487075","SARL_v6","SARL_v6tkgopd6d","6306a29015f8667413e26eef","infreq_resp","","","img/blue_2bandit_b.png","68","img/blue_2bandit_b.png","68","test","","","","","","","","","","","4","","","","","","","","",""
"null","487244","SARL_v6","SARL_v6tkgopd6d","6306a29015f8667413e26eef","fixation","","","img/fixation.png","null","","","test","","","","","","","","","","","","","","","","","","","",""
"484.40000009536743","487734","SARL_v6","SARL_v6tkgopd6d","6306a29015f8667413e26eef","freq","","","img/orange_2bandit_b2.png","70","","70","test","1","","75","","","","circle","square","72","3","4","0.9722222222222222","","","","","","","",""
"null","488055","SARL_v6","SARL_v6tkgopd6d","6306a29015f8667413e26eef","freq_resp","","","img/orange_2bandit_b.png","70","img/orange_2bandit_b.png","70","test","","","","","","","","","","","4","","","","","","","","",""
"null","488227","SARL_v6","SARL_v6tkgopd6d","6306a29015f8667413e26eef","fixation","","","img/fixation.png","null","","","test","","","","","","","","","","","","","","","","","","","",""
"421.2999999523163","488654","SARL_v6","SARL_v6tkgopd6d","6306a29015f8667413e26eef","freq","","","img/orange_2bandit_b2.png","70","","70","test","1","","76","","","","circle","square","73","4","4","0.9726027397260274","","","","","","","",""
"null","489052","SARL_v6","SARL_v6tkgopd6d","6306a29015f8667413e26eef","freq_resp","","","img/orange_2bandit_b.png","70","img/orange_2bandit_b.png","70","test","","","","","","","","","","","4","","","","","","","","",""
"null","489212","SARL_v6","SARL_v6tkgopd6d","6306a29015f8667413e26eef","fixation","","","img/fixation.png","null","","","test","","","","","","","","","","","","","","","","","","","",""
"323.7999999523163","489542","SARL_v6","SARL_v6tkgopd6d","6306a29015f8667413e26eef","freq","","","img/orange_2bandit_b2.png","70","","70","test","1","","77","","","","circle","square","74","5","4","0.972972972972973","","","","","","","",""
"null","490030","SARL_v6","SARL_v6tkgopd6d","6306a29015f8667413e26eef","freq_resp","","","img/orange_2bandit_b.png","70","img/orange_2bandit_b.png","70","test","","","","","","","","","","","4","","","","","","","","",""
"null","490193","SARL_v6","SARL_v6tkgopd6d","6306a29015f8667413e26eef","fixation","","","img/fixation.png","null","","","test","","","","","","","","","","","","","","","","","","","",""
"286.7999999523163","490485","SARL_v6","SARL_v6tkgopd6d","6306a29015f8667413e26eef","freq","","","img/orange_2bandit_b2.png","70","","70","test","1","","78","","","","circle","square","75","6","4","0.9733333333333334","","","","","","","",""
"null","491015","SARL_v6","SARL_v6tkgopd6d","6306a29015f8667413e26eef","freq_resp","","","img/orange_2bandit_b.png","70","img/orange_2bandit_b.png","70","test","","","","","","","","","","","4","","","","","","","","",""
"null","491172","SARL_v6","SARL_v6tkgopd6d","6306a29015f8667413e26eef","fixation","","","img/fixation.png","null","","","test","","","","","","","","","","","","","","","","","","","",""
"220.59999990463257","491398","SARL_v6","SARL_v6tkgopd6d","6306a29015f8667413e26eef","freq","","","img/orange_2bandit_b2.png","70","","70","test","1","","79","","","","circle","square","76","7","4","0.9736842105263158","","","","","","","",""
"null","491997","SARL_v6","SARL_v6tkgopd6d","6306a29015f8667413e26eef","freq_resp","","","img/orange_2bandit_b.png","70","img/orange_2bandit_b.png","70","test","","","","","","","","","","","4","","","","","","","","",""
"null","492159","SARL_v6","SARL_v6tkgopd6d","6306a29015f8667413e26eef","fixation","","","img/fixation.png","null","","","test","","","","","","","","","","","","","","","","","","","",""
"248.90000009536743","492415","SARL_v6","SARL_v6tkgopd6d","6306a29015f8667413e26eef","freq","","","img/orange_2bandit_b2.png","70","","70","test","1","","80","","","","circle","square","77","8","4","0.974025974025974","","","","","","","",""
"null","492987","SARL_v6","SARL_v6tkgopd6d","6306a29015f8667413e26eef","freq_resp","","","img/orange_2bandit_b.png","70","img/orange_2bandit_b.png","70","test","","","","","","","","","","","4","","","","","","","","",""
"null","493159","SARL_v6","SARL_v6tkgopd6d","6306a29015f8667413e26eef","fixation","","","img/fixation.png","null","","","test","","","","","","","","","","","","","","","","","","","",""
"249.5","493415","SARL_v6","SARL_v6tkgopd6d","6306a29015f8667413e26eef","freq","","","img/orange_2bandit_b2.png","70","","70","test","1","","81","","","","circle","square","78","9","4","0.9743589743589743","","","","","","","",""
"null","493972","SARL_v6","SARL_v6tkgopd6d","6306a29015f8667413e26eef","freq_resp","","","img/orange_2bandit_b.png","70","img/orange_2bandit_b.png","70","test","","","","","","","","","","","4","","","","","","","","",""
"null","494143","SARL_v6","SARL_v6tkgopd6d","6306a29015f8667413e26eef","fixation","","","img/fixation.png","null","","","test","","","","","","","","","","","","","","","","","","","",""
"296.89999985694885","494447","SARL_v6","SARL_v6tkgopd6d","6306a29015f8667413e26eef","freq","","","img/orange_2bandit_b2.png","70","","70","test","1","","82","","","","circle","square","79","10","4","0.9746835443037974","","","","","","","",""
"null","494960","SARL_v6","SARL_v6tkgopd6d","6306a29015f8667413e26eef","freq_resp","","","img/orange_2bandit_b.png","70","img/orange_2bandit_b.png","70","test","","","","","","","","","","","4","","","","","","","","",""
"null","495125","SARL_v6","SARL_v6tkgopd6d","6306a29015f8667413e26eef","fixation","","","img/fixation.png","null","","","test","","","","","","","","","","","","","","","","","","","",""
"227","495358","SARL_v6","SARL_v6tkgopd6d","6306a29015f8667413e26eef","freq","","","img/orange_2bandit_b2.png","70","","70","test","1","","83","","","","circle","square","80","11","4","0.975","","","","","","","",""
"null","495952","SARL_v6","SARL_v6tkgopd6d","6306a29015f8667413e26eef","freq_resp","","","img/orange_2bandit_b.png","70","img/orange_2bandit_b.png","70","test","","","","","","","","","","","4","","","","","","","","",""
"null","496109","SARL_v6","SARL_v6tkgopd6d","6306a29015f8667413e26eef","fixation","","","img/fixation.png","null","","","test","","","","","","","","","","","","","","","","","","","",""
"267.7000000476837","496383","SARL_v6","SARL_v6tkgopd6d","6306a29015f8667413e26eef","freq","","","img/orange_2bandit_b2.png","70","","70","test","1","","84","","","","circle","square","81","12","4","0.9753086419753086","","","","","","","",""
"null","496935","SARL_v6","SARL_v6tkgopd6d","6306a29015f8667413e26eef","freq_resp","","","img/orange_2bandit_b.png","70","img/orange_2bandit_b.png","70","test","","","","","","","","","","","4","","","","","","","","",""
"null","497105","SARL_v6","SARL_v6tkgopd6d","6306a29015f8667413e26eef","fixation","","","img/fixation.png","null","","","test","","","","","","","","","","","","","","","","","","","",""
"262.7000000476837","497374","SARL_v6","SARL_v6tkgopd6d","6306a29015f8667413e26eef","freq","","","img/orange_2bandit_b2.png","70","","70","test","1","","85","","","","circle","square","82","13","4","0.975609756097561","","","","","","","",""
"null","497921","SARL_v6","SARL_v6tkgopd6d","6306a29015f8667413e26eef","freq_resp","","","img/orange_2bandit_b.png","70","img/orange_2bandit_b.png","70","test","","","","","","","","","","","4","","","","","","","","",""
"null","498090","SARL_v6","SARL_v6tkgopd6d","6306a29015f8667413e26eef","fixation","","","img/fixation.png","null","","","test","","","","","","","","","","","","","","","","","","","",""
"598.2000000476837","498694","SARL_v6","SARL_v6tkgopd6d","6306a29015f8667413e26eef","infreq","","","img/blue_2bandit_b2.png","68","","68","test","1","","86","","","","circle","square","83","14","4","0.9759036144578314","","","","","","","",""
"null","498905","SARL_v6","SARL_v6tkgopd6d","6306a29015f8667413e26eef","infreq_resp","","","img/blue_2bandit_b.png","68","img/blue_2bandit_b.png","68","test","","","","","","","","","","","4","","","","","","","","",""
"null","499073","SARL_v6","SARL_v6tkgopd6d","6306a29015f8667413e26eef","fixation","","","img/fixation.png","null","","","test","","","","","","","","","","","","","","","","","","","",""
"350.90000009536743","499431","SARL_v6","SARL_v6tkgopd6d","6306a29015f8667413e26eef","freq","","","img/orange_2bandit_b2.png","70","","70","test","1","","87","","","","circle","square","84","15","4","0.9761904761904762","","","","","","","",""
"null","499890","SARL_v6","SARL_v6tkgopd6d","6306a29015f8667413e26eef","freq_resp","","","img/orange_2bandit_b.png","70","img/orange_2bandit_b.png","70","test","","","","","","","","","","","4","","","","","","","","",""
"null","500054","SARL_v6","SARL_v6tkgopd6d","6306a29015f8667413e26eef","fixation","","","img/fixation.png","null","","","test","","","","","","","","","","","","","","","","","","","",""
"298.59999990463257","500358","SARL_v6","SARL_v6tkgopd6d","6306a29015f8667413e26eef","freq","","","img/orange_2bandit_b2.png","70","","70","test","1","","88","","","","circle","square","85","16","4","0.9764705882352941","","","","","","","",""
"null","500872","SARL_v6","SARL_v6tkgopd6d","6306a29015f8667413e26eef","freq_resp","","","img/orange_2bandit_b.png","70","img/orange_2bandit_b.png","70","test","","","","","","","","","","","4","","","","","","","","",""
"null","501037","SARL_v6","SARL_v6tkgopd6d","6306a29015f8667413e26eef","fixation","","","img/fixation.png","null","","","test","","","","","","","","","","","","","","","","","","","",""
"324","501367","SARL_v6","SARL_v6tkgopd6d","6306a29015f8667413e26eef","freq","","","img/orange_2bandit_b2.png","70","","70","test","1","","89","","","","circle","square","86","17","4","0.9767441860465116","","","","","","","",""
"null","501851","SARL_v6","SARL_v6tkgopd6d","6306a29015f8667413e26eef","freq_resp","","","img/orange_2bandit_b.png","70","img/orange_2bandit_b.png","70","test","","","","","","","","","","","4","","","","","","","","",""
"null","502022","SARL_v6","SARL_v6tkgopd6d","6306a29015f8667413e26eef","fixation","","","img/fixation.png","null","","","test","","","","","","","","","","","","","","","","","","","",""
"322.2000000476837","502351","SARL_v6","SARL_v6tkgopd6d","6306a29015f8667413e26eef","freq","","","img/orange_2bandit_b2.png","70","","70","test","1","","90","","","","circle","square","87","18","4","0.9770114942528736","","","","","","","",""
"null","502836","SARL_v6","SARL_v6tkgopd6d","6306a29015f8667413e26eef","freq_resp","","","img/orange_2bandit_b.png","70","img/orange_2bandit_b.png","70","test","","","","","","","","","","","4","","","","","","","","",""
"null","503004","SARL_v6","SARL_v6tkgopd6d","6306a29015f8667413e26eef","fixation","","","img/fixation.png","null","","","test","","","","","","","","","","","","","","","","","","","",""
"348.5","503358","SARL_v6","SARL_v6tkgopd6d","6306a29015f8667413e26eef","freq","","","img/orange_2bandit_b2.png","70","","70","test","1","","91","","","","circle","square","88","19","4","0.9772727272727273","","","","","","","",""
"null","503825","SARL_v6","SARL_v6tkgopd6d","6306a29015f8667413e26eef","freq_resp","","","img/orange_2bandit_b.png","70","img/orange_2bandit_b.png","70","test","","","","","","","","","","","4","","","","","","","","",""
"null","503982","SARL_v6","SARL_v6tkgopd6d","6306a29015f8667413e26eef","fixation","","","img/fixation.png","null","","","test","","","","","","","","","","","","","","","","","","","",""
"194.09999990463257","504183","SARL_v6","SARL_v6tkgopd6d","6306a29015f8667413e26eef","freq","","","img/orange_2bandit_b2.png","70","","70","test","1","","92","","","","circle","square","89","20","4","0.9775280898876404","","","","","","","",""
"null","504808","SARL_v6","SARL_v6tkgopd6d","6306a29015f8667413e26eef","freq_resp","","","img/orange_2bandit_b.png","70","img/orange_2bandit_b.png","70","test","","","","","","","","","","","4","","","","","","","","",""
"null","504968","SARL_v6","SARL_v6tkgopd6d","6306a29015f8667413e26eef","fixation","","","img/fixation.png","null","","","test","","","","","","","","","","","","","","","","","","","",""
"495.2999999523163","505470","SARL_v6","SARL_v6tkgopd6d","6306a29015f8667413e26eef","rl","","","img/black_2bandit_b2.png","74","","0","test","","","93","","","0","circle","square","","0","4","","74","0","-12","0","-12","circle","4","0"
"null","506229","SARL_v6","SARL_v6tkgopd6d","6306a29015f8667413e26eef","feedback","","","<div class=""verylowPoints""> 0 </div>","null","","na","test","","","NaN","","","","","","","","4","","74","","","","","","4",""
"498.89999985694885","506736","SARL_v6","SARL_v6tkgopd6d","6306a29015f8667413e26eef","freq","","","img/orange_2bandit_b2.png","70","","70","test","1","","94","","","","circle","square","90","1","5","0.9777777777777777","","","","","","","",""
"null","507056","SARL_v6","SARL_v6tkgopd6d","6306a29015f8667413e26eef","freq_resp","","","img/orange_2bandit_b.png","70","img/orange_2bandit_b.png","70","test","","","","","","","","","","","5","","","","","","","","",""
"null","507220","SARL_v6","SARL_v6tkgopd6d","6306a29015f8667413e26eef","fixation","","","img/fixation.png","null","","","test","","","","","","","","","","","","","","","","","","","",""
"421","507648","SARL_v6","SARL_v6tkgopd6d","6306a29015f8667413e26eef","freq","","","img/orange_2bandit_b2.png","70","","70","test","1","","95","","","","circle","square","91","2","5","0.978021978021978","","","","","","","",""
"null","508039","SARL_v6","SARL_v6tkgopd6d","6306a29015f8667413e26eef","freq_resp","","","img/orange_2bandit_b.png","70","img/orange_2bandit_b.png","70","test","","","","","","","","","","","5","","","","","","","","",""
"null","508202","SARL_v6","SARL_v6tkgopd6d","6306a29015f8667413e26eef","fixation","","","img/fixation.png","null","","","test","","","","","","","","","","","","","","","","","","","",""
"390","508599","SARL_v6","SARL_v6tkgopd6d","6306a29015f8667413e26eef","freq","","","img/orange_2bandit_b2.png","70","","70","test","1","","96","","","","circle","square","92","3","5","0.9782608695652174","","","","","","","",""
"null","509018","SARL_v6","SARL_v6tkgopd6d","6306a29015f8667413e26eef","freq_resp","","","img/orange_2bandit_b.png","70","img/orange_2bandit_b.png","70","test","","","","","","","","","","","5","","","","","","","","",""
"null","509185","SARL_v6","SARL_v6tkgopd6d","6306a29015f8667413e26eef","fixation","","","img/fixation.png","null","","","test","","","","","","","","","","","","","","","","","","","",""
"318.7999999523163","509511","SARL_v6","SARL_v6tkgopd6d","6306a29015f8667413e26eef","freq","","","img/orange_2bandit_b2.png","70","","70","test","1","","97","","","","circle","square","93","4","5","0.978494623655914","","","","","","","",""
"null","510008","SARL_v6","SARL_v6tkgopd6d","6306a29015f8667413e26eef","freq_resp","","","img/orange_2bandit_b.png","70","img/orange_2bandit_b.png","70","test","","","","","","","","","","","5","","","","","","","","",""
"null","510168","SARL_v6","SARL_v6tkgopd6d","6306a29015f8667413e26eef","fixation","","","img/fixation.png","null","","","test","","","","","","","","","","","","","","","","","","","",""
"264","510438","SARL_v6","SARL_v6tkgopd6d","6306a29015f8667413e26eef","freq","","","img/orange_2bandit_b2.png","70","","70","test","1","","98","","","","circle","square","94","5","5","0.9787234042553191","","","","","","","",""
"null","510983","SARL_v6","SARL_v6tkgopd6d","6306a29015f8667413e26eef","freq_resp","","","img/orange_2bandit_b.png","70","img/orange_2bandit_b.png","70","test","","","","","","","","","","","5","","","","","","","","",""
"null","511150","SARL_v6","SARL_v6tkgopd6d","6306a29015f8667413e26eef","fixation","","","img/fixation.png","null","","","test","","","","","","","","","","","","","","","","","","","",""
"298.09999990463257","511455","SARL_v6","SARL_v6tkgopd6d","6306a29015f8667413e26eef","infreq","","","img/blue_2bandit_b2.png","70","","68","test","0","","99","","","","circle","square","95","6","5","0.968421052631579","","","","","","","",""
"null","511974","SARL_v6","SARL_v6tkgopd6d","6306a29015f8667413e26eef","infreq_resp","","","img/blue_2bandit_b.png","70","img/blue_2bandit_b.png","68","test","","","","","","","","","","","5","","","","","","","","",""
"null","512132","SARL_v6","SARL_v6tkgopd6d","6306a29015f8667413e26eef","fixation","","","img/fixation.png","null","","","test","","","","","","","","","","","","","","","","","","","",""
"380.10000014305115","512518","SARL_v6","SARL_v6tkgopd6d","6306a29015f8667413e26eef","freq","","","img/orange_2bandit_b2.png","70","","70","test","1","","100","","","","circle","square","96","7","5","0.96875","","","","","","","",""
"null","512951","SARL_v6","SARL_v6tkgopd6d","6306a29015f8667413e26eef","freq_resp","","","img/orange_2bandit_b.png","70","img/orange_2bandit_b.png","70","test","","","","","","","","","","","5","","","","","","","","",""
"null","513115","SARL_v6","SARL_v6tkgopd6d","6306a29015f8667413e26eef","fixation","","","img/fixation.png","null","","","test","","","","","","","","","","","","","","","","","","","",""
"364.10000014305115","513485","SARL_v6","SARL_v6tkgopd6d","6306a29015f8667413e26eef","freq","","","img/orange_2bandit_b2.png","70","","70","test","1","","101","","","","circle","square","97","8","5","0.9690721649484536","","","","","","","",""
"null","513941","SARL_v6","SARL_v6tkgopd6d","6306a29015f8667413e26eef","freq_resp","","","img/orange_2bandit_b.png","70","img/orange_2bandit_b.png","70","test","","","","","","","","","","","5","","","","","","","","",""
"null","514098","SARL_v6","SARL_v6tkgopd6d","6306a29015f8667413e26eef","fixation","","","img/fixation.png","null","","","test","","","","","","","","","","","","","","","","","","","",""
"398.2000000476837","514503","SARL_v6","SARL_v6tkgopd6d","6306a29015f8667413e26eef","freq","","","img/orange_2bandit_b2.png","70","","70","test","1","","102","","","","circle","square","98","9","5","0.9693877551020408","","","","","","","",""
"null","514912","SARL_v6","SARL_v6tkgopd6d","6306a29015f8667413e26eef","freq_resp","","","img/orange_2bandit_b.png","70","img/orange_2bandit_b.png","70","test","","","","","","","","","","","5","","","","","","","","",""
"null","515081","SARL_v6","SARL_v6tkgopd6d","6306a29015f8667413e26eef","fixation","","","img/fixation.png","null","","","test","","","","","","","","","","","","","","","","","","","",""
"470.5","515558","SARL_v6","SARL_v6tkgopd6d","6306a29015f8667413e26eef","infreq","","","img/blue_2bandit_b2.png","68","","68","test","1","","103","","","","circle","square","99","10","5","0.9696969696969697","","","","","","","",""
"null","515895","SARL_v6","SARL_v6tkgopd6d","6306a29015f8667413e26eef","infreq_resp","","","img/blue_2bandit_b.png","68","img/blue_2bandit_b.png","68","test","","","","","","","","","","","5","","","","","","","","",""
"null","516053","SARL_v6","SARL_v6tkgopd6d","6306a29015f8667413e26eef","fixation","","","img/fixation.png","null","","","test","","","","","","","","","","","","","","","","","","","",""
"339.39999985694885","516399","SARL_v6","SARL_v6tkgopd6d","6306a29015f8667413e26eef","freq","","","img/orange_2bandit_b2.png","70","","70","test","1","","104","","","","circle","square","100","11","5","0.97","","","","","","","",""
"null","516868","SARL_v6","SARL_v6tkgopd6d","6306a29015f8667413e26eef","freq_resp","","","img/orange_2bandit_b.png","70","img/orange_2bandit_b.png","70","test","","","","","","","","","","","5","","","","","","","","",""
"null","517031","SARL_v6","SARL_v6tkgopd6d","6306a29015f8667413e26eef","fixation","","","img/fixation.png","null","","","test","","","","","","","","","","","","","","","","","","","",""
"288.5","517326","SARL_v6","SARL_v6tkgopd6d","6306a29015f8667413e26eef","freq","","","img/orange_2bandit_b2.png","70","","70","test","1","","105","","","","circle","square","101","12","5","0.9702970297029703","","","","","","","",""
"null","517853","SARL_v6","SARL_v6tkgopd6d","6306a29015f8667413e26eef","freq_resp","","","img/orange_2bandit_b.png","70","img/orange_2bandit_b.png","70","test","","","","","","","","","","","5","","","","","","","","",""
"null","518013","SARL_v6","SARL_v6tkgopd6d","6306a29015f8667413e26eef","fixation","","","img/fixation.png","null","","","test","","","","","","","","","","","","","","","","","","","",""
"259","518280","SARL_v6","SARL_v6tkgopd6d","6306a29015f8667413e26eef","freq","","","img/orange_2bandit_b2.png","70","","70","test","1","","106","","","","circle","square","102","13","5","0.9705882352941176","","","","","","","",""
"null","518828","SARL_v6","SARL_v6tkgopd6d","6306a29015f8667413e26eef","freq_resp","","","img/orange_2bandit_b.png","70","img/orange_2bandit_b.png","70","test","","","","","","","","","","","5","","","","","","","","",""
"null","518996","SARL_v6","SARL_v6tkgopd6d","6306a29015f8667413e26eef","fixation","","","img/fixation.png","null","","","test","","","","","","","","","","","","","","","","","","","",""
"275.59999990463257","519278","SARL_v6","SARL_v6tkgopd6d","6306a29015f8667413e26eef","freq","","","img/orange_2bandit_b2.png","70","","70","test","1","","107","","","","circle","square","103","14","5","0.970873786407767","","","","","","","",""
"null","519824","SARL_v6","SARL_v6tkgopd6d","6306a29015f8667413e26eef","freq_resp","","","img/orange_2bandit_b.png","70","img/orange_2bandit_b.png","70","test","","","","","","","","","","","5","","","","","","","","",""
"null","519995","SARL_v6","SARL_v6tkgopd6d","6306a29015f8667413e26eef","fixation","","","img/fixation.png","null","","","test","","","","","","","","","","","","","","","","","","","",""
"357.2000000476837","520357","SARL_v6","SARL_v6tkgopd6d","6306a29015f8667413e26eef","freq","","","img/orange_2bandit_b2.png","70","","70","test","1","","108","","","","circle","square","104","15","5","0.9711538461538461","","","","","","","",""
"null","520817","SARL_v6","SARL_v6tkgopd6d","6306a29015f8667413e26eef","freq_resp","","","img/orange_2bandit_b.png","70","img/orange_2bandit_b.png","70","test","","","","","","","","","","","5","","","","","","","","",""
"null","520980","SARL_v6","SARL_v6tkgopd6d","6306a29015f8667413e26eef","fixation","","","img/fixation.png","null","","","test","","","","","","","","","","","","","","","","","","","",""
"355.7000000476837","521342","SARL_v6","SARL_v6tkgopd6d","6306a29015f8667413e26eef","freq","","","img/orange_2bandit_b2.png","70","","70","test","1","","109","","","","circle","square","105","16","5","0.9714285714285714","","","","","","","",""
"null","521803","SARL_v6","SARL_v6tkgopd6d","6306a29015f8667413e26eef","freq_resp","","","img/orange_2bandit_b.png","70","img/orange_2bandit_b.png","70","test","","","","","","","","","","","5","","","","","","","","",""
"null","521966","SARL_v6","SARL_v6tkgopd6d","6306a29015f8667413e26eef","fixation","","","img/fixation.png","null","","","test","","","","","","","","","","","","","","","","","","","",""
"314.2000000476837","522286","SARL_v6","SARL_v6tkgopd6d","6306a29015f8667413e26eef","freq","","","img/orange_2bandit_b2.png","70","","70","test","1","","110","","","","circle","square","106","17","5","0.9716981132075472","","","","","","","",""
"null","522777","SARL_v6","SARL_v6tkgopd6d","6306a29015f8667413e26eef","freq_resp","","","img/orange_2bandit_b.png","70","img/orange_2bandit_b.png","70","test","","","","","","","","","","","5","","","","","","","","",""
"null","522944","SARL_v6","SARL_v6tkgopd6d","6306a29015f8667413e26eef","fixation","","","img/fixation.png","null","","","test","","","","","","","","","","","","","","","","","","","",""
"304.69999980926514","523255","SARL_v6","SARL_v6tkgopd6d","6306a29015f8667413e26eef","infreq","","","img/blue_2bandit_b2.png","70","","68","test","0","","111","","","","circle","square","107","18","5","0.9626168224299065","","","","","","","",""
"null","523758","SARL_v6","SARL_v6tkgopd6d","6306a29015f8667413e26eef","infreq_resp","","","img/blue_2bandit_b.png","70","img/blue_2bandit_b.png","68","test","","","","","","","","","","","5","","","","","","","","",""
"null","523921","SARL_v6","SARL_v6tkgopd6d","6306a29015f8667413e26eef","fixation","","","img/fixation.png","null","","","test","","","","","","","","","","","","","","","","","","","",""
"487.5","524415","SARL_v6","SARL_v6tkgopd6d","6306a29015f8667413e26eef","freq","","","img/orange_2bandit_b2.png","70","","70","test","1","","112","","","","circle","square","108","19","5","0.9629629629629629","","","","","","","",""
"null","524735","SARL_v6","SARL_v6tkgopd6d","6306a29015f8667413e26eef","freq_resp","","","img/orange_2bandit_b.png","70","img/orange_2bandit_b.png","70","test","","","","","","","","","","","5","","","","","","","","",""
"null","524892","SARL_v6","SARL_v6tkgopd6d","6306a29015f8667413e26eef","fixation","","","img/fixation.png","null","","","test","","","","","","","","","","","","","","","","","","","",""
"379.40000009536743","525279","SARL_v6","SARL_v6tkgopd6d","6306a29015f8667413e26eef","freq","","","img/orange_2bandit_b2.png","70","","70","test","1","","113","","","","circle","square","109","20","5","0.963302752293578","","","","","","","",""
"null","525714","SARL_v6","SARL_v6tkgopd6d","6306a29015f8667413e26eef","freq_resp","","","img/orange_2bandit_b.png","70","img/orange_2bandit_b.png","70","test","","","","","","","","","","","5","","","","","","","","",""
"null","525872","SARL_v6","SARL_v6tkgopd6d","6306a29015f8667413e26eef","fixation","","","img/fixation.png","null","","","test","","","","","","","","","","","","","","","","","","","",""
"344.10000014305115","526221","SARL_v6","SARL_v6tkgopd6d","6306a29015f8667413e26eef","freq","","","img/orange_2bandit_b2.png","70","","70","test","1","","114","","","","circle","square","110","21","5","0.9636363636363636","","","","","","","",""
"null","526699","SARL_v6","SARL_v6tkgopd6d","6306a29015f8667413e26eef","freq_resp","","","img/orange_2bandit_b.png","70","img/orange_2bandit_b.png","70","test","","","","","","","","","","","5","","","","","","","","",""
"null","526861","SARL_v6","SARL_v6tkgopd6d","6306a29015f8667413e26eef","fixation","","","img/fixation.png","null","","","test","","","","","","","","","","","","","","","","","","","",""
"385.09999990463257","527249","SARL_v6","SARL_v6tkgopd6d","6306a29015f8667413e26eef","freq","","","img/orange_2bandit_b2.png","70","","70","test","1","","115","","","","circle","square","111","22","5","0.963963963963964","","","","","","","",""
"null","527678","SARL_v6","SARL_v6tkgopd6d","6306a29015f8667413e26eef","freq_resp","","","img/orange_2bandit_b.png","70","img/orange_2bandit_b.png","70","test","","","","","","","","","","","5","","","","","","","","",""
"null","527842","SARL_v6","SARL_v6tkgopd6d","6306a29015f8667413e26eef","fixation","","","img/fixation.png","null","","","test","","","","","","","","","","","","","","","","","","","",""
"341.40000009536743","528191","SARL_v6","SARL_v6tkgopd6d","6306a29015f8667413e26eef","freq","","","img/orange_2bandit_b2.png","70","","70","test","1","","116","","","","circle","square","112","23","5","0.9642857142857143","","","","","","","",""
"null","528663","SARL_v6","SARL_v6tkgopd6d","6306a29015f8667413e26eef","freq_resp","","","img/orange_2bandit_b.png","70","img/orange_2bandit_b.png","70","test","","","","","","","","","","","5","","","","","","","","",""
"null","528826","SARL_v6","SARL_v6tkgopd6d","6306a29015f8667413e26eef","fixation","","","img/fixation.png","null","","","test","","","","","","","","","","","","","","","","","","","",""
"509.5","529344","SARL_v6","SARL_v6tkgopd6d","6306a29015f8667413e26eef","rl","","","img/black_2bandit_b2.png","75","","0","test","","","117","","","-7","circle","square","","0","5","","75","4","-7","4","-7","square","5","0"
"null","530109","SARL_v6","SARL_v6tkgopd6d","6306a29015f8667413e26eef","feedback","","","<div class=""verylowPoints_sq""> -7 </div>","null","","na","test","","","NaN","","","","","","","","5","","75","","","","","","5",""
"499.2000000476837","530615","SARL_v6","SARL_v6tkgopd6d","6306a29015f8667413e26eef","freq","","","img/orange_2bandit_b2.png","70","","70","test","1","","118","","","","circle","square","113","1","6","0.9646017699115044","","","","","","","",""
"null","530937","SARL_v6","SARL_v6tkgopd6d","6306a29015f8667413e26eef","freq_resp","","","img/orange_2bandit_b.png","70","img/orange_2bandit_b.png","70","test","","","","","","","","","","","6","","","","","","","","",""
"null","531109","SARL_v6","SARL_v6tkgopd6d","6306a29015f8667413e26eef","fixation","","","img/fixation.png","null","","","test","","","","","","","","","","","","","","","","","","","",""
"402.7999999523163","531518","SARL_v6","SARL_v6tkgopd6d","6306a29015f8667413e26eef","freq","","","img/orange_2bandit_b2.png","70","","70","test","1","","119","","","","circle","square","114","2","6","0.9649122807017544","","","","","","","",""
"null","531931","SARL_v6","SARL_v6tkgopd6d","6306a29015f8667413e26eef","freq_resp","","","img/orange_2bandit_b.png","70","img/orange_2bandit_b.png","70","test","","","","","","","","","","","6","","","","","","","","",""
"null","532089","SARL_v6","SARL_v6tkgopd6d","6306a29015f8667413e26eef","fixation","","","img/fixation.png","null","","","test","","","","","","","","","","","","","","","","","","","",""
"342.90000009536743","532438","SARL_v6","SARL_v6tkgopd6d","6306a29015f8667413e26eef","freq","","","img/orange_2bandit_b2.png","70","","70","test","1","","120","","","","circle","square","115","3","6","0.9652173913043478","","","","","","","",""
"null","532907","SARL_v6","SARL_v6tkgopd6d","6306a29015f8667413e26eef","freq_resp","","","img/orange_2bandit_b.png","70","img/orange_2bandit_b.png","70","test","","","","","","","","","","","6","","","","","","","","",""
"null","533074","SARL_v6","SARL_v6tkgopd6d","6306a29015f8667413e26eef","fixation","","","img/fixation.png","null","","","test","","","","","","","","","","","","","","","","","","","",""
"310.2000000476837","533390","SARL_v6","SARL_v6tkgopd6d","6306a29015f8667413e26eef","freq","","","img/orange_2bandit_b2.png","70","","70","test","1","","121","","","","circle","square","116","4","6","0.9655172413793104","","","","","","","",""
"null","533884","SARL_v6","SARL_v6tkgopd6d","6306a29015f8667413e26eef","freq_resp","","","img/orange_2bandit_b.png","70","img/orange_2bandit_b.png","70","test","","","","","","","","","","","6","","","","","","","","",""
"null","534042","SARL_v6","SARL_v6tkgopd6d","6306a29015f8667413e26eef","fixation","","","img/fixation.png","null","","","test","","","","","","","","","","","","","","","","","","","",""
"477.69999980926514","534527","SARL_v6","SARL_v6tkgopd6d","6306a29015f8667413e26eef","infreq","","","img/blue_2bandit_b2.png","68","","68","test","1","","122","","","","circle","square","117","5","6","0.9658119658119658","","","","","","","",""
"null","534862","SARL_v6","SARL_v6tkgopd6d","6306a29015f8667413e26eef","infreq_resp","","","img/blue_2bandit_b.png","68","img/blue_2bandit_b.png","68","test","","","","","","","","","","","6","","","","","","","","",""
"null","535021","SARL_v6","SARL_v6tkgopd6d","6306a29015f8667413e26eef","fixation","","","img/fixation.png","null","","","test","","","","","","","","","","","","","","","","","","","",""
"450.09999990463257","535477","SARL_v6","SARL_v6tkgopd6d","6306a29015f8667413e26eef","infreq","","","img/blue_2bandit_b2.png","68","","68","test","1","","123","","","","circle","square","118","6","6","0.9661016949152542","","","","","","","",""
"null","535846","SARL_v6","SARL_v6tkgopd6d","6306a29015f8667413e26eef","infreq_resp","","","img/blue_2bandit_b.png","68","img/blue_2bandit_b.png","68","test","","","","","","","","","","","6","","","","","","","","",""
"null","536005","SARL_v6","SARL_v6tkgopd6d","6306a29015f8667413e26eef","fixation","","","img/fixation.png","null","","","test","","","","","","","","","","","","","","","","","","","",""
"474.30000019073486","536486","SARL_v6","SARL_v6tkgopd6d","6306a29015f8667413e26eef","freq","","","img/orange_2bandit_b2.png","70","","70","test","1","","124","","","","circle","square","119","7","6","0.9663865546218487","","","","","","","",""
"null","536822","SARL_v6","SARL_v6tkgopd6d","6306a29015f8667413e26eef","freq_resp","","","img/orange_2bandit_b.png","70","img/orange_2bandit_b.png","70","test","","","","","","","","","","","6","","","","","","","","",""
"null","536977","SARL_v6","SARL_v6tkgopd6d","6306a29015f8667413e26eef","fixation","","","img/fixation.png","null","","","test","","","","","","","","","","","","","","","","","","","",""
"406.89999985694885","537391","SARL_v6","SARL_v6tkgopd6d","6306a29015f8667413e26eef","freq","","","img/orange_2bandit_b2.png","70","","70","test","1","","125","","","","circle","square","120","8","6","0.9666666666666667","","","","","","","",""
"null","537794","SARL_v6","SARL_v6tkgopd6d","6306a29015f8667413e26eef","freq_resp","","","img/orange_2bandit_b.png","70","img/orange_2bandit_b.png","70","test","","","","","","","","","","","6","","","","","","","","",""
"null","537955","SARL_v6","SARL_v6tkgopd6d","6306a29015f8667413e26eef","fixation","","","img/fixation.png","null","","","test","","","","","","","","","","","","","","","","","","","",""
"413.10000014305115","538374","SARL_v6","SARL_v6tkgopd6d","6306a29015f8667413e26eef","freq","","","img/orange_2bandit_b2.png","70","","70","test","1","","126","","","","circle","square","121","9","6","0.9669421487603306","","","","","","","",""
"null","538776","SARL_v6","SARL_v6tkgopd6d","6306a29015f8667413e26eef","freq_resp","","","img/orange_2bandit_b.png","70","img/orange_2bandit_b.png","70","test","","","","","","","","","","","6","","","","","","","","",""
"null","538933","SARL_v6","SARL_v6tkgopd6d","6306a29015f8667413e26eef","fixation","","","img/fixation.png","null","","","test","","","","","","","","","","","","","","","","","","","",""
"338.39999985694885","539279","SARL_v6","SARL_v6tkgopd6d","6306a29015f8667413e26eef","freq","","","img/orange_2bandit_b2.png","70","","70","test","1","","127","","","","circle","square","122","10","6","0.9672131147540983","","","","","","","",""
"null","539757","SARL_v6","SARL_v6tkgopd6d","6306a29015f8667413e26eef","freq_resp","","","img/orange_2bandit_b.png","70","img/orange_2bandit_b.png","70","test","","","","","","","","","","","6","","","","","","","","",""
"null","539924","SARL_v6","SARL_v6tkgopd6d","6306a29015f8667413e26eef","fixation","","","img/fixation.png","null","","","test","","","","","","","","","","","","","","","","","","","",""
"284.10000014305115","540214","SARL_v6","SARL_v6tkgopd6d","6306a29015f8667413e26eef","freq","","","img/orange_2bandit_b2.png","70","","70","test","1","","128","","","","circle","square","123","11","6","0.967479674796748","","","","","","","",""
"null","540737","SARL_v6","SARL_v6tkgopd6d","6306a29015f8667413e26eef","freq_resp","","","img/orange_2bandit_b.png","70","img/orange_2bandit_b.png","70","test","","","","","","","","","","","6","","","","","","","","",""
