"rt","time_elapsed","expId","subject","prolificID","trialType","rlType","attType","stimulus","key_press","stim","corrresp","phase","corr","pracCounter","trialNum","rewardOne","rewardTwo","reward","bandOne","bandTwo","attentionNum","attentionRunNum","blockNum","performance","bandChosen","circleVal","squareVal","bandOneVal","bandTwoVal","shapeChosen","rlNum","badFlag"
"13213","13218","SARL_v6","SARL_v63dr4eybt","63d6f2705562fd353b7948dc","","","","","","","","","","","","","","","","","","","","","","","","","","","",""
"","16385","SARL_v6","SARL_v63dr4eybt","63d6f2705562fd353b7948dc","fullscreen","fullscreen","fullscreen","","","","","","","","","","","","","","","","","","","","","","","","",""
"99865","116254","SARL_v6","SARL_v63dr4eybt","63d6f2705562fd353b7948dc","","","","","","","","","","","","","","","","","","","","","","","","","","","",""
"null","117061","SARL_v6","SARL_v63dr4eybt","63d6f2705562fd353b7948dc","freqPrac","","","img/orange_2bandit_b2.png","null","img/orange_2bandit_b2.png","70","prac","0","1","","","","","","","","","","","","","","","","","",""
"null","118071","SARL_v6","SARL_v63dr4eybt","63d6f2705562fd353b7948dc","feedback","","","img/tooSlow.png","null","","na","prac","","","","","","","","","","","","","","","","","","","",""
"null","118240","SARL_v6","SARL_v63dr4eybt","63d6f2705562fd353b7948dc","fixation","","","img/fixation.png","null","","","prac","","","","","","","","","","","","","","","","","","","",""
"770","119013","SARL_v6","SARL_v63dr4eybt","63d6f2705562fd353b7948dc","infreqPrac","","","img/blue_2bandit_b2.png","70","img/blue_2bandit_b2.png","68","prac","0","2","","","","","","","","","","","","","","","","","",""
"770","119046","SARL_v6","SARL_v63dr4eybt","63d6f2705562fd353b7948dc","infreqPrac_resp","","","img/blue_2bandit_b.png","70","img/blue_2bandit_b.png","68","prac","","","","","","","","","","","","","","","","","","","",""
"null","120060","SARL_v6","SARL_v63dr4eybt","63d6f2705562fd353b7948dc","feedback","","","img/wrongKey.png","null","","na","prac","","","","","","","","","","","","","","","","","","","",""
"null","120219","SARL_v6","SARL_v63dr4eybt","63d6f2705562fd353b7948dc","fixation","","","img/fixation.png","null","","","prac","","","","","","","","","","","","","","","","","","","",""
"790","121012","SARL_v6","SARL_v63dr4eybt","63d6f2705562fd353b7948dc","freqPrac","","","img/orange_2bandit_b2.png","70","img/orange_2bandit_b2.png","70","prac","1","2","","","","","","","","","","","","","","","","","",""
"790","121026","SARL_v6","SARL_v63dr4eybt","63d6f2705562fd353b7948dc","freqPrac_resp","","","img/orange_2bandit_b.png","70","img/orange_2bandit_b.png","70","prac","","","","","","","","","","","","","","","","","","","",""
"null","121187","SARL_v6","SARL_v63dr4eybt","63d6f2705562fd353b7948dc","fixation","","","img/fixation.png","null","","","prac","","","","","","","","","","","","","","","","","","","",""
"null","121999","SARL_v6","SARL_v63dr4eybt","63d6f2705562fd353b7948dc","infreqPrac","","","img/blue_2bandit_b2.png","null","img/blue_2bandit_b2.png","68","prac","0","3","","","","","","","","","","","","","","","","","",""
"null","123020","SARL_v6","SARL_v63dr4eybt","63d6f2705562fd353b7948dc","feedback","","","img/tooSlow.png","null","","na","prac","","","","","","","","","","","","","","","","","","","",""
"null","123185","SARL_v6","SARL_v63dr4eybt","63d6f2705562fd353b7948dc","fixation","","","img/fixation.png","null","","","prac","","","","","","","","","","","","","","","","","","","",""
"582","123770","SARL_v6","SARL_v63dr4eybt","63d6f2705562fd353b7948dc","infreqPrac","","","img/blue_2bandit_b2.png","68","img/blue_2bandit_b2.png","68","prac","1","3","","","","","","","","","","","","","","","","","",""
"582","123999","SARL_v6","SARL_v63dr4eybt","63d6f2705562fd353b7948dc","infreqPrac_resp","","","img/blue_2bandit_b.png","68","img/blue_2bandit_b.png","68","prac","","","","","","","","","","","","","","","","","","","",""
"null","124154","SARL_v6","SARL_v63dr4eybt","63d6f2705562fd353b7948dc","fixation","","","img/fixation.png","null","","","prac","","","","","","","","","","","","","","","","","","","",""
"518","124675","SARL_v6","SARL_v63dr4eybt","63d6f2705562fd353b7948dc","infreqPrac","","","img/blue_2bandit_b2.png","68","img/blue_2bandit_b2.png","68","prac","1","3","","","","","","","","","","","","","","","","","",""
"518","124962","SARL_v6","SARL_v63dr4eybt","63d6f2705562fd353b7948dc","infreqPrac_resp","","","img/blue_2bandit_b.png","68","img/blue_2bandit_b.png","68","prac","","","","","","","","","","","","","","","","","","","",""
"null","125121","SARL_v6","SARL_v63dr4eybt","63d6f2705562fd353b7948dc","fixation","","","img/fixation.png","null","","","prac","","","","","","","","","","","","","","","","","","","",""
"465","125590","SARL_v6","SARL_v63dr4eybt","63d6f2705562fd353b7948dc","freqPrac","","","img/orange_2bandit_b2.png","70","img/orange_2bandit_b2.png","70","prac","1","3","","","","","","","","","","","","","","","","","",""
"465","125942","SARL_v6","SARL_v63dr4eybt","63d6f2705562fd353b7948dc","freqPrac_resp","","","img/orange_2bandit_b.png","70","img/orange_2bandit_b.png","70","prac","","","","","","","","","","","","","","","","","","","",""
"null","126102","SARL_v6","SARL_v63dr4eybt","63d6f2705562fd353b7948dc","fixation","","","img/fixation.png","null","","","prac","","","","","","","","","","","","","","","","","","","",""
"548","126655","SARL_v6","SARL_v63dr4eybt","63d6f2705562fd353b7948dc","infreqPrac","","","img/blue_2bandit_b2.png","70","img/blue_2bandit_b2.png","68","prac","0","4","","","","","","","","","","","","","","","","","",""
"548","126913","SARL_v6","SARL_v63dr4eybt","63d6f2705562fd353b7948dc","infreqPrac_resp","","","img/blue_2bandit_b.png","70","img/blue_2bandit_b.png","68","prac","","","","","","","","","","","","","","","","","","","",""
"null","127919","SARL_v6","SARL_v63dr4eybt","63d6f2705562fd353b7948dc","feedback","","","img/wrongKey.png","null","","na","prac","","","","","","","","","","","","","","","","","","","",""
"null","128086","SARL_v6","SARL_v63dr4eybt","63d6f2705562fd353b7948dc","fixation","","","img/fixation.png","null","","","prac","","","","","","","","","","","","","","","","","","","",""
"null","128900","SARL_v6","SARL_v63dr4eybt","63d6f2705562fd353b7948dc","freqPrac","","","img/orange_2bandit_b2.png","null","img/orange_2bandit_b2.png","70","prac","0","5","","","","","","","","","","","","","","","","","",""
"null","129906","SARL_v6","SARL_v63dr4eybt","63d6f2705562fd353b7948dc","feedback","","","img/tooSlow.png","null","","na","prac","","","","","","","","","","","","","","","","","","","",""
"null","130067","SARL_v6","SARL_v63dr4eybt","63d6f2705562fd353b7948dc","fixation","","","img/fixation.png","null","","","prac","","","","","","","","","","","","","","","","","","","",""
"477","130548","SARL_v6","SARL_v63dr4eybt","63d6f2705562fd353b7948dc","freqPrac","","","img/orange_2bandit_b2.png","68","img/orange_2bandit_b2.png","70","prac","0","6","","","","","","","","","","","","","","","","","",""
"477","130875","SARL_v6","SARL_v63dr4eybt","63d6f2705562fd353b7948dc","freqPrac_resp","","","img/orange_2bandit_b.png","68","img/orange_2bandit_b.png","70","prac","","","","","","","","","","","","","","","","","","","",""
"null","131886","SARL_v6","SARL_v63dr4eybt","63d6f2705562fd353b7948dc","feedback","","","img/wrongKey.png","null","","na","prac","","","","","","","","","","","","","","","","","","","",""
"null","132052","SARL_v6","SARL_v63dr4eybt","63d6f2705562fd353b7948dc","fixation","","","img/fixation.png","null","","","prac","","","","","","","","","","","","","","","","","","","",""
"47538","179593","SARL_v6","SARL_v63dr4eybt","63d6f2705562fd353b7948dc","","","","","","","","prac","","","","","","","","","","","","","","","","","","","",""
"null","181099","SARL_v6","SARL_v63dr4eybt","63d6f2705562fd353b7948dc","rlPractice","","","img/black_2bandit_b2.png","null","img/black_2bandit_b2.png","","prac","","","0","","","","","","","","","","","","","","","","",""
"null","181859","SARL_v6","SARL_v63dr4eybt","63d6f2705562fd353b7948dc","feedback","","","<div font size = 80> TOO SLOW  </div>","null","","na","prac","","","1","10","-14","10","","","","","","","","","","","","","",""
"null","182014","SARL_v6","SARL_v63dr4eybt","63d6f2705562fd353b7948dc","fixation","","","img/fixation.png","null","","","prac","","","","","","","","","","","","","","","","","","","",""
"666","182682","SARL_v6","SARL_v63dr4eybt","63d6f2705562fd353b7948dc","rlPractice","","","img/black_2bandit_b2.png","74","img/black_2bandit_b2.png","","prac","","","1","","","","","","","","","","","","","","","","",""
"null","183446","SARL_v6","SARL_v63dr4eybt","63d6f2705562fd353b7948dc","feedback","","","<div class=""veryhighPoints""> 5 </div>","null","","na","prac","","","2","5","-5","5","","","","","","","","","","","","","",""
"null","183613","SARL_v6","SARL_v63dr4eybt","63d6f2705562fd353b7948dc","fixation","","","img/fixation.png","null","","","prac","","","","","","","","","","","","","","","","","","","",""
"733","184349","SARL_v6","SARL_v63dr4eybt","63d6f2705562fd353b7948dc","rlPractice","","","img/black_2bandit_b2.png","74","img/black_2bandit_b2.png","","prac","","","2","","","","","","","","","","","","","","","","",""
"null","185112","SARL_v6","SARL_v63dr4eybt","63d6f2705562fd353b7948dc","feedback","","","<div class=""veryhighPoints""> 30 </div>","null","","na","prac","","","3","30","2","30","","","","","","","","","","","","","",""
"null","185279","SARL_v6","SARL_v63dr4eybt","63d6f2705562fd353b7948dc","fixation","","","img/fixation.png","null","","","prac","","","","","","","","","","","","","","","","","","","",""
"630","185911","SARL_v6","SARL_v63dr4eybt","63d6f2705562fd353b7948dc","rlPractice","","","img/black_2bandit_b2.png","74","img/black_2bandit_b2.png","","prac","","","3","","","","","","","","","","","","","","","","",""
"null","186676","SARL_v6","SARL_v63dr4eybt","63d6f2705562fd353b7948dc","feedback","","","<div class=""verylowPoints""> -2 </div>","null","","na","prac","","","4","-2","20","-2","","","","","","","","","","","","","",""
"null","186846","SARL_v6","SARL_v63dr4eybt","63d6f2705562fd353b7948dc","fixation","","","img/fixation.png","null","","","prac","","","","","","","","","","","","","","","","","","","",""
"32501","219350","SARL_v6","SARL_v63dr4eybt","63d6f2705562fd353b7948dc","","","","","","","","prac","","","","","","","","","","","","","","","","","","","",""
"null","220171","SARL_v6","SARL_v63dr4eybt","63d6f2705562fd353b7948dc","mixAttFreqPrac","","","img/orange_2bandit_b2.png","null","img/orange_2bandit_b2.png","70","prac","","","1","","","","","","","","","","","","","","","","",""
"null","220327","SARL_v6","SARL_v63dr4eybt","63d6f2705562fd353b7948dc","fixation","","","img/fixation.png","null","","","prac","","","","","","","","","","","","","","","","","","","",""
"null","221136","SARL_v6","SARL_v63dr4eybt","63d6f2705562fd353b7948dc","mixAttInfreqPrac","","","img/blue_2bandit_b2.png","null","img/blue_2bandit_b2.png","68","prac","","","2","","","","","","","","","","","","","","","","",""
"153","221292","SARL_v6","SARL_v63dr4eybt","63d6f2705562fd353b7948dc","fixation","","","img/fixation.png","68","","","prac","","","","","","","","","","","","","","","","","","","",""
"null","222102","SARL_v6","SARL_v63dr4eybt","63d6f2705562fd353b7948dc","mixAttInfreqPrac","","","img/blue_2bandit_b2.png","null","img/blue_2bandit_b2.png","68","prac","","","3","","","","","","","","","","","","","","","","",""
"122","222258","SARL_v6","SARL_v63dr4eybt","63d6f2705562fd353b7948dc","fixation","","","img/fixation.png","68","","","prac","","","","","","","","","","","","","","","","","","","",""
"null","223072","SARL_v6","SARL_v63dr4eybt","63d6f2705562fd353b7948dc","mixAttInfreqPrac","","","img/blue_2bandit_b2.png","null","img/blue_2bandit_b2.png","68","prac","","","4","","","","","","","","","","","","","","","","",""
"null","223241","SARL_v6","SARL_v63dr4eybt","63d6f2705562fd353b7948dc","fixation","","","img/fixation.png","null","","","prac","","","","","","","","","","","","","","","","","","","",""
"60","223305","SARL_v6","SARL_v63dr4eybt","63d6f2705562fd353b7948dc","mixAttFreqPrac","","","img/orange_2bandit_b2.png","68","img/orange_2bandit_b2.png","70","prac","","","5","","","","","","","","","","","","","","","","",""
"60","224059","SARL_v6","SARL_v63dr4eybt","63d6f2705562fd353b7948dc","freqPrac_resp","","","img/orange_2bandit_b.png","68","img/orange_2bandit_b.png","70","prac","","","5","","","","","","","","","","","","","","","","",""
"114","224224","SARL_v6","SARL_v63dr4eybt","63d6f2705562fd353b7948dc","fixation","","","img/fixation.png","70","","","prac","","","","","","","","","","","","","","","","","","","",""
"744","224971","SARL_v6","SARL_v63dr4eybt","63d6f2705562fd353b7948dc","mixRLPractice","","","img/black_2bandit_b2.png","74","img/black_2bandit_b2.png","","prac","","","5","","","","","","","","","","","","","","","","",""
"null","225739","SARL_v6","SARL_v63dr4eybt","63d6f2705562fd353b7948dc","feedback","","","<div class=""verylowPoints""> -14 </div>","null","","na","prac","","","6","-14","10","-14","","","","","","","","","","","","","",""
"null","225907","SARL_v6","SARL_v63dr4eybt","63d6f2705562fd353b7948dc","fixation","","","img/fixation.png","null","","","prac","","","","","","","","","","","","","","","","","","","",""
"null","226721","SARL_v6","SARL_v63dr4eybt","63d6f2705562fd353b7948dc","mixAttFreqPrac","","","img/orange_2bandit_b2.png","null","img/orange_2bandit_b2.png","70","prac","","","7","","","","","","","","","","","","","","","","",""
"null","226875","SARL_v6","SARL_v63dr4eybt","63d6f2705562fd353b7948dc","fixation","","","img/fixation.png","null","","","prac","","","","","","","","","","","","","","","","","","","",""
"588","227466","SARL_v6","SARL_v63dr4eybt","63d6f2705562fd353b7948dc","mixAttInfreqPrac","","","img/blue_2bandit_b2.png","70","img/blue_2bandit_b2.png","68","prac","","","8","","","","","","","","","","","","","","","","",""
"588","227688","SARL_v6","SARL_v63dr4eybt","63d6f2705562fd353b7948dc","infreqPrac_resp","","","img/blue_2bandit_b.png","70","img/orange_2bandit_b.png","68","prac","","","8","","","","","","","","","","","","","","","","",""
"null","227856","SARL_v6","SARL_v63dr4eybt","63d6f2705562fd353b7948dc","fixation","","","img/fixation.png","null","","","prac","","","","","","","","","","","","","","","","","","","",""
"361","228220","SARL_v6","SARL_v63dr4eybt","63d6f2705562fd353b7948dc","mixAttFreqPrac","","","img/orange_2bandit_b2.png","70","img/orange_2bandit_b2.png","70","prac","","","9","","","","","","","","","","","","","","","","",""
"361","228676","SARL_v6","SARL_v63dr4eybt","63d6f2705562fd353b7948dc","freqPrac_resp","","","img/orange_2bandit_b.png","70","img/orange_2bandit_b.png","70","prac","","","9","","","","","","","","","","","","","","","","",""
"null","228841","SARL_v6","SARL_v63dr4eybt","63d6f2705562fd353b7948dc","fixation","","","img/fixation.png","null","","","prac","","","","","","","","","","","","","","","","","","","",""
"406","229250","SARL_v6","SARL_v63dr4eybt","63d6f2705562fd353b7948dc","mixAttFreqPrac","","","img/orange_2bandit_b2.png","68","img/orange_2bandit_b2.png","70","prac","","","10","","","","","","","","","","","","","","","","",""
"406","229660","SARL_v6","SARL_v63dr4eybt","63d6f2705562fd353b7948dc","freqPrac_resp","","","img/orange_2bandit_b.png","68","img/orange_2bandit_b.png","70","prac","","","10","","","","","","","","","","","","","","","","",""
"null","229824","SARL_v6","SARL_v63dr4eybt","63d6f2705562fd353b7948dc","fixation","","","img/fixation.png","null","","","prac","","","","","","","","","","","","","","","","","","","",""
"560","230386","SARL_v6","SARL_v63dr4eybt","63d6f2705562fd353b7948dc","mixAttInfreqPrac","","","img/blue_2bandit_b2.png","70","img/blue_2bandit_b2.png","68","prac","","","11","","","","","","","","","","","","","","","","",""
"560","230635","SARL_v6","SARL_v63dr4eybt","63d6f2705562fd353b7948dc","infreqPrac_resp","","","img/blue_2bandit_b.png","70","img/orange_2bandit_b.png","68","prac","","","11","","","","","","","","","","","","","","","","",""
"null","230792","SARL_v6","SARL_v63dr4eybt","63d6f2705562fd353b7948dc","fixation","","","img/fixation.png","null","","","prac","","","","","","","","","","","","","","","","","","","",""
"1375","232169","SARL_v6","SARL_v63dr4eybt","63d6f2705562fd353b7948dc","mixRLPractice","","","img/black_2bandit_b2.png","74","img/black_2bandit_b2.png","","prac","","","11","","","","","","","","","","","","","","","","",""
"null","232928","SARL_v6","SARL_v63dr4eybt","63d6f2705562fd353b7948dc","feedback","","","<div class=""veryhighPoints""> 5 </div>","null","","na","prac","","","12","5","-5","5","","","","","","","","","","","","","",""
"null","233092","SARL_v6","SARL_v63dr4eybt","63d6f2705562fd353b7948dc","fixation","","","img/fixation.png","null","","","prac","","","","","","","","","","","","","","","","","","","",""
"31544","264639","SARL_v6","SARL_v63dr4eybt","63d6f2705562fd353b7948dc","","","","","","","","prac","","","","","","","","","","","","","","","","","","","",""
"655","265297","SARL_v6","SARL_v63dr4eybt","63d6f2705562fd353b7948dc","freq","","","img/orange_2bandit_b2.png","68","","70","test","0","","1","","","","circle","square","1","1","1","0","","","","","","","",""
"null","265452","SARL_v6","SARL_v63dr4eybt","63d6f2705562fd353b7948dc","freq_resp","","","img/orange_2bandit_b.png","68","img/orange_2bandit_b.png","70","test","","","","","","","","","","","1","","","","","","","","",""
"null","265620","SARL_v6","SARL_v63dr4eybt","63d6f2705562fd353b7948dc","fixation","","","img/fixation.png","null","","","test","","","","","","","","","","","","","","","","","","","",""
"null","266435","SARL_v6","SARL_v63dr4eybt","63d6f2705562fd353b7948dc","freq","","","img/orange_2bandit_b2.png","null","","70","test","0","","2","","","","circle","square","2","2","1","0","","","","","","","",""
"null","266603","SARL_v6","SARL_v63dr4eybt","63d6f2705562fd353b7948dc","fixation","","","img/fixation.png","null","","","test","","","","","","","","","","","","","","","","","","","",""
"663","267269","SARL_v6","SARL_v63dr4eybt","63d6f2705562fd353b7948dc","freq","","","img/orange_2bandit_b2.png","70","","70","test","1","","3","","","","circle","square","3","3","1","0.3333333333333333","","","","","","","",""
"null","267421","SARL_v6","SARL_v63dr4eybt","63d6f2705562fd353b7948dc","freq_resp","","","img/orange_2bandit_b.png","70","img/orange_2bandit_b.png","70","test","","","","","","","","","","","1","","","","","","","","",""
"null","267588","SARL_v6","SARL_v63dr4eybt","63d6f2705562fd353b7948dc","fixation","","","img/fixation.png","null","","","test","","","","","","","","","","","","","","","","","","","",""
"691","268283","SARL_v6","SARL_v63dr4eybt","63d6f2705562fd353b7948dc","freq","","","img/orange_2bandit_b2.png","70","","70","test","1","","4","","","","circle","square","4","4","1","0.5","","","","","","","",""
"null","268406","SARL_v6","SARL_v63dr4eybt","63d6f2705562fd353b7948dc","freq_resp","","","img/orange_2bandit_b.png","70","img/orange_2bandit_b.png","70","test","","","","","","","","","","","1","","","","","","","","",""
"null","268571","SARL_v6","SARL_v63dr4eybt","63d6f2705562fd353b7948dc","fixation","","","img/fixation.png","null","","","test","","","","","","","","","","","","","","","","","","","",""
"483","269058","SARL_v6","SARL_v63dr4eybt","63d6f2705562fd353b7948dc","infreq","","","img/blue_2bandit_b2.png","68","","68","test","1","","5","","","","circle","square","5","5","1","0.6","","","","","","","",""
"null","269394","SARL_v6","SARL_v63dr4eybt","63d6f2705562fd353b7948dc","infreq_resp","","","img/blue_2bandit_b.png","68","img/blue_2bandit_b.png","68","test","","","","","","","","","","","1","","","","","","","","",""
"null","269554","SARL_v6","SARL_v63dr4eybt","63d6f2705562fd353b7948dc","fixation","","","img/fixation.png","null","","","test","","","","","","","","","","","","","","","","","","","",""
"548","270106","SARL_v6","SARL_v63dr4eybt","63d6f2705562fd353b7948dc","freq","","","img/orange_2bandit_b2.png","70","","70","test","1","","6","","","","circle","square","6","6","1","0.6666666666666666","","","","","","","",""
"null","270364","SARL_v6","SARL_v63dr4eybt","63d6f2705562fd353b7948dc","freq_resp","","","img/orange_2bandit_b.png","70","img/orange_2bandit_b.png","70","test","","","","","","","","","","","1","","","","","","","","",""
"null","270521","SARL_v6","SARL_v63dr4eybt","63d6f2705562fd353b7948dc","fixation","","","img/fixation.png","null","","","test","","","","","","","","","","","","","","","","","","","",""
"581","271104","SARL_v6","SARL_v63dr4eybt","63d6f2705562fd353b7948dc","freq","","","img/orange_2bandit_b2.png","70","","70","test","1","","7","","","","circle","square","7","7","1","0.7142857142857143","","","","","","","",""
"null","271333","SARL_v6","SARL_v63dr4eybt","63d6f2705562fd353b7948dc","freq_resp","","","img/orange_2bandit_b.png","70","img/orange_2bandit_b.png","70","test","","","","","","","","","","","1","","","","","","","","",""
"null","271488","SARL_v6","SARL_v63dr4eybt","63d6f2705562fd353b7948dc","fixation","","","img/fixation.png","null","","","test","","","","","","","","","","","","","","","","","","","",""
"575","272067","SARL_v6","SARL_v63dr4eybt","63d6f2705562fd353b7948dc","freq","","","img/orange_2bandit_b2.png","70","","70","test","1","","8","","","","circle","square","8","8","1","0.75","","","","","","","",""
"null","272300","SARL_v6","SARL_v63dr4eybt","63d6f2705562fd353b7948dc","freq_resp","","","img/orange_2bandit_b.png","70","img/orange_2bandit_b.png","70","test","","","","","","","","","","","1","","","","","","","","",""
"null","272469","SARL_v6","SARL_v63dr4eybt","63d6f2705562fd353b7948dc","fixation","","","img/fixation.png","null","","","test","","","","","","","","","","","","","","","","","","","",""
"614","273087","SARL_v6","SARL_v63dr4eybt","63d6f2705562fd353b7948dc","freq","","","img/orange_2bandit_b2.png","70","","70","test","1","","9","","","","circle","square","9","9","1","0.7777777777777778","","","","","","","",""
"null","273285","SARL_v6","SARL_v63dr4eybt","63d6f2705562fd353b7948dc","freq_resp","","","img/orange_2bandit_b.png","70","img/orange_2bandit_b.png","70","test","","","","","","","","","","","1","","","","","","","","",""
"null","273450","SARL_v6","SARL_v63dr4eybt","63d6f2705562fd353b7948dc","fixation","","","img/fixation.png","null","","","test","","","","","","","","","","","","","","","","","","","",""
"572","274025","SARL_v6","SARL_v63dr4eybt","63d6f2705562fd353b7948dc","freq","","","img/orange_2bandit_b2.png","70","","70","test","1","","10","","","","circle","square","10","10","1","0.8","","","","","","","",""
"null","274266","SARL_v6","SARL_v63dr4eybt","63d6f2705562fd353b7948dc","freq_resp","","","img/orange_2bandit_b.png","70","img/orange_2bandit_b.png","70","test","","","","","","","","","","","1","","","","","","","","",""
"null","274434","SARL_v6","SARL_v63dr4eybt","63d6f2705562fd353b7948dc","fixation","","","img/fixation.png","null","","","test","","","","","","","","","","","","","","","","","","","",""
"593","275030","SARL_v6","SARL_v63dr4eybt","63d6f2705562fd353b7948dc","freq","","","img/orange_2bandit_b2.png","70","","70","test","1","","11","","","","circle","square","11","11","1","0.8181818181818182","","","","","","","",""
"null","275251","SARL_v6","SARL_v63dr4eybt","63d6f2705562fd353b7948dc","freq_resp","","","img/orange_2bandit_b.png","70","img/orange_2bandit_b.png","70","test","","","","","","","","","","","1","","","","","","","","",""
"null","275419","SARL_v6","SARL_v63dr4eybt","63d6f2705562fd353b7948dc","fixation","","","img/fixation.png","null","","","test","","","","","","","","","","","","","","","","","","","",""
"567","275989","SARL_v6","SARL_v63dr4eybt","63d6f2705562fd353b7948dc","freq","","","img/orange_2bandit_b2.png","70","","70","test","1","","12","","","","circle","square","12","12","1","0.8333333333333334","","","","","","","",""
"null","276232","SARL_v6","SARL_v63dr4eybt","63d6f2705562fd353b7948dc","freq_resp","","","img/orange_2bandit_b.png","70","img/orange_2bandit_b.png","70","test","","","","","","","","","","","1","","","","","","","","",""
"null","276389","SARL_v6","SARL_v63dr4eybt","63d6f2705562fd353b7948dc","fixation","","","img/fixation.png","null","","","test","","","","","","","","","","","","","","","","","","","",""
"591","276984","SARL_v6","SARL_v63dr4eybt","63d6f2705562fd353b7948dc","freq","","","img/orange_2bandit_b2.png","70","","70","test","1","","13","","","","circle","square","13","13","1","0.8461538461538461","","","","","","","",""
"null","277200","SARL_v6","SARL_v63dr4eybt","63d6f2705562fd353b7948dc","freq_resp","","","img/orange_2bandit_b.png","70","img/orange_2bandit_b.png","70","test","","","","","","","","","","","1","","","","","","","","",""
"null","277369","SARL_v6","SARL_v63dr4eybt","63d6f2705562fd353b7948dc","fixation","","","img/fixation.png","null","","","test","","","","","","","","","","","","","","","","","","","",""
"743","278115","SARL_v6","SARL_v63dr4eybt","63d6f2705562fd353b7948dc","freq","","","img/orange_2bandit_b2.png","70","","70","test","1","","14","","","","circle","square","14","14","1","0.8571428571428571","","","","","","","",""
"null","278190","SARL_v6","SARL_v63dr4eybt","63d6f2705562fd353b7948dc","freq_resp","","","img/orange_2bandit_b.png","70","img/orange_2bandit_b.png","70","test","","","","","","","","","","","1","","","","","","","","",""
"null","278352","SARL_v6","SARL_v63dr4eybt","63d6f2705562fd353b7948dc","fixation","","","img/fixation.png","null","","","test","","","","","","","","","","","","","","","","","","","",""
"733","279090","SARL_v6","SARL_v63dr4eybt","63d6f2705562fd353b7948dc","freq","","","img/orange_2bandit_b2.png","70","","70","test","1","","15","","","","circle","square","15","15","1","0.8666666666666667","","","","","","","",""
"null","279172","SARL_v6","SARL_v63dr4eybt","63d6f2705562fd353b7948dc","freq_resp","","","img/orange_2bandit_b.png","70","img/orange_2bandit_b.png","70","test","","","","","","","","","","","1","","","","","","","","",""
"null","279336","SARL_v6","SARL_v63dr4eybt","63d6f2705562fd353b7948dc","fixation","","","img/fixation.png","null","","","test","","","","","","","","","","","","","","","","","","","",""
"789","280129","SARL_v6","SARL_v63dr4eybt","63d6f2705562fd353b7948dc","freq","","","img/orange_2bandit_b2.png","70","","70","test","1","","16","","","","circle","square","16","16","1","0.875","","","","","","","",""
"null","280144","SARL_v6","SARL_v63dr4eybt","63d6f2705562fd353b7948dc","freq_resp","","","img/orange_2bandit_b.png","70","img/orange_2bandit_b.png","70","test","","","","","","","","","","","1","","","","","","","","",""
"null","280303","SARL_v6","SARL_v63dr4eybt","63d6f2705562fd353b7948dc","fixation","","","img/fixation.png","null","","","test","","","","","","","","","","","","","","","","","","","",""
"686","280993","SARL_v6","SARL_v63dr4eybt","63d6f2705562fd353b7948dc","infreq","","","img/blue_2bandit_b2.png","68","","68","test","1","","17","","","","circle","square","17","17","1","0.8823529411764706","","","","","","","",""
"null","281114","SARL_v6","SARL_v63dr4eybt","63d6f2705562fd353b7948dc","infreq_resp","","","img/blue_2bandit_b.png","68","img/blue_2bandit_b.png","68","test","","","","","","","","","","","1","","","","","","","","",""
"null","281269","SARL_v6","SARL_v63dr4eybt","63d6f2705562fd353b7948dc","fixation","","","img/fixation.png","null","","","test","","","","","","","","","","","","","","","","","","","",""
"646","281919","SARL_v6","SARL_v63dr4eybt","63d6f2705562fd353b7948dc","freq","","","img/orange_2bandit_b2.png","70","","70","test","1","","18","","","","circle","square","18","18","1","0.8888888888888888","","","","","","","",""
"null","282084","SARL_v6","SARL_v63dr4eybt","63d6f2705562fd353b7948dc","freq_resp","","","img/orange_2bandit_b.png","70","img/orange_2bandit_b.png","70","test","","","","","","","","","","","1","","","","","","","","",""
"null","282253","SARL_v6","SARL_v63dr4eybt","63d6f2705562fd353b7948dc","fixation","","","img/fixation.png","null","","","test","","","","","","","","","","","","","","","","","","","",""
"610","282867","SARL_v6","SARL_v63dr4eybt","63d6f2705562fd353b7948dc","freq","","","img/orange_2bandit_b2.png","70","","70","test","1","","19","","","","circle","square","19","19","1","0.8947368421052632","","","","","","","",""
"null","283067","SARL_v6","SARL_v63dr4eybt","63d6f2705562fd353b7948dc","freq_resp","","","img/orange_2bandit_b.png","70","img/orange_2bandit_b.png","70","test","","","","","","","","","","","1","","","","","","","","",""
"null","283236","SARL_v6","SARL_v63dr4eybt","63d6f2705562fd353b7948dc","fixation","","","img/fixation.png","null","","","test","","","","","","","","","","","","","","","","","","","",""
"1052","284292","SARL_v6","SARL_v63dr4eybt","63d6f2705562fd353b7948dc","rl","","","img/black_2bandit_b2.png","74","","0","test","","","20","","","-3","circle","square","","0","1","","74","-3","-3","-3","-3","circle","1","0"
"null","285050","SARL_v6","SARL_v63dr4eybt","63d6f2705562fd353b7948dc","feedback","","","<div class=""verylowPoints""> -3 </div>","null","","na","test","","","NaN","","","","","","","","1","","74","","","","","","1",""
"null","285865","SARL_v6","SARL_v63dr4eybt","63d6f2705562fd353b7948dc","freq","","","img/orange_2bandit_b2.png","null","","70","test","0","","21","","","","circle","square","20","1","2","0.85","","","","","","","",""
"null","286020","SARL_v6","SARL_v63dr4eybt","63d6f2705562fd353b7948dc","fixation","","","img/fixation.png","null","","","test","","","","","","","","","","","","","","","","","","","",""
"267","286289","SARL_v6","SARL_v63dr4eybt","63d6f2705562fd353b7948dc","freq","","","img/orange_2bandit_b2.png","70","","70","test","1","","22","","","","circle","square","21","2","2","0.8571428571428571","","","","","","","",""
"null","286828","SARL_v6","SARL_v63dr4eybt","63d6f2705562fd353b7948dc","freq_resp","","","img/orange_2bandit_b.png","70","img/orange_2bandit_b.png","70","test","","","","","","","","","","","2","","","","","","","","",""
"null","286985","SARL_v6","SARL_v63dr4eybt","63d6f2705562fd353b7948dc","fixation","","","img/fixation.png","null","","","test","","","","","","","","","","","","","","","","","","","",""
"102","287090","SARL_v6","SARL_v63dr4eybt","63d6f2705562fd353b7948dc","freq","","","img/orange_2bandit_b2.png","70","","70","test","1","","23","","","","circle","square","22","3","2","0.8636363636363636","","","","","","","",""
"null","287800","SARL_v6","SARL_v63dr4eybt","63d6f2705562fd353b7948dc","freq_resp","","","img/orange_2bandit_b.png","70","img/orange_2bandit_b.png","70","test","","","","","","","","","","","2","","","","","","","","",""
"null","287968","SARL_v6","SARL_v63dr4eybt","63d6f2705562fd353b7948dc","fixation","","","img/fixation.png","null","","","test","","","","","","","","","","","","","","","","","","","",""
"309","288280","SARL_v6","SARL_v63dr4eybt","63d6f2705562fd353b7948dc","freq","","","img/orange_2bandit_b2.png","70","","70","test","1","","24","","","","circle","square","23","4","2","0.8695652173913043","","","","","","","",""
"null","288781","SARL_v6","SARL_v63dr4eybt","63d6f2705562fd353b7948dc","freq_resp","","","img/orange_2bandit_b.png","70","img/orange_2bandit_b.png","70","test","","","","","","","","","","","2","","","","","","","","",""
"null","288936","SARL_v6","SARL_v63dr4eybt","63d6f2705562fd353b7948dc","fixation","","","img/fixation.png","null","","","test","","","","","","","","","","","","","","","","","","","",""
"380","289320","SARL_v6","SARL_v63dr4eybt","63d6f2705562fd353b7948dc","freq","","","img/orange_2bandit_b2.png","70","","70","test","1","","25","","","","circle","square","24","5","2","0.875","","","","","","","",""
"null","289751","SARL_v6","SARL_v63dr4eybt","63d6f2705562fd353b7948dc","freq_resp","","","img/orange_2bandit_b.png","70","img/orange_2bandit_b.png","70","test","","","","","","","","","","","2","","","","","","","","",""
"null","289918","SARL_v6","SARL_v63dr4eybt","63d6f2705562fd353b7948dc","fixation","","","img/fixation.png","null","","","test","","","","","","","","","","","","","","","","","","","",""
"668","290588","SARL_v6","SARL_v63dr4eybt","63d6f2705562fd353b7948dc","freq","","","img/orange_2bandit_b2.png","70","","70","test","1","","26","","","","circle","square","25","6","2","0.88","","","","","","","",""
"null","290735","SARL_v6","SARL_v63dr4eybt","63d6f2705562fd353b7948dc","freq_resp","","","img/orange_2bandit_b.png","70","img/orange_2bandit_b.png","70","test","","","","","","","","","","","2","","","","","","","","",""
"null","290901","SARL_v6","SARL_v63dr4eybt","63d6f2705562fd353b7948dc","fixation","","","img/fixation.png","null","","","test","","","","","","","","","","","","","","","","","","","",""
"575","291480","SARL_v6","SARL_v63dr4eybt","63d6f2705562fd353b7948dc","freq","","","img/orange_2bandit_b2.png","70","","70","test","1","","27","","","","circle","square","26","7","2","0.8846153846153846","","","","","","","",""
"null","291713","SARL_v6","SARL_v63dr4eybt","63d6f2705562fd353b7948dc","freq_resp","","","img/orange_2bandit_b.png","70","img/orange_2bandit_b.png","70","test","","","","","","","","","","","2","","","","","","","","",""
"null","291868","SARL_v6","SARL_v63dr4eybt","63d6f2705562fd353b7948dc","fixation","","","img/fixation.png","null","","","test","","","","","","","","","","","","","","","","","","","",""
"548","292420","SARL_v6","SARL_v63dr4eybt","63d6f2705562fd353b7948dc","freq","","","img/orange_2bandit_b2.png","70","","70","test","1","","28","","","","circle","square","27","8","2","0.8888888888888888","","","","","","","",""
"null","292677","SARL_v6","SARL_v63dr4eybt","63d6f2705562fd353b7948dc","freq_resp","","","img/orange_2bandit_b.png","70","img/orange_2bandit_b.png","70","test","","","","","","","","","","","2","","","","","","","","",""
"null","292834","SARL_v6","SARL_v63dr4eybt","63d6f2705562fd353b7948dc","fixation","","","img/fixation.png","null","","","test","","","","","","","","","","","","","","","","","","","",""
"522","293360","SARL_v6","SARL_v63dr4eybt","63d6f2705562fd353b7948dc","freq","","","img/orange_2bandit_b2.png","70","","70","test","1","","29","","","","circle","square","28","9","2","0.8928571428571429","","","","","","","",""
"null","293643","SARL_v6","SARL_v63dr4eybt","63d6f2705562fd353b7948dc","freq_resp","","","img/orange_2bandit_b.png","70","img/orange_2bandit_b.png","70","test","","","","","","","","","","","2","","","","","","","","",""
"null","293802","SARL_v6","SARL_v63dr4eybt","63d6f2705562fd353b7948dc","fixation","","","img/fixation.png","null","","","test","","","","","","","","","","","","","","","","","","","",""
"681","294489","SARL_v6","SARL_v63dr4eybt","63d6f2705562fd353b7948dc","freq","","","img/orange_2bandit_b2.png","70","","70","test","1","","30","","","","circle","square","29","10","2","0.896551724137931","","","","","","","",""
"null","294618","SARL_v6","SARL_v63dr4eybt","63d6f2705562fd353b7948dc","freq_resp","","","img/orange_2bandit_b.png","70","img/orange_2bandit_b.png","70","test","","","","","","","","","","","2","","","","","","","","",""
"null","294784","SARL_v6","SARL_v63dr4eybt","63d6f2705562fd353b7948dc","fixation","","","img/fixation.png","null","","","test","","","","","","","","","","","","","","","","","","","",""
"611","295397","SARL_v6","SARL_v63dr4eybt","63d6f2705562fd353b7948dc","freq","","","img/orange_2bandit_b2.png","70","","70","test","1","","31","","","","circle","square","30","11","2","0.9","","","","","","","",""
"null","295598","SARL_v6","SARL_v63dr4eybt","63d6f2705562fd353b7948dc","freq_resp","","","img/orange_2bandit_b.png","70","img/orange_2bandit_b.png","70","test","","","","","","","","","","","2","","","","","","","","",""
"null","295752","SARL_v6","SARL_v63dr4eybt","63d6f2705562fd353b7948dc","fixation","","","img/fixation.png","null","","","test","","","","","","","","","","","","","","","","","","","",""
"677","296433","SARL_v6","SARL_v63dr4eybt","63d6f2705562fd353b7948dc","freq","","","img/orange_2bandit_b2.png","70","","70","test","1","","32","","","","circle","square","31","12","2","0.9032258064516129","","","","","","","",""
"null","296568","SARL_v6","SARL_v63dr4eybt","63d6f2705562fd353b7948dc","freq_resp","","","img/orange_2bandit_b.png","70","img/orange_2bandit_b.png","70","test","","","","","","","","","","","2","","","","","","","","",""
"null","296734","SARL_v6","SARL_v63dr4eybt","63d6f2705562fd353b7948dc","fixation","","","img/fixation.png","null","","","test","","","","","","","","","","","","","","","","","","","",""
"705","297443","SARL_v6","SARL_v63dr4eybt","63d6f2705562fd353b7948dc","freq","","","img/orange_2bandit_b2.png","70","","70","test","1","","33","","","","circle","square","32","13","2","0.90625","","","","","","","",""
"null","297553","SARL_v6","SARL_v63dr4eybt","63d6f2705562fd353b7948dc","freq_resp","","","img/orange_2bandit_b.png","70","img/orange_2bandit_b.png","70","test","","","","","","","","","","","2","","","","","","","","",""
"null","297716","SARL_v6","SARL_v63dr4eybt","63d6f2705562fd353b7948dc","fixation","","","img/fixation.png","null","","","test","","","","","","","","","","","","","","","","","","","",""
"671","298392","SARL_v6","SARL_v63dr4eybt","63d6f2705562fd353b7948dc","freq","","","img/orange_2bandit_b2.png","70","","70","test","1","","34","","","","circle","square","33","14","2","0.9090909090909091","","","","","","","",""
"null","298534","SARL_v6","SARL_v63dr4eybt","63d6f2705562fd353b7948dc","freq_resp","","","img/orange_2bandit_b.png","70","img/orange_2bandit_b.png","70","test","","","","","","","","","","","2","","","","","","","","",""
"null","298699","SARL_v6","SARL_v63dr4eybt","63d6f2705562fd353b7948dc","fixation","","","img/fixation.png","null","","","test","","","","","","","","","","","","","","","","","","","",""
"678","299381","SARL_v6","SARL_v63dr4eybt","63d6f2705562fd353b7948dc","infreq","","","img/blue_2bandit_b2.png","68","","68","test","1","","35","","","","circle","square","34","15","2","0.9117647058823529","","","","","","","",""
"null","299519","SARL_v6","SARL_v63dr4eybt","63d6f2705562fd353b7948dc","infreq_resp","","","img/blue_2bandit_b.png","68","img/blue_2bandit_b.png","68","test","","","","","","","","","","","2","","","","","","","","",""
"null","299683","SARL_v6","SARL_v63dr4eybt","63d6f2705562fd353b7948dc","fixation","","","img/fixation.png","null","","","test","","","","","","","","","","","","","","","","","","","",""
"609","300296","SARL_v6","SARL_v63dr4eybt","63d6f2705562fd353b7948dc","freq","","","img/orange_2bandit_b2.png","70","","70","test","1","","36","","","","circle","square","35","16","2","0.9142857142857143","","","","","","","",""
"null","300498","SARL_v6","SARL_v63dr4eybt","63d6f2705562fd353b7948dc","freq_resp","","","img/orange_2bandit_b.png","70","img/orange_2bandit_b.png","70","test","","","","","","","","","","","2","","","","","","","","",""
"null","300666","SARL_v6","SARL_v63dr4eybt","63d6f2705562fd353b7948dc","fixation","","","img/fixation.png","null","","","test","","","","","","","","","","","","","","","","","","","",""
"576","301245","SARL_v6","SARL_v63dr4eybt","63d6f2705562fd353b7948dc","freq","","","img/orange_2bandit_b2.png","70","","70","test","1","","37","","","","circle","square","36","17","2","0.9166666666666666","","","","","","","",""
"null","301478","SARL_v6","SARL_v63dr4eybt","63d6f2705562fd353b7948dc","freq_resp","","","img/orange_2bandit_b.png","70","img/orange_2bandit_b.png","70","test","","","","","","","","","","","2","","","","","","","","",""
"null","301633","SARL_v6","SARL_v63dr4eybt","63d6f2705562fd353b7948dc","fixation","","","img/fixation.png","null","","","test","","","","","","","","","","","","","","","","","","","",""
"582","302220","SARL_v6","SARL_v63dr4eybt","63d6f2705562fd353b7948dc","freq","","","img/orange_2bandit_b2.png","70","","70","test","1","","38","","","","circle","square","37","18","2","0.918918918918919","","","","","","","",""
"null","302447","SARL_v6","SARL_v63dr4eybt","63d6f2705562fd353b7948dc","freq_resp","","","img/orange_2bandit_b.png","70","img/orange_2bandit_b.png","70","test","","","","","","","","","","","2","","","","","","","","",""
"null","302601","SARL_v6","SARL_v63dr4eybt","63d6f2705562fd353b7948dc","fixation","","","img/fixation.png","null","","","test","","","","","","","","","","","","","","","","","","","",""
"610","303215","SARL_v6","SARL_v63dr4eybt","63d6f2705562fd353b7948dc","infreq","","","img/blue_2bandit_b2.png","68","","68","test","1","","39","","","","circle","square","38","19","2","0.9210526315789473","","","","","","","",""
"null","303414","SARL_v6","SARL_v63dr4eybt","63d6f2705562fd353b7948dc","infreq_resp","","","img/blue_2bandit_b.png","68","img/blue_2bandit_b.png","68","test","","","","","","","","","","","2","","","","","","","","",""
"null","303566","SARL_v6","SARL_v63dr4eybt","63d6f2705562fd353b7948dc","fixation","","","img/fixation.png","null","","","test","","","","","","","","","","","","","","","","","","","",""
"596","304166","SARL_v6","SARL_v63dr4eybt","63d6f2705562fd353b7948dc","freq","","","img/orange_2bandit_b2.png","70","","70","test","1","","40","","","","circle","square","39","20","2","0.9230769230769231","","","","","","","",""
"null","304380","SARL_v6","SARL_v63dr4eybt","63d6f2705562fd353b7948dc","freq_resp","","","img/orange_2bandit_b.png","70","img/orange_2bandit_b.png","70","test","","","","","","","","","","","2","","","","","","","","",""
"null","304549","SARL_v6","SARL_v63dr4eybt","63d6f2705562fd353b7948dc","fixation","","","img/fixation.png","null","","","test","","","","","","","","","","","","","","","","","","","",""
"573","305127","SARL_v6","SARL_v63dr4eybt","63d6f2705562fd353b7948dc","freq","","","img/orange_2bandit_b2.png","70","","70","test","1","","41","","","","circle","square","40","21","2","0.925","","","","","","","",""
"null","305362","SARL_v6","SARL_v63dr4eybt","63d6f2705562fd353b7948dc","freq_resp","","","img/orange_2bandit_b.png","70","img/orange_2bandit_b.png","70","test","","","","","","","","","","","2","","","","","","","","",""
"null","305516","SARL_v6","SARL_v63dr4eybt","63d6f2705562fd353b7948dc","fixation","","","img/fixation.png","null","","","test","","","","","","","","","","","","","","","","","","","",""
"544","306064","SARL_v6","SARL_v63dr4eybt","63d6f2705562fd353b7948dc","freq","","","img/orange_2bandit_b2.png","70","","70","test","1","","42","","","","circle","square","41","22","2","0.926829268292683","","","","","","","",""
"null","306327","SARL_v6","SARL_v63dr4eybt","63d6f2705562fd353b7948dc","freq_resp","","","img/orange_2bandit_b.png","70","img/orange_2bandit_b.png","70","test","","","","","","","","","","","2","","","","","","","","",""
"null","306484","SARL_v6","SARL_v63dr4eybt","63d6f2705562fd353b7948dc","fixation","","","img/fixation.png","null","","","test","","","","","","","","","","","","","","","","","","","",""
"801","307289","SARL_v6","SARL_v63dr4eybt","63d6f2705562fd353b7948dc","rl","","","img/black_2bandit_b2.png","75","","0","test","","","43","","","-5","circle","square","","0","2","","75","-8","-5","-8","-5","square","2","0"
"null","308049","SARL_v6","SARL_v63dr4eybt","63d6f2705562fd353b7948dc","feedback","","","<div class=""verylowPoints_sq""> -5 </div>","null","","na","test","","","NaN","","","","","","","","2","","75","","","","","","2",""
"null","308862","SARL_v6","SARL_v63dr4eybt","63d6f2705562fd353b7948dc","freq","","","img/orange_2bandit_b2.png","null","","70","test","0","","44","","","","circle","square","42","1","3","0.9047619047619048","","","","","","","",""
"null","309032","SARL_v6","SARL_v63dr4eybt","63d6f2705562fd353b7948dc","fixation","","","img/fixation.png","null","","","test","","","","","","","","","","","","","","","","","","","",""
"null","309846","SARL_v6","SARL_v63dr4eybt","63d6f2705562fd353b7948dc","freq","","","img/orange_2bandit_b2.png","null","","70","test","0","","45","","","","circle","square","43","2","3","0.8837209302325582","","","","","","","",""
"null","310014","SARL_v6","SARL_v63dr4eybt","63d6f2705562fd353b7948dc","fixation","","","img/fixation.png","null","","","test","","","","","","","","","","","","","","","","","","","",""
"56","310073","SARL_v6","SARL_v63dr4eybt","63d6f2705562fd353b7948dc","freq","","","img/orange_2bandit_b2.png","70","","70","test","1","","46","","","","circle","square","44","3","3","0.8863636363636364","","","","","","","",""
"null","310827","SARL_v6","SARL_v63dr4eybt","63d6f2705562fd353b7948dc","freq_resp","","","img/orange_2bandit_b.png","70","img/orange_2bandit_b.png","70","test","","","","","","","","","","","3","","","","","","","","",""
"null","310982","SARL_v6","SARL_v63dr4eybt","63d6f2705562fd353b7948dc","fixation","","","img/fixation.png","null","","","test","","","","","","","","","","","","","","","","","","","",""
"601","311587","SARL_v6","SARL_v63dr4eybt","63d6f2705562fd353b7948dc","freq","","","img/orange_2bandit_b2.png","70","","70","test","1","","47","","","","circle","square","45","4","3","0.8888888888888888","","","","","","","",""
"null","311796","SARL_v6","SARL_v63dr4eybt","63d6f2705562fd353b7948dc","freq_resp","","","img/orange_2bandit_b.png","70","img/orange_2bandit_b.png","70","test","","","","","","","","","","","3","","","","","","","","",""
"null","311965","SARL_v6","SARL_v63dr4eybt","63d6f2705562fd353b7948dc","fixation","","","img/fixation.png","null","","","test","","","","","","","","","","","","","","","","","","","",""
"524","312491","SARL_v6","SARL_v63dr4eybt","63d6f2705562fd353b7948dc","freq","","","img/orange_2bandit_b2.png","70","","70","test","1","","48","","","","circle","square","46","5","3","0.8913043478260869","","","","","","","",""
"null","312778","SARL_v6","SARL_v63dr4eybt","63d6f2705562fd353b7948dc","freq_resp","","","img/orange_2bandit_b.png","70","img/orange_2bandit_b.png","70","test","","","","","","","","","","","3","","","","","","","","",""
"null","312932","SARL_v6","SARL_v63dr4eybt","63d6f2705562fd353b7948dc","fixation","","","img/fixation.png","null","","","test","","","","","","","","","","","","","","","","","","","",""
"506","313441","SARL_v6","SARL_v63dr4eybt","63d6f2705562fd353b7948dc","infreq","","","img/blue_2bandit_b2.png","68","","68","test","1","","49","","","","circle","square","47","6","3","0.8936170212765957","","","","","","","",""
"null","313741","SARL_v6","SARL_v63dr4eybt","63d6f2705562fd353b7948dc","infreq_resp","","","img/blue_2bandit_b.png","68","img/blue_2bandit_b.png","68","test","","","","","","","","","","","3","","","","","","","","",""
"null","313898","SARL_v6","SARL_v63dr4eybt","63d6f2705562fd353b7948dc","fixation","","","img/fixation.png","null","","","test","","","","","","","","","","","","","","","","","","","",""
"470","314371","SARL_v6","SARL_v63dr4eybt","63d6f2705562fd353b7948dc","freq","","","img/orange_2bandit_b2.png","70","","70","test","1","","50","","","","circle","square","48","7","3","0.8958333333333334","","","","","","","",""
"null","314720","SARL_v6","SARL_v63dr4eybt","63d6f2705562fd353b7948dc","freq_resp","","","img/orange_2bandit_b.png","70","img/orange_2bandit_b.png","70","test","","","","","","","","","","","3","","","","","","","","",""
"null","314882","SARL_v6","SARL_v63dr4eybt","63d6f2705562fd353b7948dc","fixation","","","img/fixation.png","null","","","test","","","","","","","","","","","","","","","","","","","",""
"410","315296","SARL_v6","SARL_v63dr4eybt","63d6f2705562fd353b7948dc","freq","","","img/orange_2bandit_b2.png","70","","70","test","1","","51","","","","circle","square","49","8","3","0.8979591836734694","","","","","","","",""
"null","315701","SARL_v6","SARL_v63dr4eybt","63d6f2705562fd353b7948dc","freq_resp","","","img/orange_2bandit_b.png","70","img/orange_2bandit_b.png","70","test","","","","","","","","","","","3","","","","","","","","",""
"null","315864","SARL_v6","SARL_v63dr4eybt","63d6f2705562fd353b7948dc","fixation","","","img/fixation.png","null","","","test","","","","","","","","","","","","","","","","","","","",""
"415","316283","SARL_v6","SARL_v63dr4eybt","63d6f2705562fd353b7948dc","freq","","","img/orange_2bandit_b2.png","70","","70","test","1","","52","","","","circle","square","50","9","3","0.9","","","","","","","",""
"null","316684","SARL_v6","SARL_v63dr4eybt","63d6f2705562fd353b7948dc","freq_resp","","","img/orange_2bandit_b.png","70","img/orange_2bandit_b.png","70","test","","","","","","","","","","","3","","","","","","","","",""
"null","316849","SARL_v6","SARL_v63dr4eybt","63d6f2705562fd353b7948dc","fixation","","","img/fixation.png","null","","","test","","","","","","","","","","","","","","","","","","","",""
"432","317284","SARL_v6","SARL_v63dr4eybt","63d6f2705562fd353b7948dc","freq","","","img/orange_2bandit_b2.png","70","","70","test","1","","53","","","","circle","square","51","10","3","0.9019607843137255","","","","","","","",""
"null","317668","SARL_v6","SARL_v63dr4eybt","63d6f2705562fd353b7948dc","freq_resp","","","img/orange_2bandit_b.png","70","img/orange_2bandit_b.png","70","test","","","","","","","","","","","3","","","","","","","","",""
"null","317831","SARL_v6","SARL_v63dr4eybt","63d6f2705562fd353b7948dc","fixation","","","img/fixation.png","null","","","test","","","","","","","","","","","","","","","","","","","",""
"430","318265","SARL_v6","SARL_v63dr4eybt","63d6f2705562fd353b7948dc","freq","","","img/orange_2bandit_b2.png","70","","70","test","1","","54","","","","circle","square","52","11","3","0.9038461538461539","","","","","","","",""
"null","318653","SARL_v6","SARL_v63dr4eybt","63d6f2705562fd353b7948dc","freq_resp","","","img/orange_2bandit_b.png","70","img/orange_2bandit_b.png","70","test","","","","","","","","","","","3","","","","","","","","",""
"null","318815","SARL_v6","SARL_v63dr4eybt","63d6f2705562fd353b7948dc","fixation","","","img/fixation.png","null","","","test","","","","","","","","","","","","","","","","","","","",""
"460","319277","SARL_v6","SARL_v63dr4eybt","63d6f2705562fd353b7948dc","freq","","","img/orange_2bandit_b2.png","70","","70","test","1","","55","","","","circle","square","53","12","3","0.9056603773584906","","","","","","","",""
"null","319627","SARL_v6","SARL_v63dr4eybt","63d6f2705562fd353b7948dc","freq_resp","","","img/orange_2bandit_b.png","70","img/orange_2bandit_b.png","70","test","","","","","","","","","","","3","","","","","","","","",""
"null","319782","SARL_v6","SARL_v63dr4eybt","63d6f2705562fd353b7948dc","fixation","","","img/fixation.png","null","","","test","","","","","","","","","","","","","","","","","","","",""
"528","320313","SARL_v6","SARL_v63dr4eybt","63d6f2705562fd353b7948dc","freq","","","img/orange_2bandit_b2.png","70","","70","test","1","","56","","","","circle","square","54","13","3","0.9074074074074074","","","","","","","",""
"null","320591","SARL_v6","SARL_v63dr4eybt","63d6f2705562fd353b7948dc","freq_resp","","","img/orange_2bandit_b.png","70","img/orange_2bandit_b.png","70","test","","","","","","","","","","","3","","","","","","","","",""
"null","320747","SARL_v6","SARL_v63dr4eybt","63d6f2705562fd353b7948dc","fixation","","","img/fixation.png","null","","","test","","","","","","","","","","","","","","","","","","","",""
"550","321300","SARL_v6","SARL_v63dr4eybt","63d6f2705562fd353b7948dc","freq","","","img/orange_2bandit_b2.png","70","","70","test","1","","57","","","","circle","square","55","14","3","0.9090909090909091","","","","","","","",""
"null","321558","SARL_v6","SARL_v63dr4eybt","63d6f2705562fd353b7948dc","freq_resp","","","img/orange_2bandit_b.png","70","img/orange_2bandit_b.png","70","test","","","","","","","","","","","3","","","","","","","","",""
"null","321715","SARL_v6","SARL_v63dr4eybt","63d6f2705562fd353b7948dc","fixation","","","img/fixation.png","null","","","test","","","","","","","","","","","","","","","","","","","",""
"595","322313","SARL_v6","SARL_v63dr4eybt","63d6f2705562fd353b7948dc","freq","","","img/orange_2bandit_b2.png","70","","70","test","1","","58","","","","circle","square","56","15","3","0.9107142857142857","","","","","","","",""
"null","322522","SARL_v6","SARL_v63dr4eybt","63d6f2705562fd353b7948dc","freq_resp","","","img/orange_2bandit_b.png","70","img/orange_2bandit_b.png","70","test","","","","","","","","","","","3","","","","","","","","",""
"null","322680","SARL_v6","SARL_v63dr4eybt","63d6f2705562fd353b7948dc","fixation","","","img/fixation.png","null","","","test","","","","","","","","","","","","","","","","","","","",""
"488","323173","SARL_v6","SARL_v63dr4eybt","63d6f2705562fd353b7948dc","freq","","","img/orange_2bandit_b2.png","70","","70","test","1","","59","","","","circle","square","57","16","3","0.9122807017543859","","","","","","","",""
"null","323489","SARL_v6","SARL_v63dr4eybt","63d6f2705562fd353b7948dc","freq_resp","","","img/orange_2bandit_b.png","70","img/orange_2bandit_b.png","70","test","","","","","","","","","","","3","","","","","","","","",""
"null","323647","SARL_v6","SARL_v63dr4eybt","63d6f2705562fd353b7948dc","fixation","","","img/fixation.png","null","","","test","","","","","","","","","","","","","","","","","","","",""
"381","324031","SARL_v6","SARL_v63dr4eybt","63d6f2705562fd353b7948dc","freq","","","img/orange_2bandit_b2.png","70","","70","test","1","","60","","","","circle","square","58","17","3","0.9137931034482759","","","","","","","",""
"null","324465","SARL_v6","SARL_v63dr4eybt","63d6f2705562fd353b7948dc","freq_resp","","","img/orange_2bandit_b.png","70","img/orange_2bandit_b.png","70","test","","","","","","","","","","","3","","","","","","","","",""
"null","324630","SARL_v6","SARL_v63dr4eybt","63d6f2705562fd353b7948dc","fixation","","","img/fixation.png","null","","","test","","","","","","","","","","","","","","","","","","","",""
"363","324995","SARL_v6","SARL_v63dr4eybt","63d6f2705562fd353b7948dc","freq","","","img/orange_2bandit_b2.png","70","","70","test","1","","61","","","","circle","square","59","18","3","0.9152542372881356","","","","","","","",""
"null","325447","SARL_v6","SARL_v63dr4eybt","63d6f2705562fd353b7948dc","freq_resp","","","img/orange_2bandit_b.png","70","img/orange_2bandit_b.png","70","test","","","","","","","","","","","3","","","","","","","","",""
"null","325612","SARL_v6","SARL_v63dr4eybt","63d6f2705562fd353b7948dc","fixation","","","img/fixation.png","null","","","test","","","","","","","","","","","","","","","","","","","",""
"351","325966","SARL_v6","SARL_v63dr4eybt","63d6f2705562fd353b7948dc","freq","","","img/orange_2bandit_b2.png","70","","70","test","1","","62","","","","circle","square","60","19","3","0.9166666666666666","","","","","","","",""
"null","326428","SARL_v6","SARL_v63dr4eybt","63d6f2705562fd353b7948dc","freq_resp","","","img/orange_2bandit_b.png","70","img/orange_2bandit_b.png","70","test","","","","","","","","","","","3","","","","","","","","",""
"null","326596","SARL_v6","SARL_v63dr4eybt","63d6f2705562fd353b7948dc","fixation","","","img/fixation.png","null","","","test","","","","","","","","","","","","","","","","","","","",""
"391","326991","SARL_v6","SARL_v63dr4eybt","63d6f2705562fd353b7948dc","infreq","","","img/blue_2bandit_b2.png","68","","68","test","1","","63","","","","circle","square","61","20","3","0.9180327868852459","","","","","","","",""
"null","327414","SARL_v6","SARL_v63dr4eybt","63d6f2705562fd353b7948dc","infreq_resp","","","img/blue_2bandit_b.png","68","img/blue_2bandit_b.png","68","test","","","","","","","","","","","3","","","","","","","","",""
"null","327579","SARL_v6","SARL_v63dr4eybt","63d6f2705562fd353b7948dc","fixation","","","img/fixation.png","null","","","test","","","","","","","","","","","","","","","","","","","",""
"487","328070","SARL_v6","SARL_v63dr4eybt","63d6f2705562fd353b7948dc","freq","","","img/orange_2bandit_b2.png","70","","70","test","1","","64","","","","circle","square","62","21","3","0.9193548387096774","","","","","","","",""
"null","328388","SARL_v6","SARL_v63dr4eybt","63d6f2705562fd353b7948dc","freq_resp","","","img/orange_2bandit_b.png","70","img/orange_2bandit_b.png","70","test","","","","","","","","","","","3","","","","","","","","",""
"null","328545","SARL_v6","SARL_v63dr4eybt","63d6f2705562fd353b7948dc","fixation","","","img/fixation.png","null","","","test","","","","","","","","","","","","","","","","","","","",""
"397","328946","SARL_v6","SARL_v63dr4eybt","63d6f2705562fd353b7948dc","freq","","","img/orange_2bandit_b2.png","70","","70","test","1","","65","","","","circle","square","63","22","3","0.9206349206349206","","","","","","","",""
"null","329363","SARL_v6","SARL_v63dr4eybt","63d6f2705562fd353b7948dc","freq_resp","","","img/orange_2bandit_b.png","70","img/orange_2bandit_b.png","70","test","","","","","","","","","","","3","","","","","","","","",""
"null","329529","SARL_v6","SARL_v63dr4eybt","63d6f2705562fd353b7948dc","fixation","","","img/fixation.png","null","","","test","","","","","","","","","","","","","","","","","","","",""
"772","330304","SARL_v6","SARL_v63dr4eybt","63d6f2705562fd353b7948dc","rl","","","img/black_2bandit_b2.png","75","","0","test","","","66","","","-4","circle","square","","0","3","","75","-8","-4","-8","-4","square","3","0"
"null","331061","SARL_v6","SARL_v63dr4eybt","63d6f2705562fd353b7948dc","feedback","","","<div class=""verylowPoints_sq""> -4 </div>","null","","na","test","","","NaN","","","","","","","","3","","75","","","","","","3",""
"null","331872","SARL_v6","SARL_v63dr4eybt","63d6f2705562fd353b7948dc","freq","","","img/orange_2bandit_b2.png","null","","70","test","0","","67","","","","circle","square","64","1","4","0.90625","","","","","","","",""
"null","332031","SARL_v6","SARL_v63dr4eybt","63d6f2705562fd353b7948dc","fixation","","","img/fixation.png","null","","","test","","","","","","","","","","","","","","","","","","","",""
"319","332353","SARL_v6","SARL_v63dr4eybt","63d6f2705562fd353b7948dc","freq","","","img/orange_2bandit_b2.png","70","","70","test","1","","68","","","","circle","square","65","2","4","0.9076923076923077","","","","","","","",""
"null","332844","SARL_v6","SARL_v63dr4eybt","63d6f2705562fd353b7948dc","freq_resp","","","img/orange_2bandit_b.png","70","img/orange_2bandit_b.png","70","test","","","","","","","","","","","4","","","","","","","","",""
"null","333012","SARL_v6","SARL_v63dr4eybt","63d6f2705562fd353b7948dc","fixation","","","img/fixation.png","null","","","test","","","","","","","","","","","","","","","","","","","",""
"144","333159","SARL_v6","SARL_v63dr4eybt","63d6f2705562fd353b7948dc","freq","","","img/orange_2bandit_b2.png","70","","70","test","1","","69","","","","circle","square","66","3","4","0.9090909090909091","","","","","","","",""
"null","333832","SARL_v6","SARL_v63dr4eybt","63d6f2705562fd353b7948dc","freq_resp","","","img/orange_2bandit_b.png","70","img/orange_2bandit_b.png","70","test","","","","","","","","","","","4","","","","","","","","",""
"null","333996","SARL_v6","SARL_v63dr4eybt","63d6f2705562fd353b7948dc","fixation","","","img/fixation.png","null","","","test","","","","","","","","","","","","","","","","","","","",""
"263","334263","SARL_v6","SARL_v63dr4eybt","63d6f2705562fd353b7948dc","freq","","","img/orange_2bandit_b2.png","70","","70","test","1","","70","","","","circle","square","67","4","4","0.9104477611940298","","","","","","","",""
"null","334806","SARL_v6","SARL_v63dr4eybt","63d6f2705562fd353b7948dc","freq_resp","","","img/orange_2bandit_b.png","70","img/orange_2bandit_b.png","70","test","","","","","","","","","","","4","","","","","","","","",""
"null","334964","SARL_v6","SARL_v63dr4eybt","63d6f2705562fd353b7948dc","fixation","","","img/fixation.png","null","","","test","","","","","","","","","","","","","","","","","","","",""
"175","335143","SARL_v6","SARL_v63dr4eybt","63d6f2705562fd353b7948dc","freq","","","img/orange_2bandit_b2.png","70","","70","test","1","","71","","","","circle","square","68","5","4","0.9117647058823529","","","","","","","",""
"null","335782","SARL_v6","SARL_v63dr4eybt","63d6f2705562fd353b7948dc","freq_resp","","","img/orange_2bandit_b.png","70","img/orange_2bandit_b.png","70","test","","","","","","","","","","","4","","","","","","","","",""
"null","335946","SARL_v6","SARL_v63dr4eybt","63d6f2705562fd353b7948dc","fixation","","","img/fixation.png","null","","","test","","","","","","","","","","","","","","","","","","","",""
"277","336227","SARL_v6","SARL_v63dr4eybt","63d6f2705562fd353b7948dc","freq","","","img/orange_2bandit_b2.png","70","","70","test","1","","72","","","","circle","square","69","6","4","0.9130434782608695","","","","","","","",""
"null","336757","SARL_v6","SARL_v63dr4eybt","63d6f2705562fd353b7948dc","freq_resp","","","img/orange_2bandit_b.png","70","img/orange_2bandit_b.png","70","test","","","","","","","","","","","4","","","","","","","","",""
"null","336914","SARL_v6","SARL_v63dr4eybt","63d6f2705562fd353b7948dc","fixation","","","img/fixation.png","null","","","test","","","","","","","","","","","","","","","","","","","",""
"289","337206","SARL_v6","SARL_v63dr4eybt","63d6f2705562fd353b7948dc","freq","","","img/orange_2bandit_b2.png","70","","70","test","1","","73","","","","circle","square","70","7","4","0.9142857142857143","","","","","","","",""
"null","337734","SARL_v6","SARL_v63dr4eybt","63d6f2705562fd353b7948dc","freq_resp","","","img/orange_2bandit_b.png","70","img/orange_2bandit_b.png","70","test","","","","","","","","","","","4","","","","","","","","",""
"null","337895","SARL_v6","SARL_v63dr4eybt","63d6f2705562fd353b7948dc","fixation","","","img/fixation.png","null","","","test","","","","","","","","","","","","","","","","","","","",""
"168","338067","SARL_v6","SARL_v63dr4eybt","63d6f2705562fd353b7948dc","freq","","","img/orange_2bandit_b2.png","70","","70","test","1","","74","","","","circle","square","71","8","4","0.9154929577464789","","","","","","","",""
"null","338716","SARL_v6","SARL_v63dr4eybt","63d6f2705562fd353b7948dc","freq_resp","","","img/orange_2bandit_b.png","70","img/orange_2bandit_b.png","70","test","","","","","","","","","","","4","","","","","","","","",""
"null","338878","SARL_v6","SARL_v63dr4eybt","63d6f2705562fd353b7948dc","fixation","","","img/fixation.png","null","","","test","","","","","","","","","","","","","","","","","","","",""
"260","339142","SARL_v6","SARL_v63dr4eybt","63d6f2705562fd353b7948dc","freq","","","img/orange_2bandit_b2.png","70","","70","test","1","","75","","","","circle","square","72","9","4","0.9166666666666666","","","","","","","",""
"null","339689","SARL_v6","SARL_v63dr4eybt","63d6f2705562fd353b7948dc","freq_resp","","","img/orange_2bandit_b.png","70","img/orange_2bandit_b.png","70","test","","","","","","","","","","","4","","","","","","","","",""
"null","339848","SARL_v6","SARL_v63dr4eybt","63d6f2705562fd353b7948dc","fixation","","","img/fixation.png","null","","","test","","","","","","","","","","","","","","","","","","","",""
"313","340166","SARL_v6","SARL_v63dr4eybt","63d6f2705562fd353b7948dc","freq","","","img/orange_2bandit_b2.png","70","","70","test","1","","76","","","","circle","square","73","10","4","0.9178082191780822","","","","","","","",""
"null","340658","SARL_v6","SARL_v63dr4eybt","63d6f2705562fd353b7948dc","freq_resp","","","img/orange_2bandit_b.png","70","img/orange_2bandit_b.png","70","test","","","","","","","","","","","4","","","","","","","","",""
"null","340813","SARL_v6","SARL_v63dr4eybt","63d6f2705562fd353b7948dc","fixation","","","img/fixation.png","null","","","test","","","","","","","","","","","","","","","","","","","",""
"358","341175","SARL_v6","SARL_v63dr4eybt","63d6f2705562fd353b7948dc","freq","","","img/orange_2bandit_b2.png","70","","70","test","1","","77","","","","circle","square","74","11","4","0.918918918918919","","","","","","","",""
"null","341628","SARL_v6","SARL_v63dr4eybt","63d6f2705562fd353b7948dc","freq_resp","","","img/orange_2bandit_b.png","70","img/orange_2bandit_b.png","70","test","","","","","","","","","","","4","","","","","","","","",""
"null","341793","SARL_v6","SARL_v63dr4eybt","63d6f2705562fd353b7948dc","fixation","","","img/fixation.png","null","","","test","","","","","","","","","","","","","","","","","","","",""
"328","342125","SARL_v6","SARL_v63dr4eybt","63d6f2705562fd353b7948dc","freq","","","img/orange_2bandit_b2.png","70","","70","test","1","","78","","","","circle","square","75","12","4","0.92","","","","","","","",""
"null","342608","SARL_v6","SARL_v63dr4eybt","63d6f2705562fd353b7948dc","freq_resp","","","img/orange_2bandit_b.png","70","img/orange_2bandit_b.png","70","test","","","","","","","","","","","4","","","","","","","","",""
"null","342777","SARL_v6","SARL_v63dr4eybt","63d6f2705562fd353b7948dc","fixation","","","img/fixation.png","null","","","test","","","","","","","","","","","","","","","","","","","",""
"358","343139","SARL_v6","SARL_v63dr4eybt","63d6f2705562fd353b7948dc","freq","","","img/orange_2bandit_b2.png","70","","70","test","1","","79","","","","circle","square","76","13","4","0.9210526315789473","","","","","","","",""
"null","343595","SARL_v6","SARL_v63dr4eybt","63d6f2705562fd353b7948dc","freq_resp","","","img/orange_2bandit_b.png","70","img/orange_2bandit_b.png","70","test","","","","","","","","","","","4","","","","","","","","",""
"null","343760","SARL_v6","SARL_v63dr4eybt","63d6f2705562fd353b7948dc","fixation","","","img/fixation.png","null","","","test","","","","","","","","","","","","","","","","","","","",""
"428","344190","SARL_v6","SARL_v63dr4eybt","63d6f2705562fd353b7948dc","freq","","","img/orange_2bandit_b2.png","70","","70","test","1","","80","","","","circle","square","77","14","4","0.922077922077922","","","","","","","",""
"null","344580","SARL_v6","SARL_v63dr4eybt","63d6f2705562fd353b7948dc","freq_resp","","","img/orange_2bandit_b.png","70","img/orange_2bandit_b.png","70","test","","","","","","","","","","","4","","","","","","","","",""
"null","344745","SARL_v6","SARL_v63dr4eybt","63d6f2705562fd353b7948dc","fixation","","","img/fixation.png","null","","","test","","","","","","","","","","","","","","","","","","","",""
"467","345214","SARL_v6","SARL_v63dr4eybt","63d6f2705562fd353b7948dc","freq","","","img/orange_2bandit_b2.png","70","","70","test","1","","81","","","","circle","square","78","15","4","0.9230769230769231","","","","","","","",""
"null","345566","SARL_v6","SARL_v63dr4eybt","63d6f2705562fd353b7948dc","freq_resp","","","img/orange_2bandit_b.png","70","img/orange_2bandit_b.png","70","test","","","","","","","","","","","4","","","","","","","","",""
"null","345728","SARL_v6","SARL_v63dr4eybt","63d6f2705562fd353b7948dc","fixation","","","img/fixation.png","null","","","test","","","","","","","","","","","","","","","","","","","",""
"null","346539","SARL_v6","SARL_v63dr4eybt","63d6f2705562fd353b7948dc","infreq","","","img/blue_2bandit_b2.png","null","","68","test","0","","82","","","","circle","square","79","16","4","0.9113924050632911","","","","","","","",""
"null","346695","SARL_v6","SARL_v63dr4eybt","63d6f2705562fd353b7948dc","fixation","","","img/fixation.png","null","","","test","","","","","","","","","","","","","","","","","","","",""
"null","347506","SARL_v6","SARL_v63dr4eybt","63d6f2705562fd353b7948dc","freq","","","img/orange_2bandit_b2.png","null","","70","test","0","","83","","","","circle","square","80","17","4","0.9","","","","","","","",""
"null","347662","SARL_v6","SARL_v63dr4eybt","63d6f2705562fd353b7948dc","fixation","","","img/fixation.png","null","","","test","","","","","","","","","","","","","","","","","","","",""
"623","348289","SARL_v6","SARL_v63dr4eybt","63d6f2705562fd353b7948dc","infreq","","","img/blue_2bandit_b2.png","68","","68","test","1","","84","","","","circle","square","81","18","4","0.9012345679012346","","","","","","","",""
"null","348475","SARL_v6","SARL_v63dr4eybt","63d6f2705562fd353b7948dc","infreq_resp","","","img/blue_2bandit_b.png","68","img/blue_2bandit_b.png","68","test","","","","","","","","","","","4","","","","","","","","",""
"null","348643","SARL_v6","SARL_v63dr4eybt","63d6f2705562fd353b7948dc","fixation","","","img/fixation.png","null","","","test","","","","","","","","","","","","","","","","","","","",""
"590","349237","SARL_v6","SARL_v63dr4eybt","63d6f2705562fd353b7948dc","freq","","","img/orange_2bandit_b2.png","70","","70","test","1","","85","","","","circle","square","82","19","4","0.9024390243902439","","","","","","","",""
"null","349458","SARL_v6","SARL_v63dr4eybt","63d6f2705562fd353b7948dc","freq_resp","","","img/orange_2bandit_b.png","70","img/orange_2bandit_b.png","70","test","","","","","","","","","","","4","","","","","","","","",""
"null","349627","SARL_v6","SARL_v63dr4eybt","63d6f2705562fd353b7948dc","fixation","","","img/fixation.png","null","","","test","","","","","","","","","","","","","","","","","","","",""
"561","350192","SARL_v6","SARL_v63dr4eybt","63d6f2705562fd353b7948dc","freq","","","img/orange_2bandit_b2.png","70","","70","test","1","","86","","","","circle","square","83","20","4","0.9036144578313253","","","","","","","",""
"null","350439","SARL_v6","SARL_v63dr4eybt","63d6f2705562fd353b7948dc","freq_resp","","","img/orange_2bandit_b.png","70","img/orange_2bandit_b.png","70","test","","","","","","","","","","","4","","","","","","","","",""
"null","350593","SARL_v6","SARL_v63dr4eybt","63d6f2705562fd353b7948dc","fixation","","","img/fixation.png","null","","","test","","","","","","","","","","","","","","","","","","","",""
"639","351235","SARL_v6","SARL_v63dr4eybt","63d6f2705562fd353b7948dc","freq","","","img/orange_2bandit_b2.png","70","","70","test","1","","87","","","","circle","square","84","21","4","0.9047619047619048","","","","","","","",""
"null","351409","SARL_v6","SARL_v63dr4eybt","63d6f2705562fd353b7948dc","freq_resp","","","img/orange_2bandit_b.png","70","img/orange_2bandit_b.png","70","test","","","","","","","","","","","4","","","","","","","","",""
"null","351576","SARL_v6","SARL_v63dr4eybt","63d6f2705562fd353b7948dc","fixation","","","img/fixation.png","null","","","test","","","","","","","","","","","","","","","","","","","",""
"942","352521","SARL_v6","SARL_v63dr4eybt","63d6f2705562fd353b7948dc","rl","","","img/black_2bandit_b2.png","74","","0","test","","","88","","","-12","circle","square","","0","4","","74","-12","0","-12","0","circle","4","0"
"null","353291","SARL_v6","SARL_v63dr4eybt","63d6f2705562fd353b7948dc","feedback","","","<div class=""verylowPoints""> -12 </div>","null","","na","test","","","NaN","","","","","","","","4","","74","","","","","","4",""
"null","354105","SARL_v6","SARL_v63dr4eybt","63d6f2705562fd353b7948dc","freq","","","img/orange_2bandit_b2.png","null","","70","test","0","","89","","","","circle","square","85","1","5","0.8941176470588236","","","","","","","",""
"null","354261","SARL_v6","SARL_v63dr4eybt","63d6f2705562fd353b7948dc","fixation","","","img/fixation.png","null","","","test","","","","","","","","","","","","","","","","","","","",""
"230","354496","SARL_v6","SARL_v63dr4eybt","63d6f2705562fd353b7948dc","freq","","","img/orange_2bandit_b2.png","70","","70","test","1","","90","","","","circle","square","86","2","5","0.8953488372093024","","","","","","","",""
"null","355083","SARL_v6","SARL_v63dr4eybt","63d6f2705562fd353b7948dc","freq_resp","","","img/orange_2bandit_b.png","70","img/orange_2bandit_b.png","70","test","","","","","","","","","","","5","","","","","","","","",""
"null","355244","SARL_v6","SARL_v63dr4eybt","63d6f2705562fd353b7948dc","fixation","","","img/fixation.png","null","","","test","","","","","","","","","","","","","","","","","","","",""
"7","355254","SARL_v6","SARL_v63dr4eybt","63d6f2705562fd353b7948dc","freq","","","img/orange_2bandit_b2.png","70","","70","test","1","","91","","","","circle","square","87","3","5","0.896551724137931","","","","","","","",""
"null","356056","SARL_v6","SARL_v63dr4eybt","63d6f2705562fd353b7948dc","freq_resp","","","img/orange_2bandit_b.png","70","img/orange_2bandit_b.png","70","test","","","","","","","","","","","5","","","","","","","","",""
"null","356211","SARL_v6","SARL_v63dr4eybt","63d6f2705562fd353b7948dc","fixation","","","img/fixation.png","null","","","test","","","","","","","","","","","","","","","","","","","",""
"692","356905","SARL_v6","SARL_v63dr4eybt","63d6f2705562fd353b7948dc","freq","","","img/orange_2bandit_b2.png","70","","70","test","1","","92","","","","circle","square","88","4","5","0.8977272727272727","","","","","","","",""
"null","357029","SARL_v6","SARL_v63dr4eybt","63d6f2705562fd353b7948dc","freq_resp","","","img/orange_2bandit_b.png","70","img/orange_2bandit_b.png","70","test","","","","","","","","","","","5","","","","","","","","",""
"null","357192","SARL_v6","SARL_v63dr4eybt","63d6f2705562fd353b7948dc","fixation","","","img/fixation.png","null","","","test","","","","","","","","","","","","","","","","","","","",""
"615","357810","SARL_v6","SARL_v63dr4eybt","63d6f2705562fd353b7948dc","freq","","","img/orange_2bandit_b2.png","70","","70","test","1","","93","","","","circle","square","89","5","5","0.898876404494382","","","","","","","",""
"null","358007","SARL_v6","SARL_v63dr4eybt","63d6f2705562fd353b7948dc","freq_resp","","","img/orange_2bandit_b.png","70","img/orange_2bandit_b.png","70","test","","","","","","","","","","","5","","","","","","","","",""
"null","358177","SARL_v6","SARL_v63dr4eybt","63d6f2705562fd353b7948dc","fixation","","","img/fixation.png","null","","","test","","","","","","","","","","","","","","","","","","","",""
"618","358799","SARL_v6","SARL_v63dr4eybt","63d6f2705562fd353b7948dc","infreq","","","img/blue_2bandit_b2.png","68","","68","test","1","","94","","","","circle","square","90","6","5","0.9","","","","","","","",""
"null","358990","SARL_v6","SARL_v63dr4eybt","63d6f2705562fd353b7948dc","infreq_resp","","","img/blue_2bandit_b.png","68","img/blue_2bandit_b.png","68","test","","","","","","","","","","","5","","","","","","","","",""
"null","359159","SARL_v6","SARL_v63dr4eybt","63d6f2705562fd353b7948dc","fixation","","","img/fixation.png","null","","","test","","","","","","","","","","","","","","","","","","","",""
"502","359664","SARL_v6","SARL_v63dr4eybt","63d6f2705562fd353b7948dc","freq","","","img/orange_2bandit_b2.png","70","","70","test","1","","95","","","","circle","square","91","7","5","0.9010989010989011","","","","","","","",""
"null","359970","SARL_v6","SARL_v63dr4eybt","63d6f2705562fd353b7948dc","freq_resp","","","img/orange_2bandit_b.png","70","img/orange_2bandit_b.png","70","test","","","","","","","","","","","5","","","","","","","","",""
"null","360126","SARL_v6","SARL_v63dr4eybt","63d6f2705562fd353b7948dc","fixation","","","img/fixation.png","null","","","test","","","","","","","","","","","","","","","","","","","",""
"559","360688","SARL_v6","SARL_v63dr4eybt","63d6f2705562fd353b7948dc","freq","","","img/orange_2bandit_b2.png","70","","70","test","1","","96","","","","circle","square","92","8","5","0.9021739130434783","","","","","","","",""
"null","360938","SARL_v6","SARL_v63dr4eybt","63d6f2705562fd353b7948dc","freq_resp","","","img/orange_2bandit_b.png","70","img/orange_2bandit_b.png","70","test","","","","","","","","","","","5","","","","","","","","",""
"null","361093","SARL_v6","SARL_v63dr4eybt","63d6f2705562fd353b7948dc","fixation","","","img/fixation.png","null","","","test","","","","","","","","","","","","","","","","","","","",""
"597","361693","SARL_v6","SARL_v63dr4eybt","63d6f2705562fd353b7948dc","freq","","","img/orange_2bandit_b2.png","70","","70","test","1","","97","","","","circle","square","93","9","5","0.9032258064516129","","","","","","","",""
"null","361905","SARL_v6","SARL_v63dr4eybt","63d6f2705562fd353b7948dc","freq_resp","","","img/orange_2bandit_b.png","70","img/orange_2bandit_b.png","70","test","","","","","","","","","","","5","","","","","","","","",""
"null","362060","SARL_v6","SARL_v63dr4eybt","63d6f2705562fd353b7948dc","fixation","","","img/fixation.png","null","","","test","","","","","","","","","","","","","","","","","","","",""
"575","362638","SARL_v6","SARL_v63dr4eybt","63d6f2705562fd353b7948dc","freq","","","img/orange_2bandit_b2.png","70","","70","test","1","","98","","","","circle","square","94","10","5","0.9042553191489362","","","","","","","",""
"null","362870","SARL_v6","SARL_v63dr4eybt","63d6f2705562fd353b7948dc","freq_resp","","","img/orange_2bandit_b.png","70","img/orange_2bandit_b.png","70","test","","","","","","","","","","","5","","","","","","","","",""
"null","363026","SARL_v6","SARL_v63dr4eybt","63d6f2705562fd353b7948dc","fixation","","","img/fixation.png","null","","","test","","","","","","","","","","","","","","","","","","","",""
"603","363633","SARL_v6","SARL_v63dr4eybt","63d6f2705562fd353b7948dc","freq","","","img/orange_2bandit_b2.png","70","","70","test","1","","99","","","","circle","square","95","11","5","0.9052631578947369","","","","","","","",""
"null","363839","SARL_v6","SARL_v63dr4eybt","63d6f2705562fd353b7948dc","freq_resp","","","img/orange_2bandit_b.png","70","img/orange_2bandit_b.png","70","test","","","","","","","","","","","5","","","","","","","","",""
"null","364008","SARL_v6","SARL_v63dr4eybt","63d6f2705562fd353b7948dc","fixation","","","img/fixation.png","null","","","test","","","","","","","","","","","","","","","","","","","",""
"588","364601","SARL_v6","SARL_v63dr4eybt","63d6f2705562fd353b7948dc","freq","","","img/orange_2bandit_b2.png","70","","70","test","1","","100","","","","circle","square","96","12","5","0.90625","","","","","","","",""
"null","364822","SARL_v6","SARL_v63dr4eybt","63d6f2705562fd353b7948dc","freq_resp","","","img/orange_2bandit_b.png","70","img/orange_2bandit_b.png","70","test","","","","","","","","","","","5","","","","","","","","",""
"null","364978","SARL_v6","SARL_v63dr4eybt","63d6f2705562fd353b7948dc","fixation","","","img/fixation.png","null","","","test","","","","","","","","","","","","","","","","","","","",""
"601","365583","SARL_v6","SARL_v63dr4eybt","63d6f2705562fd353b7948dc","freq","","","img/orange_2bandit_b2.png","70","","70","test","1","","101","","","","circle","square","97","13","5","0.9072164948453608","","","","","","","",""
"null","365789","SARL_v6","SARL_v63dr4eybt","63d6f2705562fd353b7948dc","freq_resp","","","img/orange_2bandit_b.png","70","img/orange_2bandit_b.png","70","test","","","","","","","","","","","5","","","","","","","","",""
"null","365943","SARL_v6","SARL_v63dr4eybt","63d6f2705562fd353b7948dc","fixation","","","img/fixation.png","null","","","test","","","","","","","","","","","","","","","","","","","",""
"643","366590","SARL_v6","SARL_v63dr4eybt","63d6f2705562fd353b7948dc","freq","","","img/orange_2bandit_b2.png","70","","70","test","1","","102","","","","circle","square","98","14","5","0.9081632653061225","","","","","","","",""
"null","366757","SARL_v6","SARL_v63dr4eybt","63d6f2705562fd353b7948dc","freq_resp","","","img/orange_2bandit_b.png","70","img/orange_2bandit_b.png","70","test","","","","","","","","","","","5","","","","","","","","",""
"null","366924","SARL_v6","SARL_v63dr4eybt","63d6f2705562fd353b7948dc","fixation","","","img/fixation.png","null","","","test","","","","","","","","","","","","","","","","","","","",""
"481","367409","SARL_v6","SARL_v63dr4eybt","63d6f2705562fd353b7948dc","infreq","","","img/blue_2bandit_b2.png","68","","68","test","1","","103","","","","circle","square","99","15","5","0.9090909090909091","","","","","","","",""
"null","367735","SARL_v6","SARL_v63dr4eybt","63d6f2705562fd353b7948dc","infreq_resp","","","img/blue_2bandit_b.png","68","img/blue_2bandit_b.png","68","test","","","","","","","","","","","5","","","","","","","","",""
"null","367893","SARL_v6","SARL_v63dr4eybt","63d6f2705562fd353b7948dc","fixation","","","img/fixation.png","null","","","test","","","","","","","","","","","","","","","","","","","",""
"444","368340","SARL_v6","SARL_v63dr4eybt","63d6f2705562fd353b7948dc","freq","","","img/orange_2bandit_b2.png","70","","70","test","1","","104","","","","circle","square","100","16","5","0.91","","","","","","","",""
"null","368714","SARL_v6","SARL_v63dr4eybt","63d6f2705562fd353b7948dc","freq_resp","","","img/orange_2bandit_b.png","70","img/orange_2bandit_b.png","70","test","","","","","","","","","","","5","","","","","","","","",""
"null","368874","SARL_v6","SARL_v63dr4eybt","63d6f2705562fd353b7948dc","fixation","","","img/fixation.png","null","","","test","","","","","","","","","","","","","","","","","","","",""
"617","369495","SARL_v6","SARL_v63dr4eybt","63d6f2705562fd353b7948dc","freq","","","img/orange_2bandit_b2.png","70","","70","test","1","","105","","","","circle","square","101","17","5","0.9108910891089109","","","","","","","",""
"null","369689","SARL_v6","SARL_v63dr4eybt","63d6f2705562fd353b7948dc","freq_resp","","","img/orange_2bandit_b.png","70","img/orange_2bandit_b.png","70","test","","","","","","","","","","","5","","","","","","","","",""
"null","369858","SARL_v6","SARL_v63dr4eybt","63d6f2705562fd353b7948dc","fixation","","","img/fixation.png","null","","","test","","","","","","","","","","","","","","","","","","","",""
"753","370614","SARL_v6","SARL_v63dr4eybt","63d6f2705562fd353b7948dc","freq","","","img/orange_2bandit_b2.png","70","","70","test","1","","106","","","","circle","square","102","18","5","0.9117647058823529","","","","","","","",""
"null","370667","SARL_v6","SARL_v63dr4eybt","63d6f2705562fd353b7948dc","freq_resp","","","img/orange_2bandit_b.png","70","img/orange_2bandit_b.png","70","test","","","","","","","","","","","5","","","","","","","","",""
"null","370826","SARL_v6","SARL_v63dr4eybt","63d6f2705562fd353b7948dc","fixation","","","img/fixation.png","null","","","test","","","","","","","","","","","","","","","","","","","",""
"621","371450","SARL_v6","SARL_v63dr4eybt","63d6f2705562fd353b7948dc","freq","","","img/orange_2bandit_b2.png","70","","70","test","1","","107","","","","circle","square","103","19","5","0.912621359223301","","","","","","","",""
"null","371639","SARL_v6","SARL_v63dr4eybt","63d6f2705562fd353b7948dc","freq_resp","","","img/orange_2bandit_b.png","70","img/orange_2bandit_b.png","70","test","","","","","","","","","","","5","","","","","","","","",""
"null","371808","SARL_v6","SARL_v63dr4eybt","63d6f2705562fd353b7948dc","fixation","","","img/fixation.png","null","","","test","","","","","","","","","","","","","","","","","","","",""
"488","372300","SARL_v6","SARL_v63dr4eybt","63d6f2705562fd353b7948dc","freq","","","img/orange_2bandit_b2.png","70","","70","test","1","","108","","","","circle","square","104","20","5","0.9134615384615384","","","","","","","",""
"null","372630","SARL_v6","SARL_v63dr4eybt","63d6f2705562fd353b7948dc","freq_resp","","","img/orange_2bandit_b.png","70","img/orange_2bandit_b.png","70","test","","","","","","","","","","","5","","","","","","","","",""
"null","372792","SARL_v6","SARL_v63dr4eybt","63d6f2705562fd353b7948dc","fixation","","","img/fixation.png","null","","","test","","","","","","","","","","","","","","","","","","","",""
"862","373658","SARL_v6","SARL_v63dr4eybt","63d6f2705562fd353b7948dc","rl","","","img/black_2bandit_b2.png","74","","0","test","","","109","","","-7","circle","square","","0","5","","74","-7","4","-7","4","circle","5","0"
"null","374421","SARL_v6","SARL_v63dr4eybt","63d6f2705562fd353b7948dc","feedback","","","<div class=""verylowPoints""> -7 </div>","null","","na","test","","","NaN","","","","","","","","5","","74","","","","","","5",""
"null","375236","SARL_v6","SARL_v63dr4eybt","63d6f2705562fd353b7948dc","freq","","","img/orange_2bandit_b2.png","null","","70","test","0","","110","","","","circle","square","105","1","6","0.9047619047619048","","","","","","","",""
"null","375392","SARL_v6","SARL_v63dr4eybt","63d6f2705562fd353b7948dc","fixation","","","img/fixation.png","null","","","test","","","","","","","","","","","","","","","","","","","",""
"142","375538","SARL_v6","SARL_v63dr4eybt","63d6f2705562fd353b7948dc","infreq","","","img/blue_2bandit_b2.png","70","","68","test","0","","111","","","","circle","square","106","2","6","0.8962264150943396","","","","","","","",""
"null","376211","SARL_v6","SARL_v63dr4eybt","63d6f2705562fd353b7948dc","infreq_resp","","","img/blue_2bandit_b.png","70","img/blue_2bandit_b.png","68","test","","","","","","","","","","","6","","","","","","","","",""
"null","376374","SARL_v6","SARL_v63dr4eybt","63d6f2705562fd353b7948dc","fixation","","","img/fixation.png","null","","","test","","","","","","","","","","","","","","","","","","","",""
"5","376382","SARL_v6","SARL_v63dr4eybt","63d6f2705562fd353b7948dc","freq","","","img/orange_2bandit_b2.png","70","","70","test","1","","112","","","","circle","square","107","3","6","0.897196261682243","","","","","","","",""
"null","377185","SARL_v6","SARL_v63dr4eybt","63d6f2705562fd353b7948dc","freq_resp","","","img/orange_2bandit_b.png","70","img/orange_2bandit_b.png","70","test","","","","","","","","","","","6","","","","","","","","",""
"null","377342","SARL_v6","SARL_v63dr4eybt","63d6f2705562fd353b7948dc","fixation","","","img/fixation.png","null","","","test","","","","","","","","","","","","","","","","","","","",""
"746","378092","SARL_v6","SARL_v63dr4eybt","63d6f2705562fd353b7948dc","freq","","","img/orange_2bandit_b2.png","70","","70","test","1","","113","","","","circle","square","108","4","6","0.8981481481481481","","","","","","","",""
"null","378162","SARL_v6","SARL_v63dr4eybt","63d6f2705562fd353b7948dc","freq_resp","","","img/orange_2bandit_b.png","70","img/orange_2bandit_b.png","70","test","","","","","","","","","","","6","","","","","","","","",""
"null","378324","SARL_v6","SARL_v63dr4eybt","63d6f2705562fd353b7948dc","fixation","","","img/fixation.png","null","","","test","","","","","","","","","","","","","","","","","","","",""
"683","379011","SARL_v6","SARL_v63dr4eybt","63d6f2705562fd353b7948dc","freq","","","img/orange_2bandit_b2.png","70","","70","test","1","","114","","","","circle","square","109","5","6","0.8990825688073395","","","","","","","",""
"null","379138","SARL_v6","SARL_v63dr4eybt","63d6f2705562fd353b7948dc","freq_resp","","","img/orange_2bandit_b.png","70","img/orange_2bandit_b.png","70","test","","","","","","","","","","","6","","","","","","","","",""
"null","379293","SARL_v6","SARL_v63dr4eybt","63d6f2705562fd353b7948dc","fixation","","","img/fixation.png","null","","","test","","","","","","","","","","","","","","","","","","","",""
"713","380009","SARL_v6","SARL_v63dr4eybt","63d6f2705562fd353b7948dc","freq","","","img/orange_2bandit_b2.png","70","","70","test","1","","115","","","","circle","square","110","6","6","0.9","","","","","","","",""
"null","380112","SARL_v6","SARL_v63dr4eybt","63d6f2705562fd353b7948dc","freq_resp","","","img/orange_2bandit_b.png","70","img/orange_2bandit_b.png","70","test","","","","","","","","","","","6","","","","","","","","",""
"null","380273","SARL_v6","SARL_v63dr4eybt","63d6f2705562fd353b7948dc","fixation","","","img/fixation.png","null","","","test","","","","","","","","","","","","","","","","","","","",""
"730","381006","SARL_v6","SARL_v63dr4eybt","63d6f2705562fd353b7948dc","freq","","","img/orange_2bandit_b2.png","70","","70","test","1","","116","","","","circle","square","111","7","6","0.9009009009009009","","","","","","","",""
"null","381095","SARL_v6","SARL_v63dr4eybt","63d6f2705562fd353b7948dc","freq_resp","","","img/orange_2bandit_b.png","70","img/orange_2bandit_b.png","70","test","","","","","","","","","","","6","","","","","","","","",""
"null","381257","SARL_v6","SARL_v63dr4eybt","63d6f2705562fd353b7948dc","fixation","","","img/fixation.png","null","","","test","","","","","","","","","","","","","","","","","","","",""
"758","382020","SARL_v6","SARL_v63dr4eybt","63d6f2705562fd353b7948dc","freq","","","img/orange_2bandit_b2.png","70","","70","test","1","","117","","","","circle","square","112","8","6","0.9017857142857143","","","","","","","",""
"null","382066","SARL_v6","SARL_v63dr4eybt","63d6f2705562fd353b7948dc","freq_resp","","","img/orange_2bandit_b.png","70","img/orange_2bandit_b.png","70","test","","","","","","","","","","","6","","","","","","","","",""
"null","382224","SARL_v6","SARL_v63dr4eybt","63d6f2705562fd353b7948dc","fixation","","","img/fixation.png","null","","","test","","","","","","","","","","","","","","","","","","","",""
"722","382950","SARL_v6","SARL_v63dr4eybt","63d6f2705562fd353b7948dc","freq","","","img/orange_2bandit_b2.png","70","","70","test","1","","118","","","","circle","square","113","9","6","0.9026548672566371","","","","","","","",""
"null","383044","SARL_v6","SARL_v63dr4eybt","63d6f2705562fd353b7948dc","freq_resp","","","img/orange_2bandit_b.png","70","img/orange_2bandit_b.png","70","test","","","","","","","","","","","6","","","","","","","","",""
"null","383206","SARL_v6","SARL_v63dr4eybt","63d6f2705562fd353b7948dc","fixation","","","img/fixation.png","null","","","test","","","","","","","","","","","","","","","","","","","",""
"605","383815","SARL_v6","SARL_v63dr4eybt","63d6f2705562fd353b7948dc","freq","","","img/orange_2bandit_b2.png","70","","70","test","1","","119","","","","circle","square","114","10","6","0.9035087719298246","","","","","","","",""
"null","384021","SARL_v6","SARL_v63dr4eybt","63d6f2705562fd353b7948dc","freq_resp","","","img/orange_2bandit_b.png","70","img/orange_2bandit_b.png","70","test","","","","","","","","","","","6","","","","","","","","",""
"null","384174","SARL_v6","SARL_v63dr4eybt","63d6f2705562fd353b7948dc","fixation","","","img/fixation.png","null","","","test","","","","","","","","","","","","","","","","","","","",""
"512","384690","SARL_v6","SARL_v63dr4eybt","63d6f2705562fd353b7948dc","freq","","","img/orange_2bandit_b2.png","70","","70","test","1","","120","","","","circle","square","115","11","6","0.9043478260869565","","","","","","","",""
"null","384997","SARL_v6","SARL_v63dr4eybt","63d6f2705562fd353b7948dc","freq_resp","","","img/orange_2bandit_b.png","70","img/orange_2bandit_b.png","70","test","","","","","","","","","","","6","","","","","","","","",""
"null","385158","SARL_v6","SARL_v63dr4eybt","63d6f2705562fd353b7948dc","fixation","","","img/fixation.png","null","","","test","","","","","","","","","","","","","","","","","","","",""
"380","385541","SARL_v6","SARL_v63dr4eybt","63d6f2705562fd353b7948dc","freq","","","img/orange_2bandit_b2.png","70","","70","test","1","","121","","","","circle","square","116","12","6","0.9051724137931034","","","","","","","",""
"null","385975","SARL_v6","SARL_v63dr4eybt","63d6f2705562fd353b7948dc","freq_resp","","","img/orange_2bandit_b.png","70","img/orange_2bandit_b.png","70","test","","","","","","","","","","","6","","","","","","","","",""
"null","386140","SARL_v6","SARL_v63dr4eybt","63d6f2705562fd353b7948dc","fixation","","","img/fixation.png","null","","","test","","","","","","","","","","","","","","","","","","","",""
"340","386484","SARL_v6","SARL_v63dr4eybt","63d6f2705562fd353b7948dc","freq","","","img/orange_2bandit_b2.png","70","","70","test","1","","122","","","","circle","square","117","13","6","0.905982905982906","","","","","","","",""
"null","386954","SARL_v6","SARL_v63dr4eybt","63d6f2705562fd353b7948dc","freq_resp","","","img/orange_2bandit_b.png","70","img/orange_2bandit_b.png","70","test","","","","","","","","","","","6","","","","","","","","",""
"null","387123","SARL_v6","SARL_v63dr4eybt","63d6f2705562fd353b7948dc","fixation","","","img/fixation.png","null","","","test","","","","","","","","","","","","","","","","","","","",""
"312","387439","SARL_v6","SARL_v63dr4eybt","63d6f2705562fd353b7948dc","freq","","","img/orange_2bandit_b2.png","70","","70","test","1","","123","","","","circle","square","118","14","6","0.9067796610169492","","","","","","","",""
"null","387937","SARL_v6","SARL_v63dr4eybt","63d6f2705562fd353b7948dc","freq_resp","","","img/orange_2bandit_b.png","70","img/orange_2bandit_b.png","70","test","","","","","","","","","","","6","","","","","","","","",""
"null","388106","SARL_v6","SARL_v63dr4eybt","63d6f2705562fd353b7948dc","fixation","","","img/fixation.png","null","","","test","","","","","","","","","","","","","","","","","","","",""
"338","388447","SARL_v6","SARL_v63dr4eybt","63d6f2705562fd353b7948dc","freq","","","img/orange_2bandit_b2.png","70","","70","test","1","","124","","","","circle","square","119","15","6","0.907563025210084","","","","","","","",""
"null","388921","SARL_v6","SARL_v63dr4eybt","63d6f2705562fd353b7948dc","freq_resp","","","img/orange_2bandit_b.png","70","img/orange_2bandit_b.png","70","test","","","","","","","","","","","6","","","","","","","","",""
"null","389090","SARL_v6","SARL_v63dr4eybt","63d6f2705562fd353b7948dc","fixation","","","img/fixation.png","null","","","test","","","","","","","","","","","","","","","","","","","",""
"324","389418","SARL_v6","SARL_v63dr4eybt","63d6f2705562fd353b7948dc","freq","","","img/orange_2bandit_b2.png","70","","70","test","1","","125","","","","circle","square","120","16","6","0.9083333333333333","","","","","","","",""
"null","389904","SARL_v6","SARL_v63dr4eybt","63d6f2705562fd353b7948dc","freq_resp","","","img/orange_2bandit_b.png","70","img/orange_2bandit_b.png","70","test","","","","","","","","","","","6","","","","","","","","",""
"null","390058","SARL_v6","SARL_v63dr4eybt","63d6f2705562fd353b7948dc","fixation","","","img/fixation.png","null","","","test","","","","","","","","","","","","","","","","","","","",""
"286","390348","SARL_v6","SARL_v63dr4eybt","63d6f2705562fd353b7948dc","freq","","","img/orange_2bandit_b2.png","70","","70","test","1","","126","","","","circle","square","121","17","6","0.9090909090909091","","","","","","","",""
"null","390869","SARL_v6","SARL_v63dr4eybt","63d6f2705562fd353b7948dc","freq_resp","","","img/orange_2bandit_b.png","70","img/orange_2bandit_b.png","70","test","","","","","","","","","","","6","","","","","","","","",""
"null","391024","SARL_v6","SARL_v63dr4eybt","63d6f2705562fd353b7948dc","fixation","","","img/fixation.png","null","","","test","","","","","","","","","","","","","","","","","","","",""
"291","391318","SARL_v6","SARL_v63dr4eybt","63d6f2705562fd353b7948dc","freq","","","img/orange_2bandit_b2.png","70","","70","test","1","","127","","","","circle","square","122","18","6","0.9098360655737705","","","","","","","",""
"null","391836","SARL_v6","SARL_v63dr4eybt","63d6f2705562fd353b7948dc","freq_resp","","","img/orange_2bandit_b.png","70","img/orange_2bandit_b.png","70","test","","","","","","","","","","","6","","","","","","","","",""
"null","392005","SARL_v6","SARL_v63dr4eybt","63d6f2705562fd353b7948dc","fixation","","","img/fixation.png","null","","","test","","","","","","","","","","","","","","","","","","","",""
"503","392512","SARL_v6","SARL_v63dr4eybt","63d6f2705562fd353b7948dc","freq","","","img/orange_2bandit_b2.png","70","","70","test","1","","128","","","","circle","square","123","19","6","0.9105691056910569","","","","","","","",""
"null","392814","SARL_v6","SARL_v63dr4eybt","63d6f2705562fd353b7948dc","freq_resp","","","img/orange_2bandit_b.png","70","img/orange_2bandit_b.png","70","test","","","","","","","","","","","6","","","","","","","","",""
"null","392973","SARL_v6","SARL_v63dr4eybt","63d6f2705562fd353b7948dc","fixation","","","img/fixation.png","null","","","test","","","","","","","","","","","","","","","","","","","",""
"424","393402","SARL_v6","SARL_v63dr4eybt","63d6f2705562fd353b7948dc","infreq","","","img/blue_2bandit_b2.png","70","","68","test","0","","129","","","","circle","square","124","20","6","0.9032258064516129","","","","","","","",""
"null","393792","SARL_v6","SARL_v63dr4eybt","63d6f2705562fd353b7948dc","infreq_resp","","","img/blue_2bandit_b.png","70","img/blue_2bandit_b.png","68","test","","","","","","","","","","","6","","","","","","","","",""
"null","393955","SARL_v6","SARL_v63dr4eybt","63d6f2705562fd353b7948dc","fixation","","","img/fixation.png","null","","","test","","","","","","","","","","","","","","","","","","","",""
"539","394498","SARL_v6","SARL_v63dr4eybt","63d6f2705562fd353b7948dc","freq","","","img/orange_2bandit_b2.png","70","","70","test","1","","130","","","","circle","square","125","21","6","0.904","","","","","","","",""
"null","394769","SARL_v6","SARL_v63dr4eybt","63d6f2705562fd353b7948dc","freq_resp","","","img/orange_2bandit_b.png","70","img/orange_2bandit_b.png","70","test","","","","","","","","","","","6","","","","","","","","",""
"null","394924","SARL_v6","SARL_v63dr4eybt","63d6f2705562fd353b7948dc","fixation","","","img/fixation.png","null","","","test","","","","","","","","","","","","","","","","","","","",""
"678","395606","SARL_v6","SARL_v63dr4eybt","63d6f2705562fd353b7948dc","rl","","","img/black_2bandit_b2.png","75","","0","test","","","131","","","-4","circle","square","","0","6","","75","-1","-4","-1","-4","square","6","0"
"null","396369","SARL_v6","SARL_v63dr4eybt","63d6f2705562fd353b7948dc","feedback","","","<div class=""verylowPoints_sq""> -4 </div>","null","","na","test","","","NaN","","","","","","","","6","","75","","","","","","6",""
"null","397185","SARL_v6","SARL_v63dr4eybt","63d6f2705562fd353b7948dc","freq","","","img/orange_2bandit_b2.png","null","","70","test","0","","132","","","","circle","square","126","1","7","0.8968253968253969","","","","","","","",""
"null","397340","SARL_v6","SARL_v63dr4eybt","63d6f2705562fd353b7948dc","fixation","","","img/fixation.png","null","","","test","","","","","","","","","","","","","","","","","","","",""
"null","398153","SARL_v6","SARL_v63dr4eybt","63d6f2705562fd353b7948dc","freq","","","img/orange_2bandit_b2.png","null","","70","test","0","","133","","","","circle","square","127","2","7","0.889763779527559","","","","","","","",""
"null","398322","SARL_v6","SARL_v63dr4eybt","63d6f2705562fd353b7948dc","fixation","","","img/fixation.png","null","","","test","","","","","","","","","","","","","","","","","","","",""
"null","399135","SARL_v6","SARL_v63dr4eybt","63d6f2705562fd353b7948dc","freq","","","img/orange_2bandit_b2.png","null","","70","test","0","","134","","","","circle","square","128","3","7","0.8828125","","","","","","","",""
"null","399289","SARL_v6","SARL_v63dr4eybt","63d6f2705562fd353b7948dc","fixation","","","img/fixation.png","null","","","test","","","","","","","","","","","","","","","","","","","",""
"null","400103","SARL_v6","SARL_v63dr4eybt","63d6f2705562fd353b7948dc","freq","","","img/orange_2bandit_b2.png","null","","70","test","0","","135","","","","circle","square","129","4","7","0.875968992248062","","","","","","","",""
"null","400272","SARL_v6","SARL_v63dr4eybt","63d6f2705562fd353b7948dc","fixation","","","img/fixation.png","null","","","test","","","","","","","","","","","","","","","","","","","",""
"753","401029","SARL_v6","SARL_v63dr4eybt","63d6f2705562fd353b7948dc","freq","","","img/orange_2bandit_b2.png","70","","70","test","1","","136","","","","circle","square","130","5","7","0.8769230769230769","","","","","","","",""
"null","401095","SARL_v6","SARL_v63dr4eybt","63d6f2705562fd353b7948dc","freq_resp","","","img/orange_2bandit_b.png","70","img/orange_2bandit_b.png","70","test","","","","","","","","","","","7","","","","","","","","",""
"null","401256","SARL_v6","SARL_v63dr4eybt","63d6f2705562fd353b7948dc","fixation","","","img/fixation.png","null","","","test","","","","","","","","","","","","","","","","","","","",""
"439","401699","SARL_v6","SARL_v63dr4eybt","63d6f2705562fd353b7948dc","freq","","","img/orange_2bandit_b2.png","70","","70","test","1","","137","","","","circle","square","131","6","7","0.8778625954198473","","","","","","","",""
"null","402077","SARL_v6","SARL_v63dr4eybt","63d6f2705562fd353b7948dc","freq_resp","","","img/orange_2bandit_b.png","70","img/orange_2bandit_b.png","70","test","","","","","","","","","","","7","","","","","","","","",""
