"rt","time_elapsed","expId","subject","prolificID","trialType","rlType","attType","stimulus","key_press","stim","corrresp","phase","corr","pracCounter","trialNum","rewardOne","rewardTwo","reward","bandOne","bandTwo","attentionNum","attentionRunNum","blockNum","performance","bandChosen","circleVal","squareVal","bandOneVal","bandTwoVal","shapeChosen","rlNum","badFlag"
"10980.600000143051","10991","SARL_v6","SARL_v6n3lnbk9k","5c4353086ce36f0001205f65","","","","","","","","","","","","","","","","","","","","","","","","","","","",""
"","14256","SARL_v6","SARL_v6n3lnbk9k","5c4353086ce36f0001205f65","fullscreen","fullscreen","fullscreen","","","","","","","","","","","","","","","","","","","","","","","","",""
"75106.59999990463","89371","SARL_v6","SARL_v6n3lnbk9k","5c4353086ce36f0001205f65","","","","","","","","","","","","","","","","","","","","","","","","","","","",""
"700.9000000953674","90084","SARL_v6","SARL_v6n3lnbk9k","5c4353086ce36f0001205f65","freqPrac","","","img/blue_2bandit_a2.png","70","img/blue_2bandit_a2.png","70","prac","1","0","","","","","","","","","","","","","","","","","",""
"700.9000000953674","90201","SARL_v6","SARL_v6n3lnbk9k","5c4353086ce36f0001205f65","freqPrac_resp","","","img/blue_2bandit_a.png","70","img/blue_2bandit_a.png","70","prac","","","","","","","","","","","","","","","","","","","",""
"null","90364","SARL_v6","SARL_v6n3lnbk9k","5c4353086ce36f0001205f65","fixation","","","img/fixation.png","null","","","prac","","","","","","","","","","","","","","","","","","","",""
"451.2999999523163","90821","SARL_v6","SARL_v6n3lnbk9k","5c4353086ce36f0001205f65","infreqPrac","","","img/orange_2bandit_a2.png","68","img/orange_2bandit_a2.png","68","prac","1","0","","","","","","","","","","","","","","","","","",""
"451.2999999523163","91179","SARL_v6","SARL_v6n3lnbk9k","5c4353086ce36f0001205f65","infreqPrac_resp","","","img/orange_2bandit_a.png","68","img/orange_2bandit_a.png","68","prac","","","","","","","","","","","","","","","","","","","",""
"null","91340","SARL_v6","SARL_v6n3lnbk9k","5c4353086ce36f0001205f65","fixation","","","img/fixation.png","null","","","prac","","","","","","","","","","","","","","","","","","","",""
"443","91789","SARL_v6","SARL_v6n3lnbk9k","5c4353086ce36f0001205f65","freqPrac","","","img/blue_2bandit_a2.png","70","img/blue_2bandit_a2.png","70","prac","1","0","","","","","","","","","","","","","","","","","",""
"443","92156","SARL_v6","SARL_v6n3lnbk9k","5c4353086ce36f0001205f65","freqPrac_resp","","","img/blue_2bandit_a.png","70","img/blue_2bandit_a.png","70","prac","","","","","","","","","","","","","","","","","","","",""
"null","92315","SARL_v6","SARL_v6n3lnbk9k","5c4353086ce36f0001205f65","fixation","","","img/fixation.png","null","","","prac","","","","","","","","","","","","","","","","","","","",""
"568.5","92890","SARL_v6","SARL_v6n3lnbk9k","5c4353086ce36f0001205f65","infreqPrac","","","img/orange_2bandit_a2.png","68","img/orange_2bandit_a2.png","68","prac","1","0","","","","","","","","","","","","","","","","","",""
"568.5","93132","SARL_v6","SARL_v6n3lnbk9k","5c4353086ce36f0001205f65","infreqPrac_resp","","","img/orange_2bandit_a.png","68","img/orange_2bandit_a.png","68","prac","","","","","","","","","","","","","","","","","","","",""
"null","93292","SARL_v6","SARL_v6n3lnbk9k","5c4353086ce36f0001205f65","fixation","","","img/fixation.png","null","","","prac","","","","","","","","","","","","","","","","","","","",""
"446.60000014305115","93745","SARL_v6","SARL_v6n3lnbk9k","5c4353086ce36f0001205f65","infreqPrac","","","img/orange_2bandit_a2.png","68","img/orange_2bandit_a2.png","68","prac","1","0","","","","","","","","","","","","","","","","","",""
"446.60000014305115","94108","SARL_v6","SARL_v6n3lnbk9k","5c4353086ce36f0001205f65","infreqPrac_resp","","","img/orange_2bandit_a.png","68","img/orange_2bandit_a.png","68","prac","","","","","","","","","","","","","","","","","","","",""
"null","94268","SARL_v6","SARL_v6n3lnbk9k","5c4353086ce36f0001205f65","fixation","","","img/fixation.png","null","","","prac","","","","","","","","","","","","","","","","","","","",""
"382","94656","SARL_v6","SARL_v6n3lnbk9k","5c4353086ce36f0001205f65","infreqPrac","","","img/orange_2bandit_a2.png","68","img/orange_2bandit_a2.png","68","prac","1","0","","","","","","","","","","","","","","","","","",""
"382","95084","SARL_v6","SARL_v6n3lnbk9k","5c4353086ce36f0001205f65","infreqPrac_resp","","","img/orange_2bandit_a.png","68","img/orange_2bandit_a.png","68","prac","","","","","","","","","","","","","","","","","","","",""
"null","95246","SARL_v6","SARL_v6n3lnbk9k","5c4353086ce36f0001205f65","fixation","","","img/fixation.png","null","","","prac","","","","","","","","","","","","","","","","","","","",""
"556.7999999523163","95809","SARL_v6","SARL_v6n3lnbk9k","5c4353086ce36f0001205f65","freqPrac","","","img/blue_2bandit_a2.png","70","img/blue_2bandit_a2.png","70","prac","1","0","","","","","","","","","","","","","","","","","",""
"556.7999999523163","96060","SARL_v6","SARL_v6n3lnbk9k","5c4353086ce36f0001205f65","freqPrac_resp","","","img/blue_2bandit_a.png","70","img/blue_2bandit_a.png","70","prac","","","","","","","","","","","","","","","","","","","",""
"null","96220","SARL_v6","SARL_v6n3lnbk9k","5c4353086ce36f0001205f65","fixation","","","img/fixation.png","null","","","prac","","","","","","","","","","","","","","","","","","","",""
"517.5","96744","SARL_v6","SARL_v6n3lnbk9k","5c4353086ce36f0001205f65","infreqPrac","","","img/orange_2bandit_a2.png","68","img/orange_2bandit_a2.png","68","prac","1","0","","","","","","","","","","","","","","","","","",""
"517.5","97036","SARL_v6","SARL_v6n3lnbk9k","5c4353086ce36f0001205f65","infreqPrac_resp","","","img/orange_2bandit_a.png","68","img/orange_2bandit_a.png","68","prac","","","","","","","","","","","","","","","","","","","",""
"null","97195","SARL_v6","SARL_v6n3lnbk9k","5c4353086ce36f0001205f65","fixation","","","img/fixation.png","null","","","prac","","","","","","","","","","","","","","","","","","","",""
"590.6000001430511","97792","SARL_v6","SARL_v6n3lnbk9k","5c4353086ce36f0001205f65","freqPrac","","","img/blue_2bandit_a2.png","68","img/blue_2bandit_a2.png","70","prac","0","1","","","","","","","","","","","","","","","","","",""
"590.6000001430511","98011","SARL_v6","SARL_v6n3lnbk9k","5c4353086ce36f0001205f65","freqPrac_resp","","","img/blue_2bandit_a.png","68","img/blue_2bandit_a.png","70","prac","","","","","","","","","","","","","","","","","","","",""
"null","99020","SARL_v6","SARL_v6n3lnbk9k","5c4353086ce36f0001205f65","feedback","","","img/wrongKey.png","null","","na","prac","","","","","","","","","","","","","","","","","","","",""
"null","99180","SARL_v6","SARL_v6n3lnbk9k","5c4353086ce36f0001205f65","fixation","","","img/fixation.png","null","","","prac","","","","","","","","","","","","","","","","","","","",""
"260.5","99446","SARL_v6","SARL_v6n3lnbk9k","5c4353086ce36f0001205f65","freqPrac","","","img/blue_2bandit_a2.png","70","img/blue_2bandit_a2.png","70","prac","1","1","","","","","","","","","","","","","","","","","",""
"260.5","99996","SARL_v6","SARL_v6n3lnbk9k","5c4353086ce36f0001205f65","freqPrac_resp","","","img/blue_2bandit_a.png","70","img/blue_2bandit_a.png","70","prac","","","","","","","","","","","","","","","","","","","",""
"null","100156","SARL_v6","SARL_v6n3lnbk9k","5c4353086ce36f0001205f65","fixation","","","img/fixation.png","null","","","prac","","","","","","","","","","","","","","","","","","","",""
"38209.799999952316","138371","SARL_v6","SARL_v6n3lnbk9k","5c4353086ce36f0001205f65","","","","","","","","prac","","","","","","","","","","","","","","","","","","","",""
"null","139883","SARL_v6","SARL_v6n3lnbk9k","5c4353086ce36f0001205f65","rlPractice","","","img/black_2bandit_a2.png","null","img/black_2bandit_a2.png","","prac","","","0","","","","","","","","","","","","","","","","",""
"null","140644","SARL_v6","SARL_v6n3lnbk9k","5c4353086ce36f0001205f65","feedback","","","<div font size = 80> TOO SLOW  </div>","null","","na","prac","","","1","10","-14","10","","","","","","","","","","","","","",""
"null","140804","SARL_v6","SARL_v6n3lnbk9k","5c4353086ce36f0001205f65","fixation","","","img/fixation.png","null","","","prac","","","","","","","","","","","","","","","","","","","",""
"260.60000014305115","141071","SARL_v6","SARL_v6n3lnbk9k","5c4353086ce36f0001205f65","rlPractice","","","img/black_2bandit_a2.png","74","img/black_2bandit_a2.png","","prac","","","1","","","","","","","","","","","","","","","","",""
"null","141827","SARL_v6","SARL_v6n3lnbk9k","5c4353086ce36f0001205f65","feedback","","","<div class=""verylowPoints_sq""> -5 </div>","null","","na","prac","","","2","5","-5","5","","","","","","","","","","","","","",""
"null","141988","SARL_v6","SARL_v6n3lnbk9k","5c4353086ce36f0001205f65","fixation","","","img/fixation.png","null","","","prac","","","","","","","","","","","","","","","","","","","",""
"939.7999999523163","142935","SARL_v6","SARL_v6n3lnbk9k","5c4353086ce36f0001205f65","rlPractice","","","img/black_2bandit_a2.png","75","img/black_2bandit_a2.png","","prac","","","2","","","","","","","","","","","","","","","","",""
"null","143691","SARL_v6","SARL_v6n3lnbk9k","5c4353086ce36f0001205f65","feedback","","","<div class=""veryhighPoints""> 30 </div>","null","","na","prac","","","3","30","2","30","","","","","","","","","","","","","",""
"null","143852","SARL_v6","SARL_v6n3lnbk9k","5c4353086ce36f0001205f65","fixation","","","img/fixation.png","null","","","prac","","","","","","","","","","","","","","","","","","","",""
"471.59999990463257","144330","SARL_v6","SARL_v6n3lnbk9k","5c4353086ce36f0001205f65","rlPractice","","","img/black_2bandit_a2.png","75","img/black_2bandit_a2.png","","prac","","","3","","","","","","","","","","","","","","","","",""
"null","145092","SARL_v6","SARL_v6n3lnbk9k","5c4353086ce36f0001205f65","feedback","","","<div class=""verylowPoints""> -2 </div>","null","","na","prac","","","4","-2","20","-2","","","","","","","","","","","","","",""
"null","145252","SARL_v6","SARL_v6n3lnbk9k","5c4353086ce36f0001205f65","fixation","","","img/fixation.png","null","","","prac","","","","","","","","","","","","","","","","","","","",""
"24455.900000095367","169714","SARL_v6","SARL_v6n3lnbk9k","5c4353086ce36f0001205f65","","","","","","","","prac","","","","","","","","","","","","","","","","","","","",""
"null","170523","SARL_v6","SARL_v6n3lnbk9k","5c4353086ce36f0001205f65","mixAttFreqPrac","","","img/blue_2bandit_a2.png","null","img/blue_2bandit_a2.png","70","prac","","","1","","","","","","","","","","","","","","","","",""
"null","170684","SARL_v6","SARL_v6n3lnbk9k","5c4353086ce36f0001205f65","fixation","","","img/fixation.png","null","","","prac","","","","","","","","","","","","","","","","","","","",""
"239.10000014305115","170929","SARL_v6","SARL_v6n3lnbk9k","5c4353086ce36f0001205f65","mixAttInfreqPrac","","","img/orange_2bandit_a2.png","70","img/orange_2bandit_a2.png","68","prac","","","2","","","","","","","","","","","","","","","","",""
"239.10000014305115","171500","SARL_v6","SARL_v6n3lnbk9k","5c4353086ce36f0001205f65","infreqPrac_resp","","","img/orange_2bandit_a.png","70","img/blue_2bandit_a.png","68","prac","","","2","","","","","","","","","","","","","","","","",""
"null","171659","SARL_v6","SARL_v6n3lnbk9k","5c4353086ce36f0001205f65","fixation","","","img/fixation.png","null","","","prac","","","","","","","","","","","","","","","","","","","",""
"319.40000009536743","171985","SARL_v6","SARL_v6n3lnbk9k","5c4353086ce36f0001205f65","mixAttInfreqPrac","","","img/orange_2bandit_a2.png","68","img/orange_2bandit_a2.png","68","prac","","","3","","","","","","","","","","","","","","","","",""
"319.40000009536743","172475","SARL_v6","SARL_v6n3lnbk9k","5c4353086ce36f0001205f65","infreqPrac_resp","","","img/orange_2bandit_a.png","68","img/blue_2bandit_a.png","68","prac","","","3","","","","","","","","","","","","","","","","",""
"null","172635","SARL_v6","SARL_v6n3lnbk9k","5c4353086ce36f0001205f65","fixation","","","img/fixation.png","null","","","prac","","","","","","","","","","","","","","","","","","","",""
"255.40000009536743","172897","SARL_v6","SARL_v6n3lnbk9k","5c4353086ce36f0001205f65","mixAttInfreqPrac","","","img/orange_2bandit_a2.png","68","img/orange_2bandit_a2.png","68","prac","","","4","","","","","","","","","","","","","","","","",""
"255.40000009536743","173451","SARL_v6","SARL_v6n3lnbk9k","5c4353086ce36f0001205f65","infreqPrac_resp","","","img/orange_2bandit_a.png","68","img/blue_2bandit_a.png","68","prac","","","4","","","","","","","","","","","","","","","","",""
"null","173611","SARL_v6","SARL_v6n3lnbk9k","5c4353086ce36f0001205f65","fixation","","","img/fixation.png","null","","","prac","","","","","","","","","","","","","","","","","","","",""
"310.90000009536743","173929","SARL_v6","SARL_v6n3lnbk9k","5c4353086ce36f0001205f65","mixAttFreqPrac","","","img/blue_2bandit_a2.png","68","img/blue_2bandit_a2.png","70","prac","","","5","","","","","","","","","","","","","","","","",""
"310.90000009536743","174428","SARL_v6","SARL_v6n3lnbk9k","5c4353086ce36f0001205f65","freqPrac_resp","","","img/blue_2bandit_a.png","68","img/blue_2bandit_a.png","70","prac","","","5","","","","","","","","","","","","","","","","",""
"null","174588","SARL_v6","SARL_v6n3lnbk9k","5c4353086ce36f0001205f65","fixation","","","img/fixation.png","null","","","prac","","","","","","","","","","","","","","","","","","","",""
"698.7000000476837","175293","SARL_v6","SARL_v6n3lnbk9k","5c4353086ce36f0001205f65","mixRLPractice","","","img/black_2bandit_a2.png","74","img/black_2bandit_a2.png","","prac","","","5","","","","","","","","","","","","","","","","",""
"null","176051","SARL_v6","SARL_v6n3lnbk9k","5c4353086ce36f0001205f65","feedback","","","<div class=""veryhighPoints_sq""> 10 </div>","null","","na","prac","","","6","-14","10","-14","","","","","","","","","","","","","",""
"null","176211","SARL_v6","SARL_v6n3lnbk9k","5c4353086ce36f0001205f65","fixation","","","img/fixation.png","null","","","prac","","","","","","","","","","","","","","","","","","","",""
"null","177019","SARL_v6","SARL_v6n3lnbk9k","5c4353086ce36f0001205f65","mixAttFreqPrac","","","img/blue_2bandit_a2.png","null","img/blue_2bandit_a2.png","70","prac","","","7","","","","","","","","","","","","","","","","",""
"null","177179","SARL_v6","SARL_v6n3lnbk9k","5c4353086ce36f0001205f65","fixation","","","img/fixation.png","null","","","prac","","","","","","","","","","","","","","","","","","","",""
"null","177988","SARL_v6","SARL_v6n3lnbk9k","5c4353086ce36f0001205f65","mixAttInfreqPrac","","","img/orange_2bandit_a2.png","null","img/orange_2bandit_a2.png","68","prac","","","8","","","","","","","","","","","","","","","","",""
"47.89999985694885","178148","SARL_v6","SARL_v6n3lnbk9k","5c4353086ce36f0001205f65","fixation","","","img/fixation.png","68","","","prac","","","","","","","","","","","","","","","","","","","",""
"478.2999999523163","178633","SARL_v6","SARL_v6n3lnbk9k","5c4353086ce36f0001205f65","mixAttFreqPrac","","","img/blue_2bandit_a2.png","70","img/blue_2bandit_a2.png","70","prac","","","9","","","","","","","","","","","","","","","","",""
"478.2999999523163","178963","SARL_v6","SARL_v6n3lnbk9k","5c4353086ce36f0001205f65","freqPrac_resp","","","img/blue_2bandit_a.png","70","img/blue_2bandit_a.png","70","prac","","","9","","","","","","","","","","","","","","","","",""
"null","179124","SARL_v6","SARL_v6n3lnbk9k","5c4353086ce36f0001205f65","fixation","","","img/fixation.png","null","","","prac","","","","","","","","","","","","","","","","","","","",""
"398.7000000476837","179530","SARL_v6","SARL_v6n3lnbk9k","5c4353086ce36f0001205f65","mixAttFreqPrac","","","img/blue_2bandit_a2.png","70","img/blue_2bandit_a2.png","70","prac","","","10","","","","","","","","","","","","","","","","",""
"398.7000000476837","179939","SARL_v6","SARL_v6n3lnbk9k","5c4353086ce36f0001205f65","freqPrac_resp","","","img/blue_2bandit_a.png","70","img/blue_2bandit_a.png","70","prac","","","10","","","","","","","","","","","","","","","","",""
"null","180100","SARL_v6","SARL_v6n3lnbk9k","5c4353086ce36f0001205f65","fixation","","","img/fixation.png","null","","","prac","","","","","","","","","","","","","","","","","","","",""
"388.7999999523163","180495","SARL_v6","SARL_v6n3lnbk9k","5c4353086ce36f0001205f65","mixAttInfreqPrac","","","img/orange_2bandit_a2.png","68","img/orange_2bandit_a2.png","68","prac","","","11","","","","","","","","","","","","","","","","",""
"388.7999999523163","180915","SARL_v6","SARL_v6n3lnbk9k","5c4353086ce36f0001205f65","infreqPrac_resp","","","img/orange_2bandit_a.png","68","img/blue_2bandit_a.png","68","prac","","","11","","","","","","","","","","","","","","","","",""
"null","181075","SARL_v6","SARL_v6n3lnbk9k","5c4353086ce36f0001205f65","fixation","","","img/fixation.png","null","","","prac","","","","","","","","","","","","","","","","","","","",""
"648.1999998092651","181730","SARL_v6","SARL_v6n3lnbk9k","5c4353086ce36f0001205f65","mixRLPractice","","","img/black_2bandit_a2.png","74","img/black_2bandit_a2.png","","prac","","","11","","","","","","","","","","","","","","","","",""
"null","182492","SARL_v6","SARL_v6n3lnbk9k","5c4353086ce36f0001205f65","feedback","","","<div class=""verylowPoints_sq""> -5 </div>","null","","na","prac","","","12","5","-5","5","","","","","","","","","","","","","",""
"null","182652","SARL_v6","SARL_v6n3lnbk9k","5c4353086ce36f0001205f65","fixation","","","img/fixation.png","null","","","prac","","","","","","","","","","","","","","","","","","","",""
"21399.10000014305","204056","SARL_v6","SARL_v6n3lnbk9k","5c4353086ce36f0001205f65","","","","","","","","prac","","","","","","","","","","","","","","","","","","","",""
"null","204868","SARL_v6","SARL_v6n3lnbk9k","5c4353086ce36f0001205f65","freq","","","img/blue_2bandit_a2.png","null","","70","test","0","","1","","","","square","circle","1","1","1","0","","","","","","","",""
"null","205028","SARL_v6","SARL_v6n3lnbk9k","5c4353086ce36f0001205f65","fixation","","","img/fixation.png","null","","","test","","","","","","","","","","","","","","","","","","","",""
"58.200000047683716","205092","SARL_v6","SARL_v6n3lnbk9k","5c4353086ce36f0001205f65","freq","","","img/blue_2bandit_a2.png","68","","70","test","0","","2","","","","square","circle","2","2","1","0","","","","","","","",""
"null","205844","SARL_v6","SARL_v6n3lnbk9k","5c4353086ce36f0001205f65","freq_resp","","","img/blue_2bandit_a.png","68","img/blue_2bandit_a.png","70","test","","","","","","","","","","","1","","","","","","","","",""
"null","206004","SARL_v6","SARL_v6n3lnbk9k","5c4353086ce36f0001205f65","fixation","","","img/fixation.png","null","","","test","","","","","","","","","","","","","","","","","","","",""
"314.59999990463257","206324","SARL_v6","SARL_v6n3lnbk9k","5c4353086ce36f0001205f65","freq","","","img/blue_2bandit_a2.png","68","","70","test","0","","3","","","","square","circle","3","3","1","0","","","","","","","",""
"null","206819","SARL_v6","SARL_v6n3lnbk9k","5c4353086ce36f0001205f65","freq_resp","","","img/blue_2bandit_a.png","68","img/blue_2bandit_a.png","70","test","","","","","","","","","","","1","","","","","","","","",""
"null","206980","SARL_v6","SARL_v6n3lnbk9k","5c4353086ce36f0001205f65","fixation","","","img/fixation.png","null","","","test","","","","","","","","","","","","","","","","","","","",""
"331.2999999523163","207318","SARL_v6","SARL_v6n3lnbk9k","5c4353086ce36f0001205f65","freq","","","img/blue_2bandit_a2.png","68","","70","test","0","","4","","","","square","circle","4","4","1","0","","","","","","","",""
"null","207795","SARL_v6","SARL_v6n3lnbk9k","5c4353086ce36f0001205f65","freq_resp","","","img/blue_2bandit_a.png","68","img/blue_2bandit_a.png","70","test","","","","","","","","","","","1","","","","","","","","",""
"null","207956","SARL_v6","SARL_v6n3lnbk9k","5c4353086ce36f0001205f65","fixation","","","img/fixation.png","null","","","test","","","","","","","","","","","","","","","","","","","",""
"640.5999999046326","208603","SARL_v6","SARL_v6n3lnbk9k","5c4353086ce36f0001205f65","freq","","","img/blue_2bandit_a2.png","70","","70","test","1","","5","","","","square","circle","5","5","1","0.2","","","","","","","",""
"null","208771","SARL_v6","SARL_v6n3lnbk9k","5c4353086ce36f0001205f65","freq_resp","","","img/blue_2bandit_a.png","70","img/blue_2bandit_a.png","70","test","","","","","","","","","","","1","","","","","","","","",""
"null","208931","SARL_v6","SARL_v6n3lnbk9k","5c4353086ce36f0001205f65","fixation","","","img/fixation.png","null","","","test","","","","","","","","","","","","","","","","","","","",""
"365.2999999523163","209303","SARL_v6","SARL_v6n3lnbk9k","5c4353086ce36f0001205f65","freq","","","img/blue_2bandit_a2.png","70","","70","test","1","","6","","","","square","circle","6","6","1","0.3333333333333333","","","","","","","",""
"null","209748","SARL_v6","SARL_v6n3lnbk9k","5c4353086ce36f0001205f65","freq_resp","","","img/blue_2bandit_a.png","70","img/blue_2bandit_a.png","70","test","","","","","","","","","","","1","","","","","","","","",""
"null","209907","SARL_v6","SARL_v6n3lnbk9k","5c4353086ce36f0001205f65","fixation","","","img/fixation.png","null","","","test","","","","","","","","","","","","","","","","","","","",""
"340.2000000476837","210254","SARL_v6","SARL_v6n3lnbk9k","5c4353086ce36f0001205f65","freq","","","img/blue_2bandit_a2.png","70","","70","test","1","","7","","","","square","circle","7","7","1","0.42857142857142855","","","","","","","",""
"null","210723","SARL_v6","SARL_v6n3lnbk9k","5c4353086ce36f0001205f65","freq_resp","","","img/blue_2bandit_a.png","70","img/blue_2bandit_a.png","70","test","","","","","","","","","","","1","","","","","","","","",""
"null","210884","SARL_v6","SARL_v6n3lnbk9k","5c4353086ce36f0001205f65","fixation","","","img/fixation.png","null","","","test","","","","","","","","","","","","","","","","","","","",""
"248.90000009536743","211139","SARL_v6","SARL_v6n3lnbk9k","5c4353086ce36f0001205f65","freq","","","img/blue_2bandit_a2.png","70","","70","test","1","","8","","","","square","circle","8","8","1","0.5","","","","","","","",""
"null","211699","SARL_v6","SARL_v6n3lnbk9k","5c4353086ce36f0001205f65","freq_resp","","","img/blue_2bandit_a.png","70","img/blue_2bandit_a.png","70","test","","","","","","","","","","","1","","","","","","","","",""
"null","211859","SARL_v6","SARL_v6n3lnbk9k","5c4353086ce36f0001205f65","fixation","","","img/fixation.png","null","","","test","","","","","","","","","","","","","","","","","","","",""
"348.39999985694885","212214","SARL_v6","SARL_v6n3lnbk9k","5c4353086ce36f0001205f65","freq","","","img/blue_2bandit_a2.png","70","","70","test","1","","9","","","","square","circle","9","9","1","0.5555555555555556","","","","","","","",""
"null","212676","SARL_v6","SARL_v6n3lnbk9k","5c4353086ce36f0001205f65","freq_resp","","","img/blue_2bandit_a.png","70","img/blue_2bandit_a.png","70","test","","","","","","","","","","","1","","","","","","","","",""
"null","212835","SARL_v6","SARL_v6n3lnbk9k","5c4353086ce36f0001205f65","fixation","","","img/fixation.png","null","","","test","","","","","","","","","","","","","","","","","","","",""
"314.7999999523163","213157","SARL_v6","SARL_v6n3lnbk9k","5c4353086ce36f0001205f65","freq","","","img/blue_2bandit_a2.png","70","","70","test","1","","10","","","","square","circle","10","10","1","0.6","","","","","","","",""
"null","213652","SARL_v6","SARL_v6n3lnbk9k","5c4353086ce36f0001205f65","freq_resp","","","img/blue_2bandit_a.png","70","img/blue_2bandit_a.png","70","test","","","","","","","","","","","1","","","","","","","","",""
"null","213812","SARL_v6","SARL_v6n3lnbk9k","5c4353086ce36f0001205f65","fixation","","","img/fixation.png","null","","","test","","","","","","","","","","","","","","","","","","","",""
"280.7000000476837","214099","SARL_v6","SARL_v6n3lnbk9k","5c4353086ce36f0001205f65","freq","","","img/blue_2bandit_a2.png","70","","70","test","1","","11","","","","square","circle","11","11","1","0.6363636363636364","","","","","","","",""
"null","214627","SARL_v6","SARL_v6n3lnbk9k","5c4353086ce36f0001205f65","freq_resp","","","img/blue_2bandit_a.png","70","img/blue_2bandit_a.png","70","test","","","","","","","","","","","1","","","","","","","","",""
"null","214788","SARL_v6","SARL_v6n3lnbk9k","5c4353086ce36f0001205f65","fixation","","","img/fixation.png","null","","","test","","","","","","","","","","","","","","","","","","","",""
"364.7999999523163","215159","SARL_v6","SARL_v6n3lnbk9k","5c4353086ce36f0001205f65","freq","","","img/blue_2bandit_a2.png","70","","70","test","1","","12","","","","square","circle","12","12","1","0.6666666666666666","","","","","","","",""
"null","215603","SARL_v6","SARL_v6n3lnbk9k","5c4353086ce36f0001205f65","freq_resp","","","img/blue_2bandit_a.png","70","img/blue_2bandit_a.png","70","test","","","","","","","","","","","1","","","","","","","","",""
"null","215763","SARL_v6","SARL_v6n3lnbk9k","5c4353086ce36f0001205f65","fixation","","","img/fixation.png","null","","","test","","","","","","","","","","","","","","","","","","","",""
"112.70000004768372","215882","SARL_v6","SARL_v6n3lnbk9k","5c4353086ce36f0001205f65","freq","","","img/blue_2bandit_a2.png","70","","70","test","1","","13","","","","square","circle","13","13","1","0.6923076923076923","","","","","","","",""
"null","216580","SARL_v6","SARL_v6n3lnbk9k","5c4353086ce36f0001205f65","freq_resp","","","img/blue_2bandit_a.png","70","img/blue_2bandit_a.png","70","test","","","","","","","","","","","1","","","","","","","","",""
"null","216740","SARL_v6","SARL_v6n3lnbk9k","5c4353086ce36f0001205f65","fixation","","","img/fixation.png","null","","","test","","","","","","","","","","","","","","","","","","","",""
"358.7000000476837","217107","SARL_v6","SARL_v6n3lnbk9k","5c4353086ce36f0001205f65","freq","","","img/blue_2bandit_a2.png","70","","70","test","1","","14","","","","square","circle","14","14","1","0.7142857142857143","","","","","","","",""
"null","217556","SARL_v6","SARL_v6n3lnbk9k","5c4353086ce36f0001205f65","freq_resp","","","img/blue_2bandit_a.png","70","img/blue_2bandit_a.png","70","test","","","","","","","","","","","1","","","","","","","","",""
"null","217715","SARL_v6","SARL_v6n3lnbk9k","5c4353086ce36f0001205f65","fixation","","","img/fixation.png","null","","","test","","","","","","","","","","","","","","","","","","","",""
"370.10000014305115","218092","SARL_v6","SARL_v6n3lnbk9k","5c4353086ce36f0001205f65","freq","","","img/blue_2bandit_a2.png","70","","70","test","1","","15","","","","square","circle","15","15","1","0.7333333333333333","","","","","","","",""
"null","218532","SARL_v6","SARL_v6n3lnbk9k","5c4353086ce36f0001205f65","freq_resp","","","img/blue_2bandit_a.png","70","img/blue_2bandit_a.png","70","test","","","","","","","","","","","1","","","","","","","","",""
"null","218692","SARL_v6","SARL_v6n3lnbk9k","5c4353086ce36f0001205f65","fixation","","","img/fixation.png","null","","","test","","","","","","","","","","","","","","","","","","","",""
"316.09999990463257","219014","SARL_v6","SARL_v6n3lnbk9k","5c4353086ce36f0001205f65","freq","","","img/blue_2bandit_a2.png","70","","70","test","1","","16","","","","square","circle","16","16","1","0.75","","","","","","","",""
"null","219507","SARL_v6","SARL_v6n3lnbk9k","5c4353086ce36f0001205f65","freq_resp","","","img/blue_2bandit_a.png","70","img/blue_2bandit_a.png","70","test","","","","","","","","","","","1","","","","","","","","",""
"null","219668","SARL_v6","SARL_v6n3lnbk9k","5c4353086ce36f0001205f65","fixation","","","img/fixation.png","null","","","test","","","","","","","","","","","","","","","","","","","",""
"273.5","219948","SARL_v6","SARL_v6n3lnbk9k","5c4353086ce36f0001205f65","infreq","","","img/orange_2bandit_a2.png","70","","68","test","0","","17","","","","square","circle","17","17","1","0.7058823529411765","","","","","","","",""
"null","220484","SARL_v6","SARL_v6n3lnbk9k","5c4353086ce36f0001205f65","infreq_resp","","","img/orange_2bandit_a.png","70","img/orange_2bandit_a.png","68","test","","","","","","","","","","","1","","","","","","","","",""
"null","220644","SARL_v6","SARL_v6n3lnbk9k","5c4353086ce36f0001205f65","fixation","","","img/fixation.png","null","","","test","","","","","","","","","","","","","","","","","","","",""
"436.39999985694885","221088","SARL_v6","SARL_v6n3lnbk9k","5c4353086ce36f0001205f65","infreq","","","img/orange_2bandit_a2.png","68","","68","test","1","","18","","","","square","circle","18","18","1","0.7222222222222222","","","","","","","",""
"null","221459","SARL_v6","SARL_v6n3lnbk9k","5c4353086ce36f0001205f65","infreq_resp","","","img/orange_2bandit_a.png","68","img/orange_2bandit_a.png","68","test","","","","","","","","","","","1","","","","","","","","",""
"null","221620","SARL_v6","SARL_v6n3lnbk9k","5c4353086ce36f0001205f65","fixation","","","img/fixation.png","null","","","test","","","","","","","","","","","","","","","","","","","",""
"402.40000009536743","222030","SARL_v6","SARL_v6n3lnbk9k","5c4353086ce36f0001205f65","freq","","","img/blue_2bandit_a2.png","70","","70","test","1","","19","","","","square","circle","19","19","1","0.7368421052631579","","","","","","","",""
"null","222435","SARL_v6","SARL_v6n3lnbk9k","5c4353086ce36f0001205f65","freq_resp","","","img/blue_2bandit_a.png","70","img/blue_2bandit_a.png","70","test","","","","","","","","","","","1","","","","","","","","",""
"null","222595","SARL_v6","SARL_v6n3lnbk9k","5c4353086ce36f0001205f65","fixation","","","img/fixation.png","null","","","test","","","","","","","","","","","","","","","","","","","",""
"343.09999990463257","222945","SARL_v6","SARL_v6n3lnbk9k","5c4353086ce36f0001205f65","freq","","","img/blue_2bandit_a2.png","70","","70","test","1","","20","","","","square","circle","20","20","1","0.75","","","","","","","",""
"null","223411","SARL_v6","SARL_v6n3lnbk9k","5c4353086ce36f0001205f65","freq_resp","","","img/blue_2bandit_a.png","70","img/blue_2bandit_a.png","70","test","","","","","","","","","","","1","","","","","","","","",""
"null","223571","SARL_v6","SARL_v6n3lnbk9k","5c4353086ce36f0001205f65","fixation","","","img/fixation.png","null","","","test","","","","","","","","","","","","","","","","","","","",""
"348.10000014305115","223926","SARL_v6","SARL_v6n3lnbk9k","5c4353086ce36f0001205f65","freq","","","img/blue_2bandit_a2.png","70","","70","test","1","","21","","","","square","circle","21","21","1","0.7619047619047619","","","","","","","",""
"null","224387","SARL_v6","SARL_v6n3lnbk9k","5c4353086ce36f0001205f65","freq_resp","","","img/blue_2bandit_a.png","70","img/blue_2bandit_a.png","70","test","","","","","","","","","","","1","","","","","","","","",""
"null","224547","SARL_v6","SARL_v6n3lnbk9k","5c4353086ce36f0001205f65","fixation","","","img/fixation.png","null","","","test","","","","","","","","","","","","","","","","","","","",""
"1411.6000001430511","225966","SARL_v6","SARL_v6n3lnbk9k","5c4353086ce36f0001205f65","rl","","","img/black_2bandit_a2.png","74","","0","test","","","22","","","-3","square","circle","","0","1","","74","-3","-3","-3","-3","square","1","0"
"null","226723","SARL_v6","SARL_v6n3lnbk9k","5c4353086ce36f0001205f65","feedback","","","<div class=""verylowPoints_sq""> -3 </div>","null","","na","test","","","NaN","","","","","","","","1","","74","","","","","","1",""
"735.2999999523163","227465","SARL_v6","SARL_v6n3lnbk9k","5c4353086ce36f0001205f65","freq","","","img/blue_2bandit_a2.png","68","","70","test","0","","23","","","","square","circle","22","1","2","0.7272727272727273","","","","","","","",""
"null","227539","SARL_v6","SARL_v6n3lnbk9k","5c4353086ce36f0001205f65","freq_resp","","","img/blue_2bandit_a.png","68","img/blue_2bandit_a.png","70","test","","","","","","","","","","","2","","","","","","","","",""
"null","227699","SARL_v6","SARL_v6n3lnbk9k","5c4353086ce36f0001205f65","fixation","","","img/fixation.png","null","","","test","","","","","","","","","","","","","","","","","","","",""
"709.4000000953674","228415","SARL_v6","SARL_v6n3lnbk9k","5c4353086ce36f0001205f65","infreq","","","img/orange_2bandit_a2.png","68","","68","test","1","","24","","","","square","circle","23","2","2","0.7391304347826086","","","","","","","",""
"null","228515","SARL_v6","SARL_v6n3lnbk9k","5c4353086ce36f0001205f65","infreq_resp","","","img/orange_2bandit_a.png","68","img/orange_2bandit_a.png","68","test","","","","","","","","","","","2","","","","","","","","",""
"null","228675","SARL_v6","SARL_v6n3lnbk9k","5c4353086ce36f0001205f65","fixation","","","img/fixation.png","null","","","test","","","","","","","","","","","","","","","","","","","",""
"null","229483","SARL_v6","SARL_v6n3lnbk9k","5c4353086ce36f0001205f65","freq","","","img/blue_2bandit_a2.png","null","","70","test","0","","25","","","","square","circle","24","3","2","0.7083333333333334","","","","","","","",""
"null","229644","SARL_v6","SARL_v6n3lnbk9k","5c4353086ce36f0001205f65","fixation","","","img/fixation.png","null","","","test","","","","","","","","","","","","","","","","","","","",""
"null","230452","SARL_v6","SARL_v6n3lnbk9k","5c4353086ce36f0001205f65","infreq","","","img/orange_2bandit_a2.png","null","","68","test","0","","26","","","","square","circle","25","4","2","0.68","","","","","","","",""
"null","230612","SARL_v6","SARL_v6n3lnbk9k","5c4353086ce36f0001205f65","fixation","","","img/fixation.png","null","","","test","","","","","","","","","","","","","","","","","","","",""
"466.5","231085","SARL_v6","SARL_v6n3lnbk9k","5c4353086ce36f0001205f65","freq","","","img/blue_2bandit_a2.png","70","","70","test","1","","27","","","","square","circle","26","5","2","0.6923076923076923","","","","","","","",""
"null","231427","SARL_v6","SARL_v6n3lnbk9k","5c4353086ce36f0001205f65","freq_resp","","","img/blue_2bandit_a.png","70","img/blue_2bandit_a.png","70","test","","","","","","","","","","","2","","","","","","","","",""
"null","231587","SARL_v6","SARL_v6n3lnbk9k","5c4353086ce36f0001205f65","fixation","","","img/fixation.png","null","","","test","","","","","","","","","","","","","","","","","","","",""
"397.7999999523163","231992","SARL_v6","SARL_v6n3lnbk9k","5c4353086ce36f0001205f65","freq","","","img/blue_2bandit_a2.png","70","","70","test","1","","28","","","","square","circle","27","6","2","0.7037037037037037","","","","","","","",""
"null","232405","SARL_v6","SARL_v6n3lnbk9k","5c4353086ce36f0001205f65","freq_resp","","","img/blue_2bandit_a.png","70","img/blue_2bandit_a.png","70","test","","","","","","","","","","","2","","","","","","","","",""
"null","232563","SARL_v6","SARL_v6n3lnbk9k","5c4353086ce36f0001205f65","fixation","","","img/fixation.png","null","","","test","","","","","","","","","","","","","","","","","","","",""
"325.5","232896","SARL_v6","SARL_v6n3lnbk9k","5c4353086ce36f0001205f65","freq","","","img/blue_2bandit_a2.png","70","","70","test","1","","29","","","","square","circle","28","7","2","0.7142857142857143","","","","","","","",""
"null","233379","SARL_v6","SARL_v6n3lnbk9k","5c4353086ce36f0001205f65","freq_resp","","","img/blue_2bandit_a.png","70","img/blue_2bandit_a.png","70","test","","","","","","","","","","","2","","","","","","","","",""
"null","233539","SARL_v6","SARL_v6n3lnbk9k","5c4353086ce36f0001205f65","fixation","","","img/fixation.png","null","","","test","","","","","","","","","","","","","","","","","","","",""
"341.10000014305115","233887","SARL_v6","SARL_v6n3lnbk9k","5c4353086ce36f0001205f65","freq","","","img/blue_2bandit_a2.png","70","","70","test","1","","30","","","","square","circle","29","8","2","0.7241379310344828","","","","","","","",""
"null","234356","SARL_v6","SARL_v6n3lnbk9k","5c4353086ce36f0001205f65","freq_resp","","","img/blue_2bandit_a.png","70","img/blue_2bandit_a.png","70","test","","","","","","","","","","","2","","","","","","","","",""
"null","234515","SARL_v6","SARL_v6n3lnbk9k","5c4353086ce36f0001205f65","fixation","","","img/fixation.png","null","","","test","","","","","","","","","","","","","","","","","","","",""
"328.90000009536743","234851","SARL_v6","SARL_v6n3lnbk9k","5c4353086ce36f0001205f65","freq","","","img/blue_2bandit_a2.png","70","","70","test","1","","31","","","","square","circle","30","9","2","0.7333333333333333","","","","","","","",""
"null","235331","SARL_v6","SARL_v6n3lnbk9k","5c4353086ce36f0001205f65","freq_resp","","","img/blue_2bandit_a.png","70","img/blue_2bandit_a.png","70","test","","","","","","","","","","","2","","","","","","","","",""
"null","235491","SARL_v6","SARL_v6n3lnbk9k","5c4353086ce36f0001205f65","fixation","","","img/fixation.png","null","","","test","","","","","","","","","","","","","","","","","","","",""
"293.60000014305115","235791","SARL_v6","SARL_v6n3lnbk9k","5c4353086ce36f0001205f65","freq","","","img/blue_2bandit_a2.png","70","","70","test","1","","32","","","","square","circle","31","10","2","0.7419354838709677","","","","","","","",""
"null","236308","SARL_v6","SARL_v6n3lnbk9k","5c4353086ce36f0001205f65","freq_resp","","","img/blue_2bandit_a.png","70","img/blue_2bandit_a.png","70","test","","","","","","","","","","","2","","","","","","","","",""
"null","236467","SARL_v6","SARL_v6n3lnbk9k","5c4353086ce36f0001205f65","fixation","","","img/fixation.png","null","","","test","","","","","","","","","","","","","","","","","","","",""
"257.89999985694885","236732","SARL_v6","SARL_v6n3lnbk9k","5c4353086ce36f0001205f65","freq","","","img/blue_2bandit_a2.png","70","","70","test","1","","33","","","","square","circle","32","11","2","0.75","","","","","","","",""
"null","237283","SARL_v6","SARL_v6n3lnbk9k","5c4353086ce36f0001205f65","freq_resp","","","img/blue_2bandit_a.png","70","img/blue_2bandit_a.png","70","test","","","","","","","","","","","2","","","","","","","","",""
"null","237444","SARL_v6","SARL_v6n3lnbk9k","5c4353086ce36f0001205f65","fixation","","","img/fixation.png","null","","","test","","","","","","","","","","","","","","","","","","","",""
"236.79999995231628","237687","SARL_v6","SARL_v6n3lnbk9k","5c4353086ce36f0001205f65","freq","","","img/blue_2bandit_a2.png","70","","70","test","1","","34","","","","square","circle","33","12","2","0.7575757575757576","","","","","","","",""
"null","238260","SARL_v6","SARL_v6n3lnbk9k","5c4353086ce36f0001205f65","freq_resp","","","img/blue_2bandit_a.png","70","img/blue_2bandit_a.png","70","test","","","","","","","","","","","2","","","","","","","","",""
"null","238420","SARL_v6","SARL_v6n3lnbk9k","5c4353086ce36f0001205f65","fixation","","","img/fixation.png","null","","","test","","","","","","","","","","","","","","","","","","","",""
"325.10000014305115","238752","SARL_v6","SARL_v6n3lnbk9k","5c4353086ce36f0001205f65","freq","","","img/blue_2bandit_a2.png","70","","70","test","1","","35","","","","square","circle","34","13","2","0.7647058823529411","","","","","","","",""
"null","239236","SARL_v6","SARL_v6n3lnbk9k","5c4353086ce36f0001205f65","freq_resp","","","img/blue_2bandit_a.png","70","img/blue_2bandit_a.png","70","test","","","","","","","","","","","2","","","","","","","","",""
"null","239396","SARL_v6","SARL_v6n3lnbk9k","5c4353086ce36f0001205f65","fixation","","","img/fixation.png","null","","","test","","","","","","","","","","","","","","","","","","","",""
"358.2000000476837","239760","SARL_v6","SARL_v6n3lnbk9k","5c4353086ce36f0001205f65","freq","","","img/blue_2bandit_a2.png","70","","70","test","1","","36","","","","square","circle","35","14","2","0.7714285714285715","","","","","","","",""
"null","240211","SARL_v6","SARL_v6n3lnbk9k","5c4353086ce36f0001205f65","freq_resp","","","img/blue_2bandit_a.png","70","img/blue_2bandit_a.png","70","test","","","","","","","","","","","2","","","","","","","","",""
"null","240372","SARL_v6","SARL_v6n3lnbk9k","5c4353086ce36f0001205f65","fixation","","","img/fixation.png","null","","","test","","","","","","","","","","","","","","","","","","","",""
"364.7000000476837","240743","SARL_v6","SARL_v6n3lnbk9k","5c4353086ce36f0001205f65","freq","","","img/blue_2bandit_a2.png","70","","70","test","1","","37","","","","square","circle","36","15","2","0.7777777777777778","","","","","","","",""
"null","241188","SARL_v6","SARL_v6n3lnbk9k","5c4353086ce36f0001205f65","freq_resp","","","img/blue_2bandit_a.png","70","img/blue_2bandit_a.png","70","test","","","","","","","","","","","2","","","","","","","","",""
"null","241348","SARL_v6","SARL_v6n3lnbk9k","5c4353086ce36f0001205f65","fixation","","","img/fixation.png","null","","","test","","","","","","","","","","","","","","","","","","","",""
"427.10000014305115","241783","SARL_v6","SARL_v6n3lnbk9k","5c4353086ce36f0001205f65","freq","","","img/blue_2bandit_a2.png","70","","70","test","1","","38","","","","square","circle","37","16","2","0.7837837837837838","","","","","","","",""
"null","242164","SARL_v6","SARL_v6n3lnbk9k","5c4353086ce36f0001205f65","freq_resp","","","img/blue_2bandit_a.png","70","img/blue_2bandit_a.png","70","test","","","","","","","","","","","2","","","","","","","","",""
"null","242324","SARL_v6","SARL_v6n3lnbk9k","5c4353086ce36f0001205f65","fixation","","","img/fixation.png","null","","","test","","","","","","","","","","","","","","","","","","","",""
"355","242686","SARL_v6","SARL_v6n3lnbk9k","5c4353086ce36f0001205f65","freq","","","img/blue_2bandit_a2.png","70","","70","test","1","","39","","","","square","circle","38","17","2","0.7894736842105263","","","","","","","",""
"null","243139","SARL_v6","SARL_v6n3lnbk9k","5c4353086ce36f0001205f65","freq_resp","","","img/blue_2bandit_a.png","70","img/blue_2bandit_a.png","70","test","","","","","","","","","","","2","","","","","","","","",""
"null","243300","SARL_v6","SARL_v6n3lnbk9k","5c4353086ce36f0001205f65","fixation","","","img/fixation.png","null","","","test","","","","","","","","","","","","","","","","","","","",""
"554","243861","SARL_v6","SARL_v6n3lnbk9k","5c4353086ce36f0001205f65","freq","","","img/blue_2bandit_a2.png","70","","70","test","1","","40","","","","square","circle","39","18","2","0.7948717948717948","","","","","","","",""
"null","244116","SARL_v6","SARL_v6n3lnbk9k","5c4353086ce36f0001205f65","freq_resp","","","img/blue_2bandit_a.png","70","img/blue_2bandit_a.png","70","test","","","","","","","","","","","2","","","","","","","","",""
"null","244276","SARL_v6","SARL_v6n3lnbk9k","5c4353086ce36f0001205f65","fixation","","","img/fixation.png","null","","","test","","","","","","","","","","","","","","","","","","","",""
"473.7000000476837","244757","SARL_v6","SARL_v6n3lnbk9k","5c4353086ce36f0001205f65","freq","","","img/blue_2bandit_a2.png","70","","70","test","1","","41","","","","square","circle","40","19","2","0.8","","","","","","","",""
"null","245091","SARL_v6","SARL_v6n3lnbk9k","5c4353086ce36f0001205f65","freq_resp","","","img/blue_2bandit_a.png","70","img/blue_2bandit_a.png","70","test","","","","","","","","","","","2","","","","","","","","",""
"null","245251","SARL_v6","SARL_v6n3lnbk9k","5c4353086ce36f0001205f65","fixation","","","img/fixation.png","null","","","test","","","","","","","","","","","","","","","","","","","",""
"601.5","245859","SARL_v6","SARL_v6n3lnbk9k","5c4353086ce36f0001205f65","rl","","","img/black_2bandit_a2.png","75","","0","test","","","42","","","-8","square","circle","","0","2","","75","-8","-5","-5","-8","circle","2","0"
"null","246620","SARL_v6","SARL_v6n3lnbk9k","5c4353086ce36f0001205f65","feedback","","","<div class=""verylowPoints""> -8 </div>","null","","na","test","","","NaN","","","","","","","","2","","75","","","","","","2",""
"null","247428","SARL_v6","SARL_v6n3lnbk9k","5c4353086ce36f0001205f65","freq","","","img/blue_2bandit_a2.png","null","","70","test","0","","43","","","","square","circle","41","1","3","0.7804878048780488","","","","","","","",""
"null","247588","SARL_v6","SARL_v6n3lnbk9k","5c4353086ce36f0001205f65","fixation","","","img/fixation.png","null","","","test","","","","","","","","","","","","","","","","","","","",""
"75.20000004768372","247670","SARL_v6","SARL_v6n3lnbk9k","5c4353086ce36f0001205f65","freq","","","img/blue_2bandit_a2.png","68","","70","test","0","","44","","","","square","circle","42","2","3","0.7619047619047619","","","","","","","",""
"null","248403","SARL_v6","SARL_v6n3lnbk9k","5c4353086ce36f0001205f65","freq_resp","","","img/blue_2bandit_a.png","68","img/blue_2bandit_a.png","70","test","","","","","","","","","","","3","","","","","","","","",""
"null","248564","SARL_v6","SARL_v6n3lnbk9k","5c4353086ce36f0001205f65","fixation","","","img/fixation.png","null","","","test","","","","","","","","","","","","","","","","","","","",""
"683.2000000476837","249254","SARL_v6","SARL_v6n3lnbk9k","5c4353086ce36f0001205f65","freq","","","img/blue_2bandit_a2.png","70","","70","test","1","","45","","","","square","circle","43","3","3","0.7674418604651163","","","","","","","",""
"null","249380","SARL_v6","SARL_v6n3lnbk9k","5c4353086ce36f0001205f65","freq_resp","","","img/blue_2bandit_a.png","70","img/blue_2bandit_a.png","70","test","","","","","","","","","","","3","","","","","","","","",""
"null","249539","SARL_v6","SARL_v6n3lnbk9k","5c4353086ce36f0001205f65","fixation","","","img/fixation.png","null","","","test","","","","","","","","","","","","","","","","","","","",""
"351.09999990463257","249897","SARL_v6","SARL_v6n3lnbk9k","5c4353086ce36f0001205f65","freq","","","img/blue_2bandit_a2.png","70","","70","test","1","","46","","","","square","circle","44","4","3","0.7727272727272727","","","","","","","",""
"null","250355","SARL_v6","SARL_v6n3lnbk9k","5c4353086ce36f0001205f65","freq_resp","","","img/blue_2bandit_a.png","70","img/blue_2bandit_a.png","70","test","","","","","","","","","","","3","","","","","","","","",""
"null","250515","SARL_v6","SARL_v6n3lnbk9k","5c4353086ce36f0001205f65","fixation","","","img/fixation.png","null","","","test","","","","","","","","","","","","","","","","","","","",""
"284.2000000476837","250806","SARL_v6","SARL_v6n3lnbk9k","5c4353086ce36f0001205f65","freq","","","img/blue_2bandit_a2.png","70","","70","test","1","","47","","","","square","circle","45","5","3","0.7777777777777778","","","","","","","",""
"null","251331","SARL_v6","SARL_v6n3lnbk9k","5c4353086ce36f0001205f65","freq_resp","","","img/blue_2bandit_a.png","70","img/blue_2bandit_a.png","70","test","","","","","","","","","","","3","","","","","","","","",""
"null","251491","SARL_v6","SARL_v6n3lnbk9k","5c4353086ce36f0001205f65","fixation","","","img/fixation.png","null","","","test","","","","","","","","","","","","","","","","","","","",""
"143.79999995231628","251642","SARL_v6","SARL_v6n3lnbk9k","5c4353086ce36f0001205f65","freq","","","img/blue_2bandit_a2.png","70","","70","test","1","","48","","","","square","circle","46","6","3","0.782608695652174","","","","","","","",""
"null","252308","SARL_v6","SARL_v6n3lnbk9k","5c4353086ce36f0001205f65","freq_resp","","","img/blue_2bandit_a.png","70","img/blue_2bandit_a.png","70","test","","","","","","","","","","","3","","","","","","","","",""
"null","252468","SARL_v6","SARL_v6n3lnbk9k","5c4353086ce36f0001205f65","fixation","","","img/fixation.png","null","","","test","","","","","","","","","","","","","","","","","","","",""
"219","252693","SARL_v6","SARL_v6n3lnbk9k","5c4353086ce36f0001205f65","freq","","","img/blue_2bandit_a2.png","70","","70","test","1","","49","","","","square","circle","47","7","3","0.7872340425531915","","","","","","","",""
"null","253284","SARL_v6","SARL_v6n3lnbk9k","5c4353086ce36f0001205f65","freq_resp","","","img/blue_2bandit_a.png","70","img/blue_2bandit_a.png","70","test","","","","","","","","","","","3","","","","","","","","",""
"null","253443","SARL_v6","SARL_v6n3lnbk9k","5c4353086ce36f0001205f65","fixation","","","img/fixation.png","null","","","test","","","","","","","","","","","","","","","","","","","",""
"284","253733","SARL_v6","SARL_v6n3lnbk9k","5c4353086ce36f0001205f65","freq","","","img/blue_2bandit_a2.png","70","","70","test","1","","50","","","","square","circle","48","8","3","0.7916666666666666","","","","","","","",""
"null","254260","SARL_v6","SARL_v6n3lnbk9k","5c4353086ce36f0001205f65","freq_resp","","","img/blue_2bandit_a.png","70","img/blue_2bandit_a.png","70","test","","","","","","","","","","","3","","","","","","","","",""
"null","254420","SARL_v6","SARL_v6n3lnbk9k","5c4353086ce36f0001205f65","fixation","","","img/fixation.png","null","","","test","","","","","","","","","","","","","","","","","","","",""
"213.20000004768372","254640","SARL_v6","SARL_v6n3lnbk9k","5c4353086ce36f0001205f65","freq","","","img/blue_2bandit_a2.png","70","","70","test","1","","51","","","","square","circle","49","9","3","0.7959183673469388","","","","","","","",""
"null","255236","SARL_v6","SARL_v6n3lnbk9k","5c4353086ce36f0001205f65","freq_resp","","","img/blue_2bandit_a.png","70","img/blue_2bandit_a.png","70","test","","","","","","","","","","","3","","","","","","","","",""
"null","255396","SARL_v6","SARL_v6n3lnbk9k","5c4353086ce36f0001205f65","fixation","","","img/fixation.png","null","","","test","","","","","","","","","","","","","","","","","","","",""
"242.40000009536743","255645","SARL_v6","SARL_v6n3lnbk9k","5c4353086ce36f0001205f65","freq","","","img/blue_2bandit_a2.png","70","","70","test","1","","52","","","","square","circle","50","10","3","0.8","","","","","","","",""
"null","256212","SARL_v6","SARL_v6n3lnbk9k","5c4353086ce36f0001205f65","freq_resp","","","img/blue_2bandit_a.png","70","img/blue_2bandit_a.png","70","test","","","","","","","","","","","3","","","","","","","","",""
"null","256372","SARL_v6","SARL_v6n3lnbk9k","5c4353086ce36f0001205f65","fixation","","","img/fixation.png","null","","","test","","","","","","","","","","","","","","","","","","","",""
"156.39999985694885","256535","SARL_v6","SARL_v6n3lnbk9k","5c4353086ce36f0001205f65","freq","","","img/blue_2bandit_a2.png","70","","70","test","1","","53","","","","square","circle","51","11","3","0.803921568627451","","","","","","","",""
"null","257188","SARL_v6","SARL_v6n3lnbk9k","5c4353086ce36f0001205f65","freq_resp","","","img/blue_2bandit_a.png","70","img/blue_2bandit_a.png","70","test","","","","","","","","","","","3","","","","","","","","",""
"null","257348","SARL_v6","SARL_v6n3lnbk9k","5c4353086ce36f0001205f65","fixation","","","img/fixation.png","null","","","test","","","","","","","","","","","","","","","","","","","",""
"118.29999995231628","257472","SARL_v6","SARL_v6n3lnbk9k","5c4353086ce36f0001205f65","freq","","","img/blue_2bandit_a2.png","70","","70","test","1","","54","","","","square","circle","52","12","3","0.8076923076923077","","","","","","","",""
"null","258164","SARL_v6","SARL_v6n3lnbk9k","5c4353086ce36f0001205f65","freq_resp","","","img/blue_2bandit_a.png","70","img/blue_2bandit_a.png","70","test","","","","","","","","","","","3","","","","","","","","",""
"null","258324","SARL_v6","SARL_v6n3lnbk9k","5c4353086ce36f0001205f65","fixation","","","img/fixation.png","null","","","test","","","","","","","","","","","","","","","","","","","",""
"319.7999999523163","258650","SARL_v6","SARL_v6n3lnbk9k","5c4353086ce36f0001205f65","freq","","","img/blue_2bandit_a2.png","70","","70","test","1","","55","","","","square","circle","53","13","3","0.8113207547169812","","","","","","","",""
"null","259139","SARL_v6","SARL_v6n3lnbk9k","5c4353086ce36f0001205f65","freq_resp","","","img/blue_2bandit_a.png","70","img/blue_2bandit_a.png","70","test","","","","","","","","","","","3","","","","","","","","",""
"null","259299","SARL_v6","SARL_v6n3lnbk9k","5c4353086ce36f0001205f65","fixation","","","img/fixation.png","null","","","test","","","","","","","","","","","","","","","","","","","",""
"323.39999985694885","259629","SARL_v6","SARL_v6n3lnbk9k","5c4353086ce36f0001205f65","freq","","","img/blue_2bandit_a2.png","70","","70","test","1","","56","","","","square","circle","54","14","3","0.8148148148148148","","","","","","","",""
"null","260116","SARL_v6","SARL_v6n3lnbk9k","5c4353086ce36f0001205f65","freq_resp","","","img/blue_2bandit_a.png","70","img/blue_2bandit_a.png","70","test","","","","","","","","","","","3","","","","","","","","",""
"null","260275","SARL_v6","SARL_v6n3lnbk9k","5c4353086ce36f0001205f65","fixation","","","img/fixation.png","null","","","test","","","","","","","","","","","","","","","","","","","",""
"476.7999999523163","260759","SARL_v6","SARL_v6n3lnbk9k","5c4353086ce36f0001205f65","freq","","","img/blue_2bandit_a2.png","70","","70","test","1","","57","","","","square","circle","55","15","3","0.8181818181818182","","","","","","","",""
"null","261091","SARL_v6","SARL_v6n3lnbk9k","5c4353086ce36f0001205f65","freq_resp","","","img/blue_2bandit_a.png","70","img/blue_2bandit_a.png","70","test","","","","","","","","","","","3","","","","","","","","",""
"null","261252","SARL_v6","SARL_v6n3lnbk9k","5c4353086ce36f0001205f65","fixation","","","img/fixation.png","null","","","test","","","","","","","","","","","","","","","","","","","",""
"352.09999990463257","261610","SARL_v6","SARL_v6n3lnbk9k","5c4353086ce36f0001205f65","freq","","","img/blue_2bandit_a2.png","70","","70","test","1","","58","","","","square","circle","56","16","3","0.8214285714285714","","","","","","","",""
"null","262067","SARL_v6","SARL_v6n3lnbk9k","5c4353086ce36f0001205f65","freq_resp","","","img/blue_2bandit_a.png","70","img/blue_2bandit_a.png","70","test","","","","","","","","","","","3","","","","","","","","",""
"null","262228","SARL_v6","SARL_v6n3lnbk9k","5c4353086ce36f0001205f65","fixation","","","img/fixation.png","null","","","test","","","","","","","","","","","","","","","","","","","",""
"null","263036","SARL_v6","SARL_v6n3lnbk9k","5c4353086ce36f0001205f65","freq","","","img/blue_2bandit_a2.png","null","","70","test","0","","59","","","","square","circle","57","17","3","0.8070175438596491","","","","","","","",""
"null","263196","SARL_v6","SARL_v6n3lnbk9k","5c4353086ce36f0001205f65","fixation","","","img/fixation.png","null","","","test","","","","","","","","","","","","","","","","","","","",""
"396.5","263599","SARL_v6","SARL_v6n3lnbk9k","5c4353086ce36f0001205f65","infreq","","","img/orange_2bandit_a2.png","68","","68","test","1","","60","","","","square","circle","58","18","3","0.8103448275862069","","","","","","","",""
"null","264012","SARL_v6","SARL_v6n3lnbk9k","5c4353086ce36f0001205f65","infreq_resp","","","img/orange_2bandit_a.png","68","img/orange_2bandit_a.png","68","test","","","","","","","","","","","3","","","","","","","","",""
"null","264172","SARL_v6","SARL_v6n3lnbk9k","5c4353086ce36f0001205f65","fixation","","","img/fixation.png","null","","","test","","","","","","","","","","","","","","","","","","","",""
"421","264599","SARL_v6","SARL_v6n3lnbk9k","5c4353086ce36f0001205f65","freq","","","img/blue_2bandit_a2.png","70","","70","test","1","","61","","","","square","circle","59","19","3","0.8135593220338984","","","","","","","",""
"null","264988","SARL_v6","SARL_v6n3lnbk9k","5c4353086ce36f0001205f65","freq_resp","","","img/blue_2bandit_a.png","70","img/blue_2bandit_a.png","70","test","","","","","","","","","","","3","","","","","","","","",""
"null","265149","SARL_v6","SARL_v6n3lnbk9k","5c4353086ce36f0001205f65","fixation","","","img/fixation.png","null","","","test","","","","","","","","","","","","","","","","","","","",""
"283.7000000476837","265441","SARL_v6","SARL_v6n3lnbk9k","5c4353086ce36f0001205f65","infreq","","","img/orange_2bandit_a2.png","70","","68","test","0","","62","","","","square","circle","60","20","3","0.8","","","","","","","",""
"null","265971","SARL_v6","SARL_v6n3lnbk9k","5c4353086ce36f0001205f65","infreq_resp","","","img/orange_2bandit_a.png","70","img/orange_2bandit_a.png","68","test","","","","","","","","","","","3","","","","","","","","",""
"null","266131","SARL_v6","SARL_v6n3lnbk9k","5c4353086ce36f0001205f65","fixation","","","img/fixation.png","null","","","test","","","","","","","","","","","","","","","","","","","",""
"518.5","266656","SARL_v6","SARL_v6n3lnbk9k","5c4353086ce36f0001205f65","freq","","","img/blue_2bandit_a2.png","70","","70","test","1","","63","","","","square","circle","61","21","3","0.8032786885245902","","","","","","","",""
"null","266947","SARL_v6","SARL_v6n3lnbk9k","5c4353086ce36f0001205f65","freq_resp","","","img/blue_2bandit_a.png","70","img/blue_2bandit_a.png","70","test","","","","","","","","","","","3","","","","","","","","",""
"null","267107","SARL_v6","SARL_v6n3lnbk9k","5c4353086ce36f0001205f65","fixation","","","img/fixation.png","null","","","test","","","","","","","","","","","","","","","","","","","",""
"395.59999990463257","267510","SARL_v6","SARL_v6n3lnbk9k","5c4353086ce36f0001205f65","freq","","","img/blue_2bandit_a2.png","70","","70","test","1","","64","","","","square","circle","62","22","3","0.8064516129032258","","","","","","","",""
"null","267923","SARL_v6","SARL_v6n3lnbk9k","5c4353086ce36f0001205f65","freq_resp","","","img/blue_2bandit_a.png","70","img/blue_2bandit_a.png","70","test","","","","","","","","","","","3","","","","","","","","",""
"null","268083","SARL_v6","SARL_v6n3lnbk9k","5c4353086ce36f0001205f65","fixation","","","img/fixation.png","null","","","test","","","","","","","","","","","","","","","","","","","",""
"397.09999990463257","268487","SARL_v6","SARL_v6n3lnbk9k","5c4353086ce36f0001205f65","freq","","","img/blue_2bandit_a2.png","70","","70","test","1","","65","","","","square","circle","63","23","3","0.8095238095238095","","","","","","","",""
"null","268900","SARL_v6","SARL_v6n3lnbk9k","5c4353086ce36f0001205f65","freq_resp","","","img/blue_2bandit_a.png","70","img/blue_2bandit_a.png","70","test","","","","","","","","","","","3","","","","","","","","",""
"null","269060","SARL_v6","SARL_v6n3lnbk9k","5c4353086ce36f0001205f65","fixation","","","img/fixation.png","null","","","test","","","","","","","","","","","","","","","","","","","",""
"429.2999999523163","269502","SARL_v6","SARL_v6n3lnbk9k","5c4353086ce36f0001205f65","freq","","","img/blue_2bandit_a2.png","70","","70","test","1","","66","","","","square","circle","64","24","3","0.8125","","","","","","","",""
"null","269885","SARL_v6","SARL_v6n3lnbk9k","5c4353086ce36f0001205f65","freq_resp","","","img/blue_2bandit_a.png","70","img/blue_2bandit_a.png","70","test","","","","","","","","","","","3","","","","","","","","",""
"null","270045","SARL_v6","SARL_v6n3lnbk9k","5c4353086ce36f0001205f65","fixation","","","img/fixation.png","null","","","test","","","","","","","","","","","","","","","","","","","",""
"813.8999998569489","270865","SARL_v6","SARL_v6n3lnbk9k","5c4353086ce36f0001205f65","rl","","","img/black_2bandit_a2.png","75","","0","test","","","67","","","-8","square","circle","","0","3","","75","-8","-4","-4","-8","circle","3","0"
"null","271628","SARL_v6","SARL_v6n3lnbk9k","5c4353086ce36f0001205f65","feedback","","","<div class=""verylowPoints""> -8 </div>","null","","na","test","","","NaN","","","","","","","","3","","75","","","","","","3",""
"781.3000001907349","272415","SARL_v6","SARL_v6n3lnbk9k","5c4353086ce36f0001205f65","freq","","","img/blue_2bandit_a2.png","70","","70","test","1","","68","","","","square","circle","65","1","4","0.8153846153846154","","","","","","","",""
"null","272445","SARL_v6","SARL_v6n3lnbk9k","5c4353086ce36f0001205f65","freq_resp","","","img/blue_2bandit_a.png","70","img/blue_2bandit_a.png","70","test","","","","","","","","","","","4","","","","","","","","",""
"null","272604","SARL_v6","SARL_v6n3lnbk9k","5c4353086ce36f0001205f65","fixation","","","img/fixation.png","null","","","test","","","","","","","","","","","","","","","","","","","",""
"506.59999990463257","273117","SARL_v6","SARL_v6n3lnbk9k","5c4353086ce36f0001205f65","freq","","","img/blue_2bandit_a2.png","70","","70","test","1","","69","","","","square","circle","66","2","4","0.8181818181818182","","","","","","","",""
"null","273419","SARL_v6","SARL_v6n3lnbk9k","5c4353086ce36f0001205f65","freq_resp","","","img/blue_2bandit_a.png","70","img/blue_2bandit_a.png","70","test","","","","","","","","","","","4","","","","","","","","",""
"null","273579","SARL_v6","SARL_v6n3lnbk9k","5c4353086ce36f0001205f65","fixation","","","img/fixation.png","null","","","test","","","","","","","","","","","","","","","","","","","",""
"328.59999990463257","273915","SARL_v6","SARL_v6n3lnbk9k","5c4353086ce36f0001205f65","freq","","","img/blue_2bandit_a2.png","70","","70","test","1","","70","","","","square","circle","67","3","4","0.8208955223880597","","","","","","","",""
"null","274395","SARL_v6","SARL_v6n3lnbk9k","5c4353086ce36f0001205f65","freq_resp","","","img/blue_2bandit_a.png","70","img/blue_2bandit_a.png","70","test","","","","","","","","","","","4","","","","","","","","",""
"null","274556","SARL_v6","SARL_v6n3lnbk9k","5c4353086ce36f0001205f65","fixation","","","img/fixation.png","null","","","test","","","","","","","","","","","","","","","","","","","",""
"307.39999985694885","274871","SARL_v6","SARL_v6n3lnbk9k","5c4353086ce36f0001205f65","freq","","","img/blue_2bandit_a2.png","70","","70","test","1","","71","","","","square","circle","68","4","4","0.8235294117647058","","","","","","","",""
"null","275372","SARL_v6","SARL_v6n3lnbk9k","5c4353086ce36f0001205f65","freq_resp","","","img/blue_2bandit_a.png","70","img/blue_2bandit_a.png","70","test","","","","","","","","","","","4","","","","","","","","",""
"null","275531","SARL_v6","SARL_v6n3lnbk9k","5c4353086ce36f0001205f65","fixation","","","img/fixation.png","null","","","test","","","","","","","","","","","","","","","","","","","",""
"349.90000009536743","275888","SARL_v6","SARL_v6n3lnbk9k","5c4353086ce36f0001205f65","freq","","","img/blue_2bandit_a2.png","70","","70","test","1","","72","","","","square","circle","69","5","4","0.8260869565217391","","","","","","","",""
"null","276347","SARL_v6","SARL_v6n3lnbk9k","5c4353086ce36f0001205f65","freq_resp","","","img/blue_2bandit_a.png","70","img/blue_2bandit_a.png","70","test","","","","","","","","","","","4","","","","","","","","",""
"null","276507","SARL_v6","SARL_v6n3lnbk9k","5c4353086ce36f0001205f65","fixation","","","img/fixation.png","null","","","test","","","","","","","","","","","","","","","","","","","",""
"359.59999990463257","276874","SARL_v6","SARL_v6n3lnbk9k","5c4353086ce36f0001205f65","freq","","","img/blue_2bandit_a2.png","70","","70","test","1","","73","","","","square","circle","70","6","4","0.8285714285714286","","","","","","","",""
"null","277323","SARL_v6","SARL_v6n3lnbk9k","5c4353086ce36f0001205f65","freq_resp","","","img/blue_2bandit_a.png","70","img/blue_2bandit_a.png","70","test","","","","","","","","","","","4","","","","","","","","",""
"null","277483","SARL_v6","SARL_v6n3lnbk9k","5c4353086ce36f0001205f65","fixation","","","img/fixation.png","null","","","test","","","","","","","","","","","","","","","","","","","",""
"379.30000019073486","277870","SARL_v6","SARL_v6n3lnbk9k","5c4353086ce36f0001205f65","infreq","","","img/orange_2bandit_a2.png","68","","68","test","1","","74","","","","square","circle","71","7","4","0.8309859154929577","","","","","","","",""
"null","278300","SARL_v6","SARL_v6n3lnbk9k","5c4353086ce36f0001205f65","infreq_resp","","","img/orange_2bandit_a.png","68","img/orange_2bandit_a.png","68","test","","","","","","","","","","","4","","","","","","","","",""
"null","278459","SARL_v6","SARL_v6n3lnbk9k","5c4353086ce36f0001205f65","fixation","","","img/fixation.png","null","","","test","","","","","","","","","","","","","","","","","","","",""
"443.40000009536743","278909","SARL_v6","SARL_v6n3lnbk9k","5c4353086ce36f0001205f65","freq","","","img/blue_2bandit_a2.png","70","","70","test","1","","75","","","","square","circle","72","8","4","0.8333333333333334","","","","","","","",""
"null","279276","SARL_v6","SARL_v6n3lnbk9k","5c4353086ce36f0001205f65","freq_resp","","","img/blue_2bandit_a.png","70","img/blue_2bandit_a.png","70","test","","","","","","","","","","","4","","","","","","","","",""
"null","279436","SARL_v6","SARL_v6n3lnbk9k","5c4353086ce36f0001205f65","fixation","","","img/fixation.png","null","","","test","","","","","","","","","","","","","","","","","","","",""
"307.5","279751","SARL_v6","SARL_v6n3lnbk9k","5c4353086ce36f0001205f65","freq","","","img/blue_2bandit_a2.png","70","","70","test","1","","76","","","","square","circle","73","9","4","0.8356164383561644","","","","","","","",""
"null","280252","SARL_v6","SARL_v6n3lnbk9k","5c4353086ce36f0001205f65","freq_resp","","","img/blue_2bandit_a.png","70","img/blue_2bandit_a.png","70","test","","","","","","","","","","","4","","","","","","","","",""
"null","280412","SARL_v6","SARL_v6n3lnbk9k","5c4353086ce36f0001205f65","fixation","","","img/fixation.png","null","","","test","","","","","","","","","","","","","","","","","","","",""
"387.7000000476837","280806","SARL_v6","SARL_v6n3lnbk9k","5c4353086ce36f0001205f65","freq","","","img/blue_2bandit_a2.png","70","","70","test","1","","77","","","","square","circle","74","10","4","0.8378378378378378","","","","","","","",""
"null","281228","SARL_v6","SARL_v6n3lnbk9k","5c4353086ce36f0001205f65","freq_resp","","","img/blue_2bandit_a.png","70","img/blue_2bandit_a.png","70","test","","","","","","","","","","","4","","","","","","","","",""
"null","281388","SARL_v6","SARL_v6n3lnbk9k","5c4353086ce36f0001205f65","fixation","","","img/fixation.png","null","","","test","","","","","","","","","","","","","","","","","","","",""
"318.2999999523163","281714","SARL_v6","SARL_v6n3lnbk9k","5c4353086ce36f0001205f65","freq","","","img/blue_2bandit_a2.png","70","","70","test","1","","78","","","","square","circle","75","11","4","0.84","","","","","","","",""
"null","282204","SARL_v6","SARL_v6n3lnbk9k","5c4353086ce36f0001205f65","freq_resp","","","img/blue_2bandit_a.png","70","img/blue_2bandit_a.png","70","test","","","","","","","","","","","4","","","","","","","","",""
"null","282364","SARL_v6","SARL_v6n3lnbk9k","5c4353086ce36f0001205f65","fixation","","","img/fixation.png","null","","","test","","","","","","","","","","","","","","","","","","","",""
"515.7000000476837","282886","SARL_v6","SARL_v6n3lnbk9k","5c4353086ce36f0001205f65","freq","","","img/blue_2bandit_a2.png","70","","70","test","1","","79","","","","square","circle","76","12","4","0.8421052631578947","","","","","","","",""
"null","283180","SARL_v6","SARL_v6n3lnbk9k","5c4353086ce36f0001205f65","freq_resp","","","img/blue_2bandit_a.png","70","img/blue_2bandit_a.png","70","test","","","","","","","","","","","4","","","","","","","","",""
"null","283340","SARL_v6","SARL_v6n3lnbk9k","5c4353086ce36f0001205f65","fixation","","","img/fixation.png","null","","","test","","","","","","","","","","","","","","","","","","","",""
"401","283748","SARL_v6","SARL_v6n3lnbk9k","5c4353086ce36f0001205f65","freq","","","img/blue_2bandit_a2.png","70","","70","test","1","","80","","","","square","circle","77","13","4","0.8441558441558441","","","","","","","",""
"null","284156","SARL_v6","SARL_v6n3lnbk9k","5c4353086ce36f0001205f65","freq_resp","","","img/blue_2bandit_a.png","70","img/blue_2bandit_a.png","70","test","","","","","","","","","","","4","","","","","","","","",""
"null","284316","SARL_v6","SARL_v6n3lnbk9k","5c4353086ce36f0001205f65","fixation","","","img/fixation.png","null","","","test","","","","","","","","","","","","","","","","","","","",""
"456","284779","SARL_v6","SARL_v6n3lnbk9k","5c4353086ce36f0001205f65","freq","","","img/blue_2bandit_a2.png","70","","70","test","1","","81","","","","square","circle","78","14","4","0.8461538461538461","","","","","","","",""
"null","285131","SARL_v6","SARL_v6n3lnbk9k","5c4353086ce36f0001205f65","freq_resp","","","img/blue_2bandit_a.png","70","img/blue_2bandit_a.png","70","test","","","","","","","","","","","4","","","","","","","","",""
"null","285291","SARL_v6","SARL_v6n3lnbk9k","5c4353086ce36f0001205f65","fixation","","","img/fixation.png","null","","","test","","","","","","","","","","","","","","","","","","","",""
"377.89999985694885","285677","SARL_v6","SARL_v6n3lnbk9k","5c4353086ce36f0001205f65","freq","","","img/blue_2bandit_a2.png","70","","70","test","1","","82","","","","square","circle","79","15","4","0.8481012658227848","","","","","","","",""
"null","286107","SARL_v6","SARL_v6n3lnbk9k","5c4353086ce36f0001205f65","freq_resp","","","img/blue_2bandit_a.png","70","img/blue_2bandit_a.png","70","test","","","","","","","","","","","4","","","","","","","","",""
"null","286267","SARL_v6","SARL_v6n3lnbk9k","5c4353086ce36f0001205f65","fixation","","","img/fixation.png","null","","","test","","","","","","","","","","","","","","","","","","","",""
"363.89999985694885","286637","SARL_v6","SARL_v6n3lnbk9k","5c4353086ce36f0001205f65","freq","","","img/blue_2bandit_a2.png","70","","70","test","1","","83","","","","square","circle","80","16","4","0.85","","","","","","","",""
"null","287083","SARL_v6","SARL_v6n3lnbk9k","5c4353086ce36f0001205f65","freq_resp","","","img/blue_2bandit_a.png","70","img/blue_2bandit_a.png","70","test","","","","","","","","","","","4","","","","","","","","",""
"null","287243","SARL_v6","SARL_v6n3lnbk9k","5c4353086ce36f0001205f65","fixation","","","img/fixation.png","null","","","test","","","","","","","","","","","","","","","","","","","",""
"337","287587","SARL_v6","SARL_v6n3lnbk9k","5c4353086ce36f0001205f65","freq","","","img/blue_2bandit_a2.png","70","","70","test","1","","84","","","","square","circle","81","17","4","0.8518518518518519","","","","","","","",""
"null","288059","SARL_v6","SARL_v6n3lnbk9k","5c4353086ce36f0001205f65","freq_resp","","","img/blue_2bandit_a.png","70","img/blue_2bandit_a.png","70","test","","","","","","","","","","","4","","","","","","","","",""
"null","288219","SARL_v6","SARL_v6n3lnbk9k","5c4353086ce36f0001205f65","fixation","","","img/fixation.png","null","","","test","","","","","","","","","","","","","","","","","","","",""
"436.5","288662","SARL_v6","SARL_v6n3lnbk9k","5c4353086ce36f0001205f65","infreq","","","img/orange_2bandit_a2.png","68","","68","test","1","","85","","","","square","circle","82","18","4","0.8536585365853658","","","","","","","",""
"null","289036","SARL_v6","SARL_v6n3lnbk9k","5c4353086ce36f0001205f65","infreq_resp","","","img/orange_2bandit_a.png","68","img/orange_2bandit_a.png","68","test","","","","","","","","","","","4","","","","","","","","",""
"null","289195","SARL_v6","SARL_v6n3lnbk9k","5c4353086ce36f0001205f65","fixation","","","img/fixation.png","null","","","test","","","","","","","","","","","","","","","","","","","",""
"377.40000009536743","289579","SARL_v6","SARL_v6n3lnbk9k","5c4353086ce36f0001205f65","freq","","","img/blue_2bandit_a2.png","70","","70","test","1","","86","","","","square","circle","83","19","4","0.8554216867469879","","","","","","","",""
"null","290012","SARL_v6","SARL_v6n3lnbk9k","5c4353086ce36f0001205f65","freq_resp","","","img/blue_2bandit_a.png","70","img/blue_2bandit_a.png","70","test","","","","","","","","","","","4","","","","","","","","",""
"null","290172","SARL_v6","SARL_v6n3lnbk9k","5c4353086ce36f0001205f65","fixation","","","img/fixation.png","null","","","test","","","","","","","","","","","","","","","","","","","",""
"533.4000000953674","290712","SARL_v6","SARL_v6n3lnbk9k","5c4353086ce36f0001205f65","rl","","","img/black_2bandit_a2.png","74","","0","test","","","87","","","0","square","circle","","0","4","","74","-12","0","0","-12","square","4","0"
"null","291476","SARL_v6","SARL_v6n3lnbk9k","5c4353086ce36f0001205f65","feedback","","","<div class=""verylowPoints_sq""> 0 </div>","null","","na","test","","","NaN","","","","","","","","4","","74","","","","","","4",""
"null","292292","SARL_v6","SARL_v6n3lnbk9k","5c4353086ce36f0001205f65","freq","","","img/blue_2bandit_a2.png","null","","70","test","0","","88","","","","square","circle","84","1","5","0.8452380952380952","","","","","","","",""
"null","292452","SARL_v6","SARL_v6n3lnbk9k","5c4353086ce36f0001205f65","fixation","","","img/fixation.png","null","","","test","","","","","","","","","","","","","","","","","","","",""
"676.4000000953674","293135","SARL_v6","SARL_v6n3lnbk9k","5c4353086ce36f0001205f65","freq","","","img/blue_2bandit_a2.png","70","","70","test","1","","89","","","","square","circle","85","2","5","0.8470588235294118","","","","","","","",""
"null","293268","SARL_v6","SARL_v6n3lnbk9k","5c4353086ce36f0001205f65","freq_resp","","","img/blue_2bandit_a.png","70","img/blue_2bandit_a.png","70","test","","","","","","","","","","","5","","","","","","","","",""
"null","293428","SARL_v6","SARL_v6n3lnbk9k","5c4353086ce36f0001205f65","fixation","","","img/fixation.png","null","","","test","","","","","","","","","","","","","","","","","","","",""
"498","293933","SARL_v6","SARL_v6n3lnbk9k","5c4353086ce36f0001205f65","freq","","","img/blue_2bandit_a2.png","70","","70","test","1","","90","","","","square","circle","86","3","5","0.8488372093023255","","","","","","","",""
"null","294243","SARL_v6","SARL_v6n3lnbk9k","5c4353086ce36f0001205f65","freq_resp","","","img/blue_2bandit_a.png","70","img/blue_2bandit_a.png","70","test","","","","","","","","","","","5","","","","","","","","",""
"null","294404","SARL_v6","SARL_v6n3lnbk9k","5c4353086ce36f0001205f65","fixation","","","img/fixation.png","null","","","test","","","","","","","","","","","","","","","","","","","",""
"456","294867","SARL_v6","SARL_v6n3lnbk9k","5c4353086ce36f0001205f65","infreq","","","img/orange_2bandit_a2.png","68","","68","test","1","","91","","","","square","circle","87","4","5","0.8505747126436781","","","","","","","",""
"null","295220","SARL_v6","SARL_v6n3lnbk9k","5c4353086ce36f0001205f65","infreq_resp","","","img/orange_2bandit_a.png","68","img/orange_2bandit_a.png","68","test","","","","","","","","","","","5","","","","","","","","",""
"null","295380","SARL_v6","SARL_v6n3lnbk9k","5c4353086ce36f0001205f65","fixation","","","img/fixation.png","null","","","test","","","","","","","","","","","","","","","","","","","",""
"412.59999990463257","295799","SARL_v6","SARL_v6n3lnbk9k","5c4353086ce36f0001205f65","freq","","","img/blue_2bandit_a2.png","70","","70","test","1","","92","","","","square","circle","88","5","5","0.8522727272727273","","","","","","","",""
"null","296195","SARL_v6","SARL_v6n3lnbk9k","5c4353086ce36f0001205f65","freq_resp","","","img/blue_2bandit_a.png","70","img/blue_2bandit_a.png","70","test","","","","","","","","","","","5","","","","","","","","",""
"null","296355","SARL_v6","SARL_v6n3lnbk9k","5c4353086ce36f0001205f65","fixation","","","img/fixation.png","null","","","test","","","","","","","","","","","","","","","","","","","",""
"434.09999990463257","296796","SARL_v6","SARL_v6n3lnbk9k","5c4353086ce36f0001205f65","infreq","","","img/orange_2bandit_a2.png","68","","68","test","1","","93","","","","square","circle","89","6","5","0.8539325842696629","","","","","","","",""
"null","297172","SARL_v6","SARL_v6n3lnbk9k","5c4353086ce36f0001205f65","infreq_resp","","","img/orange_2bandit_a.png","68","img/orange_2bandit_a.png","68","test","","","","","","","","","","","5","","","","","","","","",""
"null","297331","SARL_v6","SARL_v6n3lnbk9k","5c4353086ce36f0001205f65","fixation","","","img/fixation.png","null","","","test","","","","","","","","","","","","","","","","","","","",""
"497.19999980926514","297835","SARL_v6","SARL_v6n3lnbk9k","5c4353086ce36f0001205f65","freq","","","img/blue_2bandit_a2.png","70","","70","test","1","","94","","","","square","circle","90","7","5","0.8555555555555555","","","","","","","",""
"null","298149","SARL_v6","SARL_v6n3lnbk9k","5c4353086ce36f0001205f65","freq_resp","","","img/blue_2bandit_a.png","70","img/blue_2bandit_a.png","70","test","","","","","","","","","","","5","","","","","","","","",""
"null","298307","SARL_v6","SARL_v6n3lnbk9k","5c4353086ce36f0001205f65","fixation","","","img/fixation.png","null","","","test","","","","","","","","","","","","","","","","","","","",""
"344.09999990463257","298658","SARL_v6","SARL_v6n3lnbk9k","5c4353086ce36f0001205f65","freq","","","img/blue_2bandit_a2.png","70","","70","test","1","","95","","","","square","circle","91","8","5","0.8571428571428571","","","","","","","",""
"null","299124","SARL_v6","SARL_v6n3lnbk9k","5c4353086ce36f0001205f65","freq_resp","","","img/blue_2bandit_a.png","70","img/blue_2bandit_a.png","70","test","","","","","","","","","","","5","","","","","","","","",""
"null","299284","SARL_v6","SARL_v6n3lnbk9k","5c4353086ce36f0001205f65","fixation","","","img/fixation.png","null","","","test","","","","","","","","","","","","","","","","","","","",""
"354","299644","SARL_v6","SARL_v6n3lnbk9k","5c4353086ce36f0001205f65","freq","","","img/blue_2bandit_a2.png","70","","70","test","1","","96","","","","square","circle","92","9","5","0.8586956521739131","","","","","","","",""
"null","300100","SARL_v6","SARL_v6n3lnbk9k","5c4353086ce36f0001205f65","freq_resp","","","img/blue_2bandit_a.png","70","img/blue_2bandit_a.png","70","test","","","","","","","","","","","5","","","","","","","","",""
"null","300261","SARL_v6","SARL_v6n3lnbk9k","5c4353086ce36f0001205f65","fixation","","","img/fixation.png","null","","","test","","","","","","","","","","","","","","","","","","","",""
"126.90000009536743","300394","SARL_v6","SARL_v6n3lnbk9k","5c4353086ce36f0001205f65","freq","","","img/blue_2bandit_a2.png","70","","70","test","1","","97","","","","square","circle","93","10","5","0.8602150537634409","","","","","","","",""
"null","301075","SARL_v6","SARL_v6n3lnbk9k","5c4353086ce36f0001205f65","freq_resp","","","img/blue_2bandit_a.png","70","img/blue_2bandit_a.png","70","test","","","","","","","","","","","5","","","","","","","","",""
"null","301236","SARL_v6","SARL_v6n3lnbk9k","5c4353086ce36f0001205f65","fixation","","","img/fixation.png","null","","","test","","","","","","","","","","","","","","","","","","","",""
"198.5","301441","SARL_v6","SARL_v6n3lnbk9k","5c4353086ce36f0001205f65","freq","","","img/blue_2bandit_a2.png","70","","70","test","1","","98","","","","square","circle","94","11","5","0.8617021276595744","","","","","","","",""
"null","302052","SARL_v6","SARL_v6n3lnbk9k","5c4353086ce36f0001205f65","freq_resp","","","img/blue_2bandit_a.png","70","img/blue_2bandit_a.png","70","test","","","","","","","","","","","5","","","","","","","","",""
"null","302213","SARL_v6","SARL_v6n3lnbk9k","5c4353086ce36f0001205f65","fixation","","","img/fixation.png","null","","","test","","","","","","","","","","","","","","","","","","","",""
"277.2000000476837","302496","SARL_v6","SARL_v6n3lnbk9k","5c4353086ce36f0001205f65","freq","","","img/blue_2bandit_a2.png","70","","70","test","1","","99","","","","square","circle","95","12","5","0.8631578947368421","","","","","","","",""
"null","303027","SARL_v6","SARL_v6n3lnbk9k","5c4353086ce36f0001205f65","freq_resp","","","img/blue_2bandit_a.png","70","img/blue_2bandit_a.png","70","test","","","","","","","","","","","5","","","","","","","","",""
"null","303187","SARL_v6","SARL_v6n3lnbk9k","5c4353086ce36f0001205f65","fixation","","","img/fixation.png","null","","","test","","","","","","","","","","","","","","","","","","","",""
"318.7000000476837","303513","SARL_v6","SARL_v6n3lnbk9k","5c4353086ce36f0001205f65","freq","","","img/blue_2bandit_a2.png","70","","70","test","1","","100","","","","square","circle","96","13","5","0.8645833333333334","","","","","","","",""
"null","304003","SARL_v6","SARL_v6n3lnbk9k","5c4353086ce36f0001205f65","freq_resp","","","img/blue_2bandit_a.png","70","img/blue_2bandit_a.png","70","test","","","","","","","","","","","5","","","","","","","","",""
"null","304164","SARL_v6","SARL_v6n3lnbk9k","5c4353086ce36f0001205f65","fixation","","","img/fixation.png","null","","","test","","","","","","","","","","","","","","","","","","","",""
"226.29999995231628","304397","SARL_v6","SARL_v6n3lnbk9k","5c4353086ce36f0001205f65","freq","","","img/blue_2bandit_a2.png","70","","70","test","1","","101","","","","square","circle","97","14","5","0.865979381443299","","","","","","","",""
"null","304980","SARL_v6","SARL_v6n3lnbk9k","5c4353086ce36f0001205f65","freq_resp","","","img/blue_2bandit_a.png","70","img/blue_2bandit_a.png","70","test","","","","","","","","","","","5","","","","","","","","",""
"null","305139","SARL_v6","SARL_v6n3lnbk9k","5c4353086ce36f0001205f65","fixation","","","img/fixation.png","null","","","test","","","","","","","","","","","","","","","","","","","",""
"315.39999985694885","305461","SARL_v6","SARL_v6n3lnbk9k","5c4353086ce36f0001205f65","freq","","","img/blue_2bandit_a2.png","70","","70","test","1","","102","","","","square","circle","98","15","5","0.8673469387755102","","","","","","","",""
"null","305956","SARL_v6","SARL_v6n3lnbk9k","5c4353086ce36f0001205f65","freq_resp","","","img/blue_2bandit_a.png","70","img/blue_2bandit_a.png","70","test","","","","","","","","","","","5","","","","","","","","",""
"null","306115","SARL_v6","SARL_v6n3lnbk9k","5c4353086ce36f0001205f65","fixation","","","img/fixation.png","null","","","test","","","","","","","","","","","","","","","","","","","",""
"268.40000009536743","306391","SARL_v6","SARL_v6n3lnbk9k","5c4353086ce36f0001205f65","infreq","","","img/orange_2bandit_a2.png","70","","68","test","0","","103","","","","square","circle","99","16","5","0.8585858585858586","","","","","","","",""
"null","306932","SARL_v6","SARL_v6n3lnbk9k","5c4353086ce36f0001205f65","infreq_resp","","","img/orange_2bandit_a.png","70","img/orange_2bandit_a.png","68","test","","","","","","","","","","","5","","","","","","","","",""
"null","307092","SARL_v6","SARL_v6n3lnbk9k","5c4353086ce36f0001205f65","fixation","","","img/fixation.png","null","","","test","","","","","","","","","","","","","","","","","","","",""
"456.80000019073486","307555","SARL_v6","SARL_v6n3lnbk9k","5c4353086ce36f0001205f65","freq","","","img/blue_2bandit_a2.png","70","","70","test","1","","104","","","","square","circle","100","17","5","0.86","","","","","","","",""
"null","307908","SARL_v6","SARL_v6n3lnbk9k","5c4353086ce36f0001205f65","freq_resp","","","img/blue_2bandit_a.png","70","img/blue_2bandit_a.png","70","test","","","","","","","","","","","5","","","","","","","","",""
"null","308069","SARL_v6","SARL_v6n3lnbk9k","5c4353086ce36f0001205f65","fixation","","","img/fixation.png","null","","","test","","","","","","","","","","","","","","","","","","","",""
"425.5","308501","SARL_v6","SARL_v6n3lnbk9k","5c4353086ce36f0001205f65","freq","","","img/blue_2bandit_a2.png","70","","70","test","1","","105","","","","square","circle","101","18","5","0.8613861386138614","","","","","","","",""
"null","308883","SARL_v6","SARL_v6n3lnbk9k","5c4353086ce36f0001205f65","freq_resp","","","img/blue_2bandit_a.png","70","img/blue_2bandit_a.png","70","test","","","","","","","","","","","5","","","","","","","","",""
"null","309043","SARL_v6","SARL_v6n3lnbk9k","5c4353086ce36f0001205f65","fixation","","","img/fixation.png","null","","","test","","","","","","","","","","","","","","","","","","","",""
"353.40000009536743","309404","SARL_v6","SARL_v6n3lnbk9k","5c4353086ce36f0001205f65","freq","","","img/blue_2bandit_a2.png","70","","70","test","1","","106","","","","square","circle","102","19","5","0.8627450980392157","","","","","","","",""
"null","309859","SARL_v6","SARL_v6n3lnbk9k","5c4353086ce36f0001205f65","freq_resp","","","img/blue_2bandit_a.png","70","img/blue_2bandit_a.png","70","test","","","","","","","","","","","5","","","","","","","","",""
"null","310019","SARL_v6","SARL_v6n3lnbk9k","5c4353086ce36f0001205f65","fixation","","","img/fixation.png","null","","","test","","","","","","","","","","","","","","","","","","","",""
"312.10000014305115","310338","SARL_v6","SARL_v6n3lnbk9k","5c4353086ce36f0001205f65","freq","","","img/blue_2bandit_a2.png","70","","70","test","1","","107","","","","square","circle","103","20","5","0.8640776699029126","","","","","","","",""
"null","310835","SARL_v6","SARL_v6n3lnbk9k","5c4353086ce36f0001205f65","freq_resp","","","img/blue_2bandit_a.png","70","img/blue_2bandit_a.png","70","test","","","","","","","","","","","5","","","","","","","","",""
"null","310996","SARL_v6","SARL_v6n3lnbk9k","5c4353086ce36f0001205f65","fixation","","","img/fixation.png","null","","","test","","","","","","","","","","","","","","","","","","","",""
"372.59999990463257","311375","SARL_v6","SARL_v6n3lnbk9k","5c4353086ce36f0001205f65","freq","","","img/blue_2bandit_a2.png","70","","70","test","1","","108","","","","square","circle","104","21","5","0.8653846153846154","","","","","","","",""
"null","311811","SARL_v6","SARL_v6n3lnbk9k","5c4353086ce36f0001205f65","freq_resp","","","img/blue_2bandit_a.png","70","img/blue_2bandit_a.png","70","test","","","","","","","","","","","5","","","","","","","","",""
"null","311972","SARL_v6","SARL_v6n3lnbk9k","5c4353086ce36f0001205f65","fixation","","","img/fixation.png","null","","","test","","","","","","","","","","","","","","","","","","","",""
"332.2000000476837","312310","SARL_v6","SARL_v6n3lnbk9k","5c4353086ce36f0001205f65","freq","","","img/blue_2bandit_a2.png","70","","70","test","1","","109","","","","square","circle","105","22","5","0.8666666666666667","","","","","","","",""
"null","312788","SARL_v6","SARL_v6n3lnbk9k","5c4353086ce36f0001205f65","freq_resp","","","img/blue_2bandit_a.png","70","img/blue_2bandit_a.png","70","test","","","","","","","","","","","5","","","","","","","","",""
"null","312947","SARL_v6","SARL_v6n3lnbk9k","5c4353086ce36f0001205f65","fixation","","","img/fixation.png","null","","","test","","","","","","","","","","","","","","","","","","","",""
"347.40000009536743","313301","SARL_v6","SARL_v6n3lnbk9k","5c4353086ce36f0001205f65","freq","","","img/blue_2bandit_a2.png","70","","70","test","1","","110","","","","square","circle","106","23","5","0.8679245283018868","","","","","","","",""
"null","313766","SARL_v6","SARL_v6n3lnbk9k","5c4353086ce36f0001205f65","freq_resp","","","img/blue_2bandit_a.png","70","img/blue_2bandit_a.png","70","test","","","","","","","","","","","5","","","","","","","","",""
"null","313924","SARL_v6","SARL_v6n3lnbk9k","5c4353086ce36f0001205f65","fixation","","","img/fixation.png","null","","","test","","","","","","","","","","","","","","","","","","","",""
"389.10000014305115","314319","SARL_v6","SARL_v6n3lnbk9k","5c4353086ce36f0001205f65","freq","","","img/blue_2bandit_a2.png","70","","70","test","1","","111","","","","square","circle","107","24","5","0.8691588785046729","","","","","","","",""
"null","314740","SARL_v6","SARL_v6n3lnbk9k","5c4353086ce36f0001205f65","freq_resp","","","img/blue_2bandit_a.png","70","img/blue_2bandit_a.png","70","test","","","","","","","","","","","5","","","","","","","","",""
"null","314900","SARL_v6","SARL_v6n3lnbk9k","5c4353086ce36f0001205f65","fixation","","","img/fixation.png","null","","","test","","","","","","","","","","","","","","","","","","","",""
"348.7999999523163","315255","SARL_v6","SARL_v6n3lnbk9k","5c4353086ce36f0001205f65","freq","","","img/blue_2bandit_a2.png","70","","70","test","1","","112","","","","square","circle","108","25","5","0.8703703703703703","","","","","","","",""
"null","315715","SARL_v6","SARL_v6n3lnbk9k","5c4353086ce36f0001205f65","freq_resp","","","img/blue_2bandit_a.png","70","img/blue_2bandit_a.png","70","test","","","","","","","","","","","5","","","","","","","","",""
"null","315876","SARL_v6","SARL_v6n3lnbk9k","5c4353086ce36f0001205f65","fixation","","","img/fixation.png","null","","","test","","","","","","","","","","","","","","","","","","","",""
"550.5999999046326","316433","SARL_v6","SARL_v6n3lnbk9k","5c4353086ce36f0001205f65","rl","","","img/black_2bandit_a2.png","75","","0","test","","","113","","","-7","square","circle","","0","5","","75","-7","4","4","-7","circle","5","0"
"null","317196","SARL_v6","SARL_v6n3lnbk9k","5c4353086ce36f0001205f65","feedback","","","<div class=""verylowPoints""> -7 </div>","null","","na","test","","","NaN","","","","","","","","5","","75","","","","","","5",""
"490.2999999523163","317693","SARL_v6","SARL_v6n3lnbk9k","5c4353086ce36f0001205f65","freq","","","img/blue_2bandit_a2.png","70","","70","test","1","","114","","","","square","circle","109","1","6","0.8715596330275229","","","","","","","",""
"null","318012","SARL_v6","SARL_v6n3lnbk9k","5c4353086ce36f0001205f65","freq_resp","","","img/blue_2bandit_a.png","70","img/blue_2bandit_a.png","70","test","","","","","","","","","","","6","","","","","","","","",""
"null","318172","SARL_v6","SARL_v6n3lnbk9k","5c4353086ce36f0001205f65","fixation","","","img/fixation.png","null","","","test","","","","","","","","","","","","","","","","","","","",""
"693.7999999523163","318872","SARL_v6","SARL_v6n3lnbk9k","5c4353086ce36f0001205f65","infreq","","","img/orange_2bandit_a2.png","68","","68","test","1","","115","","","","square","circle","110","2","6","0.8727272727272727","","","","","","","",""
"null","318988","SARL_v6","SARL_v6n3lnbk9k","5c4353086ce36f0001205f65","infreq_resp","","","img/orange_2bandit_a.png","68","img/orange_2bandit_a.png","68","test","","","","","","","","","","","6","","","","","","","","",""
"null","319150","SARL_v6","SARL_v6n3lnbk9k","5c4353086ce36f0001205f65","fixation","","","img/fixation.png","null","","","test","","","","","","","","","","","","","","","","","","","",""
"571.9000000953674","319728","SARL_v6","SARL_v6n3lnbk9k","5c4353086ce36f0001205f65","infreq","","","img/orange_2bandit_a2.png","68","","68","test","1","","116","","","","square","circle","111","3","6","0.8738738738738738","","","","","","","",""
"null","319964","SARL_v6","SARL_v6n3lnbk9k","5c4353086ce36f0001205f65","infreq_resp","","","img/orange_2bandit_a.png","68","img/orange_2bandit_a.png","68","test","","","","","","","","","","","6","","","","","","","","",""
"null","320124","SARL_v6","SARL_v6n3lnbk9k","5c4353086ce36f0001205f65","fixation","","","img/fixation.png","null","","","test","","","","","","","","","","","","","","","","","","","",""
"640.6999998092651","320771","SARL_v6","SARL_v6n3lnbk9k","5c4353086ce36f0001205f65","freq","","","img/blue_2bandit_a2.png","70","","70","test","1","","117","","","","square","circle","112","4","6","0.875","","","","","","","",""
"null","320940","SARL_v6","SARL_v6n3lnbk9k","5c4353086ce36f0001205f65","freq_resp","","","img/blue_2bandit_a.png","70","img/blue_2bandit_a.png","70","test","","","","","","","","","","","6","","","","","","","","",""
"null","321099","SARL_v6","SARL_v6n3lnbk9k","5c4353086ce36f0001205f65","fixation","","","img/fixation.png","null","","","test","","","","","","","","","","","","","","","","","","","",""
"null","321907","SARL_v6","SARL_v6n3lnbk9k","5c4353086ce36f0001205f65","freq","","","img/blue_2bandit_a2.png","null","","70","test","0","","118","","","","square","circle","113","5","6","0.8672566371681416","","","","","","","",""
"null","322067","SARL_v6","SARL_v6n3lnbk9k","5c4353086ce36f0001205f65","fixation","","","img/fixation.png","null","","","test","","","","","","","","","","","","","","","","","","","",""
"722.8999998569489","322797","SARL_v6","SARL_v6n3lnbk9k","5c4353086ce36f0001205f65","freq","","","img/blue_2bandit_a2.png","70","","70","test","1","","119","","","","square","circle","114","6","6","0.868421052631579","","","","","","","",""
"null","322883","SARL_v6","SARL_v6n3lnbk9k","5c4353086ce36f0001205f65","freq_resp","","","img/blue_2bandit_a.png","70","img/blue_2bandit_a.png","70","test","","","","","","","","","","","6","","","","","","","","",""
"null","323044","SARL_v6","SARL_v6n3lnbk9k","5c4353086ce36f0001205f65","fixation","","","img/fixation.png","null","","","test","","","","","","","","","","","","","","","","","","","",""
"407.7999999523163","323458","SARL_v6","SARL_v6n3lnbk9k","5c4353086ce36f0001205f65","freq","","","img/blue_2bandit_a2.png","70","","70","test","1","","120","","","","square","circle","115","7","6","0.8695652173913043","","","","","","","",""
"null","323860","SARL_v6","SARL_v6n3lnbk9k","5c4353086ce36f0001205f65","freq_resp","","","img/blue_2bandit_a.png","70","img/blue_2bandit_a.png","70","test","","","","","","","","","","","6","","","","","","","","",""
"null","324020","SARL_v6","SARL_v6n3lnbk9k","5c4353086ce36f0001205f65","fixation","","","img/fixation.png","null","","","test","","","","","","","","","","","","","","","","","","","",""
"403.10000014305115","324429","SARL_v6","SARL_v6n3lnbk9k","5c4353086ce36f0001205f65","freq","","","img/blue_2bandit_a2.png","70","","70","test","1","","121","","","","square","circle","116","8","6","0.8706896551724138","","","","","","","",""
"null","324836","SARL_v6","SARL_v6n3lnbk9k","5c4353086ce36f0001205f65","freq_resp","","","img/blue_2bandit_a.png","70","img/blue_2bandit_a.png","70","test","","","","","","","","","","","6","","","","","","","","",""
"null","324996","SARL_v6","SARL_v6n3lnbk9k","5c4353086ce36f0001205f65","fixation","","","img/fixation.png","null","","","test","","","","","","","","","","","","","","","","","","","",""
"378.5","325380","SARL_v6","SARL_v6n3lnbk9k","5c4353086ce36f0001205f65","freq","","","img/blue_2bandit_a2.png","70","","70","test","1","","122","","","","square","circle","117","9","6","0.8717948717948718","","","","","","","",""
"null","325811","SARL_v6","SARL_v6n3lnbk9k","5c4353086ce36f0001205f65","freq_resp","","","img/blue_2bandit_a.png","70","img/blue_2bandit_a.png","70","test","","","","","","","","","","","6","","","","","","","","",""
"null","325971","SARL_v6","SARL_v6n3lnbk9k","5c4353086ce36f0001205f65","fixation","","","img/fixation.png","null","","","test","","","","","","","","","","","","","","","","","","","",""
"197.59999990463257","326176","SARL_v6","SARL_v6n3lnbk9k","5c4353086ce36f0001205f65","freq","","","img/blue_2bandit_a2.png","70","","70","test","1","","123","","","","square","circle","118","10","6","0.8728813559322034","","","","","","","",""
"null","326788","SARL_v6","SARL_v6n3lnbk9k","5c4353086ce36f0001205f65","freq_resp","","","img/blue_2bandit_a.png","70","img/blue_2bandit_a.png","70","test","","","","","","","","","","","6","","","","","","","","",""
"null","326947","SARL_v6","SARL_v6n3lnbk9k","5c4353086ce36f0001205f65","fixation","","","img/fixation.png","null","","","test","","","","","","","","","","","","","","","","","","","",""
"192.79999995231628","327146","SARL_v6","SARL_v6n3lnbk9k","5c4353086ce36f0001205f65","freq","","","img/blue_2bandit_a2.png","70","","70","test","1","","124","","","","square","circle","119","11","6","0.8739495798319328","","","","","","","",""
"null","327763","SARL_v6","SARL_v6n3lnbk9k","5c4353086ce36f0001205f65","freq_resp","","","img/blue_2bandit_a.png","70","img/blue_2bandit_a.png","70","test","","","","","","","","","","","6","","","","","","","","",""
"null","327923","SARL_v6","SARL_v6n3lnbk9k","5c4353086ce36f0001205f65","fixation","","","img/fixation.png","null","","","test","","","","","","","","","","","","","","","","","","","",""
"307.60000014305115","328237","SARL_v6","SARL_v6n3lnbk9k","5c4353086ce36f0001205f65","freq","","","img/blue_2bandit_a2.png","70","","70","test","1","","125","","","","square","circle","120","12","6","0.875","","","","","","","",""
"null","328739","SARL_v6","SARL_v6n3lnbk9k","5c4353086ce36f0001205f65","freq_resp","","","img/blue_2bandit_a.png","70","img/blue_2bandit_a.png","70","test","","","","","","","","","","","6","","","","","","","","",""
"null","328899","SARL_v6","SARL_v6n3lnbk9k","5c4353086ce36f0001205f65","fixation","","","img/fixation.png","null","","","test","","","","","","","","","","","","","","","","","","","",""
"291.59999990463257","329197","SARL_v6","SARL_v6n3lnbk9k","5c4353086ce36f0001205f65","freq","","","img/blue_2bandit_a2.png","70","","70","test","1","","126","","","","square","circle","121","13","6","0.8760330578512396","","","","","","","",""
"null","329716","SARL_v6","SARL_v6n3lnbk9k","5c4353086ce36f0001205f65","freq_resp","","","img/blue_2bandit_a.png","70","img/blue_2bandit_a.png","70","test","","","","","","","","","","","6","","","","","","","","",""
"null","329875","SARL_v6","SARL_v6n3lnbk9k","5c4353086ce36f0001205f65","fixation","","","img/fixation.png","null","","","test","","","","","","","","","","","","","","","","","","","",""
"271.09999990463257","330154","SARL_v6","SARL_v6n3lnbk9k","5c4353086ce36f0001205f65","freq","","","img/blue_2bandit_a2.png","70","","70","test","1","","127","","","","square","circle","122","14","6","0.8770491803278688","","","","","","","",""
"null","330691","SARL_v6","SARL_v6n3lnbk9k","5c4353086ce36f0001205f65","freq_resp","","","img/blue_2bandit_a.png","70","img/blue_2bandit_a.png","70","test","","","","","","","","","","","6","","","","","","","","",""
"null","330852","SARL_v6","SARL_v6n3lnbk9k","5c4353086ce36f0001205f65","fixation","","","img/fixation.png","null","","","test","","","","","","","","","","","","","","","","","","","",""
"320","331179","SARL_v6","SARL_v6n3lnbk9k","5c4353086ce36f0001205f65","freq","","","img/blue_2bandit_a2.png","70","","70","test","1","","128","","","","square","circle","123","15","6","0.8780487804878049","","","","","","","",""
"null","331668","SARL_v6","SARL_v6n3lnbk9k","5c4353086ce36f0001205f65","freq_resp","","","img/blue_2bandit_a.png","70","img/blue_2bandit_a.png","70","test","","","","","","","","","","","6","","","","","","","","",""
"null","331828","SARL_v6","SARL_v6n3lnbk9k","5c4353086ce36f0001205f65","fixation","","","img/fixation.png","null","","","test","","","","","","","","","","","","","","","","","","","",""
"289.59999990463257","332124","SARL_v6","SARL_v6n3lnbk9k","5c4353086ce36f0001205f65","freq","","","img/blue_2bandit_a2.png","70","","70","test","1","","129","","","","square","circle","124","16","6","0.8790322580645161","","","","","","","",""
"null","332643","SARL_v6","SARL_v6n3lnbk9k","5c4353086ce36f0001205f65","freq_resp","","","img/blue_2bandit_a.png","70","img/blue_2bandit_a.png","70","test","","","","","","","","","","","6","","","","","","","","",""
"null","332803","SARL_v6","SARL_v6n3lnbk9k","5c4353086ce36f0001205f65","fixation","","","img/fixation.png","null","","","test","","","","","","","","","","","","","","","","","","","",""
"281.5","333091","SARL_v6","SARL_v6n3lnbk9k","5c4353086ce36f0001205f65","freq","","","img/blue_2bandit_a2.png","70","","70","test","1","","130","","","","square","circle","125","17","6","0.88","","","","","","","",""
"null","333619","SARL_v6","SARL_v6n3lnbk9k","5c4353086ce36f0001205f65","freq_resp","","","img/blue_2bandit_a.png","70","img/blue_2bandit_a.png","70","test","","","","","","","","","","","6","","","","","","","","",""
"null","333779","SARL_v6","SARL_v6n3lnbk9k","5c4353086ce36f0001205f65","fixation","","","img/fixation.png","null","","","test","","","","","","","","","","","","","","","","","","","",""
"309.2999999523163","334095","SARL_v6","SARL_v6n3lnbk9k","5c4353086ce36f0001205f65","freq","","","img/blue_2bandit_a2.png","70","","70","test","1","","131","","","","square","circle","126","18","6","0.8809523809523809","","","","","","","",""
"null","334596","SARL_v6","SARL_v6n3lnbk9k","5c4353086ce36f0001205f65","freq_resp","","","img/blue_2bandit_a.png","70","img/blue_2bandit_a.png","70","test","","","","","","","","","","","6","","","","","","","","",""
"null","334756","SARL_v6","SARL_v6n3lnbk9k","5c4353086ce36f0001205f65","fixation","","","img/fixation.png","null","","","test","","","","","","","","","","","","","","","","","","","",""
"260.2000000476837","335023","SARL_v6","SARL_v6n3lnbk9k","5c4353086ce36f0001205f65","freq","","","img/blue_2bandit_a2.png","70","","70","test","1","","132","","","","square","circle","127","19","6","0.8818897637795275","","","","","","","",""
"null","335571","SARL_v6","SARL_v6n3lnbk9k","5c4353086ce36f0001205f65","freq_resp","","","img/blue_2bandit_a.png","70","img/blue_2bandit_a.png","70","test","","","","","","","","","","","6","","","","","","","","",""
"null","335732","SARL_v6","SARL_v6n3lnbk9k","5c4353086ce36f0001205f65","fixation","","","img/fixation.png","null","","","test","","","","","","","","","","","","","","","","","","","",""
