"rt","time_elapsed","expId","subject","prolificID","trialType","rlType","attType","stimulus","key_press","stim","corrresp","phase","corr","pracCounter","trialNum","rewardOne","rewardTwo","reward","bandOne","bandTwo","attentionNum","attentionRunNum","blockNum","performance","bandChosen","circleVal","squareVal","bandOneVal","bandTwoVal","shapeChosen","rlNum","badFlag"
"12061.599999904633","12064","SARL_v6","SARL_v6sfzv6hyf","59dc458f77860e000151240e","","","","","","","","","","","","","","","","","","","","","","","","","","","",""
"","14621","SARL_v6","SARL_v6sfzv6hyf","59dc458f77860e000151240e","fullscreen","fullscreen","fullscreen","","","","","","","","","","","","","","","","","","","","","","","","",""
"75075.09999990463","89698","SARL_v6","SARL_v6sfzv6hyf","59dc458f77860e000151240e","","","","","","","","","","","","","","","","","","","","","","","","","","","",""
"null","90503","SARL_v6","SARL_v6sfzv6hyf","59dc458f77860e000151240e","freqPrac","","","img/blue_2bandit_b2.png","null","img/blue_2bandit_b2.png","70","prac","0","1","","","","","","","","","","","","","","","","","",""
"null","91514","SARL_v6","SARL_v6sfzv6hyf","59dc458f77860e000151240e","feedback","","","img/tooSlow.png","null","","na","prac","","","","","","","","","","","","","","","","","","","",""
"null","91666","SARL_v6","SARL_v6sfzv6hyf","59dc458f77860e000151240e","fixation","","","img/fixation.png","null","","","prac","","","","","","","","","","","","","","","","","","","",""
"471.5","92141","SARL_v6","SARL_v6sfzv6hyf","59dc458f77860e000151240e","infreqPrac","","","img/orange_2bandit_b2.png","68","img/orange_2bandit_b2.png","68","prac","1","1","","","","","","","","","","","","","","","","","",""
"471.5","92485","SARL_v6","SARL_v6sfzv6hyf","59dc458f77860e000151240e","infreqPrac_resp","","","img/orange_2bandit_b.png","68","img/orange_2bandit_b.png","68","prac","","","","","","","","","","","","","","","","","","","",""
"null","92638","SARL_v6","SARL_v6sfzv6hyf","59dc458f77860e000151240e","fixation","","","img/fixation.png","null","","","prac","","","","","","","","","","","","","","","","","","","",""
"474.59999990463257","93115","SARL_v6","SARL_v6sfzv6hyf","59dc458f77860e000151240e","freqPrac","","","img/blue_2bandit_b2.png","70","img/blue_2bandit_b2.png","70","prac","1","1","","","","","","","","","","","","","","","","","",""
"474.59999990463257","93444","SARL_v6","SARL_v6sfzv6hyf","59dc458f77860e000151240e","freqPrac_resp","","","img/blue_2bandit_b.png","70","img/blue_2bandit_b.png","70","prac","","","","","","","","","","","","","","","","","","","",""
"null","93596","SARL_v6","SARL_v6sfzv6hyf","59dc458f77860e000151240e","fixation","","","img/fixation.png","null","","","prac","","","","","","","","","","","","","","","","","","","",""
"525.8000001907349","94125","SARL_v6","SARL_v6sfzv6hyf","59dc458f77860e000151240e","infreqPrac","","","img/orange_2bandit_b2.png","68","img/orange_2bandit_b2.png","68","prac","1","1","","","","","","","","","","","","","","","","","",""
"525.8000001907349","94408","SARL_v6","SARL_v6sfzv6hyf","59dc458f77860e000151240e","infreqPrac_resp","","","img/orange_2bandit_b.png","68","img/orange_2bandit_b.png","68","prac","","","","","","","","","","","","","","","","","","","",""
"null","94561","SARL_v6","SARL_v6sfzv6hyf","59dc458f77860e000151240e","fixation","","","img/fixation.png","null","","","prac","","","","","","","","","","","","","","","","","","","",""
"616.0999999046326","95179","SARL_v6","SARL_v6sfzv6hyf","59dc458f77860e000151240e","infreqPrac","","","img/orange_2bandit_b2.png","68","img/orange_2bandit_b2.png","68","prac","1","1","","","","","","","","","","","","","","","","","",""
"616.0999999046326","95367","SARL_v6","SARL_v6sfzv6hyf","59dc458f77860e000151240e","infreqPrac_resp","","","img/orange_2bandit_b.png","68","img/orange_2bandit_b.png","68","prac","","","","","","","","","","","","","","","","","","","",""
"null","95525","SARL_v6","SARL_v6sfzv6hyf","59dc458f77860e000151240e","fixation","","","img/fixation.png","null","","","prac","","","","","","","","","","","","","","","","","","","",""
"404.7000002861023","95932","SARL_v6","SARL_v6sfzv6hyf","59dc458f77860e000151240e","infreqPrac","","","img/orange_2bandit_b2.png","68","img/orange_2bandit_b2.png","68","prac","1","1","","","","","","","","","","","","","","","","","",""
"404.7000002861023","96342","SARL_v6","SARL_v6sfzv6hyf","59dc458f77860e000151240e","infreqPrac_resp","","","img/orange_2bandit_b.png","68","img/orange_2bandit_b.png","68","prac","","","","","","","","","","","","","","","","","","","",""
"null","96498","SARL_v6","SARL_v6sfzv6hyf","59dc458f77860e000151240e","fixation","","","img/fixation.png","null","","","prac","","","","","","","","","","","","","","","","","","","",""
"327.90000009536743","96828","SARL_v6","SARL_v6sfzv6hyf","59dc458f77860e000151240e","freqPrac","","","img/blue_2bandit_b2.png","70","img/blue_2bandit_b2.png","70","prac","1","1","","","","","","","","","","","","","","","","","",""
"327.90000009536743","97314","SARL_v6","SARL_v6sfzv6hyf","59dc458f77860e000151240e","freqPrac_resp","","","img/blue_2bandit_b.png","70","img/blue_2bandit_b.png","70","prac","","","","","","","","","","","","","","","","","","","",""
"null","97467","SARL_v6","SARL_v6sfzv6hyf","59dc458f77860e000151240e","fixation","","","img/fixation.png","null","","","prac","","","","","","","","","","","","","","","","","","","",""
"366.69999980926514","97835","SARL_v6","SARL_v6sfzv6hyf","59dc458f77860e000151240e","infreqPrac","","","img/orange_2bandit_b2.png","68","img/orange_2bandit_b2.png","68","prac","1","1","","","","","","","","","","","","","","","","","",""
"366.69999980926514","98283","SARL_v6","SARL_v6sfzv6hyf","59dc458f77860e000151240e","infreqPrac_resp","","","img/orange_2bandit_b.png","68","img/orange_2bandit_b.png","68","prac","","","","","","","","","","","","","","","","","","","",""
"null","98435","SARL_v6","SARL_v6sfzv6hyf","59dc458f77860e000151240e","fixation","","","img/fixation.png","null","","","prac","","","","","","","","","","","","","","","","","","","",""
"334.2999997138977","98771","SARL_v6","SARL_v6sfzv6hyf","59dc458f77860e000151240e","freqPrac","","","img/blue_2bandit_b2.png","70","img/blue_2bandit_b2.png","70","prac","1","1","","","","","","","","","","","","","","","","","",""
"334.2999997138977","99248","SARL_v6","SARL_v6sfzv6hyf","59dc458f77860e000151240e","freqPrac_resp","","","img/blue_2bandit_b.png","70","img/blue_2bandit_b.png","70","prac","","","","","","","","","","","","","","","","","","","",""
"null","99401","SARL_v6","SARL_v6sfzv6hyf","59dc458f77860e000151240e","fixation","","","img/fixation.png","null","","","prac","","","","","","","","","","","","","","","","","","","",""
"400.2999997138977","99803","SARL_v6","SARL_v6sfzv6hyf","59dc458f77860e000151240e","freqPrac","","","img/blue_2bandit_b2.png","70","img/blue_2bandit_b2.png","70","prac","1","1","","","","","","","","","","","","","","","","","",""
"400.2999997138977","100215","SARL_v6","SARL_v6sfzv6hyf","59dc458f77860e000151240e","freqPrac_resp","","","img/blue_2bandit_b.png","70","img/blue_2bandit_b.png","70","prac","","","","","","","","","","","","","","","","","","","",""
"null","100373","SARL_v6","SARL_v6sfzv6hyf","59dc458f77860e000151240e","fixation","","","img/fixation.png","null","","","prac","","","","","","","","","","","","","","","","","","","",""
"25900","126275","SARL_v6","SARL_v6sfzv6hyf","59dc458f77860e000151240e","","","","","","","","prac","","","","","","","","","","","","","","","","","","","",""
"637.3999996185303","126915","SARL_v6","SARL_v6sfzv6hyf","59dc458f77860e000151240e","rlPractice","","","img/black_2bandit_b2.png","74","img/black_2bandit_b2.png","","prac","","","0","","","","","","","","","","","","","","","","",""
"null","127683","SARL_v6","SARL_v6sfzv6hyf","59dc458f77860e000151240e","feedback","","","<div class=""veryhighPoints""> 10 </div>","null","","na","prac","","","1","10","-14","10","","","","","","","","","","","","","",""
"null","127841","SARL_v6","SARL_v6sfzv6hyf","59dc458f77860e000151240e","fixation","","","img/fixation.png","null","","","prac","","","","","","","","","","","","","","","","","","","",""
"558.4000000953674","128402","SARL_v6","SARL_v6sfzv6hyf","59dc458f77860e000151240e","rlPractice","","","img/black_2bandit_b2.png","74","img/black_2bandit_b2.png","","prac","","","1","","","","","","","","","","","","","","","","",""
"null","129170","SARL_v6","SARL_v6sfzv6hyf","59dc458f77860e000151240e","feedback","","","<div class=""veryhighPoints""> 5 </div>","null","","na","prac","","","2","5","-5","5","","","","","","","","","","","","","",""
"null","129328","SARL_v6","SARL_v6sfzv6hyf","59dc458f77860e000151240e","fixation","","","img/fixation.png","null","","","prac","","","","","","","","","","","","","","","","","","","",""
"512.1999998092651","129842","SARL_v6","SARL_v6sfzv6hyf","59dc458f77860e000151240e","rlPractice","","","img/black_2bandit_b2.png","74","img/black_2bandit_b2.png","","prac","","","2","","","","","","","","","","","","","","","","",""
"null","130595","SARL_v6","SARL_v6sfzv6hyf","59dc458f77860e000151240e","feedback","","","<div class=""veryhighPoints""> 30 </div>","null","","na","prac","","","3","30","2","30","","","","","","","","","","","","","",""
"null","130751","SARL_v6","SARL_v6sfzv6hyf","59dc458f77860e000151240e","fixation","","","img/fixation.png","null","","","prac","","","","","","","","","","","","","","","","","","","",""
"448.6000003814697","131202","SARL_v6","SARL_v6sfzv6hyf","59dc458f77860e000151240e","rlPractice","","","img/black_2bandit_b2.png","74","img/black_2bandit_b2.png","","prac","","","3","","","","","","","","","","","","","","","","",""
"null","131964","SARL_v6","SARL_v6sfzv6hyf","59dc458f77860e000151240e","feedback","","","<div class=""verylowPoints""> -2 </div>","null","","na","prac","","","4","-2","20","-2","","","","","","","","","","","","","",""
"null","132120","SARL_v6","SARL_v6sfzv6hyf","59dc458f77860e000151240e","fixation","","","img/fixation.png","null","","","prac","","","","","","","","","","","","","","","","","","","",""
"11024.599999904633","143147","SARL_v6","SARL_v6sfzv6hyf","59dc458f77860e000151240e","","","","","","","","prac","","","","","","","","","","","","","","","","","","","",""
"740.7999997138977","143890","SARL_v6","SARL_v6sfzv6hyf","59dc458f77860e000151240e","mixAttFreqPrac","","","img/blue_2bandit_b2.png","70","img/blue_2bandit_b2.png","70","prac","","","1","","","","","","","","","","","","","","","","",""
"740.7999997138977","143954","SARL_v6","SARL_v6sfzv6hyf","59dc458f77860e000151240e","freqPrac_resp","","","img/blue_2bandit_b.png","70","img/blue_2bandit_b.png","70","prac","","","1","","","","","","","","","","","","","","","","",""
"null","144109","SARL_v6","SARL_v6sfzv6hyf","59dc458f77860e000151240e","fixation","","","img/fixation.png","null","","","prac","","","","","","","","","","","","","","","","","","","",""
"522.0999999046326","144633","SARL_v6","SARL_v6sfzv6hyf","59dc458f77860e000151240e","mixAttInfreqPrac","","","img/orange_2bandit_b2.png","68","img/orange_2bandit_b2.png","68","prac","","","2","","","","","","","","","","","","","","","","",""
"522.0999999046326","144923","SARL_v6","SARL_v6sfzv6hyf","59dc458f77860e000151240e","infreqPrac_resp","","","img/orange_2bandit_b.png","68","img/blue_2bandit_b.png","68","prac","","","2","","","","","","","","","","","","","","","","",""
"null","145075","SARL_v6","SARL_v6sfzv6hyf","59dc458f77860e000151240e","fixation","","","img/fixation.png","null","","","prac","","","","","","","","","","","","","","","","","","","",""
"596.9000000953674","145675","SARL_v6","SARL_v6sfzv6hyf","59dc458f77860e000151240e","mixAttInfreqPrac","","","img/orange_2bandit_b2.png","68","img/orange_2bandit_b2.png","68","prac","","","3","","","","","","","","","","","","","","","","",""
"596.9000000953674","145896","SARL_v6","SARL_v6sfzv6hyf","59dc458f77860e000151240e","infreqPrac_resp","","","img/orange_2bandit_b.png","68","img/blue_2bandit_b.png","68","prac","","","3","","","","","","","","","","","","","","","","",""
"null","146048","SARL_v6","SARL_v6sfzv6hyf","59dc458f77860e000151240e","fixation","","","img/fixation.png","null","","","prac","","","","","","","","","","","","","","","","","","","",""
"358.90000009536743","146409","SARL_v6","SARL_v6sfzv6hyf","59dc458f77860e000151240e","mixAttInfreqPrac","","","img/orange_2bandit_b2.png","68","img/orange_2bandit_b2.png","68","prac","","","4","","","","","","","","","","","","","","","","",""
"358.90000009536743","146863","SARL_v6","SARL_v6sfzv6hyf","59dc458f77860e000151240e","infreqPrac_resp","","","img/orange_2bandit_b.png","68","img/blue_2bandit_b.png","68","prac","","","4","","","","","","","","","","","","","","","","",""
"null","147016","SARL_v6","SARL_v6sfzv6hyf","59dc458f77860e000151240e","fixation","","","img/fixation.png","null","","","prac","","","","","","","","","","","","","","","","","","","",""
"335.19999980926514","147354","SARL_v6","SARL_v6sfzv6hyf","59dc458f77860e000151240e","mixAttFreqPrac","","","img/blue_2bandit_b2.png","68","img/blue_2bandit_b2.png","70","prac","","","5","","","","","","","","","","","","","","","","",""
"335.19999980926514","147830","SARL_v6","SARL_v6sfzv6hyf","59dc458f77860e000151240e","freqPrac_resp","","","img/blue_2bandit_b.png","68","img/blue_2bandit_b.png","70","prac","","","5","","","","","","","","","","","","","","","","",""
"null","147987","SARL_v6","SARL_v6sfzv6hyf","59dc458f77860e000151240e","fixation","","","img/fixation.png","null","","","prac","","","","","","","","","","","","","","","","","","","",""
"830.2999997138977","148820","SARL_v6","SARL_v6sfzv6hyf","59dc458f77860e000151240e","mixRLPractice","","","img/black_2bandit_b2.png","75","img/black_2bandit_b2.png","","prac","","","5","","","","","","","","","","","","","","","","",""
"null","149580","SARL_v6","SARL_v6sfzv6hyf","59dc458f77860e000151240e","feedback","","","<div class=""veryhighPoints_sq""> 10 </div>","null","","na","prac","","","6","-14","10","-14","","","","","","","","","","","","","",""
"null","149736","SARL_v6","SARL_v6sfzv6hyf","59dc458f77860e000151240e","fixation","","","img/fixation.png","null","","","prac","","","","","","","","","","","","","","","","","","","",""
"727.0999999046326","150465","SARL_v6","SARL_v6sfzv6hyf","59dc458f77860e000151240e","mixAttFreqPrac","","","img/blue_2bandit_b2.png","70","img/blue_2bandit_b2.png","70","prac","","","7","","","","","","","","","","","","","","","","",""
"727.0999999046326","150550","SARL_v6","SARL_v6sfzv6hyf","59dc458f77860e000151240e","freqPrac_resp","","","img/blue_2bandit_b.png","70","img/blue_2bandit_b.png","70","prac","","","7","","","","","","","","","","","","","","","","",""
"null","150706","SARL_v6","SARL_v6sfzv6hyf","59dc458f77860e000151240e","fixation","","","img/fixation.png","null","","","prac","","","","","","","","","","","","","","","","","","","",""
"533.3000001907349","151241","SARL_v6","SARL_v6sfzv6hyf","59dc458f77860e000151240e","mixAttInfreqPrac","","","img/orange_2bandit_b2.png","68","img/orange_2bandit_b2.png","68","prac","","","8","","","","","","","","","","","","","","","","",""
"533.3000001907349","151518","SARL_v6","SARL_v6sfzv6hyf","59dc458f77860e000151240e","infreqPrac_resp","","","img/orange_2bandit_b.png","68","img/blue_2bandit_b.png","68","prac","","","8","","","","","","","","","","","","","","","","",""
"null","151671","SARL_v6","SARL_v6sfzv6hyf","59dc458f77860e000151240e","fixation","","","img/fixation.png","null","","","prac","","","","","","","","","","","","","","","","","","","",""
"424.30000019073486","152097","SARL_v6","SARL_v6sfzv6hyf","59dc458f77860e000151240e","mixAttFreqPrac","","","img/blue_2bandit_b2.png","70","img/blue_2bandit_b2.png","70","prac","","","9","","","","","","","","","","","","","","","","",""
"424.30000019073486","152485","SARL_v6","SARL_v6sfzv6hyf","59dc458f77860e000151240e","freqPrac_resp","","","img/blue_2bandit_b.png","70","img/blue_2bandit_b.png","70","prac","","","9","","","","","","","","","","","","","","","","",""
"null","152641","SARL_v6","SARL_v6sfzv6hyf","59dc458f77860e000151240e","fixation","","","img/fixation.png","null","","","prac","","","","","","","","","","","","","","","","","","","",""
"326.59999990463257","152970","SARL_v6","SARL_v6sfzv6hyf","59dc458f77860e000151240e","mixAttFreqPrac","","","img/blue_2bandit_b2.png","70","img/blue_2bandit_b2.png","70","prac","","","10","","","","","","","","","","","","","","","","",""
"326.59999990463257","153453","SARL_v6","SARL_v6sfzv6hyf","59dc458f77860e000151240e","freqPrac_resp","","","img/blue_2bandit_b.png","70","img/blue_2bandit_b.png","70","prac","","","10","","","","","","","","","","","","","","","","",""
"null","153608","SARL_v6","SARL_v6sfzv6hyf","59dc458f77860e000151240e","fixation","","","img/fixation.png","null","","","prac","","","","","","","","","","","","","","","","","","","",""
"375.3999996185303","153986","SARL_v6","SARL_v6sfzv6hyf","59dc458f77860e000151240e","mixAttInfreqPrac","","","img/orange_2bandit_b2.png","68","img/orange_2bandit_b2.png","68","prac","","","11","","","","","","","","","","","","","","","","",""
"375.3999996185303","154423","SARL_v6","SARL_v6sfzv6hyf","59dc458f77860e000151240e","infreqPrac_resp","","","img/orange_2bandit_b.png","68","img/blue_2bandit_b.png","68","prac","","","11","","","","","","","","","","","","","","","","",""
"null","154577","SARL_v6","SARL_v6sfzv6hyf","59dc458f77860e000151240e","fixation","","","img/fixation.png","null","","","prac","","","","","","","","","","","","","","","","","","","",""
"495.19999980926514","155074","SARL_v6","SARL_v6sfzv6hyf","59dc458f77860e000151240e","mixRLPractice","","","img/black_2bandit_b2.png","75","img/black_2bandit_b2.png","","prac","","","11","","","","","","","","","","","","","","","","",""
"null","155831","SARL_v6","SARL_v6sfzv6hyf","59dc458f77860e000151240e","feedback","","","<div class=""verylowPoints_sq""> -5 </div>","null","","na","prac","","","12","5","-5","5","","","","","","","","","","","","","",""
"null","155988","SARL_v6","SARL_v6sfzv6hyf","59dc458f77860e000151240e","fixation","","","img/fixation.png","null","","","prac","","","","","","","","","","","","","","","","","","","",""
"3906.8999996185303","159897","SARL_v6","SARL_v6sfzv6hyf","59dc458f77860e000151240e","","","","","","","","prac","","","","","","","","","","","","","","","","","","","",""
"null","160706","SARL_v6","SARL_v6sfzv6hyf","59dc458f77860e000151240e","freq","","","img/blue_2bandit_b2.png","null","","70","test","0","","1","","","","circle","square","1","1","1","0","","","","","","","",""
"null","160859","SARL_v6","SARL_v6sfzv6hyf","59dc458f77860e000151240e","fixation","","","img/fixation.png","null","","","test","","","","","","","","","","","","","","","","","","","",""
"524.4000000953674","161385","SARL_v6","SARL_v6sfzv6hyf","59dc458f77860e000151240e","freq","","","img/blue_2bandit_b2.png","70","","70","test","1","","2","","","","circle","square","2","2","1","0.5","","","","","","","",""
"null","161675","SARL_v6","SARL_v6sfzv6hyf","59dc458f77860e000151240e","freq_resp","","","img/blue_2bandit_b.png","70","img/blue_2bandit_b.png","70","test","","","","","","","","","","","1","","","","","","","","",""
"null","161828","SARL_v6","SARL_v6sfzv6hyf","59dc458f77860e000151240e","fixation","","","img/fixation.png","null","","","test","","","","","","","","","","","","","","","","","","","",""
"317.40000009536743","162147","SARL_v6","SARL_v6sfzv6hyf","59dc458f77860e000151240e","freq","","","img/blue_2bandit_b2.png","70","","70","test","1","","3","","","","circle","square","3","3","1","0.6666666666666666","","","","","","","",""
"null","162633","SARL_v6","SARL_v6sfzv6hyf","59dc458f77860e000151240e","freq_resp","","","img/blue_2bandit_b.png","70","img/blue_2bandit_b.png","70","test","","","","","","","","","","","1","","","","","","","","",""
"null","162786","SARL_v6","SARL_v6sfzv6hyf","59dc458f77860e000151240e","fixation","","","img/fixation.png","null","","","test","","","","","","","","","","","","","","","","","","","",""
"324.90000009536743","163113","SARL_v6","SARL_v6sfzv6hyf","59dc458f77860e000151240e","freq","","","img/blue_2bandit_b2.png","70","","70","test","1","","4","","","","circle","square","4","4","1","0.75","","","","","","","",""
"null","163595","SARL_v6","SARL_v6sfzv6hyf","59dc458f77860e000151240e","freq_resp","","","img/blue_2bandit_b.png","70","img/blue_2bandit_b.png","70","test","","","","","","","","","","","1","","","","","","","","",""
"null","163747","SARL_v6","SARL_v6sfzv6hyf","59dc458f77860e000151240e","fixation","","","img/fixation.png","null","","","test","","","","","","","","","","","","","","","","","","","",""
"283.80000019073486","164033","SARL_v6","SARL_v6sfzv6hyf","59dc458f77860e000151240e","freq","","","img/blue_2bandit_b2.png","70","","70","test","1","","5","","","","circle","square","5","5","1","0.8","","","","","","","",""
"null","164564","SARL_v6","SARL_v6sfzv6hyf","59dc458f77860e000151240e","freq_resp","","","img/blue_2bandit_b.png","70","img/blue_2bandit_b.png","70","test","","","","","","","","","","","1","","","","","","","","",""
"null","164716","SARL_v6","SARL_v6sfzv6hyf","59dc458f77860e000151240e","fixation","","","img/fixation.png","null","","","test","","","","","","","","","","","","","","","","","","","",""
"306.40000009536743","165025","SARL_v6","SARL_v6sfzv6hyf","59dc458f77860e000151240e","freq","","","img/blue_2bandit_b2.png","70","","70","test","1","","6","","","","circle","square","6","6","1","0.8333333333333334","","","","","","","",""
"null","165524","SARL_v6","SARL_v6sfzv6hyf","59dc458f77860e000151240e","freq_resp","","","img/blue_2bandit_b.png","70","img/blue_2bandit_b.png","70","test","","","","","","","","","","","1","","","","","","","","",""
"null","165677","SARL_v6","SARL_v6sfzv6hyf","59dc458f77860e000151240e","fixation","","","img/fixation.png","null","","","test","","","","","","","","","","","","","","","","","","","",""
"226.09999990463257","165906","SARL_v6","SARL_v6sfzv6hyf","59dc458f77860e000151240e","freq","","","img/blue_2bandit_b2.png","70","","70","test","1","","7","","","","circle","square","7","7","1","0.8571428571428571","","","","","","","",""
"null","166496","SARL_v6","SARL_v6sfzv6hyf","59dc458f77860e000151240e","freq_resp","","","img/blue_2bandit_b.png","70","img/blue_2bandit_b.png","70","test","","","","","","","","","","","1","","","","","","","","",""
"null","166649","SARL_v6","SARL_v6sfzv6hyf","59dc458f77860e000151240e","fixation","","","img/fixation.png","null","","","test","","","","","","","","","","","","","","","","","","","",""
"278.30000019073486","166929","SARL_v6","SARL_v6sfzv6hyf","59dc458f77860e000151240e","freq","","","img/blue_2bandit_b2.png","70","","70","test","1","","8","","","","circle","square","8","8","1","0.875","","","","","","","",""
"null","167455","SARL_v6","SARL_v6sfzv6hyf","59dc458f77860e000151240e","freq_resp","","","img/blue_2bandit_b.png","70","img/blue_2bandit_b.png","70","test","","","","","","","","","","","1","","","","","","","","",""
"null","167610","SARL_v6","SARL_v6sfzv6hyf","59dc458f77860e000151240e","fixation","","","img/fixation.png","null","","","test","","","","","","","","","","","","","","","","","","","",""
"292.5","167905","SARL_v6","SARL_v6sfzv6hyf","59dc458f77860e000151240e","freq","","","img/blue_2bandit_b2.png","70","","70","test","1","","9","","","","circle","square","9","9","1","0.8888888888888888","","","","","","","",""
"null","168423","SARL_v6","SARL_v6sfzv6hyf","59dc458f77860e000151240e","freq_resp","","","img/blue_2bandit_b.png","70","img/blue_2bandit_b.png","70","test","","","","","","","","","","","1","","","","","","","","",""
"null","168577","SARL_v6","SARL_v6sfzv6hyf","59dc458f77860e000151240e","fixation","","","img/fixation.png","null","","","test","","","","","","","","","","","","","","","","","","","",""
"373.80000019073486","168954","SARL_v6","SARL_v6sfzv6hyf","59dc458f77860e000151240e","infreq","","","img/orange_2bandit_b2.png","68","","68","test","1","","10","","","","circle","square","10","10","1","0.9","","","","","","","",""
"null","169390","SARL_v6","SARL_v6sfzv6hyf","59dc458f77860e000151240e","infreq_resp","","","img/orange_2bandit_b.png","68","img/orange_2bandit_b.png","68","test","","","","","","","","","","","1","","","","","","","","",""
"null","169546","SARL_v6","SARL_v6sfzv6hyf","59dc458f77860e000151240e","fixation","","","img/fixation.png","null","","","test","","","","","","","","","","","","","","","","","","","",""
"348.80000019073486","169897","SARL_v6","SARL_v6sfzv6hyf","59dc458f77860e000151240e","freq","","","img/blue_2bandit_b2.png","70","","70","test","1","","11","","","","circle","square","11","11","1","0.9090909090909091","","","","","","","",""
"null","170361","SARL_v6","SARL_v6sfzv6hyf","59dc458f77860e000151240e","freq_resp","","","img/blue_2bandit_b.png","70","img/blue_2bandit_b.png","70","test","","","","","","","","","","","1","","","","","","","","",""
"null","170514","SARL_v6","SARL_v6sfzv6hyf","59dc458f77860e000151240e","fixation","","","img/fixation.png","null","","","test","","","","","","","","","","","","","","","","","","","",""
"308.80000019073486","170825","SARL_v6","SARL_v6sfzv6hyf","59dc458f77860e000151240e","freq","","","img/blue_2bandit_b2.png","70","","70","test","1","","12","","","","circle","square","12","12","1","0.9166666666666666","","","","","","","",""
"null","171322","SARL_v6","SARL_v6sfzv6hyf","59dc458f77860e000151240e","freq_resp","","","img/blue_2bandit_b.png","70","img/blue_2bandit_b.png","70","test","","","","","","","","","","","1","","","","","","","","",""
"null","171474","SARL_v6","SARL_v6sfzv6hyf","59dc458f77860e000151240e","fixation","","","img/fixation.png","null","","","test","","","","","","","","","","","","","","","","","","","",""
"276.59999990463257","171754","SARL_v6","SARL_v6sfzv6hyf","59dc458f77860e000151240e","freq","","","img/blue_2bandit_b2.png","70","","70","test","1","","13","","","","circle","square","13","13","1","0.9230769230769231","","","","","","","",""
"null","172291","SARL_v6","SARL_v6sfzv6hyf","59dc458f77860e000151240e","freq_resp","","","img/blue_2bandit_b.png","70","img/blue_2bandit_b.png","70","test","","","","","","","","","","","1","","","","","","","","",""
"null","172448","SARL_v6","SARL_v6sfzv6hyf","59dc458f77860e000151240e","fixation","","","img/fixation.png","null","","","test","","","","","","","","","","","","","","","","","","","",""
"263.09999990463257","172713","SARL_v6","SARL_v6sfzv6hyf","59dc458f77860e000151240e","infreq","","","img/orange_2bandit_b2.png","70","","68","test","0","","14","","","","circle","square","14","14","1","0.8571428571428571","","","","","","","",""
"null","173257","SARL_v6","SARL_v6sfzv6hyf","59dc458f77860e000151240e","infreq_resp","","","img/orange_2bandit_b.png","70","img/orange_2bandit_b.png","68","test","","","","","","","","","","","1","","","","","","","","",""
"null","173414","SARL_v6","SARL_v6sfzv6hyf","59dc458f77860e000151240e","fixation","","","img/fixation.png","null","","","test","","","","","","","","","","","","","","","","","","","",""
"551.9000000953674","173970","SARL_v6","SARL_v6sfzv6hyf","59dc458f77860e000151240e","freq","","","img/blue_2bandit_b2.png","70","","70","test","1","","15","","","","circle","square","15","15","1","0.8666666666666667","","","","","","","",""
"null","174228","SARL_v6","SARL_v6sfzv6hyf","59dc458f77860e000151240e","freq_resp","","","img/blue_2bandit_b.png","70","img/blue_2bandit_b.png","70","test","","","","","","","","","","","1","","","","","","","","",""
"null","174380","SARL_v6","SARL_v6sfzv6hyf","59dc458f77860e000151240e","fixation","","","img/fixation.png","null","","","test","","","","","","","","","","","","","","","","","","","",""
"467.5","174850","SARL_v6","SARL_v6sfzv6hyf","59dc458f77860e000151240e","freq","","","img/blue_2bandit_b2.png","70","","70","test","1","","16","","","","circle","square","16","16","1","0.875","","","","","","","",""
"null","175185","SARL_v6","SARL_v6sfzv6hyf","59dc458f77860e000151240e","freq_resp","","","img/blue_2bandit_b.png","70","img/blue_2bandit_b.png","70","test","","","","","","","","","","","1","","","","","","","","",""
"null","175344","SARL_v6","SARL_v6sfzv6hyf","59dc458f77860e000151240e","fixation","","","img/fixation.png","null","","","test","","","","","","","","","","","","","","","","","","","",""
"359.69999980926514","175706","SARL_v6","SARL_v6sfzv6hyf","59dc458f77860e000151240e","freq","","","img/blue_2bandit_b2.png","70","","70","test","1","","17","","","","circle","square","17","17","1","0.8823529411764706","","","","","","","",""
"null","176154","SARL_v6","SARL_v6sfzv6hyf","59dc458f77860e000151240e","freq_resp","","","img/blue_2bandit_b.png","70","img/blue_2bandit_b.png","70","test","","","","","","","","","","","1","","","","","","","","",""
"null","176310","SARL_v6","SARL_v6sfzv6hyf","59dc458f77860e000151240e","fixation","","","img/fixation.png","null","","","test","","","","","","","","","","","","","","","","","","","",""
"280.7999997138977","176593","SARL_v6","SARL_v6sfzv6hyf","59dc458f77860e000151240e","freq","","","img/blue_2bandit_b2.png","70","","70","test","1","","18","","","","circle","square","18","18","1","0.8888888888888888","","","","","","","",""
"null","177118","SARL_v6","SARL_v6sfzv6hyf","59dc458f77860e000151240e","freq_resp","","","img/blue_2bandit_b.png","70","img/blue_2bandit_b.png","70","test","","","","","","","","","","","1","","","","","","","","",""
"null","177272","SARL_v6","SARL_v6sfzv6hyf","59dc458f77860e000151240e","fixation","","","img/fixation.png","null","","","test","","","","","","","","","","","","","","","","","","","",""
"310.59999990463257","177585","SARL_v6","SARL_v6sfzv6hyf","59dc458f77860e000151240e","freq","","","img/blue_2bandit_b2.png","70","","70","test","1","","19","","","","circle","square","19","19","1","0.8947368421052632","","","","","","","",""
"null","178090","SARL_v6","SARL_v6sfzv6hyf","59dc458f77860e000151240e","freq_resp","","","img/blue_2bandit_b.png","70","img/blue_2bandit_b.png","70","test","","","","","","","","","","","1","","","","","","","","",""
"null","178244","SARL_v6","SARL_v6sfzv6hyf","59dc458f77860e000151240e","fixation","","","img/fixation.png","null","","","test","","","","","","","","","","","","","","","","","","","",""
"315.40000009536743","178561","SARL_v6","SARL_v6sfzv6hyf","59dc458f77860e000151240e","freq","","","img/blue_2bandit_b2.png","70","","70","test","1","","20","","","","circle","square","20","20","1","0.9","","","","","","","",""
"null","179049","SARL_v6","SARL_v6sfzv6hyf","59dc458f77860e000151240e","freq_resp","","","img/blue_2bandit_b.png","70","img/blue_2bandit_b.png","70","test","","","","","","","","","","","1","","","","","","","","",""
"null","179202","SARL_v6","SARL_v6sfzv6hyf","59dc458f77860e000151240e","fixation","","","img/fixation.png","null","","","test","","","","","","","","","","","","","","","","","","","",""
"261.5","179466","SARL_v6","SARL_v6sfzv6hyf","59dc458f77860e000151240e","freq","","","img/blue_2bandit_b2.png","70","","70","test","1","","21","","","","circle","square","21","21","1","0.9047619047619048","","","","","","","",""
"null","180021","SARL_v6","SARL_v6sfzv6hyf","59dc458f77860e000151240e","freq_resp","","","img/blue_2bandit_b.png","70","img/blue_2bandit_b.png","70","test","","","","","","","","","","","1","","","","","","","","",""
"null","180173","SARL_v6","SARL_v6sfzv6hyf","59dc458f77860e000151240e","fixation","","","img/fixation.png","null","","","test","","","","","","","","","","","","","","","","","","","",""
"738","180913","SARL_v6","SARL_v6sfzv6hyf","59dc458f77860e000151240e","rl","","","img/black_2bandit_b2.png","75","","0","test","","","22","","","-3","circle","square","","0","1","","75","-3","-3","-3","-3","square","1","0"
"null","181673","SARL_v6","SARL_v6sfzv6hyf","59dc458f77860e000151240e","feedback","","","<div class=""verylowPoints_sq""> -3 </div>","null","","na","test","","","NaN","","","","","","","","1","","75","","","","","","1",""
"670.8000001907349","182346","SARL_v6","SARL_v6sfzv6hyf","59dc458f77860e000151240e","freq","","","img/blue_2bandit_b2.png","70","","70","test","1","","23","","","","circle","square","22","1","2","0.9090909090909091","","","","","","","",""
"null","182481","SARL_v6","SARL_v6sfzv6hyf","59dc458f77860e000151240e","freq_resp","","","img/blue_2bandit_b.png","70","img/blue_2bandit_b.png","70","test","","","","","","","","","","","2","","","","","","","","",""
"null","182647","SARL_v6","SARL_v6sfzv6hyf","59dc458f77860e000151240e","fixation","","","img/fixation.png","null","","","test","","","","","","","","","","","","","","","","","","","",""
"368.30000019073486","183017","SARL_v6","SARL_v6sfzv6hyf","59dc458f77860e000151240e","freq","","","img/blue_2bandit_b2.png","70","","70","test","1","","24","","","","circle","square","23","2","2","0.9130434782608695","","","","","","","",""
"null","183460","SARL_v6","SARL_v6sfzv6hyf","59dc458f77860e000151240e","freq_resp","","","img/blue_2bandit_b.png","70","img/blue_2bandit_b.png","70","test","","","","","","","","","","","2","","","","","","","","",""
"null","183612","SARL_v6","SARL_v6sfzv6hyf","59dc458f77860e000151240e","fixation","","","img/fixation.png","null","","","test","","","","","","","","","","","","","","","","","","","",""
"322.5","183937","SARL_v6","SARL_v6sfzv6hyf","59dc458f77860e000151240e","freq","","","img/blue_2bandit_b2.png","70","","70","test","1","","25","","","","circle","square","24","3","2","0.9166666666666666","","","","","","","",""
"null","184429","SARL_v6","SARL_v6sfzv6hyf","59dc458f77860e000151240e","freq_resp","","","img/blue_2bandit_b.png","70","img/blue_2bandit_b.png","70","test","","","","","","","","","","","2","","","","","","","","",""
"null","184583","SARL_v6","SARL_v6sfzv6hyf","59dc458f77860e000151240e","fixation","","","img/fixation.png","null","","","test","","","","","","","","","","","","","","","","","","","",""
"145","184730","SARL_v6","SARL_v6sfzv6hyf","59dc458f77860e000151240e","freq","","","img/blue_2bandit_b2.png","70","","70","test","1","","26","","","","circle","square","25","4","2","0.92","","","","","","","",""
"null","185397","SARL_v6","SARL_v6sfzv6hyf","59dc458f77860e000151240e","freq_resp","","","img/blue_2bandit_b.png","70","img/blue_2bandit_b.png","70","test","","","","","","","","","","","2","","","","","","","","",""
"null","185550","SARL_v6","SARL_v6sfzv6hyf","59dc458f77860e000151240e","fixation","","","img/fixation.png","null","","","test","","","","","","","","","","","","","","","","","","","",""
"377.40000009536743","185929","SARL_v6","SARL_v6sfzv6hyf","59dc458f77860e000151240e","freq","","","img/blue_2bandit_b2.png","70","","70","test","1","","27","","","","circle","square","26","5","2","0.9230769230769231","","","","","","","",""
"null","186362","SARL_v6","SARL_v6sfzv6hyf","59dc458f77860e000151240e","freq_resp","","","img/blue_2bandit_b.png","70","img/blue_2bandit_b.png","70","test","","","","","","","","","","","2","","","","","","","","",""
"null","186517","SARL_v6","SARL_v6sfzv6hyf","59dc458f77860e000151240e","fixation","","","img/fixation.png","null","","","test","","","","","","","","","","","","","","","","","","","",""
"298","186817","SARL_v6","SARL_v6sfzv6hyf","59dc458f77860e000151240e","freq","","","img/blue_2bandit_b2.png","70","","70","test","1","","28","","","","circle","square","27","6","2","0.9259259259259259","","","","","","","",""
"null","187330","SARL_v6","SARL_v6sfzv6hyf","59dc458f77860e000151240e","freq_resp","","","img/blue_2bandit_b.png","70","img/blue_2bandit_b.png","70","test","","","","","","","","","","","2","","","","","","","","",""
"null","187489","SARL_v6","SARL_v6sfzv6hyf","59dc458f77860e000151240e","fixation","","","img/fixation.png","null","","","test","","","","","","","","","","","","","","","","","","","",""
"294.09999990463257","187785","SARL_v6","SARL_v6sfzv6hyf","59dc458f77860e000151240e","freq","","","img/blue_2bandit_b2.png","70","","70","test","1","","29","","","","circle","square","28","7","2","0.9285714285714286","","","","","","","",""
"null","188303","SARL_v6","SARL_v6sfzv6hyf","59dc458f77860e000151240e","freq_resp","","","img/blue_2bandit_b.png","70","img/blue_2bandit_b.png","70","test","","","","","","","","","","","2","","","","","","","","",""
"null","188455","SARL_v6","SARL_v6sfzv6hyf","59dc458f77860e000151240e","fixation","","","img/fixation.png","null","","","test","","","","","","","","","","","","","","","","","","","",""
"303.7000002861023","188761","SARL_v6","SARL_v6sfzv6hyf","59dc458f77860e000151240e","freq","","","img/blue_2bandit_b2.png","70","","70","test","1","","30","","","","circle","square","29","8","2","0.9310344827586207","","","","","","","",""
"null","189272","SARL_v6","SARL_v6sfzv6hyf","59dc458f77860e000151240e","freq_resp","","","img/blue_2bandit_b.png","70","img/blue_2bandit_b.png","70","test","","","","","","","","","","","2","","","","","","","","",""
"null","189425","SARL_v6","SARL_v6sfzv6hyf","59dc458f77860e000151240e","fixation","","","img/fixation.png","null","","","test","","","","","","","","","","","","","","","","","","","",""
"245.90000009536743","189673","SARL_v6","SARL_v6sfzv6hyf","59dc458f77860e000151240e","freq","","","img/blue_2bandit_b2.png","70","","70","test","1","","31","","","","circle","square","30","9","2","0.9333333333333333","","","","","","","",""
"null","190240","SARL_v6","SARL_v6sfzv6hyf","59dc458f77860e000151240e","freq_resp","","","img/blue_2bandit_b.png","70","img/blue_2bandit_b.png","70","test","","","","","","","","","","","2","","","","","","","","",""
"null","190392","SARL_v6","SARL_v6sfzv6hyf","59dc458f77860e000151240e","fixation","","","img/fixation.png","null","","","test","","","","","","","","","","","","","","","","","","","",""
"462.8999996185303","190857","SARL_v6","SARL_v6sfzv6hyf","59dc458f77860e000151240e","infreq","","","img/orange_2bandit_b2.png","68","","68","test","1","","32","","","","circle","square","31","10","2","0.9354838709677419","","","","","","","",""
"null","191203","SARL_v6","SARL_v6sfzv6hyf","59dc458f77860e000151240e","infreq_resp","","","img/orange_2bandit_b.png","68","img/orange_2bandit_b.png","68","test","","","","","","","","","","","2","","","","","","","","",""
"null","191359","SARL_v6","SARL_v6sfzv6hyf","59dc458f77860e000151240e","fixation","","","img/fixation.png","null","","","test","","","","","","","","","","","","","","","","","","","",""
"431.40000009536743","191793","SARL_v6","SARL_v6sfzv6hyf","59dc458f77860e000151240e","freq","","","img/blue_2bandit_b2.png","70","","70","test","1","","33","","","","circle","square","32","11","2","0.9375","","","","","","","",""
"null","192175","SARL_v6","SARL_v6sfzv6hyf","59dc458f77860e000151240e","freq_resp","","","img/blue_2bandit_b.png","70","img/blue_2bandit_b.png","70","test","","","","","","","","","","","2","","","","","","","","",""
"null","192332","SARL_v6","SARL_v6sfzv6hyf","59dc458f77860e000151240e","fixation","","","img/fixation.png","null","","","test","","","","","","","","","","","","","","","","","","","",""
"355.59999990463257","192690","SARL_v6","SARL_v6sfzv6hyf","59dc458f77860e000151240e","freq","","","img/blue_2bandit_b2.png","70","","70","test","1","","34","","","","circle","square","33","12","2","0.9393939393939394","","","","","","","",""
"null","193146","SARL_v6","SARL_v6sfzv6hyf","59dc458f77860e000151240e","freq_resp","","","img/blue_2bandit_b.png","70","img/blue_2bandit_b.png","70","test","","","","","","","","","","","2","","","","","","","","",""
"null","193300","SARL_v6","SARL_v6sfzv6hyf","59dc458f77860e000151240e","fixation","","","img/fixation.png","null","","","test","","","","","","","","","","","","","","","","","","","",""
"403.5","193706","SARL_v6","SARL_v6sfzv6hyf","59dc458f77860e000151240e","infreq","","","img/orange_2bandit_b2.png","68","","68","test","1","","35","","","","circle","square","34","13","2","0.9411764705882353","","","","","","","",""
"null","194113","SARL_v6","SARL_v6sfzv6hyf","59dc458f77860e000151240e","infreq_resp","","","img/orange_2bandit_b.png","68","img/orange_2bandit_b.png","68","test","","","","","","","","","","","2","","","","","","","","",""
"null","194272","SARL_v6","SARL_v6sfzv6hyf","59dc458f77860e000151240e","fixation","","","img/fixation.png","null","","","test","","","","","","","","","","","","","","","","","","","",""
"351.09999990463257","194626","SARL_v6","SARL_v6sfzv6hyf","59dc458f77860e000151240e","freq","","","img/blue_2bandit_b2.png","70","","70","test","1","","36","","","","circle","square","35","14","2","0.9428571428571428","","","","","","","",""
"null","195087","SARL_v6","SARL_v6sfzv6hyf","59dc458f77860e000151240e","freq_resp","","","img/blue_2bandit_b.png","70","img/blue_2bandit_b.png","70","test","","","","","","","","","","","2","","","","","","","","",""
"null","195240","SARL_v6","SARL_v6sfzv6hyf","59dc458f77860e000151240e","fixation","","","img/fixation.png","null","","","test","","","","","","","","","","","","","","","","","","","",""
"303.59999990463257","195546","SARL_v6","SARL_v6sfzv6hyf","59dc458f77860e000151240e","freq","","","img/blue_2bandit_b2.png","70","","70","test","1","","37","","","","circle","square","36","15","2","0.9444444444444444","","","","","","","",""
"null","196059","SARL_v6","SARL_v6sfzv6hyf","59dc458f77860e000151240e","freq_resp","","","img/blue_2bandit_b.png","70","img/blue_2bandit_b.png","70","test","","","","","","","","","","","2","","","","","","","","",""
"null","196212","SARL_v6","SARL_v6sfzv6hyf","59dc458f77860e000151240e","fixation","","","img/fixation.png","null","","","test","","","","","","","","","","","","","","","","","","","",""
"275.90000009536743","196489","SARL_v6","SARL_v6sfzv6hyf","59dc458f77860e000151240e","freq","","","img/blue_2bandit_b2.png","70","","70","test","1","","38","","","","circle","square","37","16","2","0.9459459459459459","","","","","","","",""
"null","197030","SARL_v6","SARL_v6sfzv6hyf","59dc458f77860e000151240e","freq_resp","","","img/blue_2bandit_b.png","70","img/blue_2bandit_b.png","70","test","","","","","","","","","","","2","","","","","","","","",""
"null","197186","SARL_v6","SARL_v6sfzv6hyf","59dc458f77860e000151240e","fixation","","","img/fixation.png","null","","","test","","","","","","","","","","","","","","","","","","","",""
"317.2999997138977","197505","SARL_v6","SARL_v6sfzv6hyf","59dc458f77860e000151240e","freq","","","img/blue_2bandit_b2.png","70","","70","test","1","","39","","","","circle","square","38","17","2","0.9473684210526315","","","","","","","",""
"null","197998","SARL_v6","SARL_v6sfzv6hyf","59dc458f77860e000151240e","freq_resp","","","img/blue_2bandit_b.png","70","img/blue_2bandit_b.png","70","test","","","","","","","","","","","2","","","","","","","","",""
"null","198156","SARL_v6","SARL_v6sfzv6hyf","59dc458f77860e000151240e","fixation","","","img/fixation.png","null","","","test","","","","","","","","","","","","","","","","","","","",""
"306.69999980926514","198465","SARL_v6","SARL_v6sfzv6hyf","59dc458f77860e000151240e","freq","","","img/blue_2bandit_b2.png","70","","70","test","1","","40","","","","circle","square","39","18","2","0.9487179487179487","","","","","","","",""
"null","198969","SARL_v6","SARL_v6sfzv6hyf","59dc458f77860e000151240e","freq_resp","","","img/blue_2bandit_b.png","70","img/blue_2bandit_b.png","70","test","","","","","","","","","","","2","","","","","","","","",""
"null","199125","SARL_v6","SARL_v6sfzv6hyf","59dc458f77860e000151240e","fixation","","","img/fixation.png","null","","","test","","","","","","","","","","","","","","","","","","","",""
"241.09999990463257","199369","SARL_v6","SARL_v6sfzv6hyf","59dc458f77860e000151240e","infreq","","","img/orange_2bandit_b2.png","70","","68","test","0","","41","","","","circle","square","40","19","2","0.925","","","","","","","",""
"null","199938","SARL_v6","SARL_v6sfzv6hyf","59dc458f77860e000151240e","infreq_resp","","","img/orange_2bandit_b.png","70","img/orange_2bandit_b.png","68","test","","","","","","","","","","","2","","","","","","","","",""
"null","200091","SARL_v6","SARL_v6sfzv6hyf","59dc458f77860e000151240e","fixation","","","img/fixation.png","null","","","test","","","","","","","","","","","","","","","","","","","",""
"491.80000019073486","200584","SARL_v6","SARL_v6sfzv6hyf","59dc458f77860e000151240e","freq","","","img/blue_2bandit_b2.png","70","","70","test","1","","42","","","","circle","square","41","20","2","0.926829268292683","","","","","","","",""
"null","200910","SARL_v6","SARL_v6sfzv6hyf","59dc458f77860e000151240e","freq_resp","","","img/blue_2bandit_b.png","70","img/blue_2bandit_b.png","70","test","","","","","","","","","","","2","","","","","","","","",""
"null","201063","SARL_v6","SARL_v6sfzv6hyf","59dc458f77860e000151240e","fixation","","","img/fixation.png","null","","","test","","","","","","","","","","","","","","","","","","","",""
"367.7000002861023","201432","SARL_v6","SARL_v6sfzv6hyf","59dc458f77860e000151240e","freq","","","img/blue_2bandit_b2.png","70","","70","test","1","","43","","","","circle","square","42","21","2","0.9285714285714286","","","","","","","",""
"null","201873","SARL_v6","SARL_v6sfzv6hyf","59dc458f77860e000151240e","freq_resp","","","img/blue_2bandit_b.png","70","img/blue_2bandit_b.png","70","test","","","","","","","","","","","2","","","","","","","","",""
"null","202028","SARL_v6","SARL_v6sfzv6hyf","59dc458f77860e000151240e","fixation","","","img/fixation.png","null","","","test","","","","","","","","","","","","","","","","","","","",""
"298.2999997138977","202329","SARL_v6","SARL_v6sfzv6hyf","59dc458f77860e000151240e","freq","","","img/blue_2bandit_b2.png","70","","70","test","1","","44","","","","circle","square","43","22","2","0.9302325581395349","","","","","","","",""
"null","202841","SARL_v6","SARL_v6sfzv6hyf","59dc458f77860e000151240e","freq_resp","","","img/blue_2bandit_b.png","70","img/blue_2bandit_b.png","70","test","","","","","","","","","","","2","","","","","","","","",""
"null","202997","SARL_v6","SARL_v6sfzv6hyf","59dc458f77860e000151240e","fixation","","","img/fixation.png","null","","","test","","","","","","","","","","","","","","","","","","","",""
"249.40000009536743","203249","SARL_v6","SARL_v6sfzv6hyf","59dc458f77860e000151240e","freq","","","img/blue_2bandit_b2.png","70","","70","test","1","","45","","","","circle","square","44","23","2","0.9318181818181818","","","","","","","",""
"null","203816","SARL_v6","SARL_v6sfzv6hyf","59dc458f77860e000151240e","freq_resp","","","img/blue_2bandit_b.png","70","img/blue_2bandit_b.png","70","test","","","","","","","","","","","2","","","","","","","","",""
"null","203973","SARL_v6","SARL_v6sfzv6hyf","59dc458f77860e000151240e","fixation","","","img/fixation.png","null","","","test","","","","","","","","","","","","","","","","","","","",""
"289.2000002861023","204264","SARL_v6","SARL_v6sfzv6hyf","59dc458f77860e000151240e","freq","","","img/blue_2bandit_b2.png","70","","70","test","1","","46","","","","circle","square","45","24","2","0.9333333333333333","","","","","","","",""
"null","204789","SARL_v6","SARL_v6sfzv6hyf","59dc458f77860e000151240e","freq_resp","","","img/blue_2bandit_b.png","70","img/blue_2bandit_b.png","70","test","","","","","","","","","","","2","","","","","","","","",""
"null","204942","SARL_v6","SARL_v6sfzv6hyf","59dc458f77860e000151240e","fixation","","","img/fixation.png","null","","","test","","","","","","","","","","","","","","","","","","","",""
"160.90000009536743","205105","SARL_v6","SARL_v6sfzv6hyf","59dc458f77860e000151240e","freq","","","img/blue_2bandit_b2.png","70","","70","test","1","","47","","","","circle","square","46","25","2","0.9347826086956522","","","","","","","",""
"null","205757","SARL_v6","SARL_v6sfzv6hyf","59dc458f77860e000151240e","freq_resp","","","img/blue_2bandit_b.png","70","img/blue_2bandit_b.png","70","test","","","","","","","","","","","2","","","","","","","","",""
"null","205910","SARL_v6","SARL_v6sfzv6hyf","59dc458f77860e000151240e","fixation","","","img/fixation.png","null","","","test","","","","","","","","","","","","","","","","","","","",""
"657","206570","SARL_v6","SARL_v6sfzv6hyf","59dc458f77860e000151240e","rl","","","img/black_2bandit_b2.png","74","","0","test","","","48","","","-8","circle","square","","0","2","","74","-8","-5","-8","-5","circle","2","0"
"null","207330","SARL_v6","SARL_v6sfzv6hyf","59dc458f77860e000151240e","feedback","","","<div class=""verylowPoints""> -8 </div>","null","","na","test","","","NaN","","","","","","","","2","","74","","","","","","2",""
"774.9000000953674","208108","SARL_v6","SARL_v6sfzv6hyf","59dc458f77860e000151240e","freq","","","img/blue_2bandit_b2.png","70","","70","test","1","","49","","","","circle","square","47","1","3","0.9361702127659575","","","","","","","",""
"null","208136","SARL_v6","SARL_v6sfzv6hyf","59dc458f77860e000151240e","freq_resp","","","img/blue_2bandit_b.png","70","img/blue_2bandit_b.png","70","test","","","","","","","","","","","3","","","","","","","","",""
"null","208290","SARL_v6","SARL_v6sfzv6hyf","59dc458f77860e000151240e","fixation","","","img/fixation.png","null","","","test","","","","","","","","","","","","","","","","","","","",""
"419.7999997138977","208712","SARL_v6","SARL_v6sfzv6hyf","59dc458f77860e000151240e","freq","","","img/blue_2bandit_b2.png","70","","70","test","1","","50","","","","circle","square","48","2","3","0.9375","","","","","","","",""
"null","209106","SARL_v6","SARL_v6sfzv6hyf","59dc458f77860e000151240e","freq_resp","","","img/blue_2bandit_b.png","70","img/blue_2bandit_b.png","70","test","","","","","","","","","","","3","","","","","","","","",""
"null","209260","SARL_v6","SARL_v6sfzv6hyf","59dc458f77860e000151240e","fixation","","","img/fixation.png","null","","","test","","","","","","","","","","","","","","","","","","","",""
"401.80000019073486","209664","SARL_v6","SARL_v6sfzv6hyf","59dc458f77860e000151240e","freq","","","img/blue_2bandit_b2.png","70","","70","test","1","","51","","","","circle","square","49","3","3","0.9387755102040817","","","","","","","",""
"null","210073","SARL_v6","SARL_v6sfzv6hyf","59dc458f77860e000151240e","freq_resp","","","img/blue_2bandit_b.png","70","img/blue_2bandit_b.png","70","test","","","","","","","","","","","3","","","","","","","","",""
"null","210229","SARL_v6","SARL_v6sfzv6hyf","59dc458f77860e000151240e","fixation","","","img/fixation.png","null","","","test","","","","","","","","","","","","","","","","","","","",""
"290","210521","SARL_v6","SARL_v6sfzv6hyf","59dc458f77860e000151240e","freq","","","img/blue_2bandit_b2.png","70","","70","test","1","","52","","","","circle","square","50","4","3","0.94","","","","","","","",""
"null","211038","SARL_v6","SARL_v6sfzv6hyf","59dc458f77860e000151240e","freq_resp","","","img/blue_2bandit_b.png","70","img/blue_2bandit_b.png","70","test","","","","","","","","","","","3","","","","","","","","",""
"null","211196","SARL_v6","SARL_v6sfzv6hyf","59dc458f77860e000151240e","fixation","","","img/fixation.png","null","","","test","","","","","","","","","","","","","","","","","","","",""
"194.09999990463257","211393","SARL_v6","SARL_v6sfzv6hyf","59dc458f77860e000151240e","infreq","","","img/orange_2bandit_b2.png","70","","68","test","0","","53","","","","circle","square","51","5","3","0.9215686274509803","","","","","","","",""
"null","212007","SARL_v6","SARL_v6sfzv6hyf","59dc458f77860e000151240e","infreq_resp","","","img/orange_2bandit_b.png","70","img/orange_2bandit_b.png","68","test","","","","","","","","","","","3","","","","","","","","",""
"null","212165","SARL_v6","SARL_v6sfzv6hyf","59dc458f77860e000151240e","fixation","","","img/fixation.png","null","","","test","","","","","","","","","","","","","","","","","","","",""
"417.59999990463257","212585","SARL_v6","SARL_v6sfzv6hyf","59dc458f77860e000151240e","freq","","","img/blue_2bandit_b2.png","70","","70","test","1","","54","","","","circle","square","52","6","3","0.9230769230769231","","","","","","","",""
"null","212974","SARL_v6","SARL_v6sfzv6hyf","59dc458f77860e000151240e","freq_resp","","","img/blue_2bandit_b.png","70","img/blue_2bandit_b.png","70","test","","","","","","","","","","","3","","","","","","","","",""
"null","213129","SARL_v6","SARL_v6sfzv6hyf","59dc458f77860e000151240e","fixation","","","img/fixation.png","null","","","test","","","","","","","","","","","","","","","","","","","",""
"341","213473","SARL_v6","SARL_v6sfzv6hyf","59dc458f77860e000151240e","freq","","","img/blue_2bandit_b2.png","70","","70","test","1","","55","","","","circle","square","53","7","3","0.9245283018867925","","","","","","","",""
"null","213942","SARL_v6","SARL_v6sfzv6hyf","59dc458f77860e000151240e","freq_resp","","","img/blue_2bandit_b.png","70","img/blue_2bandit_b.png","70","test","","","","","","","","","","","3","","","","","","","","",""
"null","214096","SARL_v6","SARL_v6sfzv6hyf","59dc458f77860e000151240e","fixation","","","img/fixation.png","null","","","test","","","","","","","","","","","","","","","","","","","",""
"341.5","214440","SARL_v6","SARL_v6sfzv6hyf","59dc458f77860e000151240e","freq","","","img/blue_2bandit_b2.png","70","","70","test","1","","56","","","","circle","square","54","8","3","0.9259259259259259","","","","","","","",""
"null","214909","SARL_v6","SARL_v6sfzv6hyf","59dc458f77860e000151240e","freq_resp","","","img/blue_2bandit_b.png","70","img/blue_2bandit_b.png","70","test","","","","","","","","","","","3","","","","","","","","",""
"null","215062","SARL_v6","SARL_v6sfzv6hyf","59dc458f77860e000151240e","fixation","","","img/fixation.png","null","","","test","","","","","","","","","","","","","","","","","","","",""
"224.80000019073486","215289","SARL_v6","SARL_v6sfzv6hyf","59dc458f77860e000151240e","freq","","","img/blue_2bandit_b2.png","70","","70","test","1","","57","","","","circle","square","55","9","3","0.9272727272727272","","","","","","","",""
"null","215877","SARL_v6","SARL_v6sfzv6hyf","59dc458f77860e000151240e","freq_resp","","","img/blue_2bandit_b.png","70","img/blue_2bandit_b.png","70","test","","","","","","","","","","","3","","","","","","","","",""
"null","216030","SARL_v6","SARL_v6sfzv6hyf","59dc458f77860e000151240e","fixation","","","img/fixation.png","null","","","test","","","","","","","","","","","","","","","","","","","",""
"288.40000009536743","216321","SARL_v6","SARL_v6sfzv6hyf","59dc458f77860e000151240e","freq","","","img/blue_2bandit_b2.png","70","","70","test","1","","58","","","","circle","square","56","10","3","0.9285714285714286","","","","","","","",""
"null","216845","SARL_v6","SARL_v6sfzv6hyf","59dc458f77860e000151240e","freq_resp","","","img/blue_2bandit_b.png","70","img/blue_2bandit_b.png","70","test","","","","","","","","","","","3","","","","","","","","",""
"null","216998","SARL_v6","SARL_v6sfzv6hyf","59dc458f77860e000151240e","fixation","","","img/fixation.png","null","","","test","","","","","","","","","","","","","","","","","","","",""
"280.30000019073486","217281","SARL_v6","SARL_v6sfzv6hyf","59dc458f77860e000151240e","infreq","","","img/orange_2bandit_b2.png","70","","68","test","0","","59","","","","circle","square","57","11","3","0.9122807017543859","","","","","","","",""
"null","217811","SARL_v6","SARL_v6sfzv6hyf","59dc458f77860e000151240e","infreq_resp","","","img/orange_2bandit_b.png","70","img/orange_2bandit_b.png","68","test","","","","","","","","","","","3","","","","","","","","",""
"null","217964","SARL_v6","SARL_v6sfzv6hyf","59dc458f77860e000151240e","fixation","","","img/fixation.png","null","","","test","","","","","","","","","","","","","","","","","","","",""
"393.6000003814697","218360","SARL_v6","SARL_v6sfzv6hyf","59dc458f77860e000151240e","freq","","","img/blue_2bandit_b2.png","70","","70","test","1","","60","","","","circle","square","58","12","3","0.9137931034482759","","","","","","","",""
"null","218773","SARL_v6","SARL_v6sfzv6hyf","59dc458f77860e000151240e","freq_resp","","","img/blue_2bandit_b.png","70","img/blue_2bandit_b.png","70","test","","","","","","","","","","","3","","","","","","","","",""
"null","218929","SARL_v6","SARL_v6sfzv6hyf","59dc458f77860e000151240e","fixation","","","img/fixation.png","null","","","test","","","","","","","","","","","","","","","","","","","",""
"229.19999980926514","219160","SARL_v6","SARL_v6sfzv6hyf","59dc458f77860e000151240e","freq","","","img/blue_2bandit_b2.png","70","","70","test","1","","61","","","","circle","square","59","13","3","0.9152542372881356","","","","","","","",""
"null","219747","SARL_v6","SARL_v6sfzv6hyf","59dc458f77860e000151240e","freq_resp","","","img/blue_2bandit_b.png","70","img/blue_2bandit_b.png","70","test","","","","","","","","","","","3","","","","","","","","",""
"null","219901","SARL_v6","SARL_v6sfzv6hyf","59dc458f77860e000151240e","fixation","","","img/fixation.png","null","","","test","","","","","","","","","","","","","","","","","","","",""
"304.7999997138977","220208","SARL_v6","SARL_v6sfzv6hyf","59dc458f77860e000151240e","freq","","","img/blue_2bandit_b2.png","70","","70","test","1","","62","","","","circle","square","60","14","3","0.9166666666666666","","","","","","","",""
"null","220721","SARL_v6","SARL_v6sfzv6hyf","59dc458f77860e000151240e","freq_resp","","","img/blue_2bandit_b.png","70","img/blue_2bandit_b.png","70","test","","","","","","","","","","","3","","","","","","","","",""
"null","220877","SARL_v6","SARL_v6sfzv6hyf","59dc458f77860e000151240e","fixation","","","img/fixation.png","null","","","test","","","","","","","","","","","","","","","","","","","",""
"257.19999980926514","221137","SARL_v6","SARL_v6sfzv6hyf","59dc458f77860e000151240e","freq","","","img/blue_2bandit_b2.png","70","","70","test","1","","63","","","","circle","square","61","15","3","0.9180327868852459","","","","","","","",""
"null","221688","SARL_v6","SARL_v6sfzv6hyf","59dc458f77860e000151240e","freq_resp","","","img/blue_2bandit_b.png","70","img/blue_2bandit_b.png","70","test","","","","","","","","","","","3","","","","","","","","",""
"null","221841","SARL_v6","SARL_v6sfzv6hyf","59dc458f77860e000151240e","fixation","","","img/fixation.png","null","","","test","","","","","","","","","","","","","","","","","","","",""
"262","222105","SARL_v6","SARL_v6sfzv6hyf","59dc458f77860e000151240e","freq","","","img/blue_2bandit_b2.png","70","","70","test","1","","64","","","","circle","square","62","16","3","0.9193548387096774","","","","","","","",""
"null","222656","SARL_v6","SARL_v6sfzv6hyf","59dc458f77860e000151240e","freq_resp","","","img/blue_2bandit_b.png","70","img/blue_2bandit_b.png","70","test","","","","","","","","","","","3","","","","","","","","",""
"null","222810","SARL_v6","SARL_v6sfzv6hyf","59dc458f77860e000151240e","fixation","","","img/fixation.png","null","","","test","","","","","","","","","","","","","","","","","","","",""
"292.2999997138977","223104","SARL_v6","SARL_v6sfzv6hyf","59dc458f77860e000151240e","freq","","","img/blue_2bandit_b2.png","70","","70","test","1","","65","","","","circle","square","63","17","3","0.9206349206349206","","","","","","","",""
"null","223622","SARL_v6","SARL_v6sfzv6hyf","59dc458f77860e000151240e","freq_resp","","","img/blue_2bandit_b.png","70","img/blue_2bandit_b.png","70","test","","","","","","","","","","","3","","","","","","","","",""
"null","223776","SARL_v6","SARL_v6sfzv6hyf","59dc458f77860e000151240e","fixation","","","img/fixation.png","null","","","test","","","","","","","","","","","","","","","","","","","",""
"309.90000009536743","224089","SARL_v6","SARL_v6sfzv6hyf","59dc458f77860e000151240e","freq","","","img/blue_2bandit_b2.png","70","","70","test","1","","66","","","","circle","square","64","18","3","0.921875","","","","","","","",""
"null","224590","SARL_v6","SARL_v6sfzv6hyf","59dc458f77860e000151240e","freq_resp","","","img/blue_2bandit_b.png","70","img/blue_2bandit_b.png","70","test","","","","","","","","","","","3","","","","","","","","",""
"null","224746","SARL_v6","SARL_v6sfzv6hyf","59dc458f77860e000151240e","fixation","","","img/fixation.png","null","","","test","","","","","","","","","","","","","","","","","","","",""
"307.80000019073486","225056","SARL_v6","SARL_v6sfzv6hyf","59dc458f77860e000151240e","freq","","","img/blue_2bandit_b2.png","70","","70","test","1","","67","","","","circle","square","65","19","3","0.9230769230769231","","","","","","","",""
"null","225560","SARL_v6","SARL_v6sfzv6hyf","59dc458f77860e000151240e","freq_resp","","","img/blue_2bandit_b.png","70","img/blue_2bandit_b.png","70","test","","","","","","","","","","","3","","","","","","","","",""
"null","225713","SARL_v6","SARL_v6sfzv6hyf","59dc458f77860e000151240e","fixation","","","img/fixation.png","null","","","test","","","","","","","","","","","","","","","","","","","",""
"317.09999990463257","226032","SARL_v6","SARL_v6sfzv6hyf","59dc458f77860e000151240e","freq","","","img/blue_2bandit_b2.png","70","","70","test","1","","68","","","","circle","square","66","20","3","0.9242424242424242","","","","","","","",""
"null","226528","SARL_v6","SARL_v6sfzv6hyf","59dc458f77860e000151240e","freq_resp","","","img/blue_2bandit_b.png","70","img/blue_2bandit_b.png","70","test","","","","","","","","","","","3","","","","","","","","",""
"null","226680","SARL_v6","SARL_v6sfzv6hyf","59dc458f77860e000151240e","fixation","","","img/fixation.png","null","","","test","","","","","","","","","","","","","","","","","","","",""
"662","227344","SARL_v6","SARL_v6sfzv6hyf","59dc458f77860e000151240e","rl","","","img/black_2bandit_b2.png","75","","0","test","","","69","","","-4","circle","square","","0","3","","75","-8","-4","-8","-4","square","3","0"
"null","228108","SARL_v6","SARL_v6sfzv6hyf","59dc458f77860e000151240e","feedback","","","<div class=""verylowPoints_sq""> -4 </div>","null","","na","test","","","NaN","","","","","","","","3","","75","","","","","","3",""
"457.7999997138977","228568","SARL_v6","SARL_v6sfzv6hyf","59dc458f77860e000151240e","freq","","","img/blue_2bandit_b2.png","70","","70","test","1","","70","","","","circle","square","67","1","4","0.9253731343283582","","","","","","","",""
"null","228923","SARL_v6","SARL_v6sfzv6hyf","59dc458f77860e000151240e","freq_resp","","","img/blue_2bandit_b.png","70","img/blue_2bandit_b.png","70","test","","","","","","","","","","","4","","","","","","","","",""
"null","229080","SARL_v6","SARL_v6sfzv6hyf","59dc458f77860e000151240e","fixation","","","img/fixation.png","null","","","test","","","","","","","","","","","","","","","","","","","",""
"390","229472","SARL_v6","SARL_v6sfzv6hyf","59dc458f77860e000151240e","freq","","","img/blue_2bandit_b2.png","70","","70","test","1","","71","","","","circle","square","68","2","4","0.9264705882352942","","","","","","","",""
"null","229894","SARL_v6","SARL_v6sfzv6hyf","59dc458f77860e000151240e","freq_resp","","","img/blue_2bandit_b.png","70","img/blue_2bandit_b.png","70","test","","","","","","","","","","","4","","","","","","","","",""
"null","230050","SARL_v6","SARL_v6sfzv6hyf","59dc458f77860e000151240e","fixation","","","img/fixation.png","null","","","test","","","","","","","","","","","","","","","","","","","",""
"330.90000009536743","230384","SARL_v6","SARL_v6sfzv6hyf","59dc458f77860e000151240e","freq","","","img/blue_2bandit_b2.png","70","","70","test","1","","72","","","","circle","square","69","3","4","0.927536231884058","","","","","","","",""
"null","230864","SARL_v6","SARL_v6sfzv6hyf","59dc458f77860e000151240e","freq_resp","","","img/blue_2bandit_b.png","70","img/blue_2bandit_b.png","70","test","","","","","","","","","","","4","","","","","","","","",""
"null","231016","SARL_v6","SARL_v6sfzv6hyf","59dc458f77860e000151240e","fixation","","","img/fixation.png","null","","","test","","","","","","","","","","","","","","","","","","","",""
"333.09999990463257","231352","SARL_v6","SARL_v6sfzv6hyf","59dc458f77860e000151240e","freq","","","img/blue_2bandit_b2.png","70","","70","test","1","","73","","","","circle","square","70","4","4","0.9285714285714286","","","","","","","",""
"null","231832","SARL_v6","SARL_v6sfzv6hyf","59dc458f77860e000151240e","freq_resp","","","img/blue_2bandit_b.png","70","img/blue_2bandit_b.png","70","test","","","","","","","","","","","4","","","","","","","","",""
"null","231986","SARL_v6","SARL_v6sfzv6hyf","59dc458f77860e000151240e","fixation","","","img/fixation.png","null","","","test","","","","","","","","","","","","","","","","","","","",""
"348.09999990463257","232337","SARL_v6","SARL_v6sfzv6hyf","59dc458f77860e000151240e","freq","","","img/blue_2bandit_b2.png","70","","70","test","1","","74","","","","circle","square","71","5","4","0.9295774647887324","","","","","","","",""
"null","232802","SARL_v6","SARL_v6sfzv6hyf","59dc458f77860e000151240e","freq_resp","","","img/blue_2bandit_b.png","70","img/blue_2bandit_b.png","70","test","","","","","","","","","","","4","","","","","","","","",""
"null","232955","SARL_v6","SARL_v6sfzv6hyf","59dc458f77860e000151240e","fixation","","","img/fixation.png","null","","","test","","","","","","","","","","","","","","","","","","","",""
"378.5","233336","SARL_v6","SARL_v6sfzv6hyf","59dc458f77860e000151240e","freq","","","img/blue_2bandit_b2.png","70","","70","test","1","","75","","","","circle","square","72","6","4","0.9305555555555556","","","","","","","",""
"null","233769","SARL_v6","SARL_v6sfzv6hyf","59dc458f77860e000151240e","freq_resp","","","img/blue_2bandit_b.png","70","img/blue_2bandit_b.png","70","test","","","","","","","","","","","4","","","","","","","","",""
"null","233925","SARL_v6","SARL_v6sfzv6hyf","59dc458f77860e000151240e","fixation","","","img/fixation.png","null","","","test","","","","","","","","","","","","","","","","","","","",""
"377.1000003814697","234304","SARL_v6","SARL_v6sfzv6hyf","59dc458f77860e000151240e","infreq","","","img/orange_2bandit_b2.png","68","","68","test","1","","76","","","","circle","square","73","7","4","0.9315068493150684","","","","","","","",""
"null","234736","SARL_v6","SARL_v6sfzv6hyf","59dc458f77860e000151240e","infreq_resp","","","img/orange_2bandit_b.png","68","img/orange_2bandit_b.png","68","test","","","","","","","","","","","4","","","","","","","","",""
"null","234892","SARL_v6","SARL_v6sfzv6hyf","59dc458f77860e000151240e","fixation","","","img/fixation.png","null","","","test","","","","","","","","","","","","","","","","","","","",""
"335.80000019073486","235230","SARL_v6","SARL_v6sfzv6hyf","59dc458f77860e000151240e","freq","","","img/blue_2bandit_b2.png","70","","70","test","1","","77","","","","circle","square","74","8","4","0.9324324324324325","","","","","","","",""
"null","235703","SARL_v6","SARL_v6sfzv6hyf","59dc458f77860e000151240e","freq_resp","","","img/blue_2bandit_b.png","70","img/blue_2bandit_b.png","70","test","","","","","","","","","","","4","","","","","","","","",""
"null","235856","SARL_v6","SARL_v6sfzv6hyf","59dc458f77860e000151240e","fixation","","","img/fixation.png","null","","","test","","","","","","","","","","","","","","","","","","","",""
"380","236238","SARL_v6","SARL_v6sfzv6hyf","59dc458f77860e000151240e","freq","","","img/blue_2bandit_b2.png","70","","70","test","1","","78","","","","circle","square","75","9","4","0.9333333333333333","","","","","","","",""
"null","236671","SARL_v6","SARL_v6sfzv6hyf","59dc458f77860e000151240e","freq_resp","","","img/blue_2bandit_b.png","70","img/blue_2bandit_b.png","70","test","","","","","","","","","","","4","","","","","","","","",""
"null","236827","SARL_v6","SARL_v6sfzv6hyf","59dc458f77860e000151240e","fixation","","","img/fixation.png","null","","","test","","","","","","","","","","","","","","","","","","","",""
"321.09999990463257","237151","SARL_v6","SARL_v6sfzv6hyf","59dc458f77860e000151240e","freq","","","img/blue_2bandit_b2.png","70","","70","test","1","","79","","","","circle","square","76","10","4","0.9342105263157895","","","","","","","",""
"null","237638","SARL_v6","SARL_v6sfzv6hyf","59dc458f77860e000151240e","freq_resp","","","img/blue_2bandit_b.png","70","img/blue_2bandit_b.png","70","test","","","","","","","","","","","4","","","","","","","","",""
"null","237791","SARL_v6","SARL_v6sfzv6hyf","59dc458f77860e000151240e","fixation","","","img/fixation.png","null","","","test","","","","","","","","","","","","","","","","","","","",""
"325.59999990463257","238120","SARL_v6","SARL_v6sfzv6hyf","59dc458f77860e000151240e","freq","","","img/blue_2bandit_b2.png","70","","70","test","1","","80","","","","circle","square","77","11","4","0.935064935064935","","","","","","","",""
"null","238608","SARL_v6","SARL_v6sfzv6hyf","59dc458f77860e000151240e","freq_resp","","","img/blue_2bandit_b.png","70","img/blue_2bandit_b.png","70","test","","","","","","","","","","","4","","","","","","","","",""
"null","238760","SARL_v6","SARL_v6sfzv6hyf","59dc458f77860e000151240e","fixation","","","img/fixation.png","null","","","test","","","","","","","","","","","","","","","","","","","",""
"300.69999980926514","239064","SARL_v6","SARL_v6sfzv6hyf","59dc458f77860e000151240e","freq","","","img/blue_2bandit_b2.png","70","","70","test","1","","81","","","","circle","square","78","12","4","0.9358974358974359","","","","","","","",""
"null","239578","SARL_v6","SARL_v6sfzv6hyf","59dc458f77860e000151240e","freq_resp","","","img/blue_2bandit_b.png","70","img/blue_2bandit_b.png","70","test","","","","","","","","","","","4","","","","","","","","",""
"null","239730","SARL_v6","SARL_v6sfzv6hyf","59dc458f77860e000151240e","fixation","","","img/fixation.png","null","","","test","","","","","","","","","","","","","","","","","","","",""
"289.7999997138977","240023","SARL_v6","SARL_v6sfzv6hyf","59dc458f77860e000151240e","freq","","","img/blue_2bandit_b2.png","70","","70","test","1","","82","","","","circle","square","79","13","4","0.9367088607594937","","","","","","","",""
"null","240549","SARL_v6","SARL_v6sfzv6hyf","59dc458f77860e000151240e","freq_resp","","","img/blue_2bandit_b.png","70","img/blue_2bandit_b.png","70","test","","","","","","","","","","","4","","","","","","","","",""
"null","240702","SARL_v6","SARL_v6sfzv6hyf","59dc458f77860e000151240e","fixation","","","img/fixation.png","null","","","test","","","","","","","","","","","","","","","","","","","",""
"430.69999980926514","241135","SARL_v6","SARL_v6sfzv6hyf","59dc458f77860e000151240e","infreq","","","img/orange_2bandit_b2.png","68","","68","test","1","","83","","","","circle","square","80","14","4","0.9375","","","","","","","",""
"null","241516","SARL_v6","SARL_v6sfzv6hyf","59dc458f77860e000151240e","infreq_resp","","","img/orange_2bandit_b.png","68","img/orange_2bandit_b.png","68","test","","","","","","","","","","","4","","","","","","","","",""
"null","241671","SARL_v6","SARL_v6sfzv6hyf","59dc458f77860e000151240e","fixation","","","img/fixation.png","null","","","test","","","","","","","","","","","","","","","","","","","",""
"356.69999980926514","242030","SARL_v6","SARL_v6sfzv6hyf","59dc458f77860e000151240e","freq","","","img/blue_2bandit_b2.png","70","","70","test","1","","84","","","","circle","square","81","15","4","0.9382716049382716","","","","","","","",""
"null","242488","SARL_v6","SARL_v6sfzv6hyf","59dc458f77860e000151240e","freq_resp","","","img/blue_2bandit_b.png","70","img/blue_2bandit_b.png","70","test","","","","","","","","","","","4","","","","","","","","",""
"null","242646","SARL_v6","SARL_v6sfzv6hyf","59dc458f77860e000151240e","fixation","","","img/fixation.png","null","","","test","","","","","","","","","","","","","","","","","","","",""
"301.7999997138977","242951","SARL_v6","SARL_v6sfzv6hyf","59dc458f77860e000151240e","freq","","","img/blue_2bandit_b2.png","70","","70","test","1","","85","","","","circle","square","82","16","4","0.9390243902439024","","","","","","","",""
"null","243462","SARL_v6","SARL_v6sfzv6hyf","59dc458f77860e000151240e","freq_resp","","","img/blue_2bandit_b.png","70","img/blue_2bandit_b.png","70","test","","","","","","","","","","","4","","","","","","","","",""
"null","243617","SARL_v6","SARL_v6sfzv6hyf","59dc458f77860e000151240e","fixation","","","img/fixation.png","null","","","test","","","","","","","","","","","","","","","","","","","",""
"362.2000002861023","243982","SARL_v6","SARL_v6sfzv6hyf","59dc458f77860e000151240e","freq","","","img/blue_2bandit_b2.png","70","","70","test","1","","86","","","","circle","square","83","17","4","0.9397590361445783","","","","","","","",""
"null","244437","SARL_v6","SARL_v6sfzv6hyf","59dc458f77860e000151240e","freq_resp","","","img/blue_2bandit_b.png","70","img/blue_2bandit_b.png","70","test","","","","","","","","","","","4","","","","","","","","",""
"null","244589","SARL_v6","SARL_v6sfzv6hyf","59dc458f77860e000151240e","fixation","","","img/fixation.png","null","","","test","","","","","","","","","","","","","","","","","","","",""
"350.90000009536743","244943","SARL_v6","SARL_v6sfzv6hyf","59dc458f77860e000151240e","freq","","","img/blue_2bandit_b2.png","70","","70","test","1","","87","","","","circle","square","84","18","4","0.9404761904761905","","","","","","","",""
"null","245409","SARL_v6","SARL_v6sfzv6hyf","59dc458f77860e000151240e","freq_resp","","","img/blue_2bandit_b.png","70","img/blue_2bandit_b.png","70","test","","","","","","","","","","","4","","","","","","","","",""
"null","245563","SARL_v6","SARL_v6sfzv6hyf","59dc458f77860e000151240e","fixation","","","img/fixation.png","null","","","test","","","","","","","","","","","","","","","","","","","",""
"337.09999990463257","245903","SARL_v6","SARL_v6sfzv6hyf","59dc458f77860e000151240e","freq","","","img/blue_2bandit_b2.png","70","","70","test","1","","88","","","","circle","square","85","19","4","0.9411764705882353","","","","","","","",""
"null","246376","SARL_v6","SARL_v6sfzv6hyf","59dc458f77860e000151240e","freq_resp","","","img/blue_2bandit_b.png","70","img/blue_2bandit_b.png","70","test","","","","","","","","","","","4","","","","","","","","",""
"null","246534","SARL_v6","SARL_v6sfzv6hyf","59dc458f77860e000151240e","fixation","","","img/fixation.png","null","","","test","","","","","","","","","","","","","","","","","","","",""
"350.8999996185303","246887","SARL_v6","SARL_v6sfzv6hyf","59dc458f77860e000151240e","freq","","","img/blue_2bandit_b2.png","70","","70","test","1","","89","","","","circle","square","86","20","4","0.9418604651162791","","","","","","","",""
"null","247351","SARL_v6","SARL_v6sfzv6hyf","59dc458f77860e000151240e","freq_resp","","","img/blue_2bandit_b.png","70","img/blue_2bandit_b.png","70","test","","","","","","","","","","","4","","","","","","","","",""
"null","247508","SARL_v6","SARL_v6sfzv6hyf","59dc458f77860e000151240e","fixation","","","img/fixation.png","null","","","test","","","","","","","","","","","","","","","","","","","",""
"648.3000001907349","248159","SARL_v6","SARL_v6sfzv6hyf","59dc458f77860e000151240e","rl","","","img/black_2bandit_b2.png","75","","0","test","","","90","","","0","circle","square","","0","4","","75","-12","0","-12","0","square","4","0"
"null","248919","SARL_v6","SARL_v6sfzv6hyf","59dc458f77860e000151240e","feedback","","","<div class=""verylowPoints_sq""> 0 </div>","null","","na","test","","","NaN","","","","","","","","4","","75","","","","","","4",""
"381","249302","SARL_v6","SARL_v6sfzv6hyf","59dc458f77860e000151240e","freq","","","img/blue_2bandit_b2.png","70","","70","test","1","","91","","","","circle","square","87","1","5","0.9425287356321839","","","","","","","",""
"null","249731","SARL_v6","SARL_v6sfzv6hyf","59dc458f77860e000151240e","freq_resp","","","img/blue_2bandit_b.png","70","img/blue_2bandit_b.png","70","test","","","","","","","","","","","5","","","","","","","","",""
"null","249888","SARL_v6","SARL_v6sfzv6hyf","59dc458f77860e000151240e","fixation","","","img/fixation.png","null","","","test","","","","","","","","","","","","","","","","","","","",""
"348.09999990463257","250238","SARL_v6","SARL_v6sfzv6hyf","59dc458f77860e000151240e","freq","","","img/blue_2bandit_b2.png","70","","70","test","1","","92","","","","circle","square","88","2","5","0.9431818181818182","","","","","","","",""
"null","250703","SARL_v6","SARL_v6sfzv6hyf","59dc458f77860e000151240e","freq_resp","","","img/blue_2bandit_b.png","70","img/blue_2bandit_b.png","70","test","","","","","","","","","","","5","","","","","","","","",""
"null","250856","SARL_v6","SARL_v6sfzv6hyf","59dc458f77860e000151240e","fixation","","","img/fixation.png","null","","","test","","","","","","","","","","","","","","","","","","","",""
"420.30000019073486","251278","SARL_v6","SARL_v6sfzv6hyf","59dc458f77860e000151240e","freq","","","img/blue_2bandit_b2.png","70","","70","test","1","","93","","","","circle","square","89","3","5","0.9438202247191011","","","","","","","",""
"null","251663","SARL_v6","SARL_v6sfzv6hyf","59dc458f77860e000151240e","freq_resp","","","img/blue_2bandit_b.png","70","img/blue_2bandit_b.png","70","test","","","","","","","","","","","5","","","","","","","","",""
"null","251820","SARL_v6","SARL_v6sfzv6hyf","59dc458f77860e000151240e","fixation","","","img/fixation.png","null","","","test","","","","","","","","","","","","","","","","","","","",""
"551.9000000953674","252374","SARL_v6","SARL_v6sfzv6hyf","59dc458f77860e000151240e","infreq","","","img/orange_2bandit_b2.png","68","","68","test","1","","94","","","","circle","square","90","4","5","0.9444444444444444","","","","","","","",""
"null","252639","SARL_v6","SARL_v6sfzv6hyf","59dc458f77860e000151240e","infreq_resp","","","img/orange_2bandit_b.png","68","img/orange_2bandit_b.png","68","test","","","","","","","","","","","5","","","","","","","","",""
"null","252796","SARL_v6","SARL_v6sfzv6hyf","59dc458f77860e000151240e","fixation","","","img/fixation.png","null","","","test","","","","","","","","","","","","","","","","","","","",""
"559.7999997138977","253358","SARL_v6","SARL_v6sfzv6hyf","59dc458f77860e000151240e","freq","","","img/blue_2bandit_b2.png","70","","70","test","1","","95","","","","circle","square","91","5","5","0.945054945054945","","","","","","","",""
"null","253611","SARL_v6","SARL_v6sfzv6hyf","59dc458f77860e000151240e","freq_resp","","","img/blue_2bandit_b.png","70","img/blue_2bandit_b.png","70","test","","","","","","","","","","","5","","","","","","","","",""
"null","253764","SARL_v6","SARL_v6sfzv6hyf","59dc458f77860e000151240e","fixation","","","img/fixation.png","null","","","test","","","","","","","","","","","","","","","","","","","",""
"416.2000002861023","254182","SARL_v6","SARL_v6sfzv6hyf","59dc458f77860e000151240e","freq","","","img/blue_2bandit_b2.png","70","","70","test","1","","96","","","","circle","square","92","6","5","0.9456521739130435","","","","","","","",""
"null","254578","SARL_v6","SARL_v6sfzv6hyf","59dc458f77860e000151240e","freq_resp","","","img/blue_2bandit_b.png","70","img/blue_2bandit_b.png","70","test","","","","","","","","","","","5","","","","","","","","",""
"null","254736","SARL_v6","SARL_v6sfzv6hyf","59dc458f77860e000151240e","fixation","","","img/fixation.png","null","","","test","","","","","","","","","","","","","","","","","","","",""
"388.40000009536743","255126","SARL_v6","SARL_v6sfzv6hyf","59dc458f77860e000151240e","freq","","","img/blue_2bandit_b2.png","70","","70","test","1","","97","","","","circle","square","93","7","5","0.946236559139785","","","","","","","",""
"null","255551","SARL_v6","SARL_v6sfzv6hyf","59dc458f77860e000151240e","freq_resp","","","img/blue_2bandit_b.png","70","img/blue_2bandit_b.png","70","test","","","","","","","","","","","5","","","","","","","","",""
"null","255704","SARL_v6","SARL_v6sfzv6hyf","59dc458f77860e000151240e","fixation","","","img/fixation.png","null","","","test","","","","","","","","","","","","","","","","","","","",""
"315.59999990463257","256022","SARL_v6","SARL_v6sfzv6hyf","59dc458f77860e000151240e","freq","","","img/blue_2bandit_b2.png","70","","70","test","1","","98","","","","circle","square","94","8","5","0.9468085106382979","","","","","","","",""
"null","256514","SARL_v6","SARL_v6sfzv6hyf","59dc458f77860e000151240e","freq_resp","","","img/blue_2bandit_b.png","70","img/blue_2bandit_b.png","70","test","","","","","","","","","","","5","","","","","","","","",""
"null","256671","SARL_v6","SARL_v6sfzv6hyf","59dc458f77860e000151240e","fixation","","","img/fixation.png","null","","","test","","","","","","","","","","","","","","","","","","","",""
"325.2000002861023","256998","SARL_v6","SARL_v6sfzv6hyf","59dc458f77860e000151240e","freq","","","img/blue_2bandit_b2.png","70","","70","test","1","","99","","","","circle","square","95","9","5","0.9473684210526315","","","","","","","",""
"null","257479","SARL_v6","SARL_v6sfzv6hyf","59dc458f77860e000151240e","freq_resp","","","img/blue_2bandit_b.png","70","img/blue_2bandit_b.png","70","test","","","","","","","","","","","5","","","","","","","","",""
"null","257633","SARL_v6","SARL_v6sfzv6hyf","59dc458f77860e000151240e","fixation","","","img/fixation.png","null","","","test","","","","","","","","","","","","","","","","","","","",""
"314.40000009536743","257951","SARL_v6","SARL_v6sfzv6hyf","59dc458f77860e000151240e","freq","","","img/blue_2bandit_b2.png","70","","70","test","1","","100","","","","circle","square","96","10","5","0.9479166666666666","","","","","","","",""
"null","258450","SARL_v6","SARL_v6sfzv6hyf","59dc458f77860e000151240e","freq_resp","","","img/blue_2bandit_b.png","70","img/blue_2bandit_b.png","70","test","","","","","","","","","","","5","","","","","","","","",""
"null","258604","SARL_v6","SARL_v6sfzv6hyf","59dc458f77860e000151240e","fixation","","","img/fixation.png","null","","","test","","","","","","","","","","","","","","","","","","","",""
"281","258887","SARL_v6","SARL_v6sfzv6hyf","59dc458f77860e000151240e","freq","","","img/blue_2bandit_b2.png","70","","70","test","1","","101","","","","circle","square","97","11","5","0.9484536082474226","","","","","","","",""
"null","259420","SARL_v6","SARL_v6sfzv6hyf","59dc458f77860e000151240e","freq_resp","","","img/blue_2bandit_b.png","70","img/blue_2bandit_b.png","70","test","","","","","","","","","","","5","","","","","","","","",""
"null","259573","SARL_v6","SARL_v6sfzv6hyf","59dc458f77860e000151240e","fixation","","","img/fixation.png","null","","","test","","","","","","","","","","","","","","","","","","","",""
"423.09999990463257","259998","SARL_v6","SARL_v6sfzv6hyf","59dc458f77860e000151240e","infreq","","","img/orange_2bandit_b2.png","68","","68","test","1","","102","","","","circle","square","98","12","5","0.9489795918367347","","","","","","","",""
"null","260392","SARL_v6","SARL_v6sfzv6hyf","59dc458f77860e000151240e","infreq_resp","","","img/orange_2bandit_b.png","68","img/orange_2bandit_b.png","68","test","","","","","","","","","","","5","","","","","","","","",""
"null","260550","SARL_v6","SARL_v6sfzv6hyf","59dc458f77860e000151240e","fixation","","","img/fixation.png","null","","","test","","","","","","","","","","","","","","","","","","","",""
"356.7000002861023","260910","SARL_v6","SARL_v6sfzv6hyf","59dc458f77860e000151240e","freq","","","img/blue_2bandit_b2.png","70","","70","test","1","","103","","","","circle","square","99","13","5","0.9494949494949495","","","","","","","",""
"null","261363","SARL_v6","SARL_v6sfzv6hyf","59dc458f77860e000151240e","freq_resp","","","img/blue_2bandit_b.png","70","img/blue_2bandit_b.png","70","test","","","","","","","","","","","5","","","","","","","","",""
"null","261518","SARL_v6","SARL_v6sfzv6hyf","59dc458f77860e000151240e","fixation","","","img/fixation.png","null","","","test","","","","","","","","","","","","","","","","","","","",""
"317.30000019073486","261837","SARL_v6","SARL_v6sfzv6hyf","59dc458f77860e000151240e","freq","","","img/blue_2bandit_b2.png","70","","70","test","1","","104","","","","circle","square","100","14","5","0.95","","","","","","","",""
"null","262331","SARL_v6","SARL_v6sfzv6hyf","59dc458f77860e000151240e","freq_resp","","","img/blue_2bandit_b.png","70","img/blue_2bandit_b.png","70","test","","","","","","","","","","","5","","","","","","","","",""
"null","262488","SARL_v6","SARL_v6sfzv6hyf","59dc458f77860e000151240e","fixation","","","img/fixation.png","null","","","test","","","","","","","","","","","","","","","","","","","",""
"307.80000019073486","262798","SARL_v6","SARL_v6sfzv6hyf","59dc458f77860e000151240e","freq","","","img/blue_2bandit_b2.png","70","","70","test","1","","105","","","","circle","square","101","15","5","0.9504950495049505","","","","","","","",""
"null","263300","SARL_v6","SARL_v6sfzv6hyf","59dc458f77860e000151240e","freq_resp","","","img/blue_2bandit_b.png","70","img/blue_2bandit_b.png","70","test","","","","","","","","","","","5","","","","","","","","",""
"null","263456","SARL_v6","SARL_v6sfzv6hyf","59dc458f77860e000151240e","fixation","","","img/fixation.png","null","","","test","","","","","","","","","","","","","","","","","","","",""
"307.40000009536743","263767","SARL_v6","SARL_v6sfzv6hyf","59dc458f77860e000151240e","freq","","","img/blue_2bandit_b2.png","70","","70","test","1","","106","","","","circle","square","102","16","5","0.9509803921568627","","","","","","","",""
"null","264268","SARL_v6","SARL_v6sfzv6hyf","59dc458f77860e000151240e","freq_resp","","","img/blue_2bandit_b.png","70","img/blue_2bandit_b.png","70","test","","","","","","","","","","","5","","","","","","","","",""
"null","264422","SARL_v6","SARL_v6sfzv6hyf","59dc458f77860e000151240e","fixation","","","img/fixation.png","null","","","test","","","","","","","","","","","","","","","","","","","",""
"278.09999990463257","264703","SARL_v6","SARL_v6sfzv6hyf","59dc458f77860e000151240e","freq","","","img/blue_2bandit_b2.png","70","","70","test","1","","107","","","","circle","square","103","17","5","0.9514563106796117","","","","","","","",""
"null","265236","SARL_v6","SARL_v6sfzv6hyf","59dc458f77860e000151240e","freq_resp","","","img/blue_2bandit_b.png","70","img/blue_2bandit_b.png","70","test","","","","","","","","","","","5","","","","","","","","",""
"null","265393","SARL_v6","SARL_v6sfzv6hyf","59dc458f77860e000151240e","fixation","","","img/fixation.png","null","","","test","","","","","","","","","","","","","","","","","","","",""
"290.90000009536743","265686","SARL_v6","SARL_v6sfzv6hyf","59dc458f77860e000151240e","freq","","","img/blue_2bandit_b2.png","70","","70","test","1","","108","","","","circle","square","104","18","5","0.9519230769230769","","","","","","","",""
"null","266205","SARL_v6","SARL_v6sfzv6hyf","59dc458f77860e000151240e","freq_resp","","","img/blue_2bandit_b.png","70","img/blue_2bandit_b.png","70","test","","","","","","","","","","","5","","","","","","","","",""
"null","266360","SARL_v6","SARL_v6sfzv6hyf","59dc458f77860e000151240e","fixation","","","img/fixation.png","null","","","test","","","","","","","","","","","","","","","","","","","",""
"283.59999990463257","266646","SARL_v6","SARL_v6sfzv6hyf","59dc458f77860e000151240e","freq","","","img/blue_2bandit_b2.png","70","","70","test","1","","109","","","","circle","square","105","19","5","0.9523809523809523","","","","","","","",""
"null","267171","SARL_v6","SARL_v6sfzv6hyf","59dc458f77860e000151240e","freq_resp","","","img/blue_2bandit_b.png","70","img/blue_2bandit_b.png","70","test","","","","","","","","","","","5","","","","","","","","",""
"null","267324","SARL_v6","SARL_v6sfzv6hyf","59dc458f77860e000151240e","fixation","","","img/fixation.png","null","","","test","","","","","","","","","","","","","","","","","","","",""
"327.59999990463257","267654","SARL_v6","SARL_v6sfzv6hyf","59dc458f77860e000151240e","freq","","","img/blue_2bandit_b2.png","70","","70","test","1","","110","","","","circle","square","106","20","5","0.9528301886792453","","","","","","","",""
"null","268143","SARL_v6","SARL_v6sfzv6hyf","59dc458f77860e000151240e","freq_resp","","","img/blue_2bandit_b.png","70","img/blue_2bandit_b.png","70","test","","","","","","","","","","","5","","","","","","","","",""
"null","268297","SARL_v6","SARL_v6sfzv6hyf","59dc458f77860e000151240e","fixation","","","img/fixation.png","null","","","test","","","","","","","","","","","","","","","","","","","",""
"298.2999997138977","268597","SARL_v6","SARL_v6sfzv6hyf","59dc458f77860e000151240e","freq","","","img/blue_2bandit_b2.png","70","","70","test","1","","111","","","","circle","square","107","21","5","0.9532710280373832","","","","","","","",""
"null","269113","SARL_v6","SARL_v6sfzv6hyf","59dc458f77860e000151240e","freq_resp","","","img/blue_2bandit_b.png","70","img/blue_2bandit_b.png","70","test","","","","","","","","","","","5","","","","","","","","",""
"null","269267","SARL_v6","SARL_v6sfzv6hyf","59dc458f77860e000151240e","fixation","","","img/fixation.png","null","","","test","","","","","","","","","","","","","","","","","","","",""
"304.7999997138977","269574","SARL_v6","SARL_v6sfzv6hyf","59dc458f77860e000151240e","freq","","","img/blue_2bandit_b2.png","70","","70","test","1","","112","","","","circle","square","108","22","5","0.9537037037037037","","","","","","","",""
"null","270080","SARL_v6","SARL_v6sfzv6hyf","59dc458f77860e000151240e","freq_resp","","","img/blue_2bandit_b.png","70","img/blue_2bandit_b.png","70","test","","","","","","","","","","","5","","","","","","","","",""
"null","270234","SARL_v6","SARL_v6sfzv6hyf","59dc458f77860e000151240e","fixation","","","img/fixation.png","null","","","test","","","","","","","","","","","","","","","","","","","",""
"249.7999997138977","270486","SARL_v6","SARL_v6sfzv6hyf","59dc458f77860e000151240e","freq","","","img/blue_2bandit_b2.png","70","","70","test","1","","113","","","","circle","square","109","23","5","0.9541284403669725","","","","","","","",""
"null","271054","SARL_v6","SARL_v6sfzv6hyf","59dc458f77860e000151240e","freq_resp","","","img/blue_2bandit_b.png","70","img/blue_2bandit_b.png","70","test","","","","","","","","","","","5","","","","","","","","",""
"null","271206","SARL_v6","SARL_v6sfzv6hyf","59dc458f77860e000151240e","fixation","","","img/fixation.png","null","","","test","","","","","","","","","","","","","","","","","","","",""
"677.7000002861023","271886","SARL_v6","SARL_v6sfzv6hyf","59dc458f77860e000151240e","rl","","","img/black_2bandit_b2.png","75","","0","test","","","114","","","4","circle","square","","0","5","","75","-7","4","-7","4","square","5","0"
"null","272641","SARL_v6","SARL_v6sfzv6hyf","59dc458f77860e000151240e","feedback","","","<div class=""veryhighPoints_sq""> 4 </div>","null","","na","test","","","NaN","","","","","","","","5","","75","","","","","","5",""
"409.69999980926514","273053","SARL_v6","SARL_v6sfzv6hyf","59dc458f77860e000151240e","freq","","","img/blue_2bandit_b2.png","70","","70","test","1","","115","","","","circle","square","110","1","6","0.9545454545454546","","","","","","","",""
"null","273458","SARL_v6","SARL_v6sfzv6hyf","59dc458f77860e000151240e","freq_resp","","","img/blue_2bandit_b.png","70","img/blue_2bandit_b.png","70","test","","","","","","","","","","","6","","","","","","","","",""
"null","273613","SARL_v6","SARL_v6sfzv6hyf","59dc458f77860e000151240e","fixation","","","img/fixation.png","null","","","test","","","","","","","","","","","","","","","","","","","",""
"397.69999980926514","274013","SARL_v6","SARL_v6sfzv6hyf","59dc458f77860e000151240e","freq","","","img/blue_2bandit_b2.png","70","","70","test","1","","116","","","","circle","square","111","2","6","0.954954954954955","","","","","","","",""
"null","274423","SARL_v6","SARL_v6sfzv6hyf","59dc458f77860e000151240e","freq_resp","","","img/blue_2bandit_b.png","70","img/blue_2bandit_b.png","70","test","","","","","","","","","","","6","","","","","","","","",""
"null","274582","SARL_v6","SARL_v6sfzv6hyf","59dc458f77860e000151240e","fixation","","","img/fixation.png","null","","","test","","","","","","","","","","","","","","","","","","","",""
"349","274934","SARL_v6","SARL_v6sfzv6hyf","59dc458f77860e000151240e","freq","","","img/blue_2bandit_b2.png","70","","70","test","1","","117","","","","circle","square","112","3","6","0.9553571428571429","","","","","","","",""
"null","275393","SARL_v6","SARL_v6sfzv6hyf","59dc458f77860e000151240e","freq_resp","","","img/blue_2bandit_b.png","70","img/blue_2bandit_b.png","70","test","","","","","","","","","","","6","","","","","","","","",""
"null","275551","SARL_v6","SARL_v6sfzv6hyf","59dc458f77860e000151240e","fixation","","","img/fixation.png","null","","","test","","","","","","","","","","","","","","","","","","","",""
"323.90000009536743","275878","SARL_v6","SARL_v6sfzv6hyf","59dc458f77860e000151240e","freq","","","img/blue_2bandit_b2.png","70","","70","test","1","","118","","","","circle","square","113","4","6","0.9557522123893806","","","","","","","",""
"null","276361","SARL_v6","SARL_v6sfzv6hyf","59dc458f77860e000151240e","freq_resp","","","img/blue_2bandit_b.png","70","img/blue_2bandit_b.png","70","test","","","","","","","","","","","6","","","","","","","","",""
"null","276516","SARL_v6","SARL_v6sfzv6hyf","59dc458f77860e000151240e","fixation","","","img/fixation.png","null","","","test","","","","","","","","","","","","","","","","","","","",""
"326.90000009536743","276845","SARL_v6","SARL_v6sfzv6hyf","59dc458f77860e000151240e","freq","","","img/blue_2bandit_b2.png","70","","70","test","1","","119","","","","circle","square","114","5","6","0.956140350877193","","","","","","","",""
"null","277329","SARL_v6","SARL_v6sfzv6hyf","59dc458f77860e000151240e","freq_resp","","","img/blue_2bandit_b.png","70","img/blue_2bandit_b.png","70","test","","","","","","","","","","","6","","","","","","","","",""
"null","277485","SARL_v6","SARL_v6sfzv6hyf","59dc458f77860e000151240e","fixation","","","img/fixation.png","null","","","test","","","","","","","","","","","","","","","","","","","",""
"766.5999999046326","278253","SARL_v6","SARL_v6sfzv6hyf","59dc458f77860e000151240e","infreq","","","img/orange_2bandit_b2.png","68","","68","test","1","","120","","","","circle","square","115","6","6","0.9565217391304348","","","","","","","",""
"null","278288","SARL_v6","SARL_v6sfzv6hyf","59dc458f77860e000151240e","infreq_resp","","","img/orange_2bandit_b.png","68","img/orange_2bandit_b.png","68","test","","","","","","","","","","","6","","","","","","","","",""
"null","278454","SARL_v6","SARL_v6sfzv6hyf","59dc458f77860e000151240e","fixation","","","img/fixation.png","null","","","test","","","","","","","","","","","","","","","","","","","",""
"796.8000001907349","279253","SARL_v6","SARL_v6sfzv6hyf","59dc458f77860e000151240e","freq","","","img/blue_2bandit_b2.png","70","","70","test","1","","121","","","","circle","square","116","7","6","0.9568965517241379","","","","","","","",""
"null","279259","SARL_v6","SARL_v6sfzv6hyf","59dc458f77860e000151240e","freq_resp","","","img/blue_2bandit_b.png","70","img/blue_2bandit_b.png","70","test","","","","","","","","","","","6","","","","","","","","",""
"null","279422","SARL_v6","SARL_v6sfzv6hyf","59dc458f77860e000151240e","fixation","","","img/fixation.png","null","","","test","","","","","","","","","","","","","","","","","","","",""
"null","280233","SARL_v6","SARL_v6sfzv6hyf","59dc458f77860e000151240e","freq","","","img/blue_2bandit_b2.png","null","","70","test","0","","122","","","","circle","square","117","8","6","0.9487179487179487","","","","","","","",""
"null","280388","SARL_v6","SARL_v6sfzv6hyf","59dc458f77860e000151240e","fixation","","","img/fixation.png","null","","","test","","","","","","","","","","","","","","","","","","","",""
"null","281205","SARL_v6","SARL_v6sfzv6hyf","59dc458f77860e000151240e","infreq","","","img/orange_2bandit_b2.png","null","","68","test","0","","123","","","","circle","square","118","9","6","0.940677966101695","","","","","","","",""
"null","281361","SARL_v6","SARL_v6sfzv6hyf","59dc458f77860e000151240e","fixation","","","img/fixation.png","null","","","test","","","","","","","","","","","","","","","","","","","",""
"779.0999999046326","282142","SARL_v6","SARL_v6sfzv6hyf","59dc458f77860e000151240e","freq","","","img/blue_2bandit_b2.png","70","","70","test","1","","124","","","","circle","square","119","10","6","0.9411764705882353","","","","","","","",""
"null","282166","SARL_v6","SARL_v6sfzv6hyf","59dc458f77860e000151240e","freq_resp","","","img/blue_2bandit_b.png","70","img/blue_2bandit_b.png","70","test","","","","","","","","","","","6","","","","","","","","",""
"null","282327","SARL_v6","SARL_v6sfzv6hyf","59dc458f77860e000151240e","fixation","","","img/fixation.png","null","","","test","","","","","","","","","","","","","","","","","","","",""
"539.9000000953674","282869","SARL_v6","SARL_v6sfzv6hyf","59dc458f77860e000151240e","freq","","","img/blue_2bandit_b2.png","70","","70","test","1","","125","","","","circle","square","120","11","6","0.9416666666666667","","","","","","","",""
"null","283138","SARL_v6","SARL_v6sfzv6hyf","59dc458f77860e000151240e","freq_resp","","","img/blue_2bandit_b.png","70","img/blue_2bandit_b.png","70","test","","","","","","","","","","","6","","","","","","","","",""
"null","283295","SARL_v6","SARL_v6sfzv6hyf","59dc458f77860e000151240e","fixation","","","img/fixation.png","null","","","test","","","","","","","","","","","","","","","","","","","",""
"339.2000002861023","283637","SARL_v6","SARL_v6sfzv6hyf","59dc458f77860e000151240e","freq","","","img/blue_2bandit_b2.png","70","","70","test","1","","126","","","","circle","square","121","12","6","0.9421487603305785","","","","","","","",""
"null","284107","SARL_v6","SARL_v6sfzv6hyf","59dc458f77860e000151240e","freq_resp","","","img/blue_2bandit_b.png","70","img/blue_2bandit_b.png","70","test","","","","","","","","","","","6","","","","","","","","",""
"null","284260","SARL_v6","SARL_v6sfzv6hyf","59dc458f77860e000151240e","fixation","","","img/fixation.png","null","","","test","","","","","","","","","","","","","","","","","","","",""
"334.80000019073486","284597","SARL_v6","SARL_v6sfzv6hyf","59dc458f77860e000151240e","freq","","","img/blue_2bandit_b2.png","70","","70","test","1","","127","","","","circle","square","122","13","6","0.9426229508196722","","","","","","","",""
"null","285078","SARL_v6","SARL_v6sfzv6hyf","59dc458f77860e000151240e","freq_resp","","","img/blue_2bandit_b.png","70","img/blue_2bandit_b.png","70","test","","","","","","","","","","","6","","","","","","","","",""
"null","285233","SARL_v6","SARL_v6sfzv6hyf","59dc458f77860e000151240e","fixation","","","img/fixation.png","null","","","test","","","","","","","","","","","","","","","","","","","",""
"338.19999980926514","285573","SARL_v6","SARL_v6sfzv6hyf","59dc458f77860e000151240e","freq","","","img/blue_2bandit_b2.png","70","","70","test","1","","128","","","","circle","square","123","14","6","0.943089430894309","","","","","","","",""
"null","286046","SARL_v6","SARL_v6sfzv6hyf","59dc458f77860e000151240e","freq_resp","","","img/blue_2bandit_b.png","70","img/blue_2bandit_b.png","70","test","","","","","","","","","","","6","","","","","","","","",""
"null","286199","SARL_v6","SARL_v6sfzv6hyf","59dc458f77860e000151240e","fixation","","","img/fixation.png","null","","","test","","","","","","","","","","","","","","","","","","","",""
"307.2000002861023","286509","SARL_v6","SARL_v6sfzv6hyf","59dc458f77860e000151240e","freq","","","img/blue_2bandit_b2.png","70","","70","test","1","","129","","","","circle","square","124","15","6","0.9435483870967742","","","","","","","",""
"null","287019","SARL_v6","SARL_v6sfzv6hyf","59dc458f77860e000151240e","freq_resp","","","img/blue_2bandit_b.png","70","img/blue_2bandit_b.png","70","test","","","","","","","","","","","6","","","","","","","","",""
"null","287172","SARL_v6","SARL_v6sfzv6hyf","59dc458f77860e000151240e","fixation","","","img/fixation.png","null","","","test","","","","","","","","","","","","","","","","","","","",""
"319.09999990463257","287493","SARL_v6","SARL_v6sfzv6hyf","59dc458f77860e000151240e","freq","","","img/blue_2bandit_b2.png","70","","70","test","1","","130","","","","circle","square","125","16","6","0.944","","","","","","","",""
