"rt","time_elapsed","expId","subject","prolificID","trialType","rlType","attType","stimulus","key_press","stim","corrresp","phase","corr","pracCounter","trialNum","rewardOne","rewardTwo","reward","bandOne","bandTwo","attentionNum","attentionRunNum","blockNum","performance","bandChosen","circleVal","squareVal","bandOneVal","bandTwoVal","shapeChosen","rlNum","badFlag"
"10273.59999999404","10281","SARL_v6","SARL_v6hs6wm9f9","63d6dfc970a407ead0b0d3a1","","","","","","","","","","","","","","","","","","","","","","","","","","","",""
"","13351","SARL_v6","SARL_v6hs6wm9f9","63d6dfc970a407ead0b0d3a1","fullscreen","fullscreen","fullscreen","","","","","","","","","","","","","","","","","","","","","","","","",""
"89758","103116","SARL_v6","SARL_v6hs6wm9f9","63d6dfc970a407ead0b0d3a1","","","","","","","","","","","","","","","","","","","","","","","","","","","",""
"null","103924","SARL_v6","SARL_v6hs6wm9f9","63d6dfc970a407ead0b0d3a1","freqPrac","","","img/orange_2bandit_b2.png","null","img/orange_2bandit_b2.png","70","prac","0","1","","","","","","","","","","","","","","","","","",""
"null","104939","SARL_v6","SARL_v6hs6wm9f9","63d6dfc970a407ead0b0d3a1","feedback","","","img/tooSlow.png","null","","na","prac","","","","","","","","","","","","","","","","","","","",""
"null","105098","SARL_v6","SARL_v6hs6wm9f9","63d6dfc970a407ead0b0d3a1","fixation","","","img/fixation.png","null","","","prac","","","","","","","","","","","","","","","","","","","",""
"null","105904","SARL_v6","SARL_v6hs6wm9f9","63d6dfc970a407ead0b0d3a1","infreqPrac","","","img/blue_2bandit_b2.png","null","img/blue_2bandit_b2.png","68","prac","0","2","","","","","","","","","","","","","","","","","",""
"null","106923","SARL_v6","SARL_v6hs6wm9f9","63d6dfc970a407ead0b0d3a1","feedback","","","img/tooSlow.png","null","","na","prac","","","","","","","","","","","","","","","","","","","",""
"null","107081","SARL_v6","SARL_v6hs6wm9f9","63d6dfc970a407ead0b0d3a1","fixation","","","img/fixation.png","null","","","prac","","","","","","","","","","","","","","","","","","","",""
"602.5","107688","SARL_v6","SARL_v6hs6wm9f9","63d6dfc970a407ead0b0d3a1","freqPrac","","","img/orange_2bandit_b2.png","68","img/orange_2bandit_b2.png","70","prac","0","3","","","","","","","","","","","","","","","","","",""
"602.5","107897","SARL_v6","SARL_v6hs6wm9f9","63d6dfc970a407ead0b0d3a1","freqPrac_resp","","","img/orange_2bandit_b.png","68","img/orange_2bandit_b.png","70","prac","","","","","","","","","","","","","","","","","","","",""
"null","108914","SARL_v6","SARL_v6hs6wm9f9","63d6dfc970a407ead0b0d3a1","feedback","","","img/wrongKey.png","null","","na","prac","","","","","","","","","","","","","","","","","","","",""
"null","109082","SARL_v6","SARL_v6hs6wm9f9","63d6dfc970a407ead0b0d3a1","fixation","","","img/fixation.png","null","","","prac","","","","","","","","","","","","","","","","","","","",""
"null","109887","SARL_v6","SARL_v6hs6wm9f9","63d6dfc970a407ead0b0d3a1","infreqPrac","","","img/blue_2bandit_b2.png","null","img/blue_2bandit_b2.png","68","prac","0","4","","","","","","","","","","","","","","","","","",""
"null","110896","SARL_v6","SARL_v6hs6wm9f9","63d6dfc970a407ead0b0d3a1","feedback","","","img/tooSlow.png","null","","na","prac","","","","","","","","","","","","","","","","","","","",""
"null","111065","SARL_v6","SARL_v6hs6wm9f9","63d6dfc970a407ead0b0d3a1","fixation","","","img/fixation.png","null","","","prac","","","","","","","","","","","","","","","","","","","",""
"493.40000000596046","111563","SARL_v6","SARL_v6hs6wm9f9","63d6dfc970a407ead0b0d3a1","infreqPrac","","","img/blue_2bandit_b2.png","68","img/blue_2bandit_b2.png","68","prac","1","4","","","","","","","","","","","","","","","","","",""
"493.40000000596046","111881","SARL_v6","SARL_v6hs6wm9f9","63d6dfc970a407ead0b0d3a1","infreqPrac_resp","","","img/blue_2bandit_b.png","68","img/blue_2bandit_b.png","68","prac","","","","","","","","","","","","","","","","","","","",""
"null","112048","SARL_v6","SARL_v6hs6wm9f9","63d6dfc970a407ead0b0d3a1","fixation","","","img/fixation.png","null","","","prac","","","","","","","","","","","","","","","","","","","",""
"479","112531","SARL_v6","SARL_v6hs6wm9f9","63d6dfc970a407ead0b0d3a1","infreqPrac","","","img/blue_2bandit_b2.png","68","img/blue_2bandit_b2.png","68","prac","1","4","","","","","","","","","","","","","","","","","",""
"479","112856","SARL_v6","SARL_v6hs6wm9f9","63d6dfc970a407ead0b0d3a1","infreqPrac_resp","","","img/blue_2bandit_b.png","68","img/blue_2bandit_b.png","68","prac","","","","","","","","","","","","","","","","","","","",""
"null","113016","SARL_v6","SARL_v6hs6wm9f9","63d6dfc970a407ead0b0d3a1","fixation","","","img/fixation.png","null","","","prac","","","","","","","","","","","","","","","","","","","",""
"416.59999999403954","113437","SARL_v6","SARL_v6hs6wm9f9","63d6dfc970a407ead0b0d3a1","freqPrac","","","img/orange_2bandit_b2.png","70","img/orange_2bandit_b2.png","70","prac","1","4","","","","","","","","","","","","","","","","","",""
"416.59999999403954","113835","SARL_v6","SARL_v6hs6wm9f9","63d6dfc970a407ead0b0d3a1","freqPrac_resp","","","img/orange_2bandit_b.png","70","img/orange_2bandit_b.png","70","prac","","","","","","","","","","","","","","","","","","","",""
"null","114000","SARL_v6","SARL_v6hs6wm9f9","63d6dfc970a407ead0b0d3a1","fixation","","","img/fixation.png","null","","","prac","","","","","","","","","","","","","","","","","","","",""
"431.5","114436","SARL_v6","SARL_v6hs6wm9f9","63d6dfc970a407ead0b0d3a1","infreqPrac","","","img/blue_2bandit_b2.png","68","img/blue_2bandit_b2.png","68","prac","1","4","","","","","","","","","","","","","","","","","",""
"431.5","114818","SARL_v6","SARL_v6hs6wm9f9","63d6dfc970a407ead0b0d3a1","infreqPrac_resp","","","img/blue_2bandit_b.png","68","img/blue_2bandit_b.png","68","prac","","","","","","","","","","","","","","","","","","","",""
"null","114983","SARL_v6","SARL_v6hs6wm9f9","63d6dfc970a407ead0b0d3a1","fixation","","","img/fixation.png","null","","","prac","","","","","","","","","","","","","","","","","","","",""
"328.2000000178814","115316","SARL_v6","SARL_v6hs6wm9f9","63d6dfc970a407ead0b0d3a1","freqPrac","","","img/orange_2bandit_b2.png","68","img/orange_2bandit_b2.png","70","prac","0","5","","","","","","","","","","","","","","","","","",""
"328.2000000178814","115800","SARL_v6","SARL_v6hs6wm9f9","63d6dfc970a407ead0b0d3a1","freqPrac_resp","","","img/orange_2bandit_b.png","68","img/orange_2bandit_b.png","70","prac","","","","","","","","","","","","","","","","","","","",""
"null","116819","SARL_v6","SARL_v6hs6wm9f9","63d6dfc970a407ead0b0d3a1","feedback","","","img/wrongKey.png","null","","na","prac","","","","","","","","","","","","","","","","","","","",""
"null","116986","SARL_v6","SARL_v6hs6wm9f9","63d6dfc970a407ead0b0d3a1","fixation","","","img/fixation.png","null","","","prac","","","","","","","","","","","","","","","","","","","",""
"471.59999999403954","117463","SARL_v6","SARL_v6hs6wm9f9","63d6dfc970a407ead0b0d3a1","freqPrac","","","img/orange_2bandit_b2.png","70","img/orange_2bandit_b2.png","70","prac","1","5","","","","","","","","","","","","","","","","","",""
"471.59999999403954","117795","SARL_v6","SARL_v6hs6wm9f9","63d6dfc970a407ead0b0d3a1","freqPrac_resp","","","img/orange_2bandit_b.png","70","img/orange_2bandit_b.png","70","prac","","","","","","","","","","","","","","","","","","","",""
"null","117950","SARL_v6","SARL_v6hs6wm9f9","63d6dfc970a407ead0b0d3a1","fixation","","","img/fixation.png","null","","","prac","","","","","","","","","","","","","","","","","","","",""
"6677.9000000059605","124632","SARL_v6","SARL_v6hs6wm9f9","63d6dfc970a407ead0b0d3a1","","","","","","","","prac","","","","","","","","","","","","","","","","","","","",""
"null","126140","SARL_v6","SARL_v6hs6wm9f9","63d6dfc970a407ead0b0d3a1","rlPractice","","","img/black_2bandit_b2.png","null","img/black_2bandit_b2.png","","prac","","","0","","","","","","","","","","","","","","","","",""
"null","126912","SARL_v6","SARL_v6hs6wm9f9","63d6dfc970a407ead0b0d3a1","feedback","","","<div font size = 80> TOO SLOW  </div>","null","","na","prac","","","1","10","-14","10","","","","","","","","","","","","","",""
"null","127070","SARL_v6","SARL_v6hs6wm9f9","63d6dfc970a407ead0b0d3a1","fixation","","","img/fixation.png","null","","","prac","","","","","","","","","","","","","","","","","","","",""
"null","128582","SARL_v6","SARL_v6hs6wm9f9","63d6dfc970a407ead0b0d3a1","rlPractice","","","img/black_2bandit_b2.png","null","img/black_2bandit_b2.png","","prac","","","1","","","","","","","","","","","","","","","","",""
"null","129345","SARL_v6","SARL_v6hs6wm9f9","63d6dfc970a407ead0b0d3a1","feedback","","","<div font size = 80> TOO SLOW  </div>","null","","na","prac","","","2","5","-5","5","","","","","","","","","","","","","",""
"null","129502","SARL_v6","SARL_v6hs6wm9f9","63d6dfc970a407ead0b0d3a1","fixation","","","img/fixation.png","null","","","prac","","","","","","","","","","","","","","","","","","","",""
"null","131012","SARL_v6","SARL_v6hs6wm9f9","63d6dfc970a407ead0b0d3a1","rlPractice","","","img/black_2bandit_b2.png","null","img/black_2bandit_b2.png","","prac","","","2","","","","","","","","","","","","","","","","",""
"null","131768","SARL_v6","SARL_v6hs6wm9f9","63d6dfc970a407ead0b0d3a1","feedback","","","<div font size = 80> TOO SLOW  </div>","null","","na","prac","","","3","30","2","30","","","","","","","","","","","","","",""
"null","131936","SARL_v6","SARL_v6hs6wm9f9","63d6dfc970a407ead0b0d3a1","fixation","","","img/fixation.png","null","","","prac","","","","","","","","","","","","","","","","","","","",""
"null","133442","SARL_v6","SARL_v6hs6wm9f9","63d6dfc970a407ead0b0d3a1","rlPractice","","","img/black_2bandit_b2.png","null","img/black_2bandit_b2.png","","prac","","","3","","","","","","","","","","","","","","","","",""
"null","134204","SARL_v6","SARL_v6hs6wm9f9","63d6dfc970a407ead0b0d3a1","feedback","","","<div font size = 80> TOO SLOW  </div>","null","","na","prac","","","4","-2","20","-2","","","","","","","","","","","","","",""
"null","134368","SARL_v6","SARL_v6hs6wm9f9","63d6dfc970a407ead0b0d3a1","fixation","","","img/fixation.png","null","","","prac","","","","","","","","","","","","","","","","","","","",""
"50737.5","185109","SARL_v6","SARL_v6hs6wm9f9","63d6dfc970a407ead0b0d3a1","","","","","","","","prac","","","","","","","","","","","","","","","","","","","",""
"null","185919","SARL_v6","SARL_v6hs6wm9f9","63d6dfc970a407ead0b0d3a1","mixAttFreqPrac","","","img/orange_2bandit_b2.png","null","img/orange_2bandit_b2.png","70","prac","","","1","","","","","","","","","","","","","","","","",""
"null","186079","SARL_v6","SARL_v6hs6wm9f9","63d6dfc970a407ead0b0d3a1","fixation","","","img/fixation.png","null","","","prac","","","","","","","","","","","","","","","","","","","",""
"39.80000001192093","186123","SARL_v6","SARL_v6hs6wm9f9","63d6dfc970a407ead0b0d3a1","mixAttInfreqPrac","","","img/blue_2bandit_b2.png","70","img/blue_2bandit_b2.png","68","prac","","","2","","","","","","","","","","","","","","","","",""
"39.80000001192093","186891","SARL_v6","SARL_v6hs6wm9f9","63d6dfc970a407ead0b0d3a1","infreqPrac_resp","","","img/blue_2bandit_b.png","70","img/orange_2bandit_b.png","68","prac","","","2","","","","","","","","","","","","","","","","",""
"147.59999999403954","187057","SARL_v6","SARL_v6hs6wm9f9","63d6dfc970a407ead0b0d3a1","fixation","","","img/fixation.png","68","","","prac","","","","","","","","","","","","","","","","","","","",""
"509.5","187571","SARL_v6","SARL_v6hs6wm9f9","63d6dfc970a407ead0b0d3a1","mixAttInfreqPrac","","","img/blue_2bandit_b2.png","68","img/blue_2bandit_b2.png","68","prac","","","3","","","","","","","","","","","","","","","","",""
"509.5","187870","SARL_v6","SARL_v6hs6wm9f9","63d6dfc970a407ead0b0d3a1","infreqPrac_resp","","","img/blue_2bandit_b.png","68","img/orange_2bandit_b.png","68","prac","","","3","","","","","","","","","","","","","","","","",""
"null","188029","SARL_v6","SARL_v6hs6wm9f9","63d6dfc970a407ead0b0d3a1","fixation","","","img/fixation.png","null","","","prac","","","","","","","","","","","","","","","","","","","",""
"136","188167","SARL_v6","SARL_v6hs6wm9f9","63d6dfc970a407ead0b0d3a1","mixAttInfreqPrac","","","img/blue_2bandit_b2.png","70","img/blue_2bandit_b2.png","68","prac","","","4","","","","","","","","","","","","","","","","",""
"136","188836","SARL_v6","SARL_v6hs6wm9f9","63d6dfc970a407ead0b0d3a1","infreqPrac_resp","","","img/blue_2bandit_b.png","70","img/orange_2bandit_b.png","68","prac","","","4","","","","","","","","","","","","","","","","",""
"null","188997","SARL_v6","SARL_v6hs6wm9f9","63d6dfc970a407ead0b0d3a1","fixation","","","img/fixation.png","null","","","prac","","","","","","","","","","","","","","","","","","","",""
"592.5","189594","SARL_v6","SARL_v6hs6wm9f9","63d6dfc970a407ead0b0d3a1","mixAttFreqPrac","","","img/orange_2bandit_b2.png","70","img/orange_2bandit_b2.png","70","prac","","","5","","","","","","","","","","","","","","","","",""
"592.5","189817","SARL_v6","SARL_v6hs6wm9f9","63d6dfc970a407ead0b0d3a1","freqPrac_resp","","","img/orange_2bandit_b.png","70","img/orange_2bandit_b.png","70","prac","","","5","","","","","","","","","","","","","","","","",""
"null","189979","SARL_v6","SARL_v6hs6wm9f9","63d6dfc970a407ead0b0d3a1","fixation","","","img/fixation.png","null","","","prac","","","","","","","","","","","","","","","","","","","",""
"null","191497","SARL_v6","SARL_v6hs6wm9f9","63d6dfc970a407ead0b0d3a1","mixRLPractice","","","img/black_2bandit_b2.png","null","img/black_2bandit_b2.png","","prac","","","5","","","","","","","","","","","","","","","","",""
"null","192255","SARL_v6","SARL_v6hs6wm9f9","63d6dfc970a407ead0b0d3a1","feedback","","","<div font size = 80> TOO SLOW  </div>","null","","na","prac","","","6","-14","10","-14","","","","","","","","","","","","","",""
"null","192415","SARL_v6","SARL_v6hs6wm9f9","63d6dfc970a407ead0b0d3a1","fixation","","","img/fixation.png","null","","","prac","","","","","","","","","","","","","","","","","","","",""
"691.3000000119209","193112","SARL_v6","SARL_v6hs6wm9f9","63d6dfc970a407ead0b0d3a1","mixAttFreqPrac","","","img/orange_2bandit_b2.png","70","img/orange_2bandit_b2.png","70","prac","","","7","","","","","","","","","","","","","","","","",""
"691.3000000119209","193230","SARL_v6","SARL_v6hs6wm9f9","63d6dfc970a407ead0b0d3a1","freqPrac_resp","","","img/orange_2bandit_b.png","70","img/orange_2bandit_b.png","70","prac","","","7","","","","","","","","","","","","","","","","",""
"null","193395","SARL_v6","SARL_v6hs6wm9f9","63d6dfc970a407ead0b0d3a1","fixation","","","img/fixation.png","null","","","prac","","","","","","","","","","","","","","","","","","","",""
"691.0999999940395","194089","SARL_v6","SARL_v6hs6wm9f9","63d6dfc970a407ead0b0d3a1","mixAttInfreqPrac","","","img/blue_2bandit_b2.png","68","img/blue_2bandit_b2.png","68","prac","","","8","","","","","","","","","","","","","","","","",""
"691.0999999940395","194216","SARL_v6","SARL_v6hs6wm9f9","63d6dfc970a407ead0b0d3a1","infreqPrac_resp","","","img/blue_2bandit_b.png","68","img/orange_2bandit_b.png","68","prac","","","8","","","","","","","","","","","","","","","","",""
"null","194382","SARL_v6","SARL_v6hs6wm9f9","63d6dfc970a407ead0b0d3a1","fixation","","","img/fixation.png","null","","","prac","","","","","","","","","","","","","","","","","","","",""
"603.7999999821186","194991","SARL_v6","SARL_v6hs6wm9f9","63d6dfc970a407ead0b0d3a1","mixAttFreqPrac","","","img/orange_2bandit_b2.png","70","img/orange_2bandit_b2.png","70","prac","","","9","","","","","","","","","","","","","","","","",""
"603.7999999821186","195196","SARL_v6","SARL_v6hs6wm9f9","63d6dfc970a407ead0b0d3a1","freqPrac_resp","","","img/orange_2bandit_b.png","70","img/orange_2bandit_b.png","70","prac","","","9","","","","","","","","","","","","","","","","",""
"null","195365","SARL_v6","SARL_v6hs6wm9f9","63d6dfc970a407ead0b0d3a1","fixation","","","img/fixation.png","null","","","prac","","","","","","","","","","","","","","","","","","","",""
"386.90000000596046","195755","SARL_v6","SARL_v6hs6wm9f9","63d6dfc970a407ead0b0d3a1","mixAttFreqPrac","","","img/orange_2bandit_b2.png","70","img/orange_2bandit_b2.png","70","prac","","","10","","","","","","","","","","","","","","","","",""
"386.90000000596046","196182","SARL_v6","SARL_v6hs6wm9f9","63d6dfc970a407ead0b0d3a1","freqPrac_resp","","","img/orange_2bandit_b.png","70","img/orange_2bandit_b.png","70","prac","","","10","","","","","","","","","","","","","","","","",""
"null","196347","SARL_v6","SARL_v6hs6wm9f9","63d6dfc970a407ead0b0d3a1","fixation","","","img/fixation.png","null","","","prac","","","","","","","","","","","","","","","","","","","",""
"519.3999999761581","196871","SARL_v6","SARL_v6hs6wm9f9","63d6dfc970a407ead0b0d3a1","mixAttInfreqPrac","","","img/blue_2bandit_b2.png","68","img/blue_2bandit_b2.png","68","prac","","","11","","","","","","","","","","","","","","","","",""
"519.3999999761581","197157","SARL_v6","SARL_v6hs6wm9f9","63d6dfc970a407ead0b0d3a1","infreqPrac_resp","","","img/blue_2bandit_b.png","68","img/orange_2bandit_b.png","68","prac","","","11","","","","","","","","","","","","","","","","",""
"null","197314","SARL_v6","SARL_v6hs6wm9f9","63d6dfc970a407ead0b0d3a1","fixation","","","img/fixation.png","null","","","prac","","","","","","","","","","","","","","","","","","","",""
"null","198823","SARL_v6","SARL_v6hs6wm9f9","63d6dfc970a407ead0b0d3a1","mixRLPractice","","","img/black_2bandit_b2.png","null","img/black_2bandit_b2.png","","prac","","","11","","","","","","","","","","","","","","","","",""
"null","199591","SARL_v6","SARL_v6hs6wm9f9","63d6dfc970a407ead0b0d3a1","feedback","","","<div font size = 80> TOO SLOW  </div>","null","","na","prac","","","12","5","-5","5","","","","","","","","","","","","","",""
"null","199749","SARL_v6","SARL_v6hs6wm9f9","63d6dfc970a407ead0b0d3a1","fixation","","","img/fixation.png","null","","","prac","","","","","","","","","","","","","","","","","","","",""
"8258.59999999404","208011","SARL_v6","SARL_v6hs6wm9f9","63d6dfc970a407ead0b0d3a1","","","","","","","","prac","","","","","","","","","","","","","","","","","","","",""
"741.4000000059605","208759","SARL_v6","SARL_v6hs6wm9f9","63d6dfc970a407ead0b0d3a1","freq","","","img/orange_2bandit_b2.png","70","","70","test","1","","1","","","","circle","square","1","1","1","1","","","","","","","",""
"null","208823","SARL_v6","SARL_v6hs6wm9f9","63d6dfc970a407ead0b0d3a1","freq_resp","","","img/orange_2bandit_b.png","70","img/orange_2bandit_b.png","70","test","","","","","","","","","","","1","","","","","","","","",""
"null","208984","SARL_v6","SARL_v6hs6wm9f9","63d6dfc970a407ead0b0d3a1","fixation","","","img/fixation.png","null","","","test","","","","","","","","","","","","","","","","","","","",""
"354.69999998807907","209342","SARL_v6","SARL_v6hs6wm9f9","63d6dfc970a407ead0b0d3a1","freq","","","img/orange_2bandit_b2.png","70","","70","test","1","","2","","","","circle","square","2","2","1","1","","","","","","","",""
"null","209799","SARL_v6","SARL_v6hs6wm9f9","63d6dfc970a407ead0b0d3a1","freq_resp","","","img/orange_2bandit_b.png","70","img/orange_2bandit_b.png","70","test","","","","","","","","","","","1","","","","","","","","",""
"null","209967","SARL_v6","SARL_v6hs6wm9f9","63d6dfc970a407ead0b0d3a1","fixation","","","img/fixation.png","null","","","test","","","","","","","","","","","","","","","","","","","",""
"370.5","210342","SARL_v6","SARL_v6hs6wm9f9","63d6dfc970a407ead0b0d3a1","freq","","","img/orange_2bandit_b2.png","70","","70","test","1","","3","","","","circle","square","3","3","1","1","","","","","","","",""
"null","210781","SARL_v6","SARL_v6hs6wm9f9","63d6dfc970a407ead0b0d3a1","freq_resp","","","img/orange_2bandit_b.png","70","img/orange_2bandit_b.png","70","test","","","","","","","","","","","1","","","","","","","","",""
"null","210935","SARL_v6","SARL_v6hs6wm9f9","63d6dfc970a407ead0b0d3a1","fixation","","","img/fixation.png","null","","","test","","","","","","","","","","","","","","","","","","","",""
"361.59999999403954","211300","SARL_v6","SARL_v6hs6wm9f9","63d6dfc970a407ead0b0d3a1","freq","","","img/orange_2bandit_b2.png","70","","70","test","1","","4","","","","circle","square","4","4","1","1","","","","","","","",""
"null","211750","SARL_v6","SARL_v6hs6wm9f9","63d6dfc970a407ead0b0d3a1","freq_resp","","","img/orange_2bandit_b.png","70","img/orange_2bandit_b.png","70","test","","","","","","","","","","","1","","","","","","","","",""
"null","211917","SARL_v6","SARL_v6hs6wm9f9","63d6dfc970a407ead0b0d3a1","fixation","","","img/fixation.png","null","","","test","","","","","","","","","","","","","","","","","","","",""
"335.80000001192093","212256","SARL_v6","SARL_v6hs6wm9f9","63d6dfc970a407ead0b0d3a1","freq","","","img/orange_2bandit_b2.png","70","","70","test","1","","5","","","","circle","square","5","5","1","1","","","","","","","",""
"null","212730","SARL_v6","SARL_v6hs6wm9f9","63d6dfc970a407ead0b0d3a1","freq_resp","","","img/orange_2bandit_b.png","70","img/orange_2bandit_b.png","70","test","","","","","","","","","","","1","","","","","","","","",""
"null","212883","SARL_v6","SARL_v6hs6wm9f9","63d6dfc970a407ead0b0d3a1","fixation","","","img/fixation.png","null","","","test","","","","","","","","","","","","","","","","","","","",""
"431.39999997615814","213319","SARL_v6","SARL_v6hs6wm9f9","63d6dfc970a407ead0b0d3a1","infreq","","","img/blue_2bandit_b2.png","68","","68","test","1","","6","","","","circle","square","6","6","1","1","","","","","","","",""
"null","213703","SARL_v6","SARL_v6hs6wm9f9","63d6dfc970a407ead0b0d3a1","infreq_resp","","","img/blue_2bandit_b.png","68","img/blue_2bandit_b.png","68","test","","","","","","","","","","","1","","","","","","","","",""
"null","213868","SARL_v6","SARL_v6hs6wm9f9","63d6dfc970a407ead0b0d3a1","fixation","","","img/fixation.png","null","","","test","","","","","","","","","","","","","","","","","","","",""
"130.69999998807907","214002","SARL_v6","SARL_v6hs6wm9f9","63d6dfc970a407ead0b0d3a1","freq","","","img/orange_2bandit_b2.png","68","","70","test","0","","7","","","","circle","square","7","7","1","0.8571428571428571","","","","","","","",""
"null","214683","SARL_v6","SARL_v6hs6wm9f9","63d6dfc970a407ead0b0d3a1","freq_resp","","","img/orange_2bandit_b.png","68","img/orange_2bandit_b.png","70","test","","","","","","","","","","","1","","","","","","","","",""
"null","214850","SARL_v6","SARL_v6hs6wm9f9","63d6dfc970a407ead0b0d3a1","fixation","","","img/fixation.png","null","","","test","","","","","","","","","","","","","","","","","","","",""
"null","215669","SARL_v6","SARL_v6hs6wm9f9","63d6dfc970a407ead0b0d3a1","freq","","","img/orange_2bandit_b2.png","null","","70","test","0","","8","","","","circle","square","8","8","1","0.75","","","","","","","",""
"null","215836","SARL_v6","SARL_v6hs6wm9f9","63d6dfc970a407ead0b0d3a1","fixation","","","img/fixation.png","null","","","test","","","","","","","","","","","","","","","","","","","",""
"587.5999999940395","216426","SARL_v6","SARL_v6hs6wm9f9","63d6dfc970a407ead0b0d3a1","freq","","","img/orange_2bandit_b2.png","70","","70","test","1","","9","","","","circle","square","9","9","1","0.7777777777777778","","","","","","","",""
"null","216647","SARL_v6","SARL_v6hs6wm9f9","63d6dfc970a407ead0b0d3a1","freq_resp","","","img/orange_2bandit_b.png","70","img/orange_2bandit_b.png","70","test","","","","","","","","","","","1","","","","","","","","",""
"null","216802","SARL_v6","SARL_v6hs6wm9f9","63d6dfc970a407ead0b0d3a1","fixation","","","img/fixation.png","null","","","test","","","","","","","","","","","","","","","","","","","",""
"181.80000001192093","216989","SARL_v6","SARL_v6hs6wm9f9","63d6dfc970a407ead0b0d3a1","freq","","","img/orange_2bandit_b2.png","70","","70","test","1","","10","","","","circle","square","10","10","1","0.8","","","","","","","",""
"null","217620","SARL_v6","SARL_v6hs6wm9f9","63d6dfc970a407ead0b0d3a1","freq_resp","","","img/orange_2bandit_b.png","70","img/orange_2bandit_b.png","70","test","","","","","","","","","","","1","","","","","","","","",""
"null","217786","SARL_v6","SARL_v6hs6wm9f9","63d6dfc970a407ead0b0d3a1","fixation","","","img/fixation.png","null","","","test","","","","","","","","","","","","","","","","","","","",""
"531","218322","SARL_v6","SARL_v6hs6wm9f9","63d6dfc970a407ead0b0d3a1","freq","","","img/orange_2bandit_b2.png","70","","70","test","1","","11","","","","circle","square","11","11","1","0.8181818181818182","","","","","","","",""
"null","218612","SARL_v6","SARL_v6hs6wm9f9","63d6dfc970a407ead0b0d3a1","freq_resp","","","img/orange_2bandit_b.png","70","img/orange_2bandit_b.png","70","test","","","","","","","","","","","1","","","","","","","","",""
"null","218770","SARL_v6","SARL_v6hs6wm9f9","63d6dfc970a407ead0b0d3a1","fixation","","","img/fixation.png","null","","","test","","","","","","","","","","","","","","","","","","","",""
"119.30000001192093","218894","SARL_v6","SARL_v6hs6wm9f9","63d6dfc970a407ead0b0d3a1","freq","","","img/orange_2bandit_b2.png","70","","70","test","1","","12","","","","circle","square","12","12","1","0.8333333333333334","","","","","","","",""
"null","219589","SARL_v6","SARL_v6hs6wm9f9","63d6dfc970a407ead0b0d3a1","freq_resp","","","img/orange_2bandit_b.png","70","img/orange_2bandit_b.png","70","test","","","","","","","","","","","1","","","","","","","","",""
"null","219754","SARL_v6","SARL_v6hs6wm9f9","63d6dfc970a407ead0b0d3a1","fixation","","","img/fixation.png","null","","","test","","","","","","","","","","","","","","","","","","","",""
"640.7999999821186","220399","SARL_v6","SARL_v6hs6wm9f9","63d6dfc970a407ead0b0d3a1","freq","","","img/orange_2bandit_b2.png","70","","70","test","1","","13","","","","circle","square","13","13","1","0.8461538461538461","","","","","","","",""
"null","220567","SARL_v6","SARL_v6hs6wm9f9","63d6dfc970a407ead0b0d3a1","freq_resp","","","img/orange_2bandit_b.png","70","img/orange_2bandit_b.png","70","test","","","","","","","","","","","1","","","","","","","","",""
"null","220735","SARL_v6","SARL_v6hs6wm9f9","63d6dfc970a407ead0b0d3a1","fixation","","","img/fixation.png","null","","","test","","","","","","","","","","","","","","","","","","","",""
"326.09999999403954","221065","SARL_v6","SARL_v6hs6wm9f9","63d6dfc970a407ead0b0d3a1","freq","","","img/orange_2bandit_b2.png","70","","70","test","1","","14","","","","circle","square","14","14","1","0.8571428571428571","","","","","","","",""
"null","221548","SARL_v6","SARL_v6hs6wm9f9","63d6dfc970a407ead0b0d3a1","freq_resp","","","img/orange_2bandit_b.png","70","img/orange_2bandit_b.png","70","test","","","","","","","","","","","1","","","","","","","","",""
"null","221717","SARL_v6","SARL_v6hs6wm9f9","63d6dfc970a407ead0b0d3a1","fixation","","","img/fixation.png","null","","","test","","","","","","","","","","","","","","","","","","","",""
"8.299999982118607","221728","SARL_v6","SARL_v6hs6wm9f9","63d6dfc970a407ead0b0d3a1","freq","","","img/orange_2bandit_b2.png","70","","70","test","1","","15","","","","circle","square","15","15","1","0.8666666666666667","","","","","","","",""
"null","222527","SARL_v6","SARL_v6hs6wm9f9","63d6dfc970a407ead0b0d3a1","freq_resp","","","img/orange_2bandit_b.png","70","img/orange_2bandit_b.png","70","test","","","","","","","","","","","1","","","","","","","","",""
"null","222687","SARL_v6","SARL_v6hs6wm9f9","63d6dfc970a407ead0b0d3a1","fixation","","","img/fixation.png","null","","","test","","","","","","","","","","","","","","","","","","","",""
"201","222894","SARL_v6","SARL_v6hs6wm9f9","63d6dfc970a407ead0b0d3a1","freq","","","img/orange_2bandit_b2.png","70","","70","test","1","","16","","","","circle","square","16","16","1","0.875","","","","","","","",""
"null","223509","SARL_v6","SARL_v6hs6wm9f9","63d6dfc970a407ead0b0d3a1","freq_resp","","","img/orange_2bandit_b.png","70","img/orange_2bandit_b.png","70","test","","","","","","","","","","","1","","","","","","","","",""
"null","223671","SARL_v6","SARL_v6hs6wm9f9","63d6dfc970a407ead0b0d3a1","fixation","","","img/fixation.png","null","","","test","","","","","","","","","","","","","","","","","","","",""
"358","224034","SARL_v6","SARL_v6hs6wm9f9","63d6dfc970a407ead0b0d3a1","freq","","","img/orange_2bandit_b2.png","70","","70","test","1","","17","","","","circle","square","17","17","1","0.8823529411764706","","","","","","","",""
"null","224484","SARL_v6","SARL_v6hs6wm9f9","63d6dfc970a407ead0b0d3a1","freq_resp","","","img/orange_2bandit_b.png","70","img/orange_2bandit_b.png","70","test","","","","","","","","","","","1","","","","","","","","",""
"null","224653","SARL_v6","SARL_v6hs6wm9f9","63d6dfc970a407ead0b0d3a1","fixation","","","img/fixation.png","null","","","test","","","","","","","","","","","","","","","","","","","",""
"114.5","224773","SARL_v6","SARL_v6hs6wm9f9","63d6dfc970a407ead0b0d3a1","freq","","","img/orange_2bandit_b2.png","70","","70","test","1","","18","","","","circle","square","18","18","1","0.8888888888888888","","","","","","","",""
"null","225469","SARL_v6","SARL_v6hs6wm9f9","63d6dfc970a407ead0b0d3a1","freq_resp","","","img/orange_2bandit_b.png","70","img/orange_2bandit_b.png","70","test","","","","","","","","","","","1","","","","","","","","",""
"null","225636","SARL_v6","SARL_v6hs6wm9f9","63d6dfc970a407ead0b0d3a1","fixation","","","img/fixation.png","null","","","test","","","","","","","","","","","","","","","","","","","",""
"255.80000001192093","225895","SARL_v6","SARL_v6hs6wm9f9","63d6dfc970a407ead0b0d3a1","infreq","","","img/blue_2bandit_b2.png","70","","68","test","0","","19","","","","circle","square","19","19","1","0.8421052631578947","","","","","","","",""
"null","226444","SARL_v6","SARL_v6hs6wm9f9","63d6dfc970a407ead0b0d3a1","infreq_resp","","","img/blue_2bandit_b.png","70","img/blue_2bandit_b.png","68","test","","","","","","","","","","","1","","","","","","","","",""
"null","226604","SARL_v6","SARL_v6hs6wm9f9","63d6dfc970a407ead0b0d3a1","fixation","","","img/fixation.png","null","","","test","","","","","","","","","","","","","","","","","","","",""
"413.2999999821186","227020","SARL_v6","SARL_v6hs6wm9f9","63d6dfc970a407ead0b0d3a1","freq","","","img/orange_2bandit_b2.png","70","","70","test","1","","20","","","","circle","square","20","20","1","0.85","","","","","","","",""
"null","227423","SARL_v6","SARL_v6hs6wm9f9","63d6dfc970a407ead0b0d3a1","freq_resp","","","img/orange_2bandit_b.png","70","img/orange_2bandit_b.png","70","test","","","","","","","","","","","1","","","","","","","","",""
"null","227586","SARL_v6","SARL_v6hs6wm9f9","63d6dfc970a407ead0b0d3a1","fixation","","","img/fixation.png","null","","","test","","","","","","","","","","","","","","","","","","","",""
"380.2000000178814","227971","SARL_v6","SARL_v6hs6wm9f9","63d6dfc970a407ead0b0d3a1","freq","","","img/orange_2bandit_b2.png","70","","70","test","1","","21","","","","circle","square","21","21","1","0.8571428571428571","","","","","","","",""
"null","228401","SARL_v6","SARL_v6hs6wm9f9","63d6dfc970a407ead0b0d3a1","freq_resp","","","img/orange_2bandit_b.png","70","img/orange_2bandit_b.png","70","test","","","","","","","","","","","1","","","","","","","","",""
"null","228560","SARL_v6","SARL_v6hs6wm9f9","63d6dfc970a407ead0b0d3a1","fixation","","","img/fixation.png","null","","","test","","","","","","","","","","","","","","","","","","","",""
"305.5","228870","SARL_v6","SARL_v6hs6wm9f9","63d6dfc970a407ead0b0d3a1","freq","","","img/orange_2bandit_b2.png","70","","70","test","1","","22","","","","circle","square","22","22","1","0.8636363636363636","","","","","","","",""
"null","229369","SARL_v6","SARL_v6hs6wm9f9","63d6dfc970a407ead0b0d3a1","freq_resp","","","img/orange_2bandit_b.png","70","img/orange_2bandit_b.png","70","test","","","","","","","","","","","1","","","","","","","","",""
"null","229538","SARL_v6","SARL_v6hs6wm9f9","63d6dfc970a407ead0b0d3a1","fixation","","","img/fixation.png","null","","","test","","","","","","","","","","","","","","","","","","","",""
"292.7000000178814","229834","SARL_v6","SARL_v6hs6wm9f9","63d6dfc970a407ead0b0d3a1","freq","","","img/orange_2bandit_b2.png","68","","70","test","0","","23","","","","circle","square","23","23","1","0.8260869565217391","","","","","","","",""
"null","230348","SARL_v6","SARL_v6hs6wm9f9","63d6dfc970a407ead0b0d3a1","freq_resp","","","img/orange_2bandit_b.png","68","img/orange_2bandit_b.png","70","test","","","","","","","","","","","1","","","","","","","","",""
"null","230503","SARL_v6","SARL_v6hs6wm9f9","63d6dfc970a407ead0b0d3a1","fixation","","","img/fixation.png","null","","","test","","","","","","","","","","","","","","","","","","","",""
"477.5","230985","SARL_v6","SARL_v6hs6wm9f9","63d6dfc970a407ead0b0d3a1","freq","","","img/orange_2bandit_b2.png","70","","70","test","1","","24","","","","circle","square","24","24","1","0.8333333333333334","","","","","","","",""
"null","231313","SARL_v6","SARL_v6hs6wm9f9","63d6dfc970a407ead0b0d3a1","freq_resp","","","img/orange_2bandit_b.png","70","img/orange_2bandit_b.png","70","test","","","","","","","","","","","1","","","","","","","","",""
"null","231473","SARL_v6","SARL_v6hs6wm9f9","63d6dfc970a407ead0b0d3a1","fixation","","","img/fixation.png","null","","","test","","","","","","","","","","","","","","","","","","","",""
"274.40000000596046","231753","SARL_v6","SARL_v6hs6wm9f9","63d6dfc970a407ead0b0d3a1","freq","","","img/orange_2bandit_b2.png","70","","70","test","1","","25","","","","circle","square","25","25","1","0.84","","","","","","","",""
"null","232296","SARL_v6","SARL_v6hs6wm9f9","63d6dfc970a407ead0b0d3a1","freq_resp","","","img/orange_2bandit_b.png","70","img/orange_2bandit_b.png","70","test","","","","","","","","","","","1","","","","","","","","",""
"null","232456","SARL_v6","SARL_v6hs6wm9f9","63d6dfc970a407ead0b0d3a1","fixation","","","img/fixation.png","null","","","test","","","","","","","","","","","","","","","","","","","",""
"332.59999999403954","232792","SARL_v6","SARL_v6hs6wm9f9","63d6dfc970a407ead0b0d3a1","freq","","","img/orange_2bandit_b2.png","70","","70","test","1","","26","","","","circle","square","26","26","1","0.8461538461538461","","","","","","","",""
"null","233267","SARL_v6","SARL_v6hs6wm9f9","63d6dfc970a407ead0b0d3a1","freq_resp","","","img/orange_2bandit_b.png","70","img/orange_2bandit_b.png","70","test","","","","","","","","","","","1","","","","","","","","",""
"null","233422","SARL_v6","SARL_v6hs6wm9f9","63d6dfc970a407ead0b0d3a1","fixation","","","img/fixation.png","null","","","test","","","","","","","","","","","","","","","","","","","",""
"null","234936","SARL_v6","SARL_v6hs6wm9f9","63d6dfc970a407ead0b0d3a1","rl","","","img/black_2bandit_b2.png","null","","0","test","","","27","","","0","circle","square","","0","1","","null","-3","-3","-3","-3","too slow","1","0"
"null","235701","SARL_v6","SARL_v6hs6wm9f9","63d6dfc970a407ead0b0d3a1","feedback","","","<div font size = 80> TOO SLOW  </div>","null","","na","test","","","NaN","","","","","","","","1","","null","","","","","","1",""
"51.10000002384186","235758","SARL_v6","SARL_v6hs6wm9f9","63d6dfc970a407ead0b0d3a1","freq","","","img/orange_2bandit_b2.png","70","","70","test","1","","28","","","","circle","square","27","1","2","0.8518518518518519","","","","","","","",""
"null","236518","SARL_v6","SARL_v6hs6wm9f9","63d6dfc970a407ead0b0d3a1","freq_resp","","","img/orange_2bandit_b.png","70","img/orange_2bandit_b.png","70","test","","","","","","","","","","","2","","","","","","","","",""
"null","236671","SARL_v6","SARL_v6hs6wm9f9","63d6dfc970a407ead0b0d3a1","fixation","","","img/fixation.png","null","","","test","","","","","","","","","","","","","","","","","","","",""
"377.5","237054","SARL_v6","SARL_v6hs6wm9f9","63d6dfc970a407ead0b0d3a1","freq","","","img/orange_2bandit_b2.png","70","","70","test","1","","29","","","","circle","square","28","2","2","0.8571428571428571","","","","","","","",""
"null","237488","SARL_v6","SARL_v6hs6wm9f9","63d6dfc970a407ead0b0d3a1","freq_resp","","","img/orange_2bandit_b.png","70","img/orange_2bandit_b.png","70","test","","","","","","","","","","","2","","","","","","","","",""
"null","237654","SARL_v6","SARL_v6hs6wm9f9","63d6dfc970a407ead0b0d3a1","fixation","","","img/fixation.png","null","","","test","","","","","","","","","","","","","","","","","","","",""
"113.40000000596046","237771","SARL_v6","SARL_v6hs6wm9f9","63d6dfc970a407ead0b0d3a1","freq","","","img/orange_2bandit_b2.png","70","","70","test","1","","30","","","","circle","square","29","3","2","0.8620689655172413","","","","","","","",""
"null","238473","SARL_v6","SARL_v6hs6wm9f9","63d6dfc970a407ead0b0d3a1","freq_resp","","","img/orange_2bandit_b.png","70","img/orange_2bandit_b.png","70","test","","","","","","","","","","","2","","","","","","","","",""
"null","238637","SARL_v6","SARL_v6hs6wm9f9","63d6dfc970a407ead0b0d3a1","fixation","","","img/fixation.png","null","","","test","","","","","","","","","","","","","","","","","","","",""
"311.69999998807907","238954","SARL_v6","SARL_v6hs6wm9f9","63d6dfc970a407ead0b0d3a1","freq","","","img/orange_2bandit_b2.png","70","","70","test","1","","31","","","","circle","square","30","4","2","0.8666666666666667","","","","","","","",""
"null","239450","SARL_v6","SARL_v6hs6wm9f9","63d6dfc970a407ead0b0d3a1","freq_resp","","","img/orange_2bandit_b.png","70","img/orange_2bandit_b.png","70","test","","","","","","","","","","","2","","","","","","","","",""
"null","239607","SARL_v6","SARL_v6hs6wm9f9","63d6dfc970a407ead0b0d3a1","fixation","","","img/fixation.png","null","","","test","","","","","","","","","","","","","","","","","","","",""
"88.19999998807907","239700","SARL_v6","SARL_v6hs6wm9f9","63d6dfc970a407ead0b0d3a1","freq","","","img/orange_2bandit_b2.png","70","","70","test","1","","32","","","","circle","square","31","5","2","0.8709677419354839","","","","","","","",""
"null","240426","SARL_v6","SARL_v6hs6wm9f9","63d6dfc970a407ead0b0d3a1","freq_resp","","","img/orange_2bandit_b.png","70","img/orange_2bandit_b.png","70","test","","","","","","","","","","","2","","","","","","","","",""
"null","240591","SARL_v6","SARL_v6hs6wm9f9","63d6dfc970a407ead0b0d3a1","fixation","","","img/fixation.png","null","","","test","","","","","","","","","","","","","","","","","","","",""
"467.59999999403954","241060","SARL_v6","SARL_v6hs6wm9f9","63d6dfc970a407ead0b0d3a1","freq","","","img/orange_2bandit_b2.png","70","","70","test","1","","33","","","","circle","square","32","6","2","0.875","","","","","","","",""
"null","241397","SARL_v6","SARL_v6hs6wm9f9","63d6dfc970a407ead0b0d3a1","freq_resp","","","img/orange_2bandit_b.png","70","img/orange_2bandit_b.png","70","test","","","","","","","","","","","2","","","","","","","","",""
"null","241557","SARL_v6","SARL_v6hs6wm9f9","63d6dfc970a407ead0b0d3a1","fixation","","","img/fixation.png","null","","","test","","","","","","","","","","","","","","","","","","","",""
"223.69999998807907","241785","SARL_v6","SARL_v6hs6wm9f9","63d6dfc970a407ead0b0d3a1","freq","","","img/orange_2bandit_b2.png","70","","70","test","1","","34","","","","circle","square","33","7","2","0.8787878787878788","","","","","","","",""
"null","242378","SARL_v6","SARL_v6hs6wm9f9","63d6dfc970a407ead0b0d3a1","freq_resp","","","img/orange_2bandit_b.png","70","img/orange_2bandit_b.png","70","test","","","","","","","","","","","2","","","","","","","","",""
"null","242542","SARL_v6","SARL_v6hs6wm9f9","63d6dfc970a407ead0b0d3a1","fixation","","","img/fixation.png","null","","","test","","","","","","","","","","","","","","","","","","","",""
"614.7999999821186","243159","SARL_v6","SARL_v6hs6wm9f9","63d6dfc970a407ead0b0d3a1","freq","","","img/orange_2bandit_b2.png","70","","70","test","1","","35","","","","circle","square","34","8","2","0.8823529411764706","","","","","","","",""
"null","243358","SARL_v6","SARL_v6hs6wm9f9","63d6dfc970a407ead0b0d3a1","freq_resp","","","img/orange_2bandit_b.png","70","img/orange_2bandit_b.png","70","test","","","","","","","","","","","2","","","","","","","","",""
"null","243525","SARL_v6","SARL_v6hs6wm9f9","63d6dfc970a407ead0b0d3a1","fixation","","","img/fixation.png","null","","","test","","","","","","","","","","","","","","","","","","","",""
"353.10000002384186","243883","SARL_v6","SARL_v6hs6wm9f9","63d6dfc970a407ead0b0d3a1","infreq","","","img/blue_2bandit_b2.png","70","","68","test","0","","36","","","","circle","square","35","9","2","0.8571428571428571","","","","","","","",""
"null","244338","SARL_v6","SARL_v6hs6wm9f9","63d6dfc970a407ead0b0d3a1","infreq_resp","","","img/blue_2bandit_b.png","70","img/blue_2bandit_b.png","68","test","","","","","","","","","","","2","","","","","","","","",""
"null","244507","SARL_v6","SARL_v6hs6wm9f9","63d6dfc970a407ead0b0d3a1","fixation","","","img/fixation.png","null","","","test","","","","","","","","","","","","","","","","","","","",""
"298","244809","SARL_v6","SARL_v6hs6wm9f9","63d6dfc970a407ead0b0d3a1","freq","","","img/orange_2bandit_b2.png","70","","70","test","1","","37","","","","circle","square","36","10","2","0.8611111111111112","","","","","","","",""
"null","245318","SARL_v6","SARL_v6hs6wm9f9","63d6dfc970a407ead0b0d3a1","freq_resp","","","img/orange_2bandit_b.png","70","img/orange_2bandit_b.png","70","test","","","","","","","","","","","2","","","","","","","","",""
"null","245474","SARL_v6","SARL_v6hs6wm9f9","63d6dfc970a407ead0b0d3a1","fixation","","","img/fixation.png","null","","","test","","","","","","","","","","","","","","","","","","","",""
"180","245656","SARL_v6","SARL_v6hs6wm9f9","63d6dfc970a407ead0b0d3a1","freq","","","img/orange_2bandit_b2.png","70","","70","test","1","","38","","","","circle","square","37","11","2","0.8648648648648649","","","","","","","",""
"null","246286","SARL_v6","SARL_v6hs6wm9f9","63d6dfc970a407ead0b0d3a1","freq_resp","","","img/orange_2bandit_b.png","70","img/orange_2bandit_b.png","70","test","","","","","","","","","","","2","","","","","","","","",""
"null","246441","SARL_v6","SARL_v6hs6wm9f9","63d6dfc970a407ead0b0d3a1","fixation","","","img/fixation.png","null","","","test","","","","","","","","","","","","","","","","","","","",""
"200.80000001192093","246647","SARL_v6","SARL_v6hs6wm9f9","63d6dfc970a407ead0b0d3a1","freq","","","img/orange_2bandit_b2.png","70","","70","test","1","","39","","","","circle","square","38","12","2","0.868421052631579","","","","","","","",""
"null","247258","SARL_v6","SARL_v6hs6wm9f9","63d6dfc970a407ead0b0d3a1","freq_resp","","","img/orange_2bandit_b.png","70","img/orange_2bandit_b.png","70","test","","","","","","","","","","","2","","","","","","","","",""
"null","247413","SARL_v6","SARL_v6hs6wm9f9","63d6dfc970a407ead0b0d3a1","fixation","","","img/fixation.png","null","","","test","","","","","","","","","","","","","","","","","","","",""
"null","248228","SARL_v6","SARL_v6hs6wm9f9","63d6dfc970a407ead0b0d3a1","freq","","","img/orange_2bandit_b2.png","null","","70","test","0","","40","","","","circle","square","39","13","2","0.8461538461538461","","","","","","","",""
"null","248391","SARL_v6","SARL_v6hs6wm9f9","63d6dfc970a407ead0b0d3a1","fixation","","","img/fixation.png","null","","","test","","","","","","","","","","","","","","","","","","","",""
"59","248454","SARL_v6","SARL_v6hs6wm9f9","63d6dfc970a407ead0b0d3a1","freq","","","img/orange_2bandit_b2.png","70","","70","test","1","","41","","","","circle","square","40","14","2","0.85","","","","","","","",""
"null","249203","SARL_v6","SARL_v6hs6wm9f9","63d6dfc970a407ead0b0d3a1","freq_resp","","","img/orange_2bandit_b.png","70","img/orange_2bandit_b.png","70","test","","","","","","","","","","","2","","","","","","","","",""
"null","249356","SARL_v6","SARL_v6hs6wm9f9","63d6dfc970a407ead0b0d3a1","fixation","","","img/fixation.png","null","","","test","","","","","","","","","","","","","","","","","","","",""
"347.2999999821186","249708","SARL_v6","SARL_v6hs6wm9f9","63d6dfc970a407ead0b0d3a1","freq","","","img/orange_2bandit_b2.png","70","","70","test","1","","42","","","","circle","square","41","15","2","0.8536585365853658","","","","","","","",""
"null","250174","SARL_v6","SARL_v6hs6wm9f9","63d6dfc970a407ead0b0d3a1","freq_resp","","","img/orange_2bandit_b.png","70","img/orange_2bandit_b.png","70","test","","","","","","","","","","","2","","","","","","","","",""
"null","250342","SARL_v6","SARL_v6hs6wm9f9","63d6dfc970a407ead0b0d3a1","fixation","","","img/fixation.png","null","","","test","","","","","","","","","","","","","","","","","","","",""
"105.60000002384186","250450","SARL_v6","SARL_v6hs6wm9f9","63d6dfc970a407ead0b0d3a1","freq","","","img/orange_2bandit_b2.png","70","","70","test","1","","43","","","","circle","square","42","16","2","0.8571428571428571","","","","","","","",""
"null","251157","SARL_v6","SARL_v6hs6wm9f9","63d6dfc970a407ead0b0d3a1","freq_resp","","","img/orange_2bandit_b.png","70","img/orange_2bandit_b.png","70","test","","","","","","","","","","","2","","","","","","","","",""
"null","251325","SARL_v6","SARL_v6hs6wm9f9","63d6dfc970a407ead0b0d3a1","fixation","","","img/fixation.png","null","","","test","","","","","","","","","","","","","","","","","","","",""
"137.90000000596046","251467","SARL_v6","SARL_v6hs6wm9f9","63d6dfc970a407ead0b0d3a1","infreq","","","img/blue_2bandit_b2.png","70","","68","test","0","","44","","","","circle","square","43","17","2","0.8372093023255814","","","","","","","",""
"null","252145","SARL_v6","SARL_v6hs6wm9f9","63d6dfc970a407ead0b0d3a1","infreq_resp","","","img/blue_2bandit_b.png","70","img/blue_2bandit_b.png","68","test","","","","","","","","","","","2","","","","","","","","",""
"null","252300","SARL_v6","SARL_v6hs6wm9f9","63d6dfc970a407ead0b0d3a1","fixation","","","img/fixation.png","null","","","test","","","","","","","","","","","","","","","","","","","",""
"233.2000000178814","252538","SARL_v6","SARL_v6hs6wm9f9","63d6dfc970a407ead0b0d3a1","infreq","","","img/blue_2bandit_b2.png","70","","68","test","0","","45","","","","circle","square","44","18","2","0.8181818181818182","","","","","","","",""
"null","253114","SARL_v6","SARL_v6hs6wm9f9","63d6dfc970a407ead0b0d3a1","infreq_resp","","","img/blue_2bandit_b.png","70","img/blue_2bandit_b.png","68","test","","","","","","","","","","","2","","","","","","","","",""
"null","253278","SARL_v6","SARL_v6hs6wm9f9","63d6dfc970a407ead0b0d3a1","fixation","","","img/fixation.png","null","","","test","","","","","","","","","","","","","","","","","","","",""
"6","253287","SARL_v6","SARL_v6hs6wm9f9","63d6dfc970a407ead0b0d3a1","freq","","","img/orange_2bandit_b2.png","70","","70","test","1","","46","","","","circle","square","45","19","2","0.8222222222222222","","","","","","","",""
"null","254099","SARL_v6","SARL_v6hs6wm9f9","63d6dfc970a407ead0b0d3a1","freq_resp","","","img/orange_2bandit_b.png","70","img/orange_2bandit_b.png","70","test","","","","","","","","","","","2","","","","","","","","",""
"null","254260","SARL_v6","SARL_v6hs6wm9f9","63d6dfc970a407ead0b0d3a1","fixation","","","img/fixation.png","null","","","test","","","","","","","","","","","","","","","","","","","",""
"327.5","254593","SARL_v6","SARL_v6hs6wm9f9","63d6dfc970a407ead0b0d3a1","freq","","","img/orange_2bandit_b2.png","70","","70","test","1","","47","","","","circle","square","46","20","2","0.8260869565217391","","","","","","","",""
"null","255072","SARL_v6","SARL_v6hs6wm9f9","63d6dfc970a407ead0b0d3a1","freq_resp","","","img/orange_2bandit_b.png","70","img/orange_2bandit_b.png","70","test","","","","","","","","","","","2","","","","","","","","",""
"null","255227","SARL_v6","SARL_v6hs6wm9f9","63d6dfc970a407ead0b0d3a1","fixation","","","img/fixation.png","null","","","test","","","","","","","","","","","","","","","","","","","",""
"310.59999999403954","255543","SARL_v6","SARL_v6hs6wm9f9","63d6dfc970a407ead0b0d3a1","freq","","","img/orange_2bandit_b2.png","70","","70","test","1","","48","","","","circle","square","47","21","2","0.8297872340425532","","","","","","","",""
"null","256036","SARL_v6","SARL_v6hs6wm9f9","63d6dfc970a407ead0b0d3a1","freq_resp","","","img/orange_2bandit_b.png","70","img/orange_2bandit_b.png","70","test","","","","","","","","","","","2","","","","","","","","",""
"null","256197","SARL_v6","SARL_v6hs6wm9f9","63d6dfc970a407ead0b0d3a1","fixation","","","img/fixation.png","null","","","test","","","","","","","","","","","","","","","","","","","",""
"null","257703","SARL_v6","SARL_v6hs6wm9f9","63d6dfc970a407ead0b0d3a1","rl","","","img/black_2bandit_b2.png","null","","0","test","","","49","","","0","circle","square","","0","2","","null","-8","-5","-8","-5","too slow","2","0"
"null","258471","SARL_v6","SARL_v6hs6wm9f9","63d6dfc970a407ead0b0d3a1","feedback","","","<div font size = 80> TOO SLOW  </div>","null","","na","test","","","NaN","","","","","","","","2","","null","","","","","","2",""
"677.1999999880791","259153","SARL_v6","SARL_v6hs6wm9f9","63d6dfc970a407ead0b0d3a1","freq","","","img/orange_2bandit_b2.png","70","","70","test","1","","50","","","","circle","square","48","1","3","0.8333333333333334","","","","","","","",""
"null","259295","SARL_v6","SARL_v6hs6wm9f9","63d6dfc970a407ead0b0d3a1","freq_resp","","","img/orange_2bandit_b.png","70","img/orange_2bandit_b.png","70","test","","","","","","","","","","","3","","","","","","","","",""
"null","259460","SARL_v6","SARL_v6hs6wm9f9","63d6dfc970a407ead0b0d3a1","fixation","","","img/fixation.png","null","","","test","","","","","","","","","","","","","","","","","","","",""
"329.2999999821186","259795","SARL_v6","SARL_v6hs6wm9f9","63d6dfc970a407ead0b0d3a1","freq","","","img/orange_2bandit_b2.png","70","","70","test","1","","51","","","","circle","square","49","2","3","0.8367346938775511","","","","","","","",""
"null","260272","SARL_v6","SARL_v6hs6wm9f9","63d6dfc970a407ead0b0d3a1","freq_resp","","","img/orange_2bandit_b.png","70","img/orange_2bandit_b.png","70","test","","","","","","","","","","","3","","","","","","","","",""
"null","260426","SARL_v6","SARL_v6hs6wm9f9","63d6dfc970a407ead0b0d3a1","fixation","","","img/fixation.png","null","","","test","","","","","","","","","","","","","","","","","","","",""
"274.19999998807907","260704","SARL_v6","SARL_v6hs6wm9f9","63d6dfc970a407ead0b0d3a1","freq","","","img/orange_2bandit_b2.png","70","","70","test","1","","52","","","","circle","square","50","3","3","0.84","","","","","","","",""
"null","261236","SARL_v6","SARL_v6hs6wm9f9","63d6dfc970a407ead0b0d3a1","freq_resp","","","img/orange_2bandit_b.png","70","img/orange_2bandit_b.png","70","test","","","","","","","","","","","3","","","","","","","","",""
"null","261393","SARL_v6","SARL_v6hs6wm9f9","63d6dfc970a407ead0b0d3a1","fixation","","","img/fixation.png","null","","","test","","","","","","","","","","","","","","","","","","","",""
"193.30000001192093","261591","SARL_v6","SARL_v6hs6wm9f9","63d6dfc970a407ead0b0d3a1","freq","","","img/orange_2bandit_b2.png","70","","70","test","1","","53","","","","circle","square","51","4","3","0.8431372549019608","","","","","","","",""
"null","262214","SARL_v6","SARL_v6hs6wm9f9","63d6dfc970a407ead0b0d3a1","freq_resp","","","img/orange_2bandit_b.png","70","img/orange_2bandit_b.png","70","test","","","","","","","","","","","3","","","","","","","","",""
"null","262378","SARL_v6","SARL_v6hs6wm9f9","63d6dfc970a407ead0b0d3a1","fixation","","","img/fixation.png","null","","","test","","","","","","","","","","","","","","","","","","","",""
"380.59999999403954","262763","SARL_v6","SARL_v6hs6wm9f9","63d6dfc970a407ead0b0d3a1","freq","","","img/orange_2bandit_b2.png","70","","70","test","1","","54","","","","circle","square","52","5","3","0.8461538461538461","","","","","","","",""
"null","263191","SARL_v6","SARL_v6hs6wm9f9","63d6dfc970a407ead0b0d3a1","freq_resp","","","img/orange_2bandit_b.png","70","img/orange_2bandit_b.png","70","test","","","","","","","","","","","3","","","","","","","","",""
"null","263349","SARL_v6","SARL_v6hs6wm9f9","63d6dfc970a407ead0b0d3a1","fixation","","","img/fixation.png","null","","","test","","","","","","","","","","","","","","","","","","","",""
"452.5","263805","SARL_v6","SARL_v6hs6wm9f9","63d6dfc970a407ead0b0d3a1","freq","","","img/orange_2bandit_b2.png","70","","70","test","1","","55","","","","circle","square","53","6","3","0.8490566037735849","","","","","","","",""
"null","264165","SARL_v6","SARL_v6hs6wm9f9","63d6dfc970a407ead0b0d3a1","freq_resp","","","img/orange_2bandit_b.png","70","img/orange_2bandit_b.png","70","test","","","","","","","","","","","3","","","","","","","","",""
"null","264328","SARL_v6","SARL_v6hs6wm9f9","63d6dfc970a407ead0b0d3a1","fixation","","","img/fixation.png","null","","","test","","","","","","","","","","","","","","","","","","","",""
"244.5","264577","SARL_v6","SARL_v6hs6wm9f9","63d6dfc970a407ead0b0d3a1","freq","","","img/orange_2bandit_b2.png","70","","70","test","1","","56","","","","circle","square","54","7","3","0.8518518518518519","","","","","","","",""
"null","265149","SARL_v6","SARL_v6hs6wm9f9","63d6dfc970a407ead0b0d3a1","freq_resp","","","img/orange_2bandit_b.png","70","img/orange_2bandit_b.png","70","test","","","","","","","","","","","3","","","","","","","","",""
"null","265313","SARL_v6","SARL_v6hs6wm9f9","63d6dfc970a407ead0b0d3a1","fixation","","","img/fixation.png","null","","","test","","","","","","","","","","","","","","","","","","","",""
"354.5","265672","SARL_v6","SARL_v6hs6wm9f9","63d6dfc970a407ead0b0d3a1","freq","","","img/orange_2bandit_b2.png","70","","70","test","1","","57","","","","circle","square","55","8","3","0.8545454545454545","","","","","","","",""
"null","266126","SARL_v6","SARL_v6hs6wm9f9","63d6dfc970a407ead0b0d3a1","freq_resp","","","img/orange_2bandit_b.png","70","img/orange_2bandit_b.png","70","test","","","","","","","","","","","3","","","","","","","","",""
"null","266293","SARL_v6","SARL_v6hs6wm9f9","63d6dfc970a407ead0b0d3a1","fixation","","","img/fixation.png","null","","","test","","","","","","","","","","","","","","","","","","","",""
"349.5","266646","SARL_v6","SARL_v6hs6wm9f9","63d6dfc970a407ead0b0d3a1","freq","","","img/orange_2bandit_b2.png","70","","70","test","1","","58","","","","circle","square","56","9","3","0.8571428571428571","","","","","","","",""
"null","267106","SARL_v6","SARL_v6hs6wm9f9","63d6dfc970a407ead0b0d3a1","freq_resp","","","img/orange_2bandit_b.png","70","img/orange_2bandit_b.png","70","test","","","","","","","","","","","3","","","","","","","","",""
"null","267262","SARL_v6","SARL_v6hs6wm9f9","63d6dfc970a407ead0b0d3a1","fixation","","","img/fixation.png","null","","","test","","","","","","","","","","","","","","","","","","","",""
"447.19999998807907","267713","SARL_v6","SARL_v6hs6wm9f9","63d6dfc970a407ead0b0d3a1","infreq","","","img/blue_2bandit_b2.png","68","","68","test","1","","59","","","","circle","square","57","10","3","0.8596491228070176","","","","","","","",""
"null","268080","SARL_v6","SARL_v6hs6wm9f9","63d6dfc970a407ead0b0d3a1","infreq_resp","","","img/blue_2bandit_b.png","68","img/blue_2bandit_b.png","68","test","","","","","","","","","","","3","","","","","","","","",""
"null","268246","SARL_v6","SARL_v6hs6wm9f9","63d6dfc970a407ead0b0d3a1","fixation","","","img/fixation.png","null","","","test","","","","","","","","","","","","","","","","","","","",""
"372.40000000596046","268623","SARL_v6","SARL_v6hs6wm9f9","63d6dfc970a407ead0b0d3a1","infreq","","","img/blue_2bandit_b2.png","68","","68","test","1","","60","","","","circle","square","58","11","3","0.8620689655172413","","","","","","","",""
"null","269060","SARL_v6","SARL_v6hs6wm9f9","63d6dfc970a407ead0b0d3a1","infreq_resp","","","img/blue_2bandit_b.png","68","img/blue_2bandit_b.png","68","test","","","","","","","","","","","3","","","","","","","","",""
"null","269228","SARL_v6","SARL_v6hs6wm9f9","63d6dfc970a407ead0b0d3a1","fixation","","","img/fixation.png","null","","","test","","","","","","","","","","","","","","","","","","","",""
"445","269679","SARL_v6","SARL_v6hs6wm9f9","63d6dfc970a407ead0b0d3a1","freq","","","img/orange_2bandit_b2.png","70","","70","test","1","","61","","","","circle","square","59","12","3","0.864406779661017","","","","","","","",""
"null","270048","SARL_v6","SARL_v6hs6wm9f9","63d6dfc970a407ead0b0d3a1","freq_resp","","","img/orange_2bandit_b.png","70","img/orange_2bandit_b.png","70","test","","","","","","","","","","","3","","","","","","","","",""
"null","270211","SARL_v6","SARL_v6hs6wm9f9","63d6dfc970a407ead0b0d3a1","fixation","","","img/fixation.png","null","","","test","","","","","","","","","","","","","","","","","","","",""
"543.5999999940395","270758","SARL_v6","SARL_v6hs6wm9f9","63d6dfc970a407ead0b0d3a1","freq","","","img/orange_2bandit_b2.png","70","","70","test","1","","62","","","","circle","square","60","13","3","0.8666666666666667","","","","","","","",""
"null","271023","SARL_v6","SARL_v6hs6wm9f9","63d6dfc970a407ead0b0d3a1","freq_resp","","","img/orange_2bandit_b.png","70","img/orange_2bandit_b.png","70","test","","","","","","","","","","","3","","","","","","","","",""
"null","271179","SARL_v6","SARL_v6hs6wm9f9","63d6dfc970a407ead0b0d3a1","fixation","","","img/fixation.png","null","","","test","","","","","","","","","","","","","","","","","","","",""
"412.59999999403954","271597","SARL_v6","SARL_v6hs6wm9f9","63d6dfc970a407ead0b0d3a1","freq","","","img/orange_2bandit_b2.png","70","","70","test","1","","63","","","","circle","square","61","14","3","0.8688524590163934","","","","","","","",""
"null","271996","SARL_v6","SARL_v6hs6wm9f9","63d6dfc970a407ead0b0d3a1","freq_resp","","","img/orange_2bandit_b.png","70","img/orange_2bandit_b.png","70","test","","","","","","","","","","","3","","","","","","","","",""
"null","272163","SARL_v6","SARL_v6hs6wm9f9","63d6dfc970a407ead0b0d3a1","fixation","","","img/fixation.png","null","","","test","","","","","","","","","","","","","","","","","","","",""
"462.5","272628","SARL_v6","SARL_v6hs6wm9f9","63d6dfc970a407ead0b0d3a1","freq","","","img/orange_2bandit_b2.png","70","","70","test","1","","64","","","","circle","square","62","15","3","0.8709677419354839","","","","","","","",""
"null","272983","SARL_v6","SARL_v6hs6wm9f9","63d6dfc970a407ead0b0d3a1","freq_resp","","","img/orange_2bandit_b.png","70","img/orange_2bandit_b.png","70","test","","","","","","","","","","","3","","","","","","","","",""
"null","273144","SARL_v6","SARL_v6hs6wm9f9","63d6dfc970a407ead0b0d3a1","fixation","","","img/fixation.png","null","","","test","","","","","","","","","","","","","","","","","","","",""
"439.7000000178814","273589","SARL_v6","SARL_v6hs6wm9f9","63d6dfc970a407ead0b0d3a1","freq","","","img/orange_2bandit_b2.png","70","","70","test","1","","65","","","","circle","square","63","16","3","0.873015873015873","","","","","","","",""
"null","273963","SARL_v6","SARL_v6hs6wm9f9","63d6dfc970a407ead0b0d3a1","freq_resp","","","img/orange_2bandit_b.png","70","img/orange_2bandit_b.png","70","test","","","","","","","","","","","3","","","","","","","","",""
"null","274129","SARL_v6","SARL_v6hs6wm9f9","63d6dfc970a407ead0b0d3a1","fixation","","","img/fixation.png","null","","","test","","","","","","","","","","","","","","","","","","","",""
"503.19999998807907","274638","SARL_v6","SARL_v6hs6wm9f9","63d6dfc970a407ead0b0d3a1","freq","","","img/orange_2bandit_b2.png","70","","70","test","1","","66","","","","circle","square","64","17","3","0.875","","","","","","","",""
"null","274952","SARL_v6","SARL_v6hs6wm9f9","63d6dfc970a407ead0b0d3a1","freq_resp","","","img/orange_2bandit_b.png","70","img/orange_2bandit_b.png","70","test","","","","","","","","","","","3","","","","","","","","",""
"null","275115","SARL_v6","SARL_v6hs6wm9f9","63d6dfc970a407ead0b0d3a1","fixation","","","img/fixation.png","null","","","test","","","","","","","","","","","","","","","","","","","",""
"511.2999999821186","275631","SARL_v6","SARL_v6hs6wm9f9","63d6dfc970a407ead0b0d3a1","freq","","","img/orange_2bandit_b2.png","70","","70","test","1","","67","","","","circle","square","65","18","3","0.8769230769230769","","","","","","","",""
"null","275937","SARL_v6","SARL_v6hs6wm9f9","63d6dfc970a407ead0b0d3a1","freq_resp","","","img/orange_2bandit_b.png","70","img/orange_2bandit_b.png","70","test","","","","","","","","","","","3","","","","","","","","",""
"null","276098","SARL_v6","SARL_v6hs6wm9f9","63d6dfc970a407ead0b0d3a1","fixation","","","img/fixation.png","null","","","test","","","","","","","","","","","","","","","","","","","",""
"205","276307","SARL_v6","SARL_v6hs6wm9f9","63d6dfc970a407ead0b0d3a1","freq","","","img/orange_2bandit_b2.png","70","","70","test","1","","68","","","","circle","square","66","19","3","0.8787878787878788","","","","","","","",""
"null","276918","SARL_v6","SARL_v6hs6wm9f9","63d6dfc970a407ead0b0d3a1","freq_resp","","","img/orange_2bandit_b.png","70","img/orange_2bandit_b.png","70","test","","","","","","","","","","","3","","","","","","","","",""
"null","277080","SARL_v6","SARL_v6hs6wm9f9","63d6dfc970a407ead0b0d3a1","fixation","","","img/fixation.png","null","","","test","","","","","","","","","","","","","","","","","","","",""
"443.5","277528","SARL_v6","SARL_v6hs6wm9f9","63d6dfc970a407ead0b0d3a1","freq","","","img/orange_2bandit_b2.png","70","","70","test","1","","69","","","","circle","square","67","20","3","0.8805970149253731","","","","","","","",""
"null","277900","SARL_v6","SARL_v6hs6wm9f9","63d6dfc970a407ead0b0d3a1","freq_resp","","","img/orange_2bandit_b.png","70","img/orange_2bandit_b.png","70","test","","","","","","","","","","","3","","","","","","","","",""
"null","278064","SARL_v6","SARL_v6hs6wm9f9","63d6dfc970a407ead0b0d3a1","fixation","","","img/fixation.png","null","","","test","","","","","","","","","","","","","","","","","","","",""
"7.100000023841858","278076","SARL_v6","SARL_v6hs6wm9f9","63d6dfc970a407ead0b0d3a1","freq","","","img/orange_2bandit_b2.png","70","","70","test","1","","70","","","","circle","square","68","21","3","0.8823529411764706","","","","","","","",""
"null","278879","SARL_v6","SARL_v6hs6wm9f9","63d6dfc970a407ead0b0d3a1","freq_resp","","","img/orange_2bandit_b.png","70","img/orange_2bandit_b.png","70","test","","","","","","","","","","","3","","","","","","","","",""
"null","279049","SARL_v6","SARL_v6hs6wm9f9","63d6dfc970a407ead0b0d3a1","fixation","","","img/fixation.png","null","","","test","","","","","","","","","","","","","","","","","","","",""
"null","280566","SARL_v6","SARL_v6hs6wm9f9","63d6dfc970a407ead0b0d3a1","rl","","","img/black_2bandit_b2.png","null","","0","test","","","71","","","0","circle","square","","0","3","","null","-8","-4","-8","-4","too slow","3","0"
"null","281325","SARL_v6","SARL_v6hs6wm9f9","63d6dfc970a407ead0b0d3a1","feedback","","","<div font size = 80> TOO SLOW  </div>","null","","na","test","","","NaN","","","","","","","","3","","null","","","","","","3",""
"461.09999999403954","281789","SARL_v6","SARL_v6hs6wm9f9","63d6dfc970a407ead0b0d3a1","freq","","","img/orange_2bandit_b2.png","70","","70","test","1","","72","","","","circle","square","69","1","4","0.8840579710144928","","","","","","","",""
"null","282136","SARL_v6","SARL_v6hs6wm9f9","63d6dfc970a407ead0b0d3a1","freq_resp","","","img/orange_2bandit_b.png","70","img/orange_2bandit_b.png","70","test","","","","","","","","","","","4","","","","","","","","",""
"null","282300","SARL_v6","SARL_v6hs6wm9f9","63d6dfc970a407ead0b0d3a1","fixation","","","img/fixation.png","null","","","test","","","","","","","","","","","","","","","","","","","",""
"348.40000000596046","282653","SARL_v6","SARL_v6hs6wm9f9","63d6dfc970a407ead0b0d3a1","freq","","","img/orange_2bandit_b2.png","70","","70","test","1","","73","","","","circle","square","70","2","4","0.8857142857142857","","","","","","","",""
"null","283113","SARL_v6","SARL_v6hs6wm9f9","63d6dfc970a407ead0b0d3a1","freq_resp","","","img/orange_2bandit_b.png","70","img/orange_2bandit_b.png","70","test","","","","","","","","","","","4","","","","","","","","",""
"null","283281","SARL_v6","SARL_v6hs6wm9f9","63d6dfc970a407ead0b0d3a1","fixation","","","img/fixation.png","null","","","test","","","","","","","","","","","","","","","","","","","",""
"197.5","283484","SARL_v6","SARL_v6hs6wm9f9","63d6dfc970a407ead0b0d3a1","freq","","","img/orange_2bandit_b2.png","70","","70","test","1","","74","","","","circle","square","71","3","4","0.8873239436619719","","","","","","","",""
"null","284104","SARL_v6","SARL_v6hs6wm9f9","63d6dfc970a407ead0b0d3a1","freq_resp","","","img/orange_2bandit_b.png","70","img/orange_2bandit_b.png","70","test","","","","","","","","","","","4","","","","","","","","",""
"null","284266","SARL_v6","SARL_v6hs6wm9f9","63d6dfc970a407ead0b0d3a1","fixation","","","img/fixation.png","null","","","test","","","","","","","","","","","","","","","","","","","",""
"11.900000005960464","284279","SARL_v6","SARL_v6hs6wm9f9","63d6dfc970a407ead0b0d3a1","freq","","","img/orange_2bandit_b2.png","70","","70","test","1","","75","","","","circle","square","72","4","4","0.8888888888888888","","","","","","","",""
"null","285072","SARL_v6","SARL_v6hs6wm9f9","63d6dfc970a407ead0b0d3a1","freq_resp","","","img/orange_2bandit_b.png","70","img/orange_2bandit_b.png","70","test","","","","","","","","","","","4","","","","","","","","",""
"null","285233","SARL_v6","SARL_v6hs6wm9f9","63d6dfc970a407ead0b0d3a1","fixation","","","img/fixation.png","null","","","test","","","","","","","","","","","","","","","","","","","",""
"232.19999998807907","285470","SARL_v6","SARL_v6hs6wm9f9","63d6dfc970a407ead0b0d3a1","freq","","","img/orange_2bandit_b2.png","70","","70","test","1","","76","","","","circle","square","73","5","4","0.8904109589041096","","","","","","","",""
"null","286052","SARL_v6","SARL_v6hs6wm9f9","63d6dfc970a407ead0b0d3a1","freq_resp","","","img/orange_2bandit_b.png","70","img/orange_2bandit_b.png","70","test","","","","","","","","","","","4","","","","","","","","",""
"null","286216","SARL_v6","SARL_v6hs6wm9f9","63d6dfc970a407ead0b0d3a1","fixation","","","img/fixation.png","null","","","test","","","","","","","","","","","","","","","","","","","",""
"565.5","286786","SARL_v6","SARL_v6hs6wm9f9","63d6dfc970a407ead0b0d3a1","freq","","","img/orange_2bandit_b2.png","70","","70","test","1","","77","","","","circle","square","74","6","4","0.8918918918918919","","","","","","","",""
"null","287028","SARL_v6","SARL_v6hs6wm9f9","63d6dfc970a407ead0b0d3a1","freq_resp","","","img/orange_2bandit_b.png","70","img/orange_2bandit_b.png","70","test","","","","","","","","","","","4","","","","","","","","",""
"null","287184","SARL_v6","SARL_v6hs6wm9f9","63d6dfc970a407ead0b0d3a1","fixation","","","img/fixation.png","null","","","test","","","","","","","","","","","","","","","","","","","",""
"754.2000000178814","287941","SARL_v6","SARL_v6hs6wm9f9","63d6dfc970a407ead0b0d3a1","infreq","","","img/blue_2bandit_b2.png","68","","68","test","1","","78","","","","circle","square","75","7","4","0.8933333333333333","","","","","","","",""
"null","288006","SARL_v6","SARL_v6hs6wm9f9","63d6dfc970a407ead0b0d3a1","infreq_resp","","","img/blue_2bandit_b.png","68","img/blue_2bandit_b.png","68","test","","","","","","","","","","","4","","","","","","","","",""
"null","288167","SARL_v6","SARL_v6hs6wm9f9","63d6dfc970a407ead0b0d3a1","fixation","","","img/fixation.png","null","","","test","","","","","","","","","","","","","","","","","","","",""
"691","288861","SARL_v6","SARL_v6hs6wm9f9","63d6dfc970a407ead0b0d3a1","freq","","","img/orange_2bandit_b2.png","70","","70","test","1","","79","","","","circle","square","76","8","4","0.8947368421052632","","","","","","","",""
"null","288985","SARL_v6","SARL_v6hs6wm9f9","63d6dfc970a407ead0b0d3a1","freq_resp","","","img/orange_2bandit_b.png","70","img/orange_2bandit_b.png","70","test","","","","","","","","","","","4","","","","","","","","",""
"null","289149","SARL_v6","SARL_v6hs6wm9f9","63d6dfc970a407ead0b0d3a1","fixation","","","img/fixation.png","null","","","test","","","","","","","","","","","","","","","","","","","",""
"380.90000000596046","289535","SARL_v6","SARL_v6hs6wm9f9","63d6dfc970a407ead0b0d3a1","freq","","","img/orange_2bandit_b2.png","70","","70","test","1","","80","","","","circle","square","77","9","4","0.8961038961038961","","","","","","","",""
"null","289965","SARL_v6","SARL_v6hs6wm9f9","63d6dfc970a407ead0b0d3a1","freq_resp","","","img/orange_2bandit_b.png","70","img/orange_2bandit_b.png","70","test","","","","","","","","","","","4","","","","","","","","",""
"null","290135","SARL_v6","SARL_v6hs6wm9f9","63d6dfc970a407ead0b0d3a1","fixation","","","img/fixation.png","null","","","test","","","","","","","","","","","","","","","","","","","",""
"311.2999999821186","290449","SARL_v6","SARL_v6hs6wm9f9","63d6dfc970a407ead0b0d3a1","freq","","","img/orange_2bandit_b2.png","70","","70","test","1","","81","","","","circle","square","78","10","4","0.8974358974358975","","","","","","","",""
"null","290944","SARL_v6","SARL_v6hs6wm9f9","63d6dfc970a407ead0b0d3a1","freq_resp","","","img/orange_2bandit_b.png","70","img/orange_2bandit_b.png","70","test","","","","","","","","","","","4","","","","","","","","",""
"null","291102","SARL_v6","SARL_v6hs6wm9f9","63d6dfc970a407ead0b0d3a1","fixation","","","img/fixation.png","null","","","test","","","","","","","","","","","","","","","","","","","",""
"109.59999999403954","291217","SARL_v6","SARL_v6hs6wm9f9","63d6dfc970a407ead0b0d3a1","freq","","","img/orange_2bandit_b2.png","70","","70","test","1","","82","","","","circle","square","79","11","4","0.8987341772151899","","","","","","","",""
"null","291921","SARL_v6","SARL_v6hs6wm9f9","63d6dfc970a407ead0b0d3a1","freq_resp","","","img/orange_2bandit_b.png","70","img/orange_2bandit_b.png","70","test","","","","","","","","","","","4","","","","","","","","",""
"null","292083","SARL_v6","SARL_v6hs6wm9f9","63d6dfc970a407ead0b0d3a1","fixation","","","img/fixation.png","null","","","test","","","","","","","","","","","","","","","","","","","",""
"40.099999994039536","292127","SARL_v6","SARL_v6hs6wm9f9","63d6dfc970a407ead0b0d3a1","freq","","","img/orange_2bandit_b2.png","70","","70","test","1","","83","","","","circle","square","80","12","4","0.9","","","","","","","",""
"null","292899","SARL_v6","SARL_v6hs6wm9f9","63d6dfc970a407ead0b0d3a1","freq_resp","","","img/orange_2bandit_b.png","70","img/orange_2bandit_b.png","70","test","","","","","","","","","","","4","","","","","","","","",""
"null","293067","SARL_v6","SARL_v6hs6wm9f9","63d6dfc970a407ead0b0d3a1","fixation","","","img/fixation.png","null","","","test","","","","","","","","","","","","","","","","","","","",""
"412.7000000178814","293484","SARL_v6","SARL_v6hs6wm9f9","63d6dfc970a407ead0b0d3a1","freq","","","img/orange_2bandit_b2.png","70","","70","test","1","","84","","","","circle","square","81","13","4","0.9012345679012346","","","","","","","",""
"null","293885","SARL_v6","SARL_v6hs6wm9f9","63d6dfc970a407ead0b0d3a1","freq_resp","","","img/orange_2bandit_b.png","70","img/orange_2bandit_b.png","70","test","","","","","","","","","","","4","","","","","","","","",""
"null","294049","SARL_v6","SARL_v6hs6wm9f9","63d6dfc970a407ead0b0d3a1","fixation","","","img/fixation.png","null","","","test","","","","","","","","","","","","","","","","","","","",""
"123.80000001192093","294177","SARL_v6","SARL_v6hs6wm9f9","63d6dfc970a407ead0b0d3a1","infreq","","","img/blue_2bandit_b2.png","70","","68","test","0","","85","","","","circle","square","82","14","4","0.8902439024390244","","","","","","","",""
"null","294864","SARL_v6","SARL_v6hs6wm9f9","63d6dfc970a407ead0b0d3a1","infreq_resp","","","img/blue_2bandit_b.png","70","img/blue_2bandit_b.png","68","test","","","","","","","","","","","4","","","","","","","","",""
"null","295033","SARL_v6","SARL_v6hs6wm9f9","63d6dfc970a407ead0b0d3a1","fixation","","","img/fixation.png","null","","","test","","","","","","","","","","","","","","","","","","","",""
"446.2000000178814","295484","SARL_v6","SARL_v6hs6wm9f9","63d6dfc970a407ead0b0d3a1","freq","","","img/orange_2bandit_b2.png","70","","70","test","1","","86","","","","circle","square","83","15","4","0.891566265060241","","","","","","","",""
"null","295853","SARL_v6","SARL_v6hs6wm9f9","63d6dfc970a407ead0b0d3a1","freq_resp","","","img/orange_2bandit_b.png","70","img/orange_2bandit_b.png","70","test","","","","","","","","","","","4","","","","","","","","",""
"null","296018","SARL_v6","SARL_v6hs6wm9f9","63d6dfc970a407ead0b0d3a1","fixation","","","img/fixation.png","null","","","test","","","","","","","","","","","","","","","","","","","",""
"299.80000001192093","296322","SARL_v6","SARL_v6hs6wm9f9","63d6dfc970a407ead0b0d3a1","freq","","","img/orange_2bandit_b2.png","70","","70","test","1","","87","","","","circle","square","84","16","4","0.8928571428571429","","","","","","","",""
"null","296829","SARL_v6","SARL_v6hs6wm9f9","63d6dfc970a407ead0b0d3a1","freq_resp","","","img/orange_2bandit_b.png","70","img/orange_2bandit_b.png","70","test","","","","","","","","","","","4","","","","","","","","",""
"null","296985","SARL_v6","SARL_v6hs6wm9f9","63d6dfc970a407ead0b0d3a1","fixation","","","img/fixation.png","null","","","test","","","","","","","","","","","","","","","","","","","",""
"460.7999999821186","297451","SARL_v6","SARL_v6hs6wm9f9","63d6dfc970a407ead0b0d3a1","freq","","","img/orange_2bandit_b2.png","70","","70","test","1","","88","","","","circle","square","85","17","4","0.8941176470588236","","","","","","","",""
"null","297804","SARL_v6","SARL_v6hs6wm9f9","63d6dfc970a407ead0b0d3a1","freq_resp","","","img/orange_2bandit_b.png","70","img/orange_2bandit_b.png","70","test","","","","","","","","","","","4","","","","","","","","",""
"null","297968","SARL_v6","SARL_v6hs6wm9f9","63d6dfc970a407ead0b0d3a1","fixation","","","img/fixation.png","null","","","test","","","","","","","","","","","","","","","","","","","",""
"404.5","298377","SARL_v6","SARL_v6hs6wm9f9","63d6dfc970a407ead0b0d3a1","freq","","","img/orange_2bandit_b2.png","70","","70","test","1","","89","","","","circle","square","86","18","4","0.8953488372093024","","","","","","","",""
"null","298790","SARL_v6","SARL_v6hs6wm9f9","63d6dfc970a407ead0b0d3a1","freq_resp","","","img/orange_2bandit_b.png","70","img/orange_2bandit_b.png","70","test","","","","","","","","","","","4","","","","","","","","",""
"null","298954","SARL_v6","SARL_v6hs6wm9f9","63d6dfc970a407ead0b0d3a1","fixation","","","img/fixation.png","null","","","test","","","","","","","","","","","","","","","","","","","",""
"339.09999999403954","299298","SARL_v6","SARL_v6hs6wm9f9","63d6dfc970a407ead0b0d3a1","freq","","","img/orange_2bandit_b2.png","68","","70","test","0","","90","","","","circle","square","87","19","4","0.8850574712643678","","","","","","","",""
"null","299763","SARL_v6","SARL_v6hs6wm9f9","63d6dfc970a407ead0b0d3a1","freq_resp","","","img/orange_2bandit_b.png","68","img/orange_2bandit_b.png","70","test","","","","","","","","","","","4","","","","","","","","",""
"null","299919","SARL_v6","SARL_v6hs6wm9f9","63d6dfc970a407ead0b0d3a1","fixation","","","img/fixation.png","null","","","test","","","","","","","","","","","","","","","","","","","",""
"357","300278","SARL_v6","SARL_v6hs6wm9f9","63d6dfc970a407ead0b0d3a1","freq","","","img/orange_2bandit_b2.png","70","","70","test","1","","91","","","","circle","square","88","20","4","0.8863636363636364","","","","","","","",""
"null","300733","SARL_v6","SARL_v6hs6wm9f9","63d6dfc970a407ead0b0d3a1","freq_resp","","","img/orange_2bandit_b.png","70","img/orange_2bandit_b.png","70","test","","","","","","","","","","","4","","","","","","","","",""
"null","300912","SARL_v6","SARL_v6hs6wm9f9","63d6dfc970a407ead0b0d3a1","fixation","","","img/fixation.png","null","","","test","","","","","","","","","","","","","","","","","","","",""
"270.90000000596046","301185","SARL_v6","SARL_v6hs6wm9f9","63d6dfc970a407ead0b0d3a1","freq","","","img/orange_2bandit_b2.png","70","","70","test","1","","92","","","","circle","square","89","21","4","0.8876404494382022","","","","","","","",""
"null","301723","SARL_v6","SARL_v6hs6wm9f9","63d6dfc970a407ead0b0d3a1","freq_resp","","","img/orange_2bandit_b.png","70","img/orange_2bandit_b.png","70","test","","","","","","","","","","","4","","","","","","","","",""
"null","301886","SARL_v6","SARL_v6hs6wm9f9","63d6dfc970a407ead0b0d3a1","fixation","","","img/fixation.png","null","","","test","","","","","","","","","","","","","","","","","","","",""
"null","303400","SARL_v6","SARL_v6hs6wm9f9","63d6dfc970a407ead0b0d3a1","rl","","","img/black_2bandit_b2.png","null","","0","test","","","93","","","0","circle","square","","0","4","","null","-12","0","-12","0","too slow","4","0"
"null","304160","SARL_v6","SARL_v6hs6wm9f9","63d6dfc970a407ead0b0d3a1","feedback","","","<div font size = 80> TOO SLOW  </div>","null","","na","test","","","NaN","","","","","","","","4","","null","","","","","","4",""
"549.4000000059605","304715","SARL_v6","SARL_v6hs6wm9f9","63d6dfc970a407ead0b0d3a1","freq","","","img/orange_2bandit_b2.png","70","","70","test","1","","94","","","","circle","square","90","1","5","0.8888888888888888","","","","","","","",""
"null","304979","SARL_v6","SARL_v6hs6wm9f9","63d6dfc970a407ead0b0d3a1","freq_resp","","","img/orange_2bandit_b.png","70","img/orange_2bandit_b.png","70","test","","","","","","","","","","","5","","","","","","","","",""
"null","305136","SARL_v6","SARL_v6hs6wm9f9","63d6dfc970a407ead0b0d3a1","fixation","","","img/fixation.png","null","","","test","","","","","","","","","","","","","","","","","","","",""
"652.1000000238419","305793","SARL_v6","SARL_v6hs6wm9f9","63d6dfc970a407ead0b0d3a1","freq","","","img/orange_2bandit_b2.png","70","","70","test","1","","95","","","","circle","square","91","2","5","0.8901098901098901","","","","","","","",""
"null","305953","SARL_v6","SARL_v6hs6wm9f9","63d6dfc970a407ead0b0d3a1","freq_resp","","","img/orange_2bandit_b.png","70","img/orange_2bandit_b.png","70","test","","","","","","","","","","","5","","","","","","","","",""
"null","306118","SARL_v6","SARL_v6hs6wm9f9","63d6dfc970a407ead0b0d3a1","fixation","","","img/fixation.png","null","","","test","","","","","","","","","","","","","","","","","","","",""
"548.2000000178814","306669","SARL_v6","SARL_v6hs6wm9f9","63d6dfc970a407ead0b0d3a1","freq","","","img/orange_2bandit_b2.png","70","","70","test","1","","96","","","","circle","square","92","3","5","0.8913043478260869","","","","","","","",""
"null","306929","SARL_v6","SARL_v6hs6wm9f9","63d6dfc970a407ead0b0d3a1","freq_resp","","","img/orange_2bandit_b.png","70","img/orange_2bandit_b.png","70","test","","","","","","","","","","","5","","","","","","","","",""
"null","307086","SARL_v6","SARL_v6hs6wm9f9","63d6dfc970a407ead0b0d3a1","fixation","","","img/fixation.png","null","","","test","","","","","","","","","","","","","","","","","","","",""
"418.40000000596046","307509","SARL_v6","SARL_v6hs6wm9f9","63d6dfc970a407ead0b0d3a1","freq","","","img/orange_2bandit_b2.png","70","","70","test","1","","97","","","","circle","square","93","4","5","0.8924731182795699","","","","","","","",""
"null","307902","SARL_v6","SARL_v6hs6wm9f9","63d6dfc970a407ead0b0d3a1","freq_resp","","","img/orange_2bandit_b.png","70","img/orange_2bandit_b.png","70","test","","","","","","","","","","","5","","","","","","","","",""
"null","308067","SARL_v6","SARL_v6hs6wm9f9","63d6dfc970a407ead0b0d3a1","fixation","","","img/fixation.png","null","","","test","","","","","","","","","","","","","","","","","","","",""
"342.69999998807907","308412","SARL_v6","SARL_v6hs6wm9f9","63d6dfc970a407ead0b0d3a1","infreq","","","img/blue_2bandit_b2.png","70","","68","test","0","","98","","","","circle","square","94","5","5","0.8829787234042553","","","","","","","",""
"null","308885","SARL_v6","SARL_v6hs6wm9f9","63d6dfc970a407ead0b0d3a1","infreq_resp","","","img/blue_2bandit_b.png","70","img/blue_2bandit_b.png","68","test","","","","","","","","","","","5","","","","","","","","",""
"null","309050","SARL_v6","SARL_v6hs6wm9f9","63d6dfc970a407ead0b0d3a1","fixation","","","img/fixation.png","null","","","test","","","","","","","","","","","","","","","","","","","",""
"548","309603","SARL_v6","SARL_v6hs6wm9f9","63d6dfc970a407ead0b0d3a1","infreq","","","img/blue_2bandit_b2.png","68","","68","test","1","","99","","","","circle","square","95","6","5","0.8842105263157894","","","","","","","",""
"null","309862","SARL_v6","SARL_v6hs6wm9f9","63d6dfc970a407ead0b0d3a1","infreq_resp","","","img/blue_2bandit_b.png","68","img/blue_2bandit_b.png","68","test","","","","","","","","","","","5","","","","","","","","",""
"null","310020","SARL_v6","SARL_v6hs6wm9f9","63d6dfc970a407ead0b0d3a1","fixation","","","img/fixation.png","null","","","test","","","","","","","","","","","","","","","","","","","",""
"487.30000001192093","310513","SARL_v6","SARL_v6hs6wm9f9","63d6dfc970a407ead0b0d3a1","freq","","","img/orange_2bandit_b2.png","70","","70","test","1","","100","","","","circle","square","96","7","5","0.8854166666666666","","","","","","","",""
"null","310837","SARL_v6","SARL_v6hs6wm9f9","63d6dfc970a407ead0b0d3a1","freq_resp","","","img/orange_2bandit_b.png","70","img/orange_2bandit_b.png","70","test","","","","","","","","","","","5","","","","","","","","",""
"null","311000","SARL_v6","SARL_v6hs6wm9f9","63d6dfc970a407ead0b0d3a1","fixation","","","img/fixation.png","null","","","test","","","","","","","","","","","","","","","","","","","",""
"325.90000000596046","311330","SARL_v6","SARL_v6hs6wm9f9","63d6dfc970a407ead0b0d3a1","freq","","","img/orange_2bandit_b2.png","70","","70","test","1","","101","","","","circle","square","97","8","5","0.8865979381443299","","","","","","","",""
"null","311816","SARL_v6","SARL_v6hs6wm9f9","63d6dfc970a407ead0b0d3a1","freq_resp","","","img/orange_2bandit_b.png","70","img/orange_2bandit_b.png","70","test","","","","","","","","","","","5","","","","","","","","",""
"null","311986","SARL_v6","SARL_v6hs6wm9f9","63d6dfc970a407ead0b0d3a1","fixation","","","img/fixation.png","null","","","test","","","","","","","","","","","","","","","","","","","",""
"290.40000000596046","312281","SARL_v6","SARL_v6hs6wm9f9","63d6dfc970a407ead0b0d3a1","freq","","","img/orange_2bandit_b2.png","70","","70","test","1","","102","","","","circle","square","98","9","5","0.8877551020408163","","","","","","","",""
"null","312796","SARL_v6","SARL_v6hs6wm9f9","63d6dfc970a407ead0b0d3a1","freq_resp","","","img/orange_2bandit_b.png","70","img/orange_2bandit_b.png","70","test","","","","","","","","","","","5","","","","","","","","",""
"null","312953","SARL_v6","SARL_v6hs6wm9f9","63d6dfc970a407ead0b0d3a1","fixation","","","img/fixation.png","null","","","test","","","","","","","","","","","","","","","","","","","",""
"250.69999998807907","313209","SARL_v6","SARL_v6hs6wm9f9","63d6dfc970a407ead0b0d3a1","freq","","","img/orange_2bandit_b2.png","70","","70","test","1","","103","","","","circle","square","99","10","5","0.8888888888888888","","","","","","","",""
"null","313775","SARL_v6","SARL_v6hs6wm9f9","63d6dfc970a407ead0b0d3a1","freq_resp","","","img/orange_2bandit_b.png","70","img/orange_2bandit_b.png","70","test","","","","","","","","","","","5","","","","","","","","",""
"null","313932","SARL_v6","SARL_v6hs6wm9f9","63d6dfc970a407ead0b0d3a1","fixation","","","img/fixation.png","null","","","test","","","","","","","","","","","","","","","","","","","",""
"183.40000000596046","314118","SARL_v6","SARL_v6hs6wm9f9","63d6dfc970a407ead0b0d3a1","freq","","","img/orange_2bandit_b2.png","70","","70","test","1","","104","","","","circle","square","100","11","5","0.89","","","","","","","",""
"null","314741","SARL_v6","SARL_v6hs6wm9f9","63d6dfc970a407ead0b0d3a1","freq_resp","","","img/orange_2bandit_b.png","70","img/orange_2bandit_b.png","70","test","","","","","","","","","","","5","","","","","","","","",""
"null","314904","SARL_v6","SARL_v6hs6wm9f9","63d6dfc970a407ead0b0d3a1","fixation","","","img/fixation.png","null","","","test","","","","","","","","","","","","","","","","","","","",""
"300.80000001192093","315208","SARL_v6","SARL_v6hs6wm9f9","63d6dfc970a407ead0b0d3a1","freq","","","img/orange_2bandit_b2.png","70","","70","test","1","","105","","","","circle","square","101","12","5","0.8910891089108911","","","","","","","",""
"null","315719","SARL_v6","SARL_v6hs6wm9f9","63d6dfc970a407ead0b0d3a1","freq_resp","","","img/orange_2bandit_b.png","70","img/orange_2bandit_b.png","70","test","","","","","","","","","","","5","","","","","","","","",""
"null","315885","SARL_v6","SARL_v6hs6wm9f9","63d6dfc970a407ead0b0d3a1","fixation","","","img/fixation.png","null","","","test","","","","","","","","","","","","","","","","","","","",""
"216.2000000178814","316107","SARL_v6","SARL_v6hs6wm9f9","63d6dfc970a407ead0b0d3a1","freq","","","img/orange_2bandit_b2.png","70","","70","test","1","","106","","","","circle","square","102","13","5","0.8921568627450981","","","","","","","",""
"null","316708","SARL_v6","SARL_v6hs6wm9f9","63d6dfc970a407ead0b0d3a1","freq_resp","","","img/orange_2bandit_b.png","70","img/orange_2bandit_b.png","70","test","","","","","","","","","","","5","","","","","","","","",""
"null","316871","SARL_v6","SARL_v6hs6wm9f9","63d6dfc970a407ead0b0d3a1","fixation","","","img/fixation.png","null","","","test","","","","","","","","","","","","","","","","","","","",""
"311.7000000178814","317188","SARL_v6","SARL_v6hs6wm9f9","63d6dfc970a407ead0b0d3a1","freq","","","img/orange_2bandit_b2.png","70","","70","test","1","","107","","","","circle","square","103","14","5","0.8932038834951457","","","","","","","",""
"null","317691","SARL_v6","SARL_v6hs6wm9f9","63d6dfc970a407ead0b0d3a1","freq_resp","","","img/orange_2bandit_b.png","70","img/orange_2bandit_b.png","70","test","","","","","","","","","","","5","","","","","","","","",""
"null","317852","SARL_v6","SARL_v6hs6wm9f9","63d6dfc970a407ead0b0d3a1","fixation","","","img/fixation.png","null","","","test","","","","","","","","","","","","","","","","","","","",""
"217.19999998807907","318072","SARL_v6","SARL_v6hs6wm9f9","63d6dfc970a407ead0b0d3a1","freq","","","img/orange_2bandit_b2.png","70","","70","test","1","","108","","","","circle","square","104","15","5","0.8942307692307693","","","","","","","",""
"null","318674","SARL_v6","SARL_v6hs6wm9f9","63d6dfc970a407ead0b0d3a1","freq_resp","","","img/orange_2bandit_b.png","70","img/orange_2bandit_b.png","70","test","","","","","","","","","","","5","","","","","","","","",""
"null","318838","SARL_v6","SARL_v6hs6wm9f9","63d6dfc970a407ead0b0d3a1","fixation","","","img/fixation.png","null","","","test","","","","","","","","","","","","","","","","","","","",""
"367.7999999821186","319210","SARL_v6","SARL_v6hs6wm9f9","63d6dfc970a407ead0b0d3a1","freq","","","img/orange_2bandit_b2.png","70","","70","test","1","","109","","","","circle","square","105","16","5","0.8952380952380953","","","","","","","",""
"null","319654","SARL_v6","SARL_v6hs6wm9f9","63d6dfc970a407ead0b0d3a1","freq_resp","","","img/orange_2bandit_b.png","70","img/orange_2bandit_b.png","70","test","","","","","","","","","","","5","","","","","","","","",""
"null","319820","SARL_v6","SARL_v6hs6wm9f9","63d6dfc970a407ead0b0d3a1","fixation","","","img/fixation.png","null","","","test","","","","","","","","","","","","","","","","","","","",""
"462.10000002384186","320288","SARL_v6","SARL_v6hs6wm9f9","63d6dfc970a407ead0b0d3a1","freq","","","img/orange_2bandit_b2.png","70","","70","test","1","","110","","","","circle","square","106","17","5","0.8962264150943396","","","","","","","",""
"null","320642","SARL_v6","SARL_v6hs6wm9f9","63d6dfc970a407ead0b0d3a1","freq_resp","","","img/orange_2bandit_b.png","70","img/orange_2bandit_b.png","70","test","","","","","","","","","","","5","","","","","","","","",""
"null","320806","SARL_v6","SARL_v6hs6wm9f9","63d6dfc970a407ead0b0d3a1","fixation","","","img/fixation.png","null","","","test","","","","","","","","","","","","","","","","","","","",""
"86.40000000596046","320898","SARL_v6","SARL_v6hs6wm9f9","63d6dfc970a407ead0b0d3a1","freq","","","img/orange_2bandit_b2.png","70","","70","test","1","","111","","","","circle","square","107","18","5","0.897196261682243","","","","","","","",""
"null","321622","SARL_v6","SARL_v6hs6wm9f9","63d6dfc970a407ead0b0d3a1","freq_resp","","","img/orange_2bandit_b.png","70","img/orange_2bandit_b.png","70","test","","","","","","","","","","","5","","","","","","","","",""
"null","321787","SARL_v6","SARL_v6hs6wm9f9","63d6dfc970a407ead0b0d3a1","fixation","","","img/fixation.png","null","","","test","","","","","","","","","","","","","","","","","","","",""
"388.60000002384186","322181","SARL_v6","SARL_v6hs6wm9f9","63d6dfc970a407ead0b0d3a1","freq","","","img/orange_2bandit_b2.png","70","","70","test","1","","112","","","","circle","square","108","19","5","0.8981481481481481","","","","","","","",""
"null","322604","SARL_v6","SARL_v6hs6wm9f9","63d6dfc970a407ead0b0d3a1","freq_resp","","","img/orange_2bandit_b.png","70","img/orange_2bandit_b.png","70","test","","","","","","","","","","","5","","","","","","","","",""
"null","322769","SARL_v6","SARL_v6hs6wm9f9","63d6dfc970a407ead0b0d3a1","fixation","","","img/fixation.png","null","","","test","","","","","","","","","","","","","","","","","","","",""
"10.799999982118607","322785","SARL_v6","SARL_v6hs6wm9f9","63d6dfc970a407ead0b0d3a1","freq","","","img/orange_2bandit_b2.png","70","","70","test","1","","113","","","","circle","square","109","20","5","0.8990825688073395","","","","","","","",""
"null","323579","SARL_v6","SARL_v6hs6wm9f9","63d6dfc970a407ead0b0d3a1","freq_resp","","","img/orange_2bandit_b.png","70","img/orange_2bandit_b.png","70","test","","","","","","","","","","","5","","","","","","","","",""
"null","323739","SARL_v6","SARL_v6hs6wm9f9","63d6dfc970a407ead0b0d3a1","fixation","","","img/fixation.png","null","","","test","","","","","","","","","","","","","","","","","","","",""
"458.5","324203","SARL_v6","SARL_v6hs6wm9f9","63d6dfc970a407ead0b0d3a1","freq","","","img/orange_2bandit_b2.png","70","","70","test","1","","114","","","","circle","square","110","21","5","0.9","","","","","","","",""
"null","324557","SARL_v6","SARL_v6hs6wm9f9","63d6dfc970a407ead0b0d3a1","freq_resp","","","img/orange_2bandit_b.png","70","img/orange_2bandit_b.png","70","test","","","","","","","","","","","5","","","","","","","","",""
"null","324726","SARL_v6","SARL_v6hs6wm9f9","63d6dfc970a407ead0b0d3a1","fixation","","","img/fixation.png","null","","","test","","","","","","","","","","","","","","","","","","","",""
"533.8000000119209","325264","SARL_v6","SARL_v6hs6wm9f9","63d6dfc970a407ead0b0d3a1","freq","","","img/orange_2bandit_b2.png","70","","70","test","1","","115","","","","circle","square","111","22","5","0.9009009009009009","","","","","","","",""
"null","325546","SARL_v6","SARL_v6hs6wm9f9","63d6dfc970a407ead0b0d3a1","freq_resp","","","img/orange_2bandit_b.png","70","img/orange_2bandit_b.png","70","test","","","","","","","","","","","5","","","","","","","","",""
"null","325707","SARL_v6","SARL_v6hs6wm9f9","63d6dfc970a407ead0b0d3a1","fixation","","","img/fixation.png","null","","","test","","","","","","","","","","","","","","","","","","","",""
"408.19999998807907","326120","SARL_v6","SARL_v6hs6wm9f9","63d6dfc970a407ead0b0d3a1","freq","","","img/orange_2bandit_b2.png","70","","70","test","1","","116","","","","circle","square","112","23","5","0.9017857142857143","","","","","","","",""
"null","326521","SARL_v6","SARL_v6hs6wm9f9","63d6dfc970a407ead0b0d3a1","freq_resp","","","img/orange_2bandit_b.png","70","img/orange_2bandit_b.png","70","test","","","","","","","","","","","5","","","","","","","","",""
"null","326689","SARL_v6","SARL_v6hs6wm9f9","63d6dfc970a407ead0b0d3a1","fixation","","","img/fixation.png","null","","","test","","","","","","","","","","","","","","","","","","","",""
"273.2000000178814","326967","SARL_v6","SARL_v6hs6wm9f9","63d6dfc970a407ead0b0d3a1","infreq","","","img/blue_2bandit_b2.png","70","","68","test","0","","117","","","","circle","square","113","24","5","0.8938053097345132","","","","","","","",""
"null","327513","SARL_v6","SARL_v6hs6wm9f9","63d6dfc970a407ead0b0d3a1","infreq_resp","","","img/blue_2bandit_b.png","70","img/blue_2bandit_b.png","68","test","","","","","","","","","","","5","","","","","","","","",""
"null","327674","SARL_v6","SARL_v6hs6wm9f9","63d6dfc970a407ead0b0d3a1","fixation","","","img/fixation.png","null","","","test","","","","","","","","","","","","","","","","","","","",""
"582.2000000178814","328261","SARL_v6","SARL_v6hs6wm9f9","63d6dfc970a407ead0b0d3a1","freq","","","img/orange_2bandit_b2.png","70","","70","test","1","","118","","","","circle","square","114","25","5","0.8947368421052632","","","","","","","",""
"null","328485","SARL_v6","SARL_v6hs6wm9f9","63d6dfc970a407ead0b0d3a1","freq_resp","","","img/orange_2bandit_b.png","70","img/orange_2bandit_b.png","70","test","","","","","","","","","","","5","","","","","","","","",""
"null","328655","SARL_v6","SARL_v6hs6wm9f9","63d6dfc970a407ead0b0d3a1","fixation","","","img/fixation.png","null","","","test","","","","","","","","","","","","","","","","","","","",""
"null","330168","SARL_v6","SARL_v6hs6wm9f9","63d6dfc970a407ead0b0d3a1","rl","","","img/black_2bandit_b2.png","null","","0","test","","","119","","","0","circle","square","","0","5","","null","-7","4","-7","4","too slow","5","0"
"null","330934","SARL_v6","SARL_v6hs6wm9f9","63d6dfc970a407ead0b0d3a1","feedback","","","<div font size = 80> TOO SLOW  </div>","null","","na","test","","","NaN","","","","","","","","5","","null","","","","","","5",""
"60.19999998807907","330998","SARL_v6","SARL_v6hs6wm9f9","63d6dfc970a407ead0b0d3a1","freq","","","img/orange_2bandit_b2.png","70","","70","test","1","","120","","","","circle","square","115","1","6","0.8956521739130435","","","","","","","",""
"null","331751","SARL_v6","SARL_v6hs6wm9f9","63d6dfc970a407ead0b0d3a1","freq_resp","","","img/orange_2bandit_b.png","70","img/orange_2bandit_b.png","70","test","","","","","","","","","","","6","","","","","","","","",""
"null","331907","SARL_v6","SARL_v6hs6wm9f9","63d6dfc970a407ead0b0d3a1","fixation","","","img/fixation.png","null","","","test","","","","","","","","","","","","","","","","","","","",""
"764.0999999940395","332676","SARL_v6","SARL_v6hs6wm9f9","63d6dfc970a407ead0b0d3a1","freq","","","img/orange_2bandit_b2.png","70","","70","test","1","","121","","","","circle","square","116","2","6","0.896551724137931","","","","","","","",""
"null","332728","SARL_v6","SARL_v6hs6wm9f9","63d6dfc970a407ead0b0d3a1","freq_resp","","","img/orange_2bandit_b.png","70","img/orange_2bandit_b.png","70","test","","","","","","","","","","","6","","","","","","","","",""
"null","332891","SARL_v6","SARL_v6hs6wm9f9","63d6dfc970a407ead0b0d3a1","fixation","","","img/fixation.png","null","","","test","","","","","","","","","","","","","","","","","","","",""
"null","333707","SARL_v6","SARL_v6hs6wm9f9","63d6dfc970a407ead0b0d3a1","freq","","","img/orange_2bandit_b2.png","null","","70","test","0","","122","","","","circle","square","117","3","6","0.8888888888888888","","","","","","","",""
"null","333871","SARL_v6","SARL_v6hs6wm9f9","63d6dfc970a407ead0b0d3a1","fixation","","","img/fixation.png","null","","","test","","","","","","","","","","","","","","","","","","","",""
"462.59999999403954","334338","SARL_v6","SARL_v6hs6wm9f9","63d6dfc970a407ead0b0d3a1","freq","","","img/orange_2bandit_b2.png","70","","70","test","1","","123","","","","circle","square","118","4","6","0.8898305084745762","","","","","","","",""
"null","334695","SARL_v6","SARL_v6hs6wm9f9","63d6dfc970a407ead0b0d3a1","freq_resp","","","img/orange_2bandit_b.png","70","img/orange_2bandit_b.png","70","test","","","","","","","","","","","6","","","","","","","","",""
"null","334857","SARL_v6","SARL_v6hs6wm9f9","63d6dfc970a407ead0b0d3a1","fixation","","","img/fixation.png","null","","","test","","","","","","","","","","","","","","","","","","","",""
"29.900000005960464","334891","SARL_v6","SARL_v6hs6wm9f9","63d6dfc970a407ead0b0d3a1","freq","","","img/orange_2bandit_b2.png","70","","70","test","1","","124","","","","circle","square","119","5","6","0.8907563025210085","","","","","","","",""
"null","335681","SARL_v6","SARL_v6hs6wm9f9","63d6dfc970a407ead0b0d3a1","freq_resp","","","img/orange_2bandit_b.png","70","img/orange_2bandit_b.png","70","test","","","","","","","","","","","6","","","","","","","","",""
"null","335841","SARL_v6","SARL_v6hs6wm9f9","63d6dfc970a407ead0b0d3a1","fixation","","","img/fixation.png","null","","","test","","","","","","","","","","","","","","","","","","","",""
"388.40000000596046","336234","SARL_v6","SARL_v6hs6wm9f9","63d6dfc970a407ead0b0d3a1","freq","","","img/orange_2bandit_b2.png","70","","70","test","1","","125","","","","circle","square","120","6","6","0.8916666666666667","","","","","","","",""
"null","336666","SARL_v6","SARL_v6hs6wm9f9","63d6dfc970a407ead0b0d3a1","freq_resp","","","img/orange_2bandit_b.png","70","img/orange_2bandit_b.png","70","test","","","","","","","","","","","6","","","","","","","","",""
"null","336824","SARL_v6","SARL_v6hs6wm9f9","63d6dfc970a407ead0b0d3a1","fixation","","","img/fixation.png","null","","","test","","","","","","","","","","","","","","","","","","","",""
"264.7999999821186","337094","SARL_v6","SARL_v6hs6wm9f9","63d6dfc970a407ead0b0d3a1","freq","","","img/orange_2bandit_b2.png","70","","70","test","1","","126","","","","circle","square","121","7","6","0.8925619834710744","","","","","","","",""
"null","337649","SARL_v6","SARL_v6hs6wm9f9","63d6dfc970a407ead0b0d3a1","freq_resp","","","img/orange_2bandit_b.png","70","img/orange_2bandit_b.png","70","test","","","","","","","","","","","6","","","","","","","","",""
"null","337809","SARL_v6","SARL_v6hs6wm9f9","63d6dfc970a407ead0b0d3a1","fixation","","","img/fixation.png","null","","","test","","","","","","","","","","","","","","","","","","","",""
"473.39999997615814","338285","SARL_v6","SARL_v6hs6wm9f9","63d6dfc970a407ead0b0d3a1","freq","","","img/orange_2bandit_b2.png","70","","70","test","1","","127","","","","circle","square","122","8","6","0.8934426229508197","","","","","","","",""
"null","338630","SARL_v6","SARL_v6hs6wm9f9","63d6dfc970a407ead0b0d3a1","freq_resp","","","img/orange_2bandit_b.png","70","img/orange_2bandit_b.png","70","test","","","","","","","","","","","6","","","","","","","","",""
"null","338793","SARL_v6","SARL_v6hs6wm9f9","63d6dfc970a407ead0b0d3a1","fixation","","","img/fixation.png","null","","","test","","","","","","","","","","","","","","","","","","","",""
"188.2999999821186","338987","SARL_v6","SARL_v6hs6wm9f9","63d6dfc970a407ead0b0d3a1","infreq","","","img/blue_2bandit_b2.png","70","","68","test","0","","128","","","","circle","square","123","9","6","0.8861788617886179","","","","","","","",""
"null","339608","SARL_v6","SARL_v6hs6wm9f9","63d6dfc970a407ead0b0d3a1","infreq_resp","","","img/blue_2bandit_b.png","70","img/blue_2bandit_b.png","68","test","","","","","","","","","","","6","","","","","","","","",""
"null","339774","SARL_v6","SARL_v6hs6wm9f9","63d6dfc970a407ead0b0d3a1","fixation","","","img/fixation.png","null","","","test","","","","","","","","","","","","","","","","","","","",""
"738.2000000178814","340517","SARL_v6","SARL_v6hs6wm9f9","63d6dfc970a407ead0b0d3a1","freq","","","img/orange_2bandit_b2.png","70","","70","test","1","","129","","","","circle","square","124","10","6","0.8870967741935484","","","","","","","",""
"null","340598","SARL_v6","SARL_v6hs6wm9f9","63d6dfc970a407ead0b0d3a1","freq_resp","","","img/orange_2bandit_b.png","70","img/orange_2bandit_b.png","70","test","","","","","","","","","","","6","","","","","","","","",""
"null","340760","SARL_v6","SARL_v6hs6wm9f9","63d6dfc970a407ead0b0d3a1","fixation","","","img/fixation.png","null","","","test","","","","","","","","","","","","","","","","","","","",""
