"rt","time_elapsed","expId","subject","prolificID","trialType","rlType","attType","stimulus","key_press","stim","corrresp","phase","corr","pracCounter","trialNum","rewardOne","rewardTwo","reward","bandOne","bandTwo","attentionNum","attentionRunNum","blockNum","performance","bandChosen","circleVal","squareVal","bandOneVal","bandTwoVal","shapeChosen","rlNum","badFlag"
"11829.800000190735","11835","SARL_v6","SARL_v63n13xggp","611465b0cdf9e7bb34a05898","","","","","","","","","","","","","","","","","","","","","","","","","","","",""
"","26000","SARL_v6","SARL_v63n13xggp","611465b0cdf9e7bb34a05898","fullscreen","fullscreen","fullscreen","","","","","","","","","","","","","","","","","","","","","","","","",""
"96211.10000038147","122219","SARL_v6","SARL_v63n13xggp","611465b0cdf9e7bb34a05898","","","","","","","","","","","","","","","","","","","","","","","","","","","",""
"608.9000000953674","122838","SARL_v6","SARL_v63n13xggp","611465b0cdf9e7bb34a05898","freqPrac","","","img/orange_2bandit_a2.png","70","img/orange_2bandit_a2.png","70","prac","1","0","","","","","","","","","","","","","","","","","",""
"608.9000000953674","123040","SARL_v6","SARL_v63n13xggp","611465b0cdf9e7bb34a05898","freqPrac_resp","","","img/orange_2bandit_a.png","70","img/orange_2bandit_a.png","70","prac","","","","","","","","","","","","","","","","","","","",""
"null","123198","SARL_v6","SARL_v63n13xggp","611465b0cdf9e7bb34a05898","fixation","","","img/fixation.png","null","","","prac","","","","","","","","","","","","","","","","","","","",""
"424.5","123626","SARL_v6","SARL_v63n13xggp","611465b0cdf9e7bb34a05898","infreqPrac","","","img/blue_2bandit_a2.png","68","img/blue_2bandit_a2.png","68","prac","1","0","","","","","","","","","","","","","","","","","",""
"424.5","124009","SARL_v6","SARL_v63n13xggp","611465b0cdf9e7bb34a05898","infreqPrac_resp","","","img/blue_2bandit_a.png","68","img/blue_2bandit_a.png","68","prac","","","","","","","","","","","","","","","","","","","",""
"null","124166","SARL_v6","SARL_v63n13xggp","611465b0cdf9e7bb34a05898","fixation","","","img/fixation.png","null","","","prac","","","","","","","","","","","","","","","","","","","",""
"481","124651","SARL_v6","SARL_v63n13xggp","611465b0cdf9e7bb34a05898","freqPrac","","","img/orange_2bandit_a2.png","70","img/orange_2bandit_a2.png","70","prac","1","0","","","","","","","","","","","","","","","","","",""
"481","124978","SARL_v6","SARL_v63n13xggp","611465b0cdf9e7bb34a05898","freqPrac_resp","","","img/orange_2bandit_a.png","70","img/orange_2bandit_a.png","70","prac","","","","","","","","","","","","","","","","","","","",""
"null","125136","SARL_v6","SARL_v63n13xggp","611465b0cdf9e7bb34a05898","fixation","","","img/fixation.png","null","","","prac","","","","","","","","","","","","","","","","","","","",""
"354","125493","SARL_v6","SARL_v63n13xggp","611465b0cdf9e7bb34a05898","infreqPrac","","","img/blue_2bandit_a2.png","68","img/blue_2bandit_a2.png","68","prac","1","0","","","","","","","","","","","","","","","","","",""
"354","125948","SARL_v6","SARL_v63n13xggp","611465b0cdf9e7bb34a05898","infreqPrac_resp","","","img/blue_2bandit_a.png","68","img/blue_2bandit_a.png","68","prac","","","","","","","","","","","","","","","","","","","",""
"null","126107","SARL_v6","SARL_v63n13xggp","611465b0cdf9e7bb34a05898","fixation","","","img/fixation.png","null","","","prac","","","","","","","","","","","","","","","","","","","",""
"397.09999990463257","126508","SARL_v6","SARL_v63n13xggp","611465b0cdf9e7bb34a05898","infreqPrac","","","img/blue_2bandit_a2.png","68","img/blue_2bandit_a2.png","68","prac","1","0","","","","","","","","","","","","","","","","","",""
"397.09999990463257","126919","SARL_v6","SARL_v63n13xggp","611465b0cdf9e7bb34a05898","infreqPrac_resp","","","img/blue_2bandit_a.png","68","img/blue_2bandit_a.png","68","prac","","","","","","","","","","","","","","","","","","","",""
"null","127078","SARL_v6","SARL_v63n13xggp","611465b0cdf9e7bb34a05898","fixation","","","img/fixation.png","null","","","prac","","","","","","","","","","","","","","","","","","","",""
"390.59999990463257","127472","SARL_v6","SARL_v63n13xggp","611465b0cdf9e7bb34a05898","infreqPrac","","","img/blue_2bandit_a2.png","68","img/blue_2bandit_a2.png","68","prac","1","0","","","","","","","","","","","","","","","","","",""
"390.59999990463257","127888","SARL_v6","SARL_v63n13xggp","611465b0cdf9e7bb34a05898","infreqPrac_resp","","","img/blue_2bandit_a.png","68","img/blue_2bandit_a.png","68","prac","","","","","","","","","","","","","","","","","","","",""
"null","128049","SARL_v6","SARL_v63n13xggp","611465b0cdf9e7bb34a05898","fixation","","","img/fixation.png","null","","","prac","","","","","","","","","","","","","","","","","","","",""
"429.5","128481","SARL_v6","SARL_v63n13xggp","611465b0cdf9e7bb34a05898","freqPrac","","","img/orange_2bandit_a2.png","70","img/orange_2bandit_a2.png","70","prac","1","0","","","","","","","","","","","","","","","","","",""
"429.5","128859","SARL_v6","SARL_v63n13xggp","611465b0cdf9e7bb34a05898","freqPrac_resp","","","img/orange_2bandit_a.png","70","img/orange_2bandit_a.png","70","prac","","","","","","","","","","","","","","","","","","","",""
"null","129021","SARL_v6","SARL_v63n13xggp","611465b0cdf9e7bb34a05898","fixation","","","img/fixation.png","null","","","prac","","","","","","","","","","","","","","","","","","","",""
"429.5","129454","SARL_v6","SARL_v63n13xggp","611465b0cdf9e7bb34a05898","infreqPrac","","","img/blue_2bandit_a2.png","68","img/blue_2bandit_a2.png","68","prac","1","0","","","","","","","","","","","","","","","","","",""
"429.5","129834","SARL_v6","SARL_v63n13xggp","611465b0cdf9e7bb34a05898","infreqPrac_resp","","","img/blue_2bandit_a.png","68","img/blue_2bandit_a.png","68","prac","","","","","","","","","","","","","","","","","","","",""
"null","129992","SARL_v6","SARL_v63n13xggp","611465b0cdf9e7bb34a05898","fixation","","","img/fixation.png","null","","","prac","","","","","","","","","","","","","","","","","","","",""
"378.19999980926514","130374","SARL_v6","SARL_v63n13xggp","611465b0cdf9e7bb34a05898","freqPrac","","","img/orange_2bandit_a2.png","70","img/orange_2bandit_a2.png","70","prac","1","0","","","","","","","","","","","","","","","","","",""
"378.19999980926514","130805","SARL_v6","SARL_v63n13xggp","611465b0cdf9e7bb34a05898","freqPrac_resp","","","img/orange_2bandit_a.png","70","img/orange_2bandit_a.png","70","prac","","","","","","","","","","","","","","","","","","","",""
"null","130964","SARL_v6","SARL_v63n13xggp","611465b0cdf9e7bb34a05898","fixation","","","img/fixation.png","null","","","prac","","","","","","","","","","","","","","","","","","","",""
"374.3999996185303","131342","SARL_v6","SARL_v63n13xggp","611465b0cdf9e7bb34a05898","freqPrac","","","img/orange_2bandit_a2.png","70","img/orange_2bandit_a2.png","70","prac","1","0","","","","","","","","","","","","","","","","","",""
"374.3999996185303","131774","SARL_v6","SARL_v63n13xggp","611465b0cdf9e7bb34a05898","freqPrac_resp","","","img/orange_2bandit_a.png","70","img/orange_2bandit_a.png","70","prac","","","","","","","","","","","","","","","","","","","",""
"null","131932","SARL_v6","SARL_v63n13xggp","611465b0cdf9e7bb34a05898","fixation","","","img/fixation.png","null","","","prac","","","","","","","","","","","","","","","","","","","",""
"39595.199999809265","171530","SARL_v6","SARL_v63n13xggp","611465b0cdf9e7bb34a05898","","","","","","","","prac","","","","","","","","","","","","","","","","","","","",""
"745.9000000953674","172289","SARL_v6","SARL_v63n13xggp","611465b0cdf9e7bb34a05898","rlPractice","","","img/black_2bandit_a2.png","74","img/black_2bandit_a2.png","","prac","","","0","","","","","","","","","","","","","","","","",""
"null","173056","SARL_v6","SARL_v63n13xggp","611465b0cdf9e7bb34a05898","feedback","","","<div class=""verylowPoints_sq""> -14 </div>","null","","na","prac","","","1","10","-14","10","","","","","","","","","","","","","",""
"null","173215","SARL_v6","SARL_v63n13xggp","611465b0cdf9e7bb34a05898","fixation","","","img/fixation.png","null","","","prac","","","","","","","","","","","","","","","","","","","",""
"438.40000009536743","173657","SARL_v6","SARL_v63n13xggp","611465b0cdf9e7bb34a05898","rlPractice","","","img/black_2bandit_a2.png","75","img/black_2bandit_a2.png","","prac","","","1","","","","","","","","","","","","","","","","",""
"null","174412","SARL_v6","SARL_v63n13xggp","611465b0cdf9e7bb34a05898","feedback","","","<div class=""veryhighPoints""> 5 </div>","null","","na","prac","","","2","5","-5","5","","","","","","","","","","","","","",""
"null","174570","SARL_v6","SARL_v63n13xggp","611465b0cdf9e7bb34a05898","fixation","","","img/fixation.png","null","","","prac","","","","","","","","","","","","","","","","","","","",""
"289.09999990463257","174862","SARL_v6","SARL_v63n13xggp","611465b0cdf9e7bb34a05898","rlPractice","","","img/black_2bandit_a2.png","75","img/black_2bandit_a2.png","","prac","","","2","","","","","","","","","","","","","","","","",""
"null","175623","SARL_v6","SARL_v63n13xggp","611465b0cdf9e7bb34a05898","feedback","","","<div class=""veryhighPoints""> 30 </div>","null","","na","prac","","","3","30","2","30","","","","","","","","","","","","","",""
"null","175781","SARL_v6","SARL_v63n13xggp","611465b0cdf9e7bb34a05898","fixation","","","img/fixation.png","null","","","prac","","","","","","","","","","","","","","","","","","","",""
"302.19999980926514","176086","SARL_v6","SARL_v63n13xggp","611465b0cdf9e7bb34a05898","rlPractice","","","img/black_2bandit_a2.png","75","img/black_2bandit_a2.png","","prac","","","3","","","","","","","","","","","","","","","","",""
"null","176849","SARL_v6","SARL_v63n13xggp","611465b0cdf9e7bb34a05898","feedback","","","<div class=""verylowPoints""> -2 </div>","null","","na","prac","","","4","-2","20","-2","","","","","","","","","","","","","",""
"null","177008","SARL_v6","SARL_v63n13xggp","611465b0cdf9e7bb34a05898","fixation","","","img/fixation.png","null","","","prac","","","","","","","","","","","","","","","","","","","",""
"390035","567044","SARL_v6","SARL_v63n13xggp","611465b0cdf9e7bb34a05898","","","","","","","","prac","","","","","","","","","","","","","","","","","","","",""
"622.5","567670","SARL_v6","SARL_v63n13xggp","611465b0cdf9e7bb34a05898","mixAttFreqPrac","","","img/orange_2bandit_a2.png","70","img/orange_2bandit_a2.png","70","prac","","","1","","","","","","","","","","","","","","","","",""
"622.5","567866","SARL_v6","SARL_v63n13xggp","611465b0cdf9e7bb34a05898","freqPrac_resp","","","img/orange_2bandit_a.png","70","img/orange_2bandit_a.png","70","prac","","","1","","","","","","","","","","","","","","","","",""
"null","568025","SARL_v6","SARL_v63n13xggp","611465b0cdf9e7bb34a05898","fixation","","","img/fixation.png","null","","","prac","","","","","","","","","","","","","","","","","","","",""
"304.59999990463257","568332","SARL_v6","SARL_v63n13xggp","611465b0cdf9e7bb34a05898","mixAttInfreqPrac","","","img/blue_2bandit_a2.png","68","img/blue_2bandit_a2.png","68","prac","","","2","","","","","","","","","","","","","","","","",""
"304.59999990463257","568837","SARL_v6","SARL_v63n13xggp","611465b0cdf9e7bb34a05898","infreqPrac_resp","","","img/blue_2bandit_a.png","68","img/orange_2bandit_a.png","68","prac","","","2","","","","","","","","","","","","","","","","",""
"null","568998","SARL_v6","SARL_v63n13xggp","611465b0cdf9e7bb34a05898","fixation","","","img/fixation.png","null","","","prac","","","","","","","","","","","","","","","","","","","",""
"300.7999997138977","569302","SARL_v6","SARL_v63n13xggp","611465b0cdf9e7bb34a05898","mixAttInfreqPrac","","","img/blue_2bandit_a2.png","70","img/blue_2bandit_a2.png","68","prac","","","3","","","","","","","","","","","","","","","","",""
"300.7999997138977","569806","SARL_v6","SARL_v63n13xggp","611465b0cdf9e7bb34a05898","infreqPrac_resp","","","img/blue_2bandit_a.png","70","img/orange_2bandit_a.png","68","prac","","","3","","","","","","","","","","","","","","","","",""
"null","569966","SARL_v6","SARL_v63n13xggp","611465b0cdf9e7bb34a05898","fixation","","","img/fixation.png","null","","","prac","","","","","","","","","","","","","","","","","","","",""
"635.3000001907349","570603","SARL_v6","SARL_v63n13xggp","611465b0cdf9e7bb34a05898","mixAttInfreqPrac","","","img/blue_2bandit_a2.png","68","img/blue_2bandit_a2.png","68","prac","","","4","","","","","","","","","","","","","","","","",""
"635.3000001907349","570773","SARL_v6","SARL_v63n13xggp","611465b0cdf9e7bb34a05898","infreqPrac_resp","","","img/blue_2bandit_a.png","68","img/orange_2bandit_a.png","68","prac","","","4","","","","","","","","","","","","","","","","",""
"null","570931","SARL_v6","SARL_v63n13xggp","611465b0cdf9e7bb34a05898","fixation","","","img/fixation.png","null","","","prac","","","","","","","","","","","","","","","","","","","",""
"287.59999990463257","571220","SARL_v6","SARL_v63n13xggp","611465b0cdf9e7bb34a05898","mixAttFreqPrac","","","img/orange_2bandit_a2.png","70","img/orange_2bandit_a2.png","70","prac","","","5","","","","","","","","","","","","","","","","",""
"287.59999990463257","571749","SARL_v6","SARL_v63n13xggp","611465b0cdf9e7bb34a05898","freqPrac_resp","","","img/orange_2bandit_a.png","70","img/orange_2bandit_a.png","70","prac","","","5","","","","","","","","","","","","","","","","",""
"null","571907","SARL_v6","SARL_v63n13xggp","611465b0cdf9e7bb34a05898","fixation","","","img/fixation.png","null","","","prac","","","","","","","","","","","","","","","","","","","",""
"517.6999998092651","572429","SARL_v6","SARL_v63n13xggp","611465b0cdf9e7bb34a05898","mixRLPractice","","","img/black_2bandit_a2.png","75","img/black_2bandit_a2.png","","prac","","","5","","","","","","","","","","","","","","","","",""
"null","573185","SARL_v6","SARL_v63n13xggp","611465b0cdf9e7bb34a05898","feedback","","","<div class=""verylowPoints""> -14 </div>","null","","na","prac","","","6","-14","10","-14","","","","","","","","","","","","","",""
"null","573344","SARL_v6","SARL_v63n13xggp","611465b0cdf9e7bb34a05898","fixation","","","img/fixation.png","null","","","prac","","","","","","","","","","","","","","","","","","","",""
"480.59999990463257","573828","SARL_v6","SARL_v63n13xggp","611465b0cdf9e7bb34a05898","mixAttFreqPrac","","","img/orange_2bandit_a2.png","70","img/orange_2bandit_a2.png","70","prac","","","7","","","","","","","","","","","","","","","","",""
"480.59999990463257","574161","SARL_v6","SARL_v63n13xggp","611465b0cdf9e7bb34a05898","freqPrac_resp","","","img/orange_2bandit_a.png","70","img/orange_2bandit_a.png","70","prac","","","7","","","","","","","","","","","","","","","","",""
"null","574319","SARL_v6","SARL_v63n13xggp","611465b0cdf9e7bb34a05898","fixation","","","img/fixation.png","null","","","prac","","","","","","","","","","","","","","","","","","","",""
"494.90000009536743","574817","SARL_v6","SARL_v63n13xggp","611465b0cdf9e7bb34a05898","mixAttInfreqPrac","","","img/blue_2bandit_a2.png","68","img/blue_2bandit_a2.png","68","prac","","","8","","","","","","","","","","","","","","","","",""
"494.90000009536743","575135","SARL_v6","SARL_v63n13xggp","611465b0cdf9e7bb34a05898","infreqPrac_resp","","","img/blue_2bandit_a.png","68","img/orange_2bandit_a.png","68","prac","","","8","","","","","","","","","","","","","","","","",""
"null","575291","SARL_v6","SARL_v63n13xggp","611465b0cdf9e7bb34a05898","fixation","","","img/fixation.png","null","","","prac","","","","","","","","","","","","","","","","","","","",""
"425.40000009536743","575720","SARL_v6","SARL_v63n13xggp","611465b0cdf9e7bb34a05898","mixAttFreqPrac","","","img/orange_2bandit_a2.png","70","img/orange_2bandit_a2.png","70","prac","","","9","","","","","","","","","","","","","","","","",""
"425.40000009536743","576108","SARL_v6","SARL_v63n13xggp","611465b0cdf9e7bb34a05898","freqPrac_resp","","","img/orange_2bandit_a.png","70","img/orange_2bandit_a.png","70","prac","","","9","","","","","","","","","","","","","","","","",""
"null","576267","SARL_v6","SARL_v63n13xggp","611465b0cdf9e7bb34a05898","fixation","","","img/fixation.png","null","","","prac","","","","","","","","","","","","","","","","","","","",""
"335.30000019073486","576606","SARL_v6","SARL_v63n13xggp","611465b0cdf9e7bb34a05898","mixAttFreqPrac","","","img/orange_2bandit_a2.png","70","img/orange_2bandit_a2.png","70","prac","","","10","","","","","","","","","","","","","","","","",""
"335.30000019073486","577081","SARL_v6","SARL_v63n13xggp","611465b0cdf9e7bb34a05898","freqPrac_resp","","","img/orange_2bandit_a.png","70","img/orange_2bandit_a.png","70","prac","","","10","","","","","","","","","","","","","","","","",""
"null","577241","SARL_v6","SARL_v63n13xggp","611465b0cdf9e7bb34a05898","fixation","","","img/fixation.png","null","","","prac","","","","","","","","","","","","","","","","","","","",""
"400.90000009536743","577645","SARL_v6","SARL_v63n13xggp","611465b0cdf9e7bb34a05898","mixAttInfreqPrac","","","img/blue_2bandit_a2.png","68","img/blue_2bandit_a2.png","68","prac","","","11","","","","","","","","","","","","","","","","",""
"400.90000009536743","578055","SARL_v6","SARL_v63n13xggp","611465b0cdf9e7bb34a05898","infreqPrac_resp","","","img/blue_2bandit_a.png","68","img/orange_2bandit_a.png","68","prac","","","11","","","","","","","","","","","","","","","","",""
"null","578215","SARL_v6","SARL_v63n13xggp","611465b0cdf9e7bb34a05898","fixation","","","img/fixation.png","null","","","prac","","","","","","","","","","","","","","","","","","","",""
"600.5999999046326","578819","SARL_v6","SARL_v63n13xggp","611465b0cdf9e7bb34a05898","mixRLPractice","","","img/black_2bandit_a2.png","75","img/black_2bandit_a2.png","","prac","","","11","","","","","","","","","","","","","","","","",""
"null","579573","SARL_v6","SARL_v63n13xggp","611465b0cdf9e7bb34a05898","feedback","","","<div class=""veryhighPoints""> 5 </div>","null","","na","prac","","","12","5","-5","5","","","","","","","","","","","","","",""
"null","579733","SARL_v6","SARL_v63n13xggp","611465b0cdf9e7bb34a05898","fixation","","","img/fixation.png","null","","","prac","","","","","","","","","","","","","","","","","","","",""
"22240.5","601976","SARL_v6","SARL_v63n13xggp","611465b0cdf9e7bb34a05898","","","","","","","","prac","","","","","","","","","","","","","","","","","","","",""
"495.40000009536743","602474","SARL_v6","SARL_v63n13xggp","611465b0cdf9e7bb34a05898","freq","","","img/orange_2bandit_a2.png","70","","70","test","1","","1","","","","square","circle","1","1","1","1","","","","","","","",""
"null","602783","SARL_v6","SARL_v63n13xggp","611465b0cdf9e7bb34a05898","freq_resp","","","img/orange_2bandit_a.png","70","img/orange_2bandit_a.png","70","test","","","","","","","","","","","1","","","","","","","","",""
"null","602940","SARL_v6","SARL_v63n13xggp","611465b0cdf9e7bb34a05898","fixation","","","img/fixation.png","null","","","test","","","","","","","","","","","","","","","","","","","",""
"352.8999996185303","603296","SARL_v6","SARL_v63n13xggp","611465b0cdf9e7bb34a05898","freq","","","img/orange_2bandit_a2.png","70","","70","test","1","","2","","","","square","circle","2","2","1","1","","","","","","","",""
"null","603754","SARL_v6","SARL_v63n13xggp","611465b0cdf9e7bb34a05898","freq_resp","","","img/orange_2bandit_a.png","70","img/orange_2bandit_a.png","70","test","","","","","","","","","","","1","","","","","","","","",""
"null","603913","SARL_v6","SARL_v63n13xggp","611465b0cdf9e7bb34a05898","fixation","","","img/fixation.png","null","","","test","","","","","","","","","","","","","","","","","","","",""
"310.6000003814697","604227","SARL_v6","SARL_v63n13xggp","611465b0cdf9e7bb34a05898","freq","","","img/orange_2bandit_a2.png","70","","70","test","1","","3","","","","square","circle","3","3","1","1","","","","","","","",""
"null","604731","SARL_v6","SARL_v63n13xggp","611465b0cdf9e7bb34a05898","freq_resp","","","img/orange_2bandit_a.png","70","img/orange_2bandit_a.png","70","test","","","","","","","","","","","1","","","","","","","","",""
"null","604884","SARL_v6","SARL_v63n13xggp","611465b0cdf9e7bb34a05898","fixation","","","img/fixation.png","null","","","test","","","","","","","","","","","","","","","","","","","",""
"293.6000003814697","605180","SARL_v6","SARL_v63n13xggp","611465b0cdf9e7bb34a05898","freq","","","img/orange_2bandit_a2.png","70","","70","test","1","","4","","","","square","circle","4","4","1","1","","","","","","","",""
"null","605704","SARL_v6","SARL_v63n13xggp","611465b0cdf9e7bb34a05898","freq_resp","","","img/orange_2bandit_a.png","70","img/orange_2bandit_a.png","70","test","","","","","","","","","","","1","","","","","","","","",""
"null","605861","SARL_v6","SARL_v63n13xggp","611465b0cdf9e7bb34a05898","fixation","","","img/fixation.png","null","","","test","","","","","","","","","","","","","","","","","","","",""
"277.09999990463257","606141","SARL_v6","SARL_v63n13xggp","611465b0cdf9e7bb34a05898","freq","","","img/orange_2bandit_a2.png","70","","70","test","1","","5","","","","square","circle","5","5","1","1","","","","","","","",""
"null","606679","SARL_v6","SARL_v63n13xggp","611465b0cdf9e7bb34a05898","freq_resp","","","img/orange_2bandit_a.png","70","img/orange_2bandit_a.png","70","test","","","","","","","","","","","1","","","","","","","","",""
"null","606836","SARL_v6","SARL_v63n13xggp","611465b0cdf9e7bb34a05898","fixation","","","img/fixation.png","null","","","test","","","","","","","","","","","","","","","","","","","",""
"328.2000002861023","607167","SARL_v6","SARL_v63n13xggp","611465b0cdf9e7bb34a05898","freq","","","img/orange_2bandit_a2.png","70","","70","test","1","","6","","","","square","circle","6","6","1","1","","","","","","","",""
"null","607645","SARL_v6","SARL_v63n13xggp","611465b0cdf9e7bb34a05898","freq_resp","","","img/orange_2bandit_a.png","70","img/orange_2bandit_a.png","70","test","","","","","","","","","","","1","","","","","","","","",""
"null","607804","SARL_v6","SARL_v63n13xggp","611465b0cdf9e7bb34a05898","fixation","","","img/fixation.png","null","","","test","","","","","","","","","","","","","","","","","","","",""
"281.7000002861023","608089","SARL_v6","SARL_v63n13xggp","611465b0cdf9e7bb34a05898","freq","","","img/orange_2bandit_a2.png","70","","70","test","1","","7","","","","square","circle","7","7","1","1","","","","","","","",""
"null","608620","SARL_v6","SARL_v63n13xggp","611465b0cdf9e7bb34a05898","freq_resp","","","img/orange_2bandit_a.png","70","img/orange_2bandit_a.png","70","test","","","","","","","","","","","1","","","","","","","","",""
"null","608781","SARL_v6","SARL_v63n13xggp","611465b0cdf9e7bb34a05898","fixation","","","img/fixation.png","null","","","test","","","","","","","","","","","","","","","","","","","",""
"329.80000019073486","609114","SARL_v6","SARL_v63n13xggp","611465b0cdf9e7bb34a05898","freq","","","img/orange_2bandit_a2.png","70","","70","test","1","","8","","","","square","circle","8","8","1","1","","","","","","","",""
"null","609604","SARL_v6","SARL_v63n13xggp","611465b0cdf9e7bb34a05898","freq_resp","","","img/orange_2bandit_a.png","70","img/orange_2bandit_a.png","70","test","","","","","","","","","","","1","","","","","","","","",""
"null","609762","SARL_v6","SARL_v63n13xggp","611465b0cdf9e7bb34a05898","fixation","","","img/fixation.png","null","","","test","","","","","","","","","","","","","","","","","","","",""
"271.40000009536743","610035","SARL_v6","SARL_v63n13xggp","611465b0cdf9e7bb34a05898","freq","","","img/orange_2bandit_a2.png","70","","70","test","1","","9","","","","square","circle","9","9","1","1","","","","","","","",""
"null","610570","SARL_v6","SARL_v63n13xggp","611465b0cdf9e7bb34a05898","freq_resp","","","img/orange_2bandit_a.png","70","img/orange_2bandit_a.png","70","test","","","","","","","","","","","1","","","","","","","","",""
"null","610729","SARL_v6","SARL_v63n13xggp","611465b0cdf9e7bb34a05898","fixation","","","img/fixation.png","null","","","test","","","","","","","","","","","","","","","","","","","",""
"311","611043","SARL_v6","SARL_v63n13xggp","611465b0cdf9e7bb34a05898","freq","","","img/orange_2bandit_a2.png","70","","70","test","1","","10","","","","square","circle","10","10","1","1","","","","","","","",""
"null","611541","SARL_v6","SARL_v63n13xggp","611465b0cdf9e7bb34a05898","freq_resp","","","img/orange_2bandit_a.png","70","img/orange_2bandit_a.png","70","test","","","","","","","","","","","1","","","","","","","","",""
"null","611698","SARL_v6","SARL_v63n13xggp","611465b0cdf9e7bb34a05898","fixation","","","img/fixation.png","null","","","test","","","","","","","","","","","","","","","","","","","",""
"331.80000019073486","612033","SARL_v6","SARL_v63n13xggp","611465b0cdf9e7bb34a05898","freq","","","img/orange_2bandit_a2.png","70","","70","test","1","","11","","","","square","circle","11","11","1","1","","","","","","","",""
"null","612531","SARL_v6","SARL_v63n13xggp","611465b0cdf9e7bb34a05898","freq_resp","","","img/orange_2bandit_a.png","70","img/orange_2bandit_a.png","70","test","","","","","","","","","","","1","","","","","","","","",""
"null","612720","SARL_v6","SARL_v63n13xggp","611465b0cdf9e7bb34a05898","fixation","","","img/fixation.png","null","","","test","","","","","","","","","","","","","","","","","","","",""
"437.40000009536743","613160","SARL_v6","SARL_v63n13xggp","611465b0cdf9e7bb34a05898","infreq","","","img/blue_2bandit_a2.png","70","","68","test","0","","12","","","","square","circle","12","12","1","0.9166666666666666","","","","","","","",""
"null","613539","SARL_v6","SARL_v63n13xggp","611465b0cdf9e7bb34a05898","infreq_resp","","","img/blue_2bandit_a.png","70","img/blue_2bandit_a.png","68","test","","","","","","","","","","","1","","","","","","","","",""
"null","613699","SARL_v6","SARL_v63n13xggp","611465b0cdf9e7bb34a05898","fixation","","","img/fixation.png","null","","","test","","","","","","","","","","","","","","","","","","","",""
"403.5","614106","SARL_v6","SARL_v63n13xggp","611465b0cdf9e7bb34a05898","freq","","","img/orange_2bandit_a2.png","70","","70","test","1","","13","","","","square","circle","13","13","1","0.9230769230769231","","","","","","","",""
"null","614515","SARL_v6","SARL_v63n13xggp","611465b0cdf9e7bb34a05898","freq_resp","","","img/orange_2bandit_a.png","70","img/orange_2bandit_a.png","70","test","","","","","","","","","","","1","","","","","","","","",""
"null","614674","SARL_v6","SARL_v63n13xggp","611465b0cdf9e7bb34a05898","fixation","","","img/fixation.png","null","","","test","","","","","","","","","","","","","","","","","","","",""
"320.8999996185303","614998","SARL_v6","SARL_v63n13xggp","611465b0cdf9e7bb34a05898","freq","","","img/orange_2bandit_a2.png","70","","70","test","1","","14","","","","square","circle","14","14","1","0.9285714285714286","","","","","","","",""
"null","615489","SARL_v6","SARL_v63n13xggp","611465b0cdf9e7bb34a05898","freq_resp","","","img/orange_2bandit_a.png","70","img/orange_2bandit_a.png","70","test","","","","","","","","","","","1","","","","","","","","",""
"null","615649","SARL_v6","SARL_v63n13xggp","611465b0cdf9e7bb34a05898","fixation","","","img/fixation.png","null","","","test","","","","","","","","","","","","","","","","","","","",""
"323.7000002861023","615976","SARL_v6","SARL_v63n13xggp","611465b0cdf9e7bb34a05898","freq","","","img/orange_2bandit_a2.png","70","","70","test","1","","15","","","","square","circle","15","15","1","0.9333333333333333","","","","","","","",""
"null","616466","SARL_v6","SARL_v63n13xggp","611465b0cdf9e7bb34a05898","freq_resp","","","img/orange_2bandit_a.png","70","img/orange_2bandit_a.png","70","test","","","","","","","","","","","1","","","","","","","","",""
"null","616627","SARL_v6","SARL_v63n13xggp","611465b0cdf9e7bb34a05898","fixation","","","img/fixation.png","null","","","test","","","","","","","","","","","","","","","","","","","",""
"289.6000003814697","616920","SARL_v6","SARL_v63n13xggp","611465b0cdf9e7bb34a05898","freq","","","img/orange_2bandit_a2.png","70","","70","test","1","","16","","","","square","circle","16","16","1","0.9375","","","","","","","",""
"null","617440","SARL_v6","SARL_v63n13xggp","611465b0cdf9e7bb34a05898","freq_resp","","","img/orange_2bandit_a.png","70","img/orange_2bandit_a.png","70","test","","","","","","","","","","","1","","","","","","","","",""
"null","617601","SARL_v6","SARL_v63n13xggp","611465b0cdf9e7bb34a05898","fixation","","","img/fixation.png","null","","","test","","","","","","","","","","","","","","","","","","","",""
"320.40000009536743","617924","SARL_v6","SARL_v63n13xggp","611465b0cdf9e7bb34a05898","freq","","","img/orange_2bandit_a2.png","70","","70","test","1","","17","","","","square","circle","17","17","1","0.9411764705882353","","","","","","","",""
"null","618446","SARL_v6","SARL_v63n13xggp","611465b0cdf9e7bb34a05898","freq_resp","","","img/orange_2bandit_a.png","70","img/orange_2bandit_a.png","70","test","","","","","","","","","","","1","","","","","","","","",""
"null","618613","SARL_v6","SARL_v63n13xggp","611465b0cdf9e7bb34a05898","fixation","","","img/fixation.png","null","","","test","","","","","","","","","","","","","","","","","","","",""
"282.59999990463257","618899","SARL_v6","SARL_v63n13xggp","611465b0cdf9e7bb34a05898","freq","","","img/orange_2bandit_a2.png","70","","70","test","1","","18","","","","square","circle","18","18","1","0.9444444444444444","","","","","","","",""
"null","619421","SARL_v6","SARL_v63n13xggp","611465b0cdf9e7bb34a05898","freq_resp","","","img/orange_2bandit_a.png","70","img/orange_2bandit_a.png","70","test","","","","","","","","","","","1","","","","","","","","",""
"null","619582","SARL_v6","SARL_v63n13xggp","611465b0cdf9e7bb34a05898","fixation","","","img/fixation.png","null","","","test","","","","","","","","","","","","","","","","","","","",""
"293.69999980926514","619879","SARL_v6","SARL_v63n13xggp","611465b0cdf9e7bb34a05898","freq","","","img/orange_2bandit_a2.png","70","","70","test","1","","19","","","","square","circle","19","19","1","0.9473684210526315","","","","","","","",""
"null","620397","SARL_v6","SARL_v63n13xggp","611465b0cdf9e7bb34a05898","freq_resp","","","img/orange_2bandit_a.png","70","img/orange_2bandit_a.png","70","test","","","","","","","","","","","1","","","","","","","","",""
"null","620558","SARL_v6","SARL_v63n13xggp","611465b0cdf9e7bb34a05898","fixation","","","img/fixation.png","null","","","test","","","","","","","","","","","","","","","","","","","",""
"284.7000002861023","620845","SARL_v6","SARL_v63n13xggp","611465b0cdf9e7bb34a05898","freq","","","img/orange_2bandit_a2.png","70","","70","test","1","","20","","","","square","circle","20","20","1","0.95","","","","","","","",""
"null","621373","SARL_v6","SARL_v63n13xggp","611465b0cdf9e7bb34a05898","freq_resp","","","img/orange_2bandit_a.png","70","img/orange_2bandit_a.png","70","test","","","","","","","","","","","1","","","","","","","","",""
"null","621535","SARL_v6","SARL_v63n13xggp","611465b0cdf9e7bb34a05898","fixation","","","img/fixation.png","null","","","test","","","","","","","","","","","","","","","","","","","",""
"539.5999999046326","622077","SARL_v6","SARL_v63n13xggp","611465b0cdf9e7bb34a05898","freq","","","img/orange_2bandit_a2.png","70","","70","test","1","","21","","","","square","circle","21","21","1","0.9523809523809523","","","","","","","",""
"null","622349","SARL_v6","SARL_v63n13xggp","611465b0cdf9e7bb34a05898","freq_resp","","","img/orange_2bandit_a.png","70","img/orange_2bandit_a.png","70","test","","","","","","","","","","","1","","","","","","","","",""
"null","622505","SARL_v6","SARL_v63n13xggp","611465b0cdf9e7bb34a05898","fixation","","","img/fixation.png","null","","","test","","","","","","","","","","","","","","","","","","","",""
"377.5","622886","SARL_v6","SARL_v63n13xggp","611465b0cdf9e7bb34a05898","infreq","","","img/blue_2bandit_a2.png","68","","68","test","1","","22","","","","square","circle","22","22","1","0.9545454545454546","","","","","","","",""
"null","623322","SARL_v6","SARL_v63n13xggp","611465b0cdf9e7bb34a05898","infreq_resp","","","img/blue_2bandit_a.png","68","img/blue_2bandit_a.png","68","test","","","","","","","","","","","1","","","","","","","","",""
"null","623483","SARL_v6","SARL_v63n13xggp","611465b0cdf9e7bb34a05898","fixation","","","img/fixation.png","null","","","test","","","","","","","","","","","","","","","","","","","",""
"427","623913","SARL_v6","SARL_v63n13xggp","611465b0cdf9e7bb34a05898","freq","","","img/orange_2bandit_a2.png","70","","70","test","1","","23","","","","square","circle","23","23","1","0.9565217391304348","","","","","","","",""
"null","624298","SARL_v6","SARL_v63n13xggp","611465b0cdf9e7bb34a05898","freq_resp","","","img/orange_2bandit_a.png","70","img/orange_2bandit_a.png","70","test","","","","","","","","","","","1","","","","","","","","",""
"null","624460","SARL_v6","SARL_v63n13xggp","611465b0cdf9e7bb34a05898","fixation","","","img/fixation.png","null","","","test","","","","","","","","","","","","","","","","","","","",""
"340.7000002861023","624804","SARL_v6","SARL_v63n13xggp","611465b0cdf9e7bb34a05898","freq","","","img/orange_2bandit_a2.png","70","","70","test","1","","24","","","","square","circle","24","24","1","0.9583333333333334","","","","","","","",""
"null","625274","SARL_v6","SARL_v63n13xggp","611465b0cdf9e7bb34a05898","freq_resp","","","img/orange_2bandit_a.png","70","img/orange_2bandit_a.png","70","test","","","","","","","","","","","1","","","","","","","","",""
"null","625433","SARL_v6","SARL_v63n13xggp","611465b0cdf9e7bb34a05898","fixation","","","img/fixation.png","null","","","test","","","","","","","","","","","","","","","","","","","",""
"271.40000009536743","625708","SARL_v6","SARL_v63n13xggp","611465b0cdf9e7bb34a05898","freq","","","img/orange_2bandit_a2.png","70","","70","test","1","","25","","","","square","circle","25","25","1","0.96","","","","","","","",""
"null","626254","SARL_v6","SARL_v63n13xggp","611465b0cdf9e7bb34a05898","freq_resp","","","img/orange_2bandit_a.png","70","img/orange_2bandit_a.png","70","test","","","","","","","","","","","1","","","","","","","","",""
"null","626410","SARL_v6","SARL_v63n13xggp","611465b0cdf9e7bb34a05898","fixation","","","img/fixation.png","null","","","test","","","","","","","","","","","","","","","","","","","",""
"290.40000009536743","626704","SARL_v6","SARL_v63n13xggp","611465b0cdf9e7bb34a05898","freq","","","img/orange_2bandit_a2.png","70","","70","test","1","","26","","","","square","circle","26","26","1","0.9615384615384616","","","","","","","",""
"null","627228","SARL_v6","SARL_v63n13xggp","611465b0cdf9e7bb34a05898","freq_resp","","","img/orange_2bandit_a.png","70","img/orange_2bandit_a.png","70","test","","","","","","","","","","","1","","","","","","","","",""
"null","627384","SARL_v6","SARL_v63n13xggp","611465b0cdf9e7bb34a05898","fixation","","","img/fixation.png","null","","","test","","","","","","","","","","","","","","","","","","","",""
"552.3999996185303","627940","SARL_v6","SARL_v63n13xggp","611465b0cdf9e7bb34a05898","rl","","","img/black_2bandit_a2.png","75","","0","test","","","27","","","-3","square","circle","","0","1","","75","-3","-3","-3","-3","circle","1","0"
"null","628697","SARL_v6","SARL_v63n13xggp","611465b0cdf9e7bb34a05898","feedback","","","<div class=""verylowPoints""> -3 </div>","null","","na","test","","","NaN","","","","","","","","1","","75","","","","","","1",""
"565.5","629266","SARL_v6","SARL_v63n13xggp","611465b0cdf9e7bb34a05898","freq","","","img/orange_2bandit_a2.png","70","","70","test","1","","28","","","","square","circle","27","1","2","0.9629629629629629","","","","","","","",""
"null","629508","SARL_v6","SARL_v63n13xggp","611465b0cdf9e7bb34a05898","freq_resp","","","img/orange_2bandit_a.png","70","img/orange_2bandit_a.png","70","test","","","","","","","","","","","2","","","","","","","","",""
"null","629669","SARL_v6","SARL_v63n13xggp","611465b0cdf9e7bb34a05898","fixation","","","img/fixation.png","null","","","test","","","","","","","","","","","","","","","","","","","",""
"370.40000009536743","630043","SARL_v6","SARL_v63n13xggp","611465b0cdf9e7bb34a05898","freq","","","img/orange_2bandit_a2.png","70","","70","test","1","","29","","","","square","circle","28","2","2","0.9642857142857143","","","","","","","",""
"null","630481","SARL_v6","SARL_v63n13xggp","611465b0cdf9e7bb34a05898","freq_resp","","","img/orange_2bandit_a.png","70","img/orange_2bandit_a.png","70","test","","","","","","","","","","","2","","","","","","","","",""
"null","630641","SARL_v6","SARL_v63n13xggp","611465b0cdf9e7bb34a05898","fixation","","","img/fixation.png","null","","","test","","","","","","","","","","","","","","","","","","","",""
"315.69999980926514","630960","SARL_v6","SARL_v63n13xggp","611465b0cdf9e7bb34a05898","freq","","","img/orange_2bandit_a2.png","70","","70","test","1","","30","","","","square","circle","29","3","2","0.9655172413793104","","","","","","","",""
"null","631456","SARL_v6","SARL_v63n13xggp","611465b0cdf9e7bb34a05898","freq_resp","","","img/orange_2bandit_a.png","70","img/orange_2bandit_a.png","70","test","","","","","","","","","","","2","","","","","","","","",""
"null","631616","SARL_v6","SARL_v63n13xggp","611465b0cdf9e7bb34a05898","fixation","","","img/fixation.png","null","","","test","","","","","","","","","","","","","","","","","","","",""
"322","631941","SARL_v6","SARL_v63n13xggp","611465b0cdf9e7bb34a05898","freq","","","img/orange_2bandit_a2.png","70","","70","test","1","","31","","","","square","circle","30","4","2","0.9666666666666667","","","","","","","",""
"null","632437","SARL_v6","SARL_v63n13xggp","611465b0cdf9e7bb34a05898","freq_resp","","","img/orange_2bandit_a.png","70","img/orange_2bandit_a.png","70","test","","","","","","","","","","","2","","","","","","","","",""
"null","632597","SARL_v6","SARL_v63n13xggp","611465b0cdf9e7bb34a05898","fixation","","","img/fixation.png","null","","","test","","","","","","","","","","","","","","","","","","","",""
"274.59999990463257","632875","SARL_v6","SARL_v63n13xggp","611465b0cdf9e7bb34a05898","freq","","","img/orange_2bandit_a2.png","70","","70","test","1","","32","","","","square","circle","31","5","2","0.967741935483871","","","","","","","",""
"null","633418","SARL_v6","SARL_v63n13xggp","611465b0cdf9e7bb34a05898","freq_resp","","","img/orange_2bandit_a.png","70","img/orange_2bandit_a.png","70","test","","","","","","","","","","","2","","","","","","","","",""
"null","633577","SARL_v6","SARL_v63n13xggp","611465b0cdf9e7bb34a05898","fixation","","","img/fixation.png","null","","","test","","","","","","","","","","","","","","","","","","","",""
"315.40000009536743","633896","SARL_v6","SARL_v63n13xggp","611465b0cdf9e7bb34a05898","freq","","","img/orange_2bandit_a2.png","70","","70","test","1","","33","","","","square","circle","32","6","2","0.96875","","","","","","","",""
"null","634402","SARL_v6","SARL_v63n13xggp","611465b0cdf9e7bb34a05898","freq_resp","","","img/orange_2bandit_a.png","70","img/orange_2bandit_a.png","70","test","","","","","","","","","","","2","","","","","","","","",""
"null","634576","SARL_v6","SARL_v63n13xggp","611465b0cdf9e7bb34a05898","fixation","","","img/fixation.png","null","","","test","","","","","","","","","","","","","","","","","","","",""
"322.90000009536743","634902","SARL_v6","SARL_v63n13xggp","611465b0cdf9e7bb34a05898","freq","","","img/orange_2bandit_a2.png","70","","70","test","1","","34","","","","square","circle","33","7","2","0.9696969696969697","","","","","","","",""
"null","635395","SARL_v6","SARL_v63n13xggp","611465b0cdf9e7bb34a05898","freq_resp","","","img/orange_2bandit_a.png","70","img/orange_2bandit_a.png","70","test","","","","","","","","","","","2","","","","","","","","",""
"null","635555","SARL_v6","SARL_v63n13xggp","611465b0cdf9e7bb34a05898","fixation","","","img/fixation.png","null","","","test","","","","","","","","","","","","","","","","","","","",""
"369.3999996185303","635927","SARL_v6","SARL_v63n13xggp","611465b0cdf9e7bb34a05898","infreq","","","img/blue_2bandit_a2.png","68","","68","test","1","","35","","","","square","circle","34","8","2","0.9705882352941176","","","","","","","",""
"null","636367","SARL_v6","SARL_v63n13xggp","611465b0cdf9e7bb34a05898","infreq_resp","","","img/blue_2bandit_a.png","68","img/blue_2bandit_a.png","68","test","","","","","","","","","","","2","","","","","","","","",""
"null","636527","SARL_v6","SARL_v63n13xggp","611465b0cdf9e7bb34a05898","fixation","","","img/fixation.png","null","","","test","","","","","","","","","","","","","","","","","","","",""
"438.1000003814697","636969","SARL_v6","SARL_v63n13xggp","611465b0cdf9e7bb34a05898","freq","","","img/orange_2bandit_a2.png","70","","70","test","1","","36","","","","square","circle","35","9","2","0.9714285714285714","","","","","","","",""
"null","637342","SARL_v6","SARL_v63n13xggp","611465b0cdf9e7bb34a05898","freq_resp","","","img/orange_2bandit_a.png","70","img/orange_2bandit_a.png","70","test","","","","","","","","","","","2","","","","","","","","",""
"null","637502","SARL_v6","SARL_v63n13xggp","611465b0cdf9e7bb34a05898","fixation","","","img/fixation.png","null","","","test","","","","","","","","","","","","","","","","","","","",""
"297.40000009536743","637803","SARL_v6","SARL_v63n13xggp","611465b0cdf9e7bb34a05898","freq","","","img/orange_2bandit_a2.png","70","","70","test","1","","37","","","","square","circle","36","10","2","0.9722222222222222","","","","","","","",""
"null","638316","SARL_v6","SARL_v63n13xggp","611465b0cdf9e7bb34a05898","freq_resp","","","img/orange_2bandit_a.png","70","img/orange_2bandit_a.png","70","test","","","","","","","","","","","2","","","","","","","","",""
"null","638480","SARL_v6","SARL_v63n13xggp","611465b0cdf9e7bb34a05898","fixation","","","img/fixation.png","null","","","test","","","","","","","","","","","","","","","","","","","",""
"260.7999997138977","638745","SARL_v6","SARL_v63n13xggp","611465b0cdf9e7bb34a05898","freq","","","img/orange_2bandit_a2.png","70","","70","test","1","","38","","","","square","circle","37","11","2","0.972972972972973","","","","","","","",""
"null","639290","SARL_v6","SARL_v63n13xggp","611465b0cdf9e7bb34a05898","freq_resp","","","img/orange_2bandit_a.png","70","img/orange_2bandit_a.png","70","test","","","","","","","","","","","2","","","","","","","","",""
"null","639449","SARL_v6","SARL_v63n13xggp","611465b0cdf9e7bb34a05898","fixation","","","img/fixation.png","null","","","test","","","","","","","","","","","","","","","","","","","",""
"422.7999997138977","639876","SARL_v6","SARL_v63n13xggp","611465b0cdf9e7bb34a05898","freq","","","img/orange_2bandit_a2.png","70","","70","test","1","","39","","","","square","circle","38","12","2","0.9736842105263158","","","","","","","",""
"null","640263","SARL_v6","SARL_v63n13xggp","611465b0cdf9e7bb34a05898","freq_resp","","","img/orange_2bandit_a.png","70","img/orange_2bandit_a.png","70","test","","","","","","","","","","","2","","","","","","","","",""
"null","640425","SARL_v6","SARL_v63n13xggp","611465b0cdf9e7bb34a05898","fixation","","","img/fixation.png","null","","","test","","","","","","","","","","","","","","","","","","","",""
"270.59999990463257","640698","SARL_v6","SARL_v63n13xggp","611465b0cdf9e7bb34a05898","freq","","","img/orange_2bandit_a2.png","70","","70","test","1","","40","","","","square","circle","39","13","2","0.9743589743589743","","","","","","","",""
"null","641244","SARL_v6","SARL_v63n13xggp","611465b0cdf9e7bb34a05898","freq_resp","","","img/orange_2bandit_a.png","70","img/orange_2bandit_a.png","70","test","","","","","","","","","","","2","","","","","","","","",""
"null","641401","SARL_v6","SARL_v63n13xggp","611465b0cdf9e7bb34a05898","fixation","","","img/fixation.png","null","","","test","","","","","","","","","","","","","","","","","","","",""
"309.8999996185303","641713","SARL_v6","SARL_v63n13xggp","611465b0cdf9e7bb34a05898","freq","","","img/orange_2bandit_a2.png","70","","70","test","1","","41","","","","square","circle","40","14","2","0.975","","","","","","","",""
"null","642218","SARL_v6","SARL_v63n13xggp","611465b0cdf9e7bb34a05898","freq_resp","","","img/orange_2bandit_a.png","70","img/orange_2bandit_a.png","70","test","","","","","","","","","","","2","","","","","","","","",""
"null","642377","SARL_v6","SARL_v63n13xggp","611465b0cdf9e7bb34a05898","fixation","","","img/fixation.png","null","","","test","","","","","","","","","","","","","","","","","","","",""
"371.5","642751","SARL_v6","SARL_v63n13xggp","611465b0cdf9e7bb34a05898","infreq","","","img/blue_2bandit_a2.png","68","","68","test","1","","42","","","","square","circle","41","15","2","0.975609756097561","","","","","","","",""
"null","643185","SARL_v6","SARL_v63n13xggp","611465b0cdf9e7bb34a05898","infreq_resp","","","img/blue_2bandit_a.png","68","img/blue_2bandit_a.png","68","test","","","","","","","","","","","2","","","","","","","","",""
"null","643341","SARL_v6","SARL_v63n13xggp","611465b0cdf9e7bb34a05898","fixation","","","img/fixation.png","null","","","test","","","","","","","","","","","","","","","","","","","",""
"505.80000019073486","643850","SARL_v6","SARL_v63n13xggp","611465b0cdf9e7bb34a05898","freq","","","img/orange_2bandit_a2.png","70","","70","test","1","","43","","","","square","circle","42","16","2","0.9761904761904762","","","","","","","",""
"null","644161","SARL_v6","SARL_v63n13xggp","611465b0cdf9e7bb34a05898","freq_resp","","","img/orange_2bandit_a.png","70","img/orange_2bandit_a.png","70","test","","","","","","","","","","","2","","","","","","","","",""
"null","644320","SARL_v6","SARL_v63n13xggp","611465b0cdf9e7bb34a05898","fixation","","","img/fixation.png","null","","","test","","","","","","","","","","","","","","","","","","","",""
"306.5","644630","SARL_v6","SARL_v63n13xggp","611465b0cdf9e7bb34a05898","freq","","","img/orange_2bandit_a2.png","70","","70","test","1","","44","","","","square","circle","43","17","2","0.9767441860465116","","","","","","","",""
"null","645148","SARL_v6","SARL_v63n13xggp","611465b0cdf9e7bb34a05898","freq_resp","","","img/orange_2bandit_a.png","70","img/orange_2bandit_a.png","70","test","","","","","","","","","","","2","","","","","","","","",""
"null","645322","SARL_v6","SARL_v63n13xggp","611465b0cdf9e7bb34a05898","fixation","","","img/fixation.png","null","","","test","","","","","","","","","","","","","","","","","","","",""
"291.5","645615","SARL_v6","SARL_v63n13xggp","611465b0cdf9e7bb34a05898","freq","","","img/orange_2bandit_a2.png","70","","70","test","1","","45","","","","square","circle","44","18","2","0.9772727272727273","","","","","","","",""
"null","646127","SARL_v6","SARL_v63n13xggp","611465b0cdf9e7bb34a05898","freq_resp","","","img/orange_2bandit_a.png","70","img/orange_2bandit_a.png","70","test","","","","","","","","","","","2","","","","","","","","",""
"null","646284","SARL_v6","SARL_v63n13xggp","611465b0cdf9e7bb34a05898","fixation","","","img/fixation.png","null","","","test","","","","","","","","","","","","","","","","","","","",""
"299.59999990463257","646586","SARL_v6","SARL_v63n13xggp","611465b0cdf9e7bb34a05898","freq","","","img/orange_2bandit_a2.png","70","","70","test","1","","46","","","","square","circle","45","19","2","0.9777777777777777","","","","","","","",""
"null","647102","SARL_v6","SARL_v63n13xggp","611465b0cdf9e7bb34a05898","freq_resp","","","img/orange_2bandit_a.png","70","img/orange_2bandit_a.png","70","test","","","","","","","","","","","2","","","","","","","","",""
"null","647259","SARL_v6","SARL_v63n13xggp","611465b0cdf9e7bb34a05898","fixation","","","img/fixation.png","null","","","test","","","","","","","","","","","","","","","","","","","",""
"289.1000003814697","647551","SARL_v6","SARL_v63n13xggp","611465b0cdf9e7bb34a05898","freq","","","img/orange_2bandit_a2.png","70","","70","test","1","","47","","","","square","circle","46","20","2","0.9782608695652174","","","","","","","",""
"null","648076","SARL_v6","SARL_v63n13xggp","611465b0cdf9e7bb34a05898","freq_resp","","","img/orange_2bandit_a.png","70","img/orange_2bandit_a.png","70","test","","","","","","","","","","","2","","","","","","","","",""
"null","648233","SARL_v6","SARL_v63n13xggp","611465b0cdf9e7bb34a05898","fixation","","","img/fixation.png","null","","","test","","","","","","","","","","","","","","","","","","","",""
"246.2999997138977","648482","SARL_v6","SARL_v63n13xggp","611465b0cdf9e7bb34a05898","freq","","","img/orange_2bandit_a2.png","70","","70","test","1","","48","","","","square","circle","47","21","2","0.9787234042553191","","","","","","","",""
"null","649044","SARL_v6","SARL_v63n13xggp","611465b0cdf9e7bb34a05898","freq_resp","","","img/orange_2bandit_a.png","70","img/orange_2bandit_a.png","70","test","","","","","","","","","","","2","","","","","","","","",""
"null","649204","SARL_v6","SARL_v63n13xggp","611465b0cdf9e7bb34a05898","fixation","","","img/fixation.png","null","","","test","","","","","","","","","","","","","","","","","","","",""
"307","649515","SARL_v6","SARL_v63n13xggp","611465b0cdf9e7bb34a05898","freq","","","img/orange_2bandit_a2.png","70","","70","test","1","","49","","","","square","circle","48","22","2","0.9791666666666666","","","","","","","",""
"null","650012","SARL_v6","SARL_v63n13xggp","611465b0cdf9e7bb34a05898","freq_resp","","","img/orange_2bandit_a.png","70","img/orange_2bandit_a.png","70","test","","","","","","","","","","","2","","","","","","","","",""
"null","650167","SARL_v6","SARL_v63n13xggp","611465b0cdf9e7bb34a05898","fixation","","","img/fixation.png","null","","","test","","","","","","","","","","","","","","","","","","","",""
"308.59999990463257","650478","SARL_v6","SARL_v63n13xggp","611465b0cdf9e7bb34a05898","freq","","","img/orange_2bandit_a2.png","70","","70","test","1","","50","","","","square","circle","49","23","2","0.9795918367346939","","","","","","","",""
"null","650997","SARL_v6","SARL_v63n13xggp","611465b0cdf9e7bb34a05898","freq_resp","","","img/orange_2bandit_a.png","70","img/orange_2bandit_a.png","70","test","","","","","","","","","","","2","","","","","","","","",""
"null","651165","SARL_v6","SARL_v63n13xggp","611465b0cdf9e7bb34a05898","fixation","","","img/fixation.png","null","","","test","","","","","","","","","","","","","","","","","","","",""
"310.5","651478","SARL_v6","SARL_v63n13xggp","611465b0cdf9e7bb34a05898","freq","","","img/orange_2bandit_a2.png","70","","70","test","1","","51","","","","square","circle","50","24","2","0.98","","","","","","","",""
"null","651971","SARL_v6","SARL_v63n13xggp","611465b0cdf9e7bb34a05898","freq_resp","","","img/orange_2bandit_a.png","70","img/orange_2bandit_a.png","70","test","","","","","","","","","","","2","","","","","","","","",""
"null","652139","SARL_v6","SARL_v63n13xggp","611465b0cdf9e7bb34a05898","fixation","","","img/fixation.png","null","","","test","","","","","","","","","","","","","","","","","","","",""
"548.4000000953674","652690","SARL_v6","SARL_v63n13xggp","611465b0cdf9e7bb34a05898","rl","","","img/black_2bandit_a2.png","75","","0","test","","","52","","","-5","square","circle","","0","2","","75","-5","-8","-8","-5","circle","2","0"
"null","653458","SARL_v6","SARL_v63n13xggp","611465b0cdf9e7bb34a05898","feedback","","","<div class=""verylowPoints""> -5 </div>","null","","na","test","","","NaN","","","","","","","","2","","75","","","","","","2",""
"386.69999980926514","653848","SARL_v6","SARL_v63n13xggp","611465b0cdf9e7bb34a05898","freq","","","img/orange_2bandit_a2.png","70","","70","test","1","","53","","","","square","circle","51","1","3","0.9803921568627451","","","","","","","",""
"null","654279","SARL_v6","SARL_v63n13xggp","611465b0cdf9e7bb34a05898","freq_resp","","","img/orange_2bandit_a.png","70","img/orange_2bandit_a.png","70","test","","","","","","","","","","","3","","","","","","","","",""
"null","654439","SARL_v6","SARL_v63n13xggp","611465b0cdf9e7bb34a05898","fixation","","","img/fixation.png","null","","","test","","","","","","","","","","","","","","","","","","","",""
"357.30000019073486","654800","SARL_v6","SARL_v63n13xggp","611465b0cdf9e7bb34a05898","freq","","","img/orange_2bandit_a2.png","70","","70","test","1","","54","","","","square","circle","52","2","3","0.9807692307692307","","","","","","","",""
"null","655254","SARL_v6","SARL_v63n13xggp","611465b0cdf9e7bb34a05898","freq_resp","","","img/orange_2bandit_a.png","70","img/orange_2bandit_a.png","70","test","","","","","","","","","","","3","","","","","","","","",""
"null","655412","SARL_v6","SARL_v63n13xggp","611465b0cdf9e7bb34a05898","fixation","","","img/fixation.png","null","","","test","","","","","","","","","","","","","","","","","","","",""
"351.2999997138977","655765","SARL_v6","SARL_v63n13xggp","611465b0cdf9e7bb34a05898","freq","","","img/orange_2bandit_a2.png","70","","70","test","1","","55","","","","square","circle","53","3","3","0.9811320754716981","","","","","","","",""
"null","656227","SARL_v6","SARL_v63n13xggp","611465b0cdf9e7bb34a05898","freq_resp","","","img/orange_2bandit_a.png","70","img/orange_2bandit_a.png","70","test","","","","","","","","","","","3","","","","","","","","",""
"null","656385","SARL_v6","SARL_v63n13xggp","611465b0cdf9e7bb34a05898","fixation","","","img/fixation.png","null","","","test","","","","","","","","","","","","","","","","","","","",""
"321.3999996185303","656709","SARL_v6","SARL_v63n13xggp","611465b0cdf9e7bb34a05898","freq","","","img/orange_2bandit_a2.png","70","","70","test","1","","56","","","","square","circle","54","4","3","0.9814814814814815","","","","","","","",""
"null","657196","SARL_v6","SARL_v63n13xggp","611465b0cdf9e7bb34a05898","freq_resp","","","img/orange_2bandit_a.png","70","img/orange_2bandit_a.png","70","test","","","","","","","","","","","3","","","","","","","","",""
"null","657355","SARL_v6","SARL_v63n13xggp","611465b0cdf9e7bb34a05898","fixation","","","img/fixation.png","null","","","test","","","","","","","","","","","","","","","","","","","",""
"286.5","657644","SARL_v6","SARL_v63n13xggp","611465b0cdf9e7bb34a05898","freq","","","img/orange_2bandit_a2.png","70","","70","test","1","","57","","","","square","circle","55","5","3","0.9818181818181818","","","","","","","",""
"null","658174","SARL_v6","SARL_v63n13xggp","611465b0cdf9e7bb34a05898","freq_resp","","","img/orange_2bandit_a.png","70","img/orange_2bandit_a.png","70","test","","","","","","","","","","","3","","","","","","","","",""
"null","658343","SARL_v6","SARL_v63n13xggp","611465b0cdf9e7bb34a05898","fixation","","","img/fixation.png","null","","","test","","","","","","","","","","","","","","","","","","","",""
"271.19999980926514","658617","SARL_v6","SARL_v63n13xggp","611465b0cdf9e7bb34a05898","freq","","","img/orange_2bandit_a2.png","70","","70","test","1","","58","","","","square","circle","56","6","3","0.9821428571428571","","","","","","","",""
"null","659149","SARL_v6","SARL_v63n13xggp","611465b0cdf9e7bb34a05898","freq_resp","","","img/orange_2bandit_a.png","70","img/orange_2bandit_a.png","70","test","","","","","","","","","","","3","","","","","","","","",""
"null","659306","SARL_v6","SARL_v63n13xggp","611465b0cdf9e7bb34a05898","fixation","","","img/fixation.png","null","","","test","","","","","","","","","","","","","","","","","","","",""
"324.6000003814697","659633","SARL_v6","SARL_v63n13xggp","611465b0cdf9e7bb34a05898","freq","","","img/orange_2bandit_a2.png","70","","70","test","1","","59","","","","square","circle","57","7","3","0.9824561403508771","","","","","","","",""
"null","660126","SARL_v6","SARL_v63n13xggp","611465b0cdf9e7bb34a05898","freq_resp","","","img/orange_2bandit_a.png","70","img/orange_2bandit_a.png","70","test","","","","","","","","","","","3","","","","","","","","",""
"null","660286","SARL_v6","SARL_v63n13xggp","611465b0cdf9e7bb34a05898","fixation","","","img/fixation.png","null","","","test","","","","","","","","","","","","","","","","","","","",""
"347.7000002861023","660636","SARL_v6","SARL_v63n13xggp","611465b0cdf9e7bb34a05898","infreq","","","img/blue_2bandit_a2.png","68","","68","test","1","","60","","","","square","circle","58","8","3","0.9827586206896551","","","","","","","",""
"null","661112","SARL_v6","SARL_v63n13xggp","611465b0cdf9e7bb34a05898","infreq_resp","","","img/blue_2bandit_a.png","68","img/blue_2bandit_a.png","68","test","","","","","","","","","","","3","","","","","","","","",""
"null","661279","SARL_v6","SARL_v63n13xggp","611465b0cdf9e7bb34a05898","fixation","","","img/fixation.png","null","","","test","","","","","","","","","","","","","","","","","","","",""
"291.40000009536743","661574","SARL_v6","SARL_v63n13xggp","611465b0cdf9e7bb34a05898","infreq","","","img/blue_2bandit_a2.png","70","","68","test","0","","61","","","","square","circle","59","9","3","0.9661016949152542","","","","","","","",""
"null","662095","SARL_v6","SARL_v63n13xggp","611465b0cdf9e7bb34a05898","infreq_resp","","","img/blue_2bandit_a.png","70","img/blue_2bandit_a.png","68","test","","","","","","","","","","","3","","","","","","","","",""
"null","662252","SARL_v6","SARL_v63n13xggp","611465b0cdf9e7bb34a05898","fixation","","","img/fixation.png","null","","","test","","","","","","","","","","","","","","","","","","","",""
"355.5","662610","SARL_v6","SARL_v63n13xggp","611465b0cdf9e7bb34a05898","freq","","","img/orange_2bandit_a2.png","70","","70","test","1","","62","","","","square","circle","60","10","3","0.9666666666666667","","","","","","","",""
"null","663075","SARL_v6","SARL_v63n13xggp","611465b0cdf9e7bb34a05898","freq_resp","","","img/orange_2bandit_a.png","70","img/orange_2bandit_a.png","70","test","","","","","","","","","","","3","","","","","","","","",""
"null","663234","SARL_v6","SARL_v63n13xggp","611465b0cdf9e7bb34a05898","fixation","","","img/fixation.png","null","","","test","","","","","","","","","","","","","","","","","","","",""
"321.59999990463257","663559","SARL_v6","SARL_v63n13xggp","611465b0cdf9e7bb34a05898","freq","","","img/orange_2bandit_a2.png","70","","70","test","1","","63","","","","square","circle","61","11","3","0.9672131147540983","","","","","","","",""
"null","664048","SARL_v6","SARL_v63n13xggp","611465b0cdf9e7bb34a05898","freq_resp","","","img/orange_2bandit_a.png","70","img/orange_2bandit_a.png","70","test","","","","","","","","","","","3","","","","","","","","",""
"null","664208","SARL_v6","SARL_v63n13xggp","611465b0cdf9e7bb34a05898","fixation","","","img/fixation.png","null","","","test","","","","","","","","","","","","","","","","","","","",""
"277.09999990463257","664488","SARL_v6","SARL_v63n13xggp","611465b0cdf9e7bb34a05898","freq","","","img/orange_2bandit_a2.png","70","","70","test","1","","64","","","","square","circle","62","12","3","0.967741935483871","","","","","","","",""
"null","665016","SARL_v6","SARL_v63n13xggp","611465b0cdf9e7bb34a05898","freq_resp","","","img/orange_2bandit_a.png","70","img/orange_2bandit_a.png","70","test","","","","","","","","","","","3","","","","","","","","",""
"null","665174","SARL_v6","SARL_v63n13xggp","611465b0cdf9e7bb34a05898","fixation","","","img/fixation.png","null","","","test","","","","","","","","","","","","","","","","","","","",""
"346.69999980926514","665524","SARL_v6","SARL_v63n13xggp","611465b0cdf9e7bb34a05898","freq","","","img/orange_2bandit_a2.png","70","","70","test","1","","65","","","","square","circle","63","13","3","0.9682539682539683","","","","","","","",""
"null","665986","SARL_v6","SARL_v63n13xggp","611465b0cdf9e7bb34a05898","freq_resp","","","img/orange_2bandit_a.png","70","img/orange_2bandit_a.png","70","test","","","","","","","","","","","3","","","","","","","","",""
"null","666147","SARL_v6","SARL_v63n13xggp","611465b0cdf9e7bb34a05898","fixation","","","img/fixation.png","null","","","test","","","","","","","","","","","","","","","","","","","",""
"276.40000009536743","666426","SARL_v6","SARL_v63n13xggp","611465b0cdf9e7bb34a05898","freq","","","img/orange_2bandit_a2.png","70","","70","test","1","","66","","","","square","circle","64","14","3","0.96875","","","","","","","",""
"null","666977","SARL_v6","SARL_v63n13xggp","611465b0cdf9e7bb34a05898","freq_resp","","","img/orange_2bandit_a.png","70","img/orange_2bandit_a.png","70","test","","","","","","","","","","","3","","","","","","","","",""
"null","667170","SARL_v6","SARL_v63n13xggp","611465b0cdf9e7bb34a05898","fixation","","","img/fixation.png","null","","","test","","","","","","","","","","","","","","","","","","","",""
"279.40000009536743","667451","SARL_v6","SARL_v63n13xggp","611465b0cdf9e7bb34a05898","freq","","","img/orange_2bandit_a2.png","70","","70","test","1","","67","","","","square","circle","65","15","3","0.9692307692307692","","","","","","","",""
"null","667975","SARL_v6","SARL_v63n13xggp","611465b0cdf9e7bb34a05898","freq_resp","","","img/orange_2bandit_a.png","70","img/orange_2bandit_a.png","70","test","","","","","","","","","","","3","","","","","","","","",""
"null","668146","SARL_v6","SARL_v63n13xggp","611465b0cdf9e7bb34a05898","fixation","","","img/fixation.png","null","","","test","","","","","","","","","","","","","","","","","","","",""
"271.2999997138977","668420","SARL_v6","SARL_v63n13xggp","611465b0cdf9e7bb34a05898","freq","","","img/orange_2bandit_a2.png","70","","70","test","1","","68","","","","square","circle","66","16","3","0.9696969696969697","","","","","","","",""
"null","668958","SARL_v6","SARL_v63n13xggp","611465b0cdf9e7bb34a05898","freq_resp","","","img/orange_2bandit_a.png","70","img/orange_2bandit_a.png","70","test","","","","","","","","","","","3","","","","","","","","",""
"null","669117","SARL_v6","SARL_v63n13xggp","611465b0cdf9e7bb34a05898","fixation","","","img/fixation.png","null","","","test","","","","","","","","","","","","","","","","","","","",""
"283","669404","SARL_v6","SARL_v63n13xggp","611465b0cdf9e7bb34a05898","freq","","","img/orange_2bandit_a2.png","70","","70","test","1","","69","","","","square","circle","67","17","3","0.9701492537313433","","","","","","","",""
"null","669930","SARL_v6","SARL_v63n13xggp","611465b0cdf9e7bb34a05898","freq_resp","","","img/orange_2bandit_a.png","70","img/orange_2bandit_a.png","70","test","","","","","","","","","","","3","","","","","","","","",""
"null","670090","SARL_v6","SARL_v63n13xggp","611465b0cdf9e7bb34a05898","fixation","","","img/fixation.png","null","","","test","","","","","","","","","","","","","","","","","","","",""
"304.80000019073486","670398","SARL_v6","SARL_v63n13xggp","611465b0cdf9e7bb34a05898","freq","","","img/orange_2bandit_a2.png","70","","70","test","1","","70","","","","square","circle","68","18","3","0.9705882352941176","","","","","","","",""
"null","670905","SARL_v6","SARL_v63n13xggp","611465b0cdf9e7bb34a05898","freq_resp","","","img/orange_2bandit_a.png","70","img/orange_2bandit_a.png","70","test","","","","","","","","","","","3","","","","","","","","",""
"null","671063","SARL_v6","SARL_v63n13xggp","611465b0cdf9e7bb34a05898","fixation","","","img/fixation.png","null","","","test","","","","","","","","","","","","","","","","","","","",""
"295","671362","SARL_v6","SARL_v63n13xggp","611465b0cdf9e7bb34a05898","freq","","","img/orange_2bandit_a2.png","70","","70","test","1","","71","","","","square","circle","69","19","3","0.9710144927536232","","","","","","","",""
"null","671878","SARL_v6","SARL_v63n13xggp","611465b0cdf9e7bb34a05898","freq_resp","","","img/orange_2bandit_a.png","70","img/orange_2bandit_a.png","70","test","","","","","","","","","","","3","","","","","","","","",""
"null","672038","SARL_v6","SARL_v63n13xggp","611465b0cdf9e7bb34a05898","fixation","","","img/fixation.png","null","","","test","","","","","","","","","","","","","","","","","","","",""
"336.59999990463257","672379","SARL_v6","SARL_v63n13xggp","611465b0cdf9e7bb34a05898","freq","","","img/orange_2bandit_a2.png","70","","70","test","1","","72","","","","square","circle","70","20","3","0.9714285714285714","","","","","","","",""
"null","672854","SARL_v6","SARL_v63n13xggp","611465b0cdf9e7bb34a05898","freq_resp","","","img/orange_2bandit_a.png","70","img/orange_2bandit_a.png","70","test","","","","","","","","","","","3","","","","","","","","",""
"null","673014","SARL_v6","SARL_v63n13xggp","611465b0cdf9e7bb34a05898","fixation","","","img/fixation.png","null","","","test","","","","","","","","","","","","","","","","","","","",""
"337","673354","SARL_v6","SARL_v63n13xggp","611465b0cdf9e7bb34a05898","freq","","","img/orange_2bandit_a2.png","70","","70","test","1","","73","","","","square","circle","71","21","3","0.971830985915493","","","","","","","",""
"null","673832","SARL_v6","SARL_v63n13xggp","611465b0cdf9e7bb34a05898","freq_resp","","","img/orange_2bandit_a.png","70","img/orange_2bandit_a.png","70","test","","","","","","","","","","","3","","","","","","","","",""
"null","673989","SARL_v6","SARL_v63n13xggp","611465b0cdf9e7bb34a05898","fixation","","","img/fixation.png","null","","","test","","","","","","","","","","","","","","","","","","","",""
"301.7999997138977","674294","SARL_v6","SARL_v63n13xggp","611465b0cdf9e7bb34a05898","freq","","","img/orange_2bandit_a2.png","70","","70","test","1","","74","","","","square","circle","72","22","3","0.9722222222222222","","","","","","","",""
"null","674801","SARL_v6","SARL_v63n13xggp","611465b0cdf9e7bb34a05898","freq_resp","","","img/orange_2bandit_a.png","70","img/orange_2bandit_a.png","70","test","","","","","","","","","","","3","","","","","","","","",""
"null","674959","SARL_v6","SARL_v63n13xggp","611465b0cdf9e7bb34a05898","fixation","","","img/fixation.png","null","","","test","","","","","","","","","","","","","","","","","","","",""
"637","675599","SARL_v6","SARL_v63n13xggp","611465b0cdf9e7bb34a05898","rl","","","img/black_2bandit_a2.png","74","","0","test","","","75","","","-8","square","circle","","0","3","","74","-4","-8","-8","-4","square","3","0"
"null","676366","SARL_v6","SARL_v63n13xggp","611465b0cdf9e7bb34a05898","feedback","","","<div class=""verylowPoints_sq""> -8 </div>","null","","na","test","","","NaN","","","","","","","","3","","74","","","","","","3",""
"307.7999997138977","676678","SARL_v6","SARL_v63n13xggp","611465b0cdf9e7bb34a05898","freq","","","img/orange_2bandit_a2.png","70","","70","test","1","","76","","","","square","circle","73","1","4","0.9726027397260274","","","","","","","",""
"null","677178","SARL_v6","SARL_v63n13xggp","611465b0cdf9e7bb34a05898","freq_resp","","","img/orange_2bandit_a.png","70","img/orange_2bandit_a.png","70","test","","","","","","","","","","","4","","","","","","","","",""
"null","677338","SARL_v6","SARL_v63n13xggp","611465b0cdf9e7bb34a05898","fixation","","","img/fixation.png","null","","","test","","","","","","","","","","","","","","","","","","","",""
"313.7999997138977","677656","SARL_v6","SARL_v63n13xggp","611465b0cdf9e7bb34a05898","freq","","","img/orange_2bandit_a2.png","70","","70","test","1","","77","","","","square","circle","74","2","4","0.972972972972973","","","","","","","",""
"null","678160","SARL_v6","SARL_v63n13xggp","611465b0cdf9e7bb34a05898","freq_resp","","","img/orange_2bandit_a.png","70","img/orange_2bandit_a.png","70","test","","","","","","","","","","","4","","","","","","","","",""
"null","678318","SARL_v6","SARL_v63n13xggp","611465b0cdf9e7bb34a05898","fixation","","","img/fixation.png","null","","","test","","","","","","","","","","","","","","","","","","","",""
"319.59999990463257","678640","SARL_v6","SARL_v63n13xggp","611465b0cdf9e7bb34a05898","freq","","","img/orange_2bandit_a2.png","70","","70","test","1","","78","","","","square","circle","75","3","4","0.9733333333333334","","","","","","","",""
"null","679135","SARL_v6","SARL_v63n13xggp","611465b0cdf9e7bb34a05898","freq_resp","","","img/orange_2bandit_a.png","70","img/orange_2bandit_a.png","70","test","","","","","","","","","","","4","","","","","","","","",""
"null","679292","SARL_v6","SARL_v63n13xggp","611465b0cdf9e7bb34a05898","fixation","","","img/fixation.png","null","","","test","","","","","","","","","","","","","","","","","","","",""
"306.59999990463257","679602","SARL_v6","SARL_v63n13xggp","611465b0cdf9e7bb34a05898","freq","","","img/orange_2bandit_a2.png","70","","70","test","1","","79","","","","square","circle","76","4","4","0.9736842105263158","","","","","","","",""
"null","680108","SARL_v6","SARL_v63n13xggp","611465b0cdf9e7bb34a05898","freq_resp","","","img/orange_2bandit_a.png","70","img/orange_2bandit_a.png","70","test","","","","","","","","","","","4","","","","","","","","",""
"null","680265","SARL_v6","SARL_v63n13xggp","611465b0cdf9e7bb34a05898","fixation","","","img/fixation.png","null","","","test","","","","","","","","","","","","","","","","","","","",""
"286.40000009536743","680555","SARL_v6","SARL_v63n13xggp","611465b0cdf9e7bb34a05898","freq","","","img/orange_2bandit_a2.png","70","","70","test","1","","80","","","","square","circle","77","5","4","0.974025974025974","","","","","","","",""
"null","681075","SARL_v6","SARL_v63n13xggp","611465b0cdf9e7bb34a05898","freq_resp","","","img/orange_2bandit_a.png","70","img/orange_2bandit_a.png","70","test","","","","","","","","","","","4","","","","","","","","",""
"null","681232","SARL_v6","SARL_v63n13xggp","611465b0cdf9e7bb34a05898","fixation","","","img/fixation.png","null","","","test","","","","","","","","","","","","","","","","","","","",""
"415.90000009536743","681650","SARL_v6","SARL_v63n13xggp","611465b0cdf9e7bb34a05898","infreq","","","img/blue_2bandit_a2.png","68","","68","test","1","","81","","","","square","circle","78","6","4","0.9743589743589743","","","","","","","",""
"null","682048","SARL_v6","SARL_v63n13xggp","611465b0cdf9e7bb34a05898","infreq_resp","","","img/blue_2bandit_a.png","68","img/blue_2bandit_a.png","68","test","","","","","","","","","","","4","","","","","","","","",""
"null","682205","SARL_v6","SARL_v63n13xggp","611465b0cdf9e7bb34a05898","fixation","","","img/fixation.png","null","","","test","","","","","","","","","","","","","","","","","","","",""
"387.59999990463257","682595","SARL_v6","SARL_v63n13xggp","611465b0cdf9e7bb34a05898","freq","","","img/orange_2bandit_a2.png","70","","70","test","1","","82","","","","square","circle","79","7","4","0.9746835443037974","","","","","","","",""
"null","683013","SARL_v6","SARL_v63n13xggp","611465b0cdf9e7bb34a05898","freq_resp","","","img/orange_2bandit_a.png","70","img/orange_2bandit_a.png","70","test","","","","","","","","","","","4","","","","","","","","",""
"null","683169","SARL_v6","SARL_v63n13xggp","611465b0cdf9e7bb34a05898","fixation","","","img/fixation.png","null","","","test","","","","","","","","","","","","","","","","","","","",""
"265.30000019073486","683437","SARL_v6","SARL_v63n13xggp","611465b0cdf9e7bb34a05898","freq","","","img/orange_2bandit_a2.png","70","","70","test","1","","83","","","","square","circle","80","8","4","0.975","","","","","","","",""
"null","683980","SARL_v6","SARL_v63n13xggp","611465b0cdf9e7bb34a05898","freq_resp","","","img/orange_2bandit_a.png","70","img/orange_2bandit_a.png","70","test","","","","","","","","","","","4","","","","","","","","",""
"null","684139","SARL_v6","SARL_v63n13xggp","611465b0cdf9e7bb34a05898","fixation","","","img/fixation.png","null","","","test","","","","","","","","","","","","","","","","","","","",""
"276.3999996185303","684418","SARL_v6","SARL_v63n13xggp","611465b0cdf9e7bb34a05898","freq","","","img/orange_2bandit_a2.png","70","","70","test","1","","84","","","","square","circle","81","9","4","0.9753086419753086","","","","","","","",""
"null","684957","SARL_v6","SARL_v63n13xggp","611465b0cdf9e7bb34a05898","freq_resp","","","img/orange_2bandit_a.png","70","img/orange_2bandit_a.png","70","test","","","","","","","","","","","4","","","","","","","","",""
"null","685114","SARL_v6","SARL_v63n13xggp","611465b0cdf9e7bb34a05898","fixation","","","img/fixation.png","null","","","test","","","","","","","","","","","","","","","","","","","",""
"311.90000009536743","685429","SARL_v6","SARL_v63n13xggp","611465b0cdf9e7bb34a05898","freq","","","img/orange_2bandit_a2.png","70","","70","test","1","","85","","","","square","circle","82","10","4","0.975609756097561","","","","","","","",""
"null","685931","SARL_v6","SARL_v63n13xggp","611465b0cdf9e7bb34a05898","freq_resp","","","img/orange_2bandit_a.png","70","img/orange_2bandit_a.png","70","test","","","","","","","","","","","4","","","","","","","","",""
"null","686088","SARL_v6","SARL_v63n13xggp","611465b0cdf9e7bb34a05898","fixation","","","img/fixation.png","null","","","test","","","","","","","","","","","","","","","","","","","",""
"328.90000009536743","686419","SARL_v6","SARL_v63n13xggp","611465b0cdf9e7bb34a05898","freq","","","img/orange_2bandit_a2.png","70","","70","test","1","","86","","","","square","circle","83","11","4","0.9759036144578314","","","","","","","",""
"null","686897","SARL_v6","SARL_v63n13xggp","611465b0cdf9e7bb34a05898","freq_resp","","","img/orange_2bandit_a.png","70","img/orange_2bandit_a.png","70","test","","","","","","","","","","","4","","","","","","","","",""
"null","687057","SARL_v6","SARL_v63n13xggp","611465b0cdf9e7bb34a05898","fixation","","","img/fixation.png","null","","","test","","","","","","","","","","","","","","","","","","","",""
"297.80000019073486","687359","SARL_v6","SARL_v63n13xggp","611465b0cdf9e7bb34a05898","freq","","","img/orange_2bandit_a2.png","70","","70","test","1","","87","","","","square","circle","84","12","4","0.9761904761904762","","","","","","","",""
"null","687901","SARL_v6","SARL_v63n13xggp","611465b0cdf9e7bb34a05898","freq_resp","","","img/orange_2bandit_a.png","70","img/orange_2bandit_a.png","70","test","","","","","","","","","","","4","","","","","","","","",""
"null","688072","SARL_v6","SARL_v63n13xggp","611465b0cdf9e7bb34a05898","fixation","","","img/fixation.png","null","","","test","","","","","","","","","","","","","","","","","","","",""
"406.09999990463257","688481","SARL_v6","SARL_v63n13xggp","611465b0cdf9e7bb34a05898","infreq","","","img/blue_2bandit_a2.png","68","","68","test","1","","88","","","","square","circle","85","13","4","0.9764705882352941","","","","","","","",""
"null","688892","SARL_v6","SARL_v63n13xggp","611465b0cdf9e7bb34a05898","infreq_resp","","","img/blue_2bandit_a.png","68","img/blue_2bandit_a.png","68","test","","","","","","","","","","","4","","","","","","","","",""
"null","689051","SARL_v6","SARL_v63n13xggp","611465b0cdf9e7bb34a05898","fixation","","","img/fixation.png","null","","","test","","","","","","","","","","","","","","","","","","","",""
"397.90000009536743","689453","SARL_v6","SARL_v63n13xggp","611465b0cdf9e7bb34a05898","freq","","","img/orange_2bandit_a2.png","70","","70","test","1","","89","","","","square","circle","86","14","4","0.9767441860465116","","","","","","","",""
"null","689861","SARL_v6","SARL_v63n13xggp","611465b0cdf9e7bb34a05898","freq_resp","","","img/orange_2bandit_a.png","70","img/orange_2bandit_a.png","70","test","","","","","","","","","","","4","","","","","","","","",""
"null","690020","SARL_v6","SARL_v63n13xggp","611465b0cdf9e7bb34a05898","fixation","","","img/fixation.png","null","","","test","","","","","","","","","","","","","","","","","","","",""
"384.5","690408","SARL_v6","SARL_v63n13xggp","611465b0cdf9e7bb34a05898","freq","","","img/orange_2bandit_a2.png","70","","70","test","1","","90","","","","square","circle","87","15","4","0.9770114942528736","","","","","","","",""
"null","690829","SARL_v6","SARL_v63n13xggp","611465b0cdf9e7bb34a05898","freq_resp","","","img/orange_2bandit_a.png","70","img/orange_2bandit_a.png","70","test","","","","","","","","","","","4","","","","","","","","",""
"null","690985","SARL_v6","SARL_v63n13xggp","611465b0cdf9e7bb34a05898","fixation","","","img/fixation.png","null","","","test","","","","","","","","","","","","","","","","","","","",""
"388","691376","SARL_v6","SARL_v63n13xggp","611465b0cdf9e7bb34a05898","freq","","","img/orange_2bandit_a2.png","70","","70","test","1","","91","","","","square","circle","88","16","4","0.9772727272727273","","","","","","","",""
"null","691805","SARL_v6","SARL_v63n13xggp","611465b0cdf9e7bb34a05898","freq_resp","","","img/orange_2bandit_a.png","70","img/orange_2bandit_a.png","70","test","","","","","","","","","","","4","","","","","","","","",""
"null","691961","SARL_v6","SARL_v63n13xggp","611465b0cdf9e7bb34a05898","fixation","","","img/fixation.png","null","","","test","","","","","","","","","","","","","","","","","","","",""
"411.90000009536743","692377","SARL_v6","SARL_v63n13xggp","611465b0cdf9e7bb34a05898","freq","","","img/orange_2bandit_a2.png","70","","70","test","1","","92","","","","square","circle","89","17","4","0.9775280898876404","","","","","","","",""
"null","692770","SARL_v6","SARL_v63n13xggp","611465b0cdf9e7bb34a05898","freq_resp","","","img/orange_2bandit_a.png","70","img/orange_2bandit_a.png","70","test","","","","","","","","","","","4","","","","","","","","",""
"null","692930","SARL_v6","SARL_v63n13xggp","611465b0cdf9e7bb34a05898","fixation","","","img/fixation.png","null","","","test","","","","","","","","","","","","","","","","","","","",""
"277.09999990463257","693210","SARL_v6","SARL_v63n13xggp","611465b0cdf9e7bb34a05898","freq","","","img/orange_2bandit_a2.png","70","","70","test","1","","93","","","","square","circle","90","18","4","0.9777777777777777","","","","","","","",""
"null","693747","SARL_v6","SARL_v63n13xggp","611465b0cdf9e7bb34a05898","freq_resp","","","img/orange_2bandit_a.png","70","img/orange_2bandit_a.png","70","test","","","","","","","","","","","4","","","","","","","","",""
"null","693922","SARL_v6","SARL_v63n13xggp","611465b0cdf9e7bb34a05898","fixation","","","img/fixation.png","null","","","test","","","","","","","","","","","","","","","","","","","",""
"335.69999980926514","694261","SARL_v6","SARL_v63n13xggp","611465b0cdf9e7bb34a05898","freq","","","img/orange_2bandit_a2.png","70","","70","test","1","","94","","","","square","circle","91","19","4","0.978021978021978","","","","","","","",""
"null","694742","SARL_v6","SARL_v63n13xggp","611465b0cdf9e7bb34a05898","freq_resp","","","img/orange_2bandit_a.png","70","img/orange_2bandit_a.png","70","test","","","","","","","","","","","4","","","","","","","","",""
"null","694902","SARL_v6","SARL_v63n13xggp","611465b0cdf9e7bb34a05898","fixation","","","img/fixation.png","null","","","test","","","","","","","","","","","","","","","","","","","",""
"592.3000001907349","695497","SARL_v6","SARL_v63n13xggp","611465b0cdf9e7bb34a05898","rl","","","img/black_2bandit_a2.png","74","","0","test","","","95","","","-12","square","circle","","0","4","","74","0","-12","-12","0","square","4","0"
"null","696256","SARL_v6","SARL_v63n13xggp","611465b0cdf9e7bb34a05898","feedback","","","<div class=""verylowPoints_sq""> -12 </div>","null","","na","test","","","NaN","","","","","","","","4","","74","","","","","","4",""
"311.7000002861023","696572","SARL_v6","SARL_v63n13xggp","611465b0cdf9e7bb34a05898","freq","","","img/orange_2bandit_a2.png","70","","70","test","1","","96","","","","square","circle","92","1","5","0.9782608695652174","","","","","","","",""
"null","697070","SARL_v6","SARL_v63n13xggp","611465b0cdf9e7bb34a05898","freq_resp","","","img/orange_2bandit_a.png","70","img/orange_2bandit_a.png","70","test","","","","","","","","","","","5","","","","","","","","",""
"null","697235","SARL_v6","SARL_v63n13xggp","611465b0cdf9e7bb34a05898","fixation","","","img/fixation.png","null","","","test","","","","","","","","","","","","","","","","","","","",""
"279.5","697518","SARL_v6","SARL_v63n13xggp","611465b0cdf9e7bb34a05898","freq","","","img/orange_2bandit_a2.png","70","","70","test","1","","97","","","","square","circle","93","2","5","0.978494623655914","","","","","","","",""
"null","698046","SARL_v6","SARL_v63n13xggp","611465b0cdf9e7bb34a05898","freq_resp","","","img/orange_2bandit_a.png","70","img/orange_2bandit_a.png","70","test","","","","","","","","","","","5","","","","","","","","",""
"null","698207","SARL_v6","SARL_v63n13xggp","611465b0cdf9e7bb34a05898","fixation","","","img/fixation.png","null","","","test","","","","","","","","","","","","","","","","","","","",""
"292.69999980926514","698503","SARL_v6","SARL_v63n13xggp","611465b0cdf9e7bb34a05898","freq","","","img/orange_2bandit_a2.png","70","","70","test","1","","98","","","","square","circle","94","3","5","0.9787234042553191","","","","","","","",""
"null","699023","SARL_v6","SARL_v63n13xggp","611465b0cdf9e7bb34a05898","freq_resp","","","img/orange_2bandit_a.png","70","img/orange_2bandit_a.png","70","test","","","","","","","","","","","5","","","","","","","","",""
"null","699182","SARL_v6","SARL_v63n13xggp","611465b0cdf9e7bb34a05898","fixation","","","img/fixation.png","null","","","test","","","","","","","","","","","","","","","","","","","",""
"299.09999990463257","699485","SARL_v6","SARL_v63n13xggp","611465b0cdf9e7bb34a05898","freq","","","img/orange_2bandit_a2.png","70","","70","test","1","","99","","","","square","circle","95","4","5","0.9789473684210527","","","","","","","",""
"null","699995","SARL_v6","SARL_v63n13xggp","611465b0cdf9e7bb34a05898","freq_resp","","","img/orange_2bandit_a.png","70","img/orange_2bandit_a.png","70","test","","","","","","","","","","","5","","","","","","","","",""
"null","700156","SARL_v6","SARL_v63n13xggp","611465b0cdf9e7bb34a05898","fixation","","","img/fixation.png","null","","","test","","","","","","","","","","","","","","","","","","","",""
"328.90000009536743","700489","SARL_v6","SARL_v63n13xggp","611465b0cdf9e7bb34a05898","freq","","","img/orange_2bandit_a2.png","70","","70","test","1","","100","","","","square","circle","96","5","5","0.9791666666666666","","","","","","","",""
"null","700977","SARL_v6","SARL_v63n13xggp","611465b0cdf9e7bb34a05898","freq_resp","","","img/orange_2bandit_a.png","70","img/orange_2bandit_a.png","70","test","","","","","","","","","","","5","","","","","","","","",""
"null","701146","SARL_v6","SARL_v63n13xggp","611465b0cdf9e7bb34a05898","fixation","","","img/fixation.png","null","","","test","","","","","","","","","","","","","","","","","","","",""
"294.19999980926514","701443","SARL_v6","SARL_v63n13xggp","611465b0cdf9e7bb34a05898","freq","","","img/orange_2bandit_a2.png","70","","70","test","1","","101","","","","square","circle","97","6","5","0.979381443298969","","","","","","","",""
"null","701959","SARL_v6","SARL_v63n13xggp","611465b0cdf9e7bb34a05898","freq_resp","","","img/orange_2bandit_a.png","70","img/orange_2bandit_a.png","70","test","","","","","","","","","","","5","","","","","","","","",""
"null","702118","SARL_v6","SARL_v63n13xggp","611465b0cdf9e7bb34a05898","fixation","","","img/fixation.png","null","","","test","","","","","","","","","","","","","","","","","","","",""
"296.90000009536743","702418","SARL_v6","SARL_v63n13xggp","611465b0cdf9e7bb34a05898","freq","","","img/orange_2bandit_a2.png","70","","70","test","1","","102","","","","square","circle","98","7","5","0.9795918367346939","","","","","","","",""
"null","702934","SARL_v6","SARL_v63n13xggp","611465b0cdf9e7bb34a05898","freq_resp","","","img/orange_2bandit_a.png","70","img/orange_2bandit_a.png","70","test","","","","","","","","","","","5","","","","","","","","",""
"null","703093","SARL_v6","SARL_v63n13xggp","611465b0cdf9e7bb34a05898","fixation","","","img/fixation.png","null","","","test","","","","","","","","","","","","","","","","","","","",""
"356.5","703453","SARL_v6","SARL_v63n13xggp","611465b0cdf9e7bb34a05898","freq","","","img/orange_2bandit_a2.png","70","","70","test","1","","103","","","","square","circle","99","8","5","0.9797979797979798","","","","","","","",""
"null","703907","SARL_v6","SARL_v63n13xggp","611465b0cdf9e7bb34a05898","freq_resp","","","img/orange_2bandit_a.png","70","img/orange_2bandit_a.png","70","test","","","","","","","","","","","5","","","","","","","","",""
"null","704066","SARL_v6","SARL_v63n13xggp","611465b0cdf9e7bb34a05898","fixation","","","img/fixation.png","null","","","test","","","","","","","","","","","","","","","","","","","",""
"278.69999980926514","704348","SARL_v6","SARL_v63n13xggp","611465b0cdf9e7bb34a05898","freq","","","img/orange_2bandit_a2.png","70","","70","test","1","","104","","","","square","circle","100","9","5","0.98","","","","","","","",""
"null","704913","SARL_v6","SARL_v63n13xggp","611465b0cdf9e7bb34a05898","freq_resp","","","img/orange_2bandit_a.png","70","img/orange_2bandit_a.png","70","test","","","","","","","","","","","5","","","","","","","","",""
"null","705080","SARL_v6","SARL_v63n13xggp","611465b0cdf9e7bb34a05898","fixation","","","img/fixation.png","null","","","test","","","","","","","","","","","","","","","","","","","",""
"303.1000003814697","705386","SARL_v6","SARL_v63n13xggp","611465b0cdf9e7bb34a05898","freq","","","img/orange_2bandit_a2.png","70","","70","test","1","","105","","","","square","circle","101","10","5","0.9801980198019802","","","","","","","",""
"null","705887","SARL_v6","SARL_v63n13xggp","611465b0cdf9e7bb34a05898","freq_resp","","","img/orange_2bandit_a.png","70","img/orange_2bandit_a.png","70","test","","","","","","","","","","","5","","","","","","","","",""
"null","706048","SARL_v6","SARL_v63n13xggp","611465b0cdf9e7bb34a05898","fixation","","","img/fixation.png","null","","","test","","","","","","","","","","","","","","","","","","","",""
"374.90000009536743","706427","SARL_v6","SARL_v63n13xggp","611465b0cdf9e7bb34a05898","infreq","","","img/blue_2bandit_a2.png","68","","68","test","1","","106","","","","square","circle","102","11","5","0.9803921568627451","","","","","","","",""
"null","706860","SARL_v6","SARL_v63n13xggp","611465b0cdf9e7bb34a05898","infreq_resp","","","img/blue_2bandit_a.png","68","img/blue_2bandit_a.png","68","test","","","","","","","","","","","5","","","","","","","","",""
"null","707020","SARL_v6","SARL_v63n13xggp","611465b0cdf9e7bb34a05898","fixation","","","img/fixation.png","null","","","test","","","","","","","","","","","","","","","","","","","",""
"418.69999980926514","707442","SARL_v6","SARL_v63n13xggp","611465b0cdf9e7bb34a05898","freq","","","img/orange_2bandit_a2.png","70","","70","test","1","","107","","","","square","circle","103","12","5","0.9805825242718447","","","","","","","",""
"null","707836","SARL_v6","SARL_v63n13xggp","611465b0cdf9e7bb34a05898","freq_resp","","","img/orange_2bandit_a.png","70","img/orange_2bandit_a.png","70","test","","","","","","","","","","","5","","","","","","","","",""
"null","707995","SARL_v6","SARL_v63n13xggp","611465b0cdf9e7bb34a05898","fixation","","","img/fixation.png","null","","","test","","","","","","","","","","","","","","","","","","","",""
"285.30000019073486","708283","SARL_v6","SARL_v63n13xggp","611465b0cdf9e7bb34a05898","freq","","","img/orange_2bandit_a2.png","70","","70","test","1","","108","","","","square","circle","104","13","5","0.9807692307692307","","","","","","","",""
"null","708809","SARL_v6","SARL_v63n13xggp","611465b0cdf9e7bb34a05898","freq_resp","","","img/orange_2bandit_a.png","70","img/orange_2bandit_a.png","70","test","","","","","","","","","","","5","","","","","","","","",""
"null","708969","SARL_v6","SARL_v63n13xggp","611465b0cdf9e7bb34a05898","fixation","","","img/fixation.png","null","","","test","","","","","","","","","","","","","","","","","","","",""
"261.30000019073486","709235","SARL_v6","SARL_v63n13xggp","611465b0cdf9e7bb34a05898","freq","","","img/orange_2bandit_a2.png","70","","70","test","1","","109","","","","square","circle","105","14","5","0.9809523809523809","","","","","","","",""
"null","709781","SARL_v6","SARL_v63n13xggp","611465b0cdf9e7bb34a05898","freq_resp","","","img/orange_2bandit_a.png","70","img/orange_2bandit_a.png","70","test","","","","","","","","","","","5","","","","","","","","",""
"null","709940","SARL_v6","SARL_v63n13xggp","611465b0cdf9e7bb34a05898","fixation","","","img/fixation.png","null","","","test","","","","","","","","","","","","","","","","","","","",""
"319","710263","SARL_v6","SARL_v63n13xggp","611465b0cdf9e7bb34a05898","freq","","","img/orange_2bandit_a2.png","70","","70","test","1","","110","","","","square","circle","106","15","5","0.9811320754716981","","","","","","","",""
"null","710754","SARL_v6","SARL_v63n13xggp","611465b0cdf9e7bb34a05898","freq_resp","","","img/orange_2bandit_a.png","70","img/orange_2bandit_a.png","70","test","","","","","","","","","","","5","","","","","","","","",""
"null","710914","SARL_v6","SARL_v63n13xggp","611465b0cdf9e7bb34a05898","fixation","","","img/fixation.png","null","","","test","","","","","","","","","","","","","","","","","","","",""
"null","711735","SARL_v6","SARL_v63n13xggp","611465b0cdf9e7bb34a05898","infreq","","","img/blue_2bandit_a2.png","null","","68","test","0","","111","","","","square","circle","107","16","5","0.9719626168224299","","","","","","","",""
"null","711904","SARL_v6","SARL_v63n13xggp","611465b0cdf9e7bb34a05898","fixation","","","img/fixation.png","null","","","test","","","","","","","","","","","","","","","","","","","",""
"498.69999980926514","712406","SARL_v6","SARL_v63n13xggp","611465b0cdf9e7bb34a05898","freq","","","img/orange_2bandit_a2.png","70","","70","test","1","","112","","","","square","circle","108","17","5","0.9722222222222222","","","","","","","",""
"null","712720","SARL_v6","SARL_v63n13xggp","611465b0cdf9e7bb34a05898","freq_resp","","","img/orange_2bandit_a.png","70","img/orange_2bandit_a.png","70","test","","","","","","","","","","","5","","","","","","","","",""
"null","712879","SARL_v6","SARL_v63n13xggp","611465b0cdf9e7bb34a05898","fixation","","","img/fixation.png","null","","","test","","","","","","","","","","","","","","","","","","","",""
"429.8999996185303","713312","SARL_v6","SARL_v63n13xggp","611465b0cdf9e7bb34a05898","freq","","","img/orange_2bandit_a2.png","70","","70","test","1","","113","","","","square","circle","109","18","5","0.9724770642201835","","","","","","","",""
"null","713693","SARL_v6","SARL_v63n13xggp","611465b0cdf9e7bb34a05898","freq_resp","","","img/orange_2bandit_a.png","70","img/orange_2bandit_a.png","70","test","","","","","","","","","","","5","","","","","","","","",""
"null","713853","SARL_v6","SARL_v63n13xggp","611465b0cdf9e7bb34a05898","fixation","","","img/fixation.png","null","","","test","","","","","","","","","","","","","","","","","","","",""
"326.90000009536743","714184","SARL_v6","SARL_v63n13xggp","611465b0cdf9e7bb34a05898","freq","","","img/orange_2bandit_a2.png","70","","70","test","1","","114","","","","square","circle","110","19","5","0.9727272727272728","","","","","","","",""
"null","714670","SARL_v6","SARL_v63n13xggp","611465b0cdf9e7bb34a05898","freq_resp","","","img/orange_2bandit_a.png","70","img/orange_2bandit_a.png","70","test","","","","","","","","","","","5","","","","","","","","",""
"null","714829","SARL_v6","SARL_v63n13xggp","611465b0cdf9e7bb34a05898","fixation","","","img/fixation.png","null","","","test","","","","","","","","","","","","","","","","","","","",""
"344.5","715177","SARL_v6","SARL_v63n13xggp","611465b0cdf9e7bb34a05898","freq","","","img/orange_2bandit_a2.png","70","","70","test","1","","115","","","","square","circle","111","20","5","0.972972972972973","","","","","","","",""
"null","715642","SARL_v6","SARL_v63n13xggp","611465b0cdf9e7bb34a05898","freq_resp","","","img/orange_2bandit_a.png","70","img/orange_2bandit_a.png","70","test","","","","","","","","","","","5","","","","","","","","",""
"null","715817","SARL_v6","SARL_v63n13xggp","611465b0cdf9e7bb34a05898","fixation","","","img/fixation.png","null","","","test","","","","","","","","","","","","","","","","","","","",""
"396.30000019073486","716217","SARL_v6","SARL_v63n13xggp","611465b0cdf9e7bb34a05898","freq","","","img/orange_2bandit_a2.png","70","","70","test","1","","116","","","","square","circle","112","21","5","0.9732142857142857","","","","","","","",""
"null","716634","SARL_v6","SARL_v63n13xggp","611465b0cdf9e7bb34a05898","freq_resp","","","img/orange_2bandit_a.png","70","img/orange_2bandit_a.png","70","test","","","","","","","","","","","5","","","","","","","","",""
"null","716795","SARL_v6","SARL_v63n13xggp","611465b0cdf9e7bb34a05898","fixation","","","img/fixation.png","null","","","test","","","","","","","","","","","","","","","","","","","",""
"319.30000019073486","717118","SARL_v6","SARL_v63n13xggp","611465b0cdf9e7bb34a05898","freq","","","img/orange_2bandit_a2.png","70","","70","test","1","","117","","","","square","circle","113","22","5","0.9734513274336283","","","","","","","",""
"null","717609","SARL_v6","SARL_v63n13xggp","611465b0cdf9e7bb34a05898","freq_resp","","","img/orange_2bandit_a.png","70","img/orange_2bandit_a.png","70","test","","","","","","","","","","","5","","","","","","","","",""
"null","717767","SARL_v6","SARL_v63n13xggp","611465b0cdf9e7bb34a05898","fixation","","","img/fixation.png","null","","","test","","","","","","","","","","","","","","","","","","","",""
"362.69999980926514","718135","SARL_v6","SARL_v63n13xggp","611465b0cdf9e7bb34a05898","freq","","","img/orange_2bandit_a2.png","70","","70","test","1","","118","","","","square","circle","114","23","5","0.9736842105263158","","","","","","","",""
"null","718584","SARL_v6","SARL_v63n13xggp","611465b0cdf9e7bb34a05898","freq_resp","","","img/orange_2bandit_a.png","70","img/orange_2bandit_a.png","70","test","","","","","","","","","","","5","","","","","","","","",""
"null","718744","SARL_v6","SARL_v63n13xggp","611465b0cdf9e7bb34a05898","fixation","","","img/fixation.png","null","","","test","","","","","","","","","","","","","","","","","","","",""
"550.1999998092651","719298","SARL_v6","SARL_v63n13xggp","611465b0cdf9e7bb34a05898","rl","","","img/black_2bandit_a2.png","74","","0","test","","","119","","","-7","square","circle","","0","5","","74","4","-7","-7","4","square","5","0"
"null","720056","SARL_v6","SARL_v63n13xggp","611465b0cdf9e7bb34a05898","feedback","","","<div class=""verylowPoints_sq""> -7 </div>","null","","na","test","","","NaN","","","","","","","","5","","74","","","","","","5",""
"281.19999980926514","720340","SARL_v6","SARL_v63n13xggp","611465b0cdf9e7bb34a05898","freq","","","img/orange_2bandit_a2.png","70","","70","test","1","","120","","","","square","circle","115","1","6","0.9739130434782609","","","","","","","",""
"null","720868","SARL_v6","SARL_v63n13xggp","611465b0cdf9e7bb34a05898","freq_resp","","","img/orange_2bandit_a.png","70","img/orange_2bandit_a.png","70","test","","","","","","","","","","","6","","","","","","","","",""
"null","721028","SARL_v6","SARL_v63n13xggp","611465b0cdf9e7bb34a05898","fixation","","","img/fixation.png","null","","","test","","","","","","","","","","","","","","","","","","","",""
"367.40000009536743","721397","SARL_v6","SARL_v63n13xggp","611465b0cdf9e7bb34a05898","freq","","","img/orange_2bandit_a2.png","70","","70","test","1","","121","","","","square","circle","116","2","6","0.9741379310344828","","","","","","","",""
"null","721838","SARL_v6","SARL_v63n13xggp","611465b0cdf9e7bb34a05898","freq_resp","","","img/orange_2bandit_a.png","70","img/orange_2bandit_a.png","70","test","","","","","","","","","","","6","","","","","","","","",""
"null","722003","SARL_v6","SARL_v63n13xggp","611465b0cdf9e7bb34a05898","fixation","","","img/fixation.png","null","","","test","","","","","","","","","","","","","","","","","","","",""
"273.09999990463257","722279","SARL_v6","SARL_v63n13xggp","611465b0cdf9e7bb34a05898","freq","","","img/orange_2bandit_a2.png","70","","70","test","1","","122","","","","square","circle","117","3","6","0.9743589743589743","","","","","","","",""
"null","722810","SARL_v6","SARL_v63n13xggp","611465b0cdf9e7bb34a05898","freq_resp","","","img/orange_2bandit_a.png","70","img/orange_2bandit_a.png","70","test","","","","","","","","","","","6","","","","","","","","",""
"null","722971","SARL_v6","SARL_v63n13xggp","611465b0cdf9e7bb34a05898","fixation","","","img/fixation.png","null","","","test","","","","","","","","","","","","","","","","","","","",""
"321","723294","SARL_v6","SARL_v63n13xggp","611465b0cdf9e7bb34a05898","freq","","","img/orange_2bandit_a2.png","70","","70","test","1","","123","","","","square","circle","118","4","6","0.9745762711864406","","","","","","","",""
"null","723784","SARL_v6","SARL_v63n13xggp","611465b0cdf9e7bb34a05898","freq_resp","","","img/orange_2bandit_a.png","70","img/orange_2bandit_a.png","70","test","","","","","","","","","","","6","","","","","","","","",""
"null","723945","SARL_v6","SARL_v63n13xggp","611465b0cdf9e7bb34a05898","fixation","","","img/fixation.png","null","","","test","","","","","","","","","","","","","","","","","","","",""
"375.40000009536743","724323","SARL_v6","SARL_v63n13xggp","611465b0cdf9e7bb34a05898","freq","","","img/orange_2bandit_a2.png","70","","70","test","1","","124","","","","square","circle","119","5","6","0.9747899159663865","","","","","","","",""
"null","724760","SARL_v6","SARL_v63n13xggp","611465b0cdf9e7bb34a05898","freq_resp","","","img/orange_2bandit_a.png","70","img/orange_2bandit_a.png","70","test","","","","","","","","","","","6","","","","","","","","",""
"null","724917","SARL_v6","SARL_v63n13xggp","611465b0cdf9e7bb34a05898","fixation","","","img/fixation.png","null","","","test","","","","","","","","","","","","","","","","","","","",""
"297.19999980926514","725218","SARL_v6","SARL_v63n13xggp","611465b0cdf9e7bb34a05898","freq","","","img/orange_2bandit_a2.png","70","","70","test","1","","125","","","","square","circle","120","6","6","0.975","","","","","","","",""
"null","725734","SARL_v6","SARL_v63n13xggp","611465b0cdf9e7bb34a05898","freq_resp","","","img/orange_2bandit_a.png","70","img/orange_2bandit_a.png","70","test","","","","","","","","","","","6","","","","","","","","",""
"null","725894","SARL_v6","SARL_v63n13xggp","611465b0cdf9e7bb34a05898","fixation","","","img/fixation.png","null","","","test","","","","","","","","","","","","","","","","","","","",""
"273.59999990463257","726171","SARL_v6","SARL_v63n13xggp","611465b0cdf9e7bb34a05898","freq","","","img/orange_2bandit_a2.png","70","","70","test","1","","126","","","","square","circle","121","7","6","0.9752066115702479","","","","","","","",""
"null","726716","SARL_v6","SARL_v63n13xggp","611465b0cdf9e7bb34a05898","freq_resp","","","img/orange_2bandit_a.png","70","img/orange_2bandit_a.png","70","test","","","","","","","","","","","6","","","","","","","","",""
"null","726893","SARL_v6","SARL_v63n13xggp","611465b0cdf9e7bb34a05898","fixation","","","img/fixation.png","null","","","test","","","","","","","","","","","","","","","","","","","",""
"297.5","727194","SARL_v6","SARL_v63n13xggp","611465b0cdf9e7bb34a05898","freq","","","img/orange_2bandit_a2.png","70","","70","test","1","","127","","","","square","circle","122","8","6","0.9754098360655737","","","","","","","",""
"null","727704","SARL_v6","SARL_v63n13xggp","611465b0cdf9e7bb34a05898","freq_resp","","","img/orange_2bandit_a.png","70","img/orange_2bandit_a.png","70","test","","","","","","","","","","","6","","","","","","","","",""
"null","727860","SARL_v6","SARL_v63n13xggp","611465b0cdf9e7bb34a05898","fixation","","","img/fixation.png","null","","","test","","","","","","","","","","","","","","","","","","","",""
"324.40000009536743","728188","SARL_v6","SARL_v63n13xggp","611465b0cdf9e7bb34a05898","freq","","","img/orange_2bandit_a2.png","70","","70","test","1","","128","","","","square","circle","123","9","6","0.975609756097561","","","","","","","",""
"null","728675","SARL_v6","SARL_v63n13xggp","611465b0cdf9e7bb34a05898","freq_resp","","","img/orange_2bandit_a.png","70","img/orange_2bandit_a.png","70","test","","","","","","","","","","","6","","","","","","","","",""
"null","728833","SARL_v6","SARL_v63n13xggp","611465b0cdf9e7bb34a05898","fixation","","","img/fixation.png","null","","","test","","","","","","","","","","","","","","","","","","","",""
