"rt","time_elapsed","expId","subject","prolificID","trialType","rlType","attType","stimulus","key_press","stim","corrresp","phase","corr","pracCounter","trialNum","rewardOne","rewardTwo","reward","bandOne","bandTwo","attentionNum","attentionRunNum","blockNum","performance","bandChosen","circleVal","squareVal","bandOneVal","bandTwoVal","shapeChosen","rlNum","badFlag"
"53693","53697","SARL_v6","SARL_v6sy4y7utl","58a1fe40ea3d11000170d9b9","","","","","","","","","","","","","","","","","","","","","","","","","","","",""
"","55701","SARL_v6","SARL_v6sy4y7utl","58a1fe40ea3d11000170d9b9","fullscreen","fullscreen","fullscreen","","","","","","","","","","","","","","","","","","","","","","","","",""
"31220","86924","SARL_v6","SARL_v6sy4y7utl","58a1fe40ea3d11000170d9b9","","","","","","","","","","","","","","","","","","","","","","","","","","","",""
"null","87732","SARL_v6","SARL_v6sy4y7utl","58a1fe40ea3d11000170d9b9","freqPrac","","","img/orange_2bandit_a2.png","null","img/orange_2bandit_a2.png","70","prac","0","1","","","","","","","","","","","","","","","","","",""
"null","88738","SARL_v6","SARL_v6sy4y7utl","58a1fe40ea3d11000170d9b9","feedback","","","img/tooSlow.png","null","","na","prac","","","","","","","","","","","","","","","","","","","",""
"null","88895","SARL_v6","SARL_v6sy4y7utl","58a1fe40ea3d11000170d9b9","fixation","","","img/fixation.png","null","","","prac","","","","","","","","","","","","","","","","","","","",""
"611","89508","SARL_v6","SARL_v6sy4y7utl","58a1fe40ea3d11000170d9b9","infreqPrac","","","img/blue_2bandit_a2.png","70","img/blue_2bandit_a2.png","68","prac","0","2","","","","","","","","","","","","","","","","","",""
"611","89702","SARL_v6","SARL_v6sy4y7utl","58a1fe40ea3d11000170d9b9","infreqPrac_resp","","","img/blue_2bandit_a.png","70","img/blue_2bandit_a.png","68","prac","","","","","","","","","","","","","","","","","","","",""
"null","90709","SARL_v6","SARL_v6sy4y7utl","58a1fe40ea3d11000170d9b9","feedback","","","img/wrongKey.png","null","","na","prac","","","","","","","","","","","","","","","","","","","",""
"null","90866","SARL_v6","SARL_v6sy4y7utl","58a1fe40ea3d11000170d9b9","fixation","","","img/fixation.png","null","","","prac","","","","","","","","","","","","","","","","","","","",""
"511","91379","SARL_v6","SARL_v6sy4y7utl","58a1fe40ea3d11000170d9b9","freqPrac","","","img/orange_2bandit_a2.png","70","img/orange_2bandit_a2.png","70","prac","1","2","","","","","","","","","","","","","","","","","",""
"511","91673","SARL_v6","SARL_v6sy4y7utl","58a1fe40ea3d11000170d9b9","freqPrac_resp","","","img/orange_2bandit_a.png","70","img/orange_2bandit_a.png","70","prac","","","","","","","","","","","","","","","","","","","",""
"null","91830","SARL_v6","SARL_v6sy4y7utl","58a1fe40ea3d11000170d9b9","fixation","","","img/fixation.png","null","","","prac","","","","","","","","","","","","","","","","","","","",""
"419","92251","SARL_v6","SARL_v6sy4y7utl","58a1fe40ea3d11000170d9b9","infreqPrac","","","img/blue_2bandit_a2.png","68","img/blue_2bandit_a2.png","68","prac","1","2","","","","","","","","","","","","","","","","","",""
"419","92636","SARL_v6","SARL_v6sy4y7utl","58a1fe40ea3d11000170d9b9","infreqPrac_resp","","","img/blue_2bandit_a.png","68","img/blue_2bandit_a.png","68","prac","","","","","","","","","","","","","","","","","","","",""
"null","92793","SARL_v6","SARL_v6sy4y7utl","58a1fe40ea3d11000170d9b9","fixation","","","img/fixation.png","null","","","prac","","","","","","","","","","","","","","","","","","","",""
"536","93331","SARL_v6","SARL_v6sy4y7utl","58a1fe40ea3d11000170d9b9","infreqPrac","","","img/blue_2bandit_a2.png","68","img/blue_2bandit_a2.png","68","prac","1","2","","","","","","","","","","","","","","","","","",""
"536","93597","SARL_v6","SARL_v6sy4y7utl","58a1fe40ea3d11000170d9b9","infreqPrac_resp","","","img/blue_2bandit_a.png","68","img/blue_2bandit_a.png","68","prac","","","","","","","","","","","","","","","","","","","",""
"null","93751","SARL_v6","SARL_v6sy4y7utl","58a1fe40ea3d11000170d9b9","fixation","","","img/fixation.png","null","","","prac","","","","","","","","","","","","","","","","","","","",""
"394","94147","SARL_v6","SARL_v6sy4y7utl","58a1fe40ea3d11000170d9b9","infreqPrac","","","img/blue_2bandit_a2.png","68","img/blue_2bandit_a2.png","68","prac","1","2","","","","","","","","","","","","","","","","","",""
"394","94554","SARL_v6","SARL_v6sy4y7utl","58a1fe40ea3d11000170d9b9","infreqPrac_resp","","","img/blue_2bandit_a.png","68","img/blue_2bandit_a.png","68","prac","","","","","","","","","","","","","","","","","","","",""
"null","94709","SARL_v6","SARL_v6sy4y7utl","58a1fe40ea3d11000170d9b9","fixation","","","img/fixation.png","null","","","prac","","","","","","","","","","","","","","","","","","","",""
"347","95059","SARL_v6","SARL_v6sy4y7utl","58a1fe40ea3d11000170d9b9","freqPrac","","","img/orange_2bandit_a2.png","70","img/orange_2bandit_a2.png","70","prac","1","2","","","","","","","","","","","","","","","","","",""
"347","95515","SARL_v6","SARL_v6sy4y7utl","58a1fe40ea3d11000170d9b9","freqPrac_resp","","","img/orange_2bandit_a.png","70","img/orange_2bandit_a.png","70","prac","","","","","","","","","","","","","","","","","","","",""
"null","95669","SARL_v6","SARL_v6sy4y7utl","58a1fe40ea3d11000170d9b9","fixation","","","img/fixation.png","null","","","prac","","","","","","","","","","","","","","","","","","","",""
"388","96058","SARL_v6","SARL_v6sy4y7utl","58a1fe40ea3d11000170d9b9","infreqPrac","","","img/blue_2bandit_a2.png","68","img/blue_2bandit_a2.png","68","prac","1","2","","","","","","","","","","","","","","","","","",""
"388","96473","SARL_v6","SARL_v6sy4y7utl","58a1fe40ea3d11000170d9b9","infreqPrac_resp","","","img/blue_2bandit_a.png","68","img/blue_2bandit_a.png","68","prac","","","","","","","","","","","","","","","","","","","",""
"null","96626","SARL_v6","SARL_v6sy4y7utl","58a1fe40ea3d11000170d9b9","fixation","","","img/fixation.png","null","","","prac","","","","","","","","","","","","","","","","","","","",""
"494","97123","SARL_v6","SARL_v6sy4y7utl","58a1fe40ea3d11000170d9b9","freqPrac","","","img/orange_2bandit_a2.png","70","img/orange_2bandit_a2.png","70","prac","1","2","","","","","","","","","","","","","","","","","",""
"494","97431","SARL_v6","SARL_v6sy4y7utl","58a1fe40ea3d11000170d9b9","freqPrac_resp","","","img/orange_2bandit_a.png","70","img/orange_2bandit_a.png","70","prac","","","","","","","","","","","","","","","","","","","",""
"null","97585","SARL_v6","SARL_v6sy4y7utl","58a1fe40ea3d11000170d9b9","fixation","","","img/fixation.png","null","","","prac","","","","","","","","","","","","","","","","","","","",""
"384","97971","SARL_v6","SARL_v6sy4y7utl","58a1fe40ea3d11000170d9b9","freqPrac","","","img/orange_2bandit_a2.png","70","img/orange_2bandit_a2.png","70","prac","1","2","","","","","","","","","","","","","","","","","",""
"384","98392","SARL_v6","SARL_v6sy4y7utl","58a1fe40ea3d11000170d9b9","freqPrac_resp","","","img/orange_2bandit_a.png","70","img/orange_2bandit_a.png","70","prac","","","","","","","","","","","","","","","","","","","",""
"null","98549","SARL_v6","SARL_v6sy4y7utl","58a1fe40ea3d11000170d9b9","fixation","","","img/fixation.png","null","","","prac","","","","","","","","","","","","","","","","","","","",""
"28586","127137","SARL_v6","SARL_v6sy4y7utl","58a1fe40ea3d11000170d9b9","","","","","","","","prac","","","","","","","","","","","","","","","","","","","",""
"587","127729","SARL_v6","SARL_v6sy4y7utl","58a1fe40ea3d11000170d9b9","rlPractice","","","img/black_2bandit_a2.png","74","img/black_2bandit_a2.png","","prac","","","0","","","","","","","","","","","","","","","","",""
"null","128485","SARL_v6","SARL_v6sy4y7utl","58a1fe40ea3d11000170d9b9","feedback","","","<div class=""verylowPoints_sq""> -14 </div>","null","","na","prac","","","1","10","-14","10","","","","","","","","","","","","","",""
"null","128641","SARL_v6","SARL_v6sy4y7utl","58a1fe40ea3d11000170d9b9","fixation","","","img/fixation.png","null","","","prac","","","","","","","","","","","","","","","","","","","",""
"652","129296","SARL_v6","SARL_v6sy4y7utl","58a1fe40ea3d11000170d9b9","rlPractice","","","img/black_2bandit_a2.png","74","img/black_2bandit_a2.png","","prac","","","1","","","","","","","","","","","","","","","","",""
"null","130049","SARL_v6","SARL_v6sy4y7utl","58a1fe40ea3d11000170d9b9","feedback","","","<div class=""verylowPoints_sq""> -5 </div>","null","","na","prac","","","2","5","-5","5","","","","","","","","","","","","","",""
"null","130205","SARL_v6","SARL_v6sy4y7utl","58a1fe40ea3d11000170d9b9","fixation","","","img/fixation.png","null","","","prac","","","","","","","","","","","","","","","","","","","",""
"263","130472","SARL_v6","SARL_v6sy4y7utl","58a1fe40ea3d11000170d9b9","rlPractice","","","img/black_2bandit_a2.png","75","img/black_2bandit_a2.png","","prac","","","2","","","","","","","","","","","","","","","","",""
"null","131224","SARL_v6","SARL_v6sy4y7utl","58a1fe40ea3d11000170d9b9","feedback","","","<div class=""veryhighPoints""> 30 </div>","null","","na","prac","","","3","30","2","30","","","","","","","","","","","","","",""
"null","131379","SARL_v6","SARL_v6sy4y7utl","58a1fe40ea3d11000170d9b9","fixation","","","img/fixation.png","null","","","prac","","","","","","","","","","","","","","","","","","","",""
"267","131648","SARL_v6","SARL_v6sy4y7utl","58a1fe40ea3d11000170d9b9","rlPractice","","","img/black_2bandit_a2.png","75","img/black_2bandit_a2.png","","prac","","","3","","","","","","","","","","","","","","","","",""
"null","132400","SARL_v6","SARL_v6sy4y7utl","58a1fe40ea3d11000170d9b9","feedback","","","<div class=""verylowPoints""> -2 </div>","null","","na","prac","","","4","-2","20","-2","","","","","","","","","","","","","",""
"null","132554","SARL_v6","SARL_v6sy4y7utl","58a1fe40ea3d11000170d9b9","fixation","","","img/fixation.png","null","","","prac","","","","","","","","","","","","","","","","","","","",""
"68645","201201","SARL_v6","SARL_v6sy4y7utl","58a1fe40ea3d11000170d9b9","","","","","","","","prac","","","","","","","","","","","","","","","","","","","",""
"null","202007","SARL_v6","SARL_v6sy4y7utl","58a1fe40ea3d11000170d9b9","mixAttFreqPrac","","","img/orange_2bandit_a2.png","null","img/orange_2bandit_a2.png","70","prac","","","1","","","","","","","","","","","","","","","","",""
"53","202164","SARL_v6","SARL_v6sy4y7utl","58a1fe40ea3d11000170d9b9","fixation","","","img/fixation.png","70","","","prac","","","","","","","","","","","","","","","","","","","",""
"465","202632","SARL_v6","SARL_v6sy4y7utl","58a1fe40ea3d11000170d9b9","mixAttInfreqPrac","","","img/blue_2bandit_a2.png","68","img/blue_2bandit_a2.png","68","prac","","","2","","","","","","","","","","","","","","","","",""
"465","202973","SARL_v6","SARL_v6sy4y7utl","58a1fe40ea3d11000170d9b9","infreqPrac_resp","","","img/blue_2bandit_a.png","68","img/orange_2bandit_a.png","68","prac","","","2","","","","","","","","","","","","","","","","",""
"null","203127","SARL_v6","SARL_v6sy4y7utl","58a1fe40ea3d11000170d9b9","fixation","","","img/fixation.png","null","","","prac","","","","","","","","","","","","","","","","","","","",""
"503","203632","SARL_v6","SARL_v6sy4y7utl","58a1fe40ea3d11000170d9b9","mixAttInfreqPrac","","","img/blue_2bandit_a2.png","70","img/blue_2bandit_a2.png","68","prac","","","3","","","","","","","","","","","","","","","","",""
"503","203932","SARL_v6","SARL_v6sy4y7utl","58a1fe40ea3d11000170d9b9","infreqPrac_resp","","","img/blue_2bandit_a.png","70","img/orange_2bandit_a.png","68","prac","","","3","","","","","","","","","","","","","","","","",""
"null","204085","SARL_v6","SARL_v6sy4y7utl","58a1fe40ea3d11000170d9b9","fixation","","","img/fixation.png","null","","","prac","","","","","","","","","","","","","","","","","","","",""
"449","204536","SARL_v6","SARL_v6sy4y7utl","58a1fe40ea3d11000170d9b9","mixAttInfreqPrac","","","img/blue_2bandit_a2.png","68","img/blue_2bandit_a2.png","68","prac","","","4","","","","","","","","","","","","","","","","",""
"449","204889","SARL_v6","SARL_v6sy4y7utl","58a1fe40ea3d11000170d9b9","infreqPrac_resp","","","img/blue_2bandit_a.png","68","img/orange_2bandit_a.png","68","prac","","","4","","","","","","","","","","","","","","","","",""
"null","205045","SARL_v6","SARL_v6sy4y7utl","58a1fe40ea3d11000170d9b9","fixation","","","img/fixation.png","null","","","prac","","","","","","","","","","","","","","","","","","","",""
"432","205479","SARL_v6","SARL_v6sy4y7utl","58a1fe40ea3d11000170d9b9","mixAttFreqPrac","","","img/orange_2bandit_a2.png","70","img/orange_2bandit_a2.png","70","prac","","","5","","","","","","","","","","","","","","","","",""
"432","205849","SARL_v6","SARL_v6sy4y7utl","58a1fe40ea3d11000170d9b9","freqPrac_resp","","","img/orange_2bandit_a.png","70","img/orange_2bandit_a.png","70","prac","","","5","","","","","","","","","","","","","","","","",""
"null","206003","SARL_v6","SARL_v6sy4y7utl","58a1fe40ea3d11000170d9b9","fixation","","","img/fixation.png","null","","","prac","","","","","","","","","","","","","","","","","","","",""
"810","206815","SARL_v6","SARL_v6sy4y7utl","58a1fe40ea3d11000170d9b9","mixRLPractice","","","img/black_2bandit_a2.png","75","img/black_2bandit_a2.png","","prac","","","5","","","","","","","","","","","","","","","","",""
"null","207568","SARL_v6","SARL_v6sy4y7utl","58a1fe40ea3d11000170d9b9","feedback","","","<div class=""verylowPoints""> -14 </div>","null","","na","prac","","","6","-14","10","-14","","","","","","","","","","","","","",""
"null","207722","SARL_v6","SARL_v6sy4y7utl","58a1fe40ea3d11000170d9b9","fixation","","","img/fixation.png","null","","","prac","","","","","","","","","","","","","","","","","","","",""
"691","208415","SARL_v6","SARL_v6sy4y7utl","58a1fe40ea3d11000170d9b9","mixAttFreqPrac","","","img/orange_2bandit_a2.png","70","img/orange_2bandit_a2.png","70","prac","","","7","","","","","","","","","","","","","","","","",""
"691","208529","SARL_v6","SARL_v6sy4y7utl","58a1fe40ea3d11000170d9b9","freqPrac_resp","","","img/orange_2bandit_a.png","70","img/orange_2bandit_a.png","70","prac","","","7","","","","","","","","","","","","","","","","",""
"null","208683","SARL_v6","SARL_v6sy4y7utl","58a1fe40ea3d11000170d9b9","fixation","","","img/fixation.png","null","","","prac","","","","","","","","","","","","","","","","","","","",""
"611","209295","SARL_v6","SARL_v6sy4y7utl","58a1fe40ea3d11000170d9b9","mixAttInfreqPrac","","","img/blue_2bandit_a2.png","68","img/blue_2bandit_a2.png","68","prac","","","8","","","","","","","","","","","","","","","","",""
"611","209488","SARL_v6","SARL_v6sy4y7utl","58a1fe40ea3d11000170d9b9","infreqPrac_resp","","","img/blue_2bandit_a.png","68","img/orange_2bandit_a.png","68","prac","","","8","","","","","","","","","","","","","","","","",""
"null","209643","SARL_v6","SARL_v6sy4y7utl","58a1fe40ea3d11000170d9b9","fixation","","","img/fixation.png","null","","","prac","","","","","","","","","","","","","","","","","","","",""
"523","210168","SARL_v6","SARL_v6sy4y7utl","58a1fe40ea3d11000170d9b9","mixAttFreqPrac","","","img/orange_2bandit_a2.png","70","img/orange_2bandit_a2.png","70","prac","","","9","","","","","","","","","","","","","","","","",""
"523","210447","SARL_v6","SARL_v6sy4y7utl","58a1fe40ea3d11000170d9b9","freqPrac_resp","","","img/orange_2bandit_a.png","70","img/orange_2bandit_a.png","70","prac","","","9","","","","","","","","","","","","","","","","",""
"null","210603","SARL_v6","SARL_v6sy4y7utl","58a1fe40ea3d11000170d9b9","fixation","","","img/fixation.png","null","","","prac","","","","","","","","","","","","","","","","","","","",""
"394","210999","SARL_v6","SARL_v6sy4y7utl","58a1fe40ea3d11000170d9b9","mixAttFreqPrac","","","img/orange_2bandit_a2.png","70","img/orange_2bandit_a2.png","70","prac","","","10","","","","","","","","","","","","","","","","",""
"394","211408","SARL_v6","SARL_v6sy4y7utl","58a1fe40ea3d11000170d9b9","freqPrac_resp","","","img/orange_2bandit_a.png","70","img/orange_2bandit_a.png","70","prac","","","10","","","","","","","","","","","","","","","","",""
"null","211561","SARL_v6","SARL_v6sy4y7utl","58a1fe40ea3d11000170d9b9","fixation","","","img/fixation.png","null","","","prac","","","","","","","","","","","","","","","","","","","",""
"419","211983","SARL_v6","SARL_v6sy4y7utl","58a1fe40ea3d11000170d9b9","mixAttInfreqPrac","","","img/blue_2bandit_a2.png","68","img/blue_2bandit_a2.png","68","prac","","","11","","","","","","","","","","","","","","","","",""
"419","212369","SARL_v6","SARL_v6sy4y7utl","58a1fe40ea3d11000170d9b9","infreqPrac_resp","","","img/blue_2bandit_a.png","68","img/orange_2bandit_a.png","68","prac","","","11","","","","","","","","","","","","","","","","",""
"null","212523","SARL_v6","SARL_v6sy4y7utl","58a1fe40ea3d11000170d9b9","fixation","","","img/fixation.png","null","","","prac","","","","","","","","","","","","","","","","","","","",""
"659","213183","SARL_v6","SARL_v6sy4y7utl","58a1fe40ea3d11000170d9b9","mixRLPractice","","","img/black_2bandit_a2.png","74","img/black_2bandit_a2.png","","prac","","","11","","","","","","","","","","","","","","","","",""
"null","213936","SARL_v6","SARL_v6sy4y7utl","58a1fe40ea3d11000170d9b9","feedback","","","<div class=""verylowPoints_sq""> -5 </div>","null","","na","prac","","","12","5","-5","5","","","","","","","","","","","","","",""
"null","214090","SARL_v6","SARL_v6sy4y7utl","58a1fe40ea3d11000170d9b9","fixation","","","img/fixation.png","null","","","prac","","","","","","","","","","","","","","","","","","","",""
"302554","516643","SARL_v6","SARL_v6sy4y7utl","58a1fe40ea3d11000170d9b9","","","","","","","","prac","","","","","","","","","","","","","","","","","","","",""
"null","517450","SARL_v6","SARL_v6sy4y7utl","58a1fe40ea3d11000170d9b9","freq","","","img/orange_2bandit_a2.png","null","","70","test","0","","1","","","","square","circle","1","1","1","0","","","","","","","",""
"null","517606","SARL_v6","SARL_v6sy4y7utl","58a1fe40ea3d11000170d9b9","fixation","","","img/fixation.png","null","","","test","","","","","","","","","","","","","","","","","","","",""
"385","517993","SARL_v6","SARL_v6sy4y7utl","58a1fe40ea3d11000170d9b9","freq","","","img/orange_2bandit_a2.png","70","","70","test","1","","2","","","","square","circle","2","2","1","0.5","","","","","","","",""
"null","518413","SARL_v6","SARL_v6sy4y7utl","58a1fe40ea3d11000170d9b9","freq_resp","","","img/orange_2bandit_a.png","70","img/orange_2bandit_a.png","70","test","","","","","","","","","","","1","","","","","","","","",""
"null","518570","SARL_v6","SARL_v6sy4y7utl","58a1fe40ea3d11000170d9b9","fixation","","","img/fixation.png","null","","","test","","","","","","","","","","","","","","","","","","","",""
"358","518929","SARL_v6","SARL_v6sy4y7utl","58a1fe40ea3d11000170d9b9","freq","","","img/orange_2bandit_a2.png","70","","70","test","1","","3","","","","square","circle","3","3","1","0.6666666666666666","","","","","","","",""
"null","519376","SARL_v6","SARL_v6sy4y7utl","58a1fe40ea3d11000170d9b9","freq_resp","","","img/orange_2bandit_a.png","70","img/orange_2bandit_a.png","70","test","","","","","","","","","","","1","","","","","","","","",""
"null","519529","SARL_v6","SARL_v6sy4y7utl","58a1fe40ea3d11000170d9b9","fixation","","","img/fixation.png","null","","","test","","","","","","","","","","","","","","","","","","","",""
"383","519914","SARL_v6","SARL_v6sy4y7utl","58a1fe40ea3d11000170d9b9","freq","","","img/orange_2bandit_a2.png","70","","70","test","1","","4","","","","square","circle","4","4","1","0.75","","","","","","","",""
"null","520334","SARL_v6","SARL_v6sy4y7utl","58a1fe40ea3d11000170d9b9","freq_resp","","","img/orange_2bandit_a.png","70","img/orange_2bandit_a.png","70","test","","","","","","","","","","","1","","","","","","","","",""
"null","520491","SARL_v6","SARL_v6sy4y7utl","58a1fe40ea3d11000170d9b9","fixation","","","img/fixation.png","null","","","test","","","","","","","","","","","","","","","","","","","",""
"389","520881","SARL_v6","SARL_v6sy4y7utl","58a1fe40ea3d11000170d9b9","freq","","","img/orange_2bandit_a2.png","70","","70","test","1","","5","","","","square","circle","5","5","1","0.8","","","","","","","",""
"null","521294","SARL_v6","SARL_v6sy4y7utl","58a1fe40ea3d11000170d9b9","freq_resp","","","img/orange_2bandit_a.png","70","img/orange_2bandit_a.png","70","test","","","","","","","","","","","1","","","","","","","","",""
"null","521451","SARL_v6","SARL_v6sy4y7utl","58a1fe40ea3d11000170d9b9","fixation","","","img/fixation.png","null","","","test","","","","","","","","","","","","","","","","","","","",""
"324","521777","SARL_v6","SARL_v6sy4y7utl","58a1fe40ea3d11000170d9b9","freq","","","img/orange_2bandit_a2.png","70","","70","test","1","","6","","","","square","circle","6","6","1","0.8333333333333334","","","","","","","",""
"null","522259","SARL_v6","SARL_v6sy4y7utl","58a1fe40ea3d11000170d9b9","freq_resp","","","img/orange_2bandit_a.png","70","img/orange_2bandit_a.png","70","test","","","","","","","","","","","1","","","","","","","","",""
"null","522412","SARL_v6","SARL_v6sy4y7utl","58a1fe40ea3d11000170d9b9","fixation","","","img/fixation.png","null","","","test","","","","","","","","","","","","","","","","","","","",""
"468","522882","SARL_v6","SARL_v6sy4y7utl","58a1fe40ea3d11000170d9b9","freq","","","img/orange_2bandit_a2.png","70","","70","test","1","","7","","","","square","circle","7","7","1","0.8571428571428571","","","","","","","",""
"null","523219","SARL_v6","SARL_v6sy4y7utl","58a1fe40ea3d11000170d9b9","freq_resp","","","img/orange_2bandit_a.png","70","img/orange_2bandit_a.png","70","test","","","","","","","","","","","1","","","","","","","","",""
"null","523375","SARL_v6","SARL_v6sy4y7utl","58a1fe40ea3d11000170d9b9","fixation","","","img/fixation.png","null","","","test","","","","","","","","","","","","","","","","","","","",""
"392","523769","SARL_v6","SARL_v6sy4y7utl","58a1fe40ea3d11000170d9b9","freq","","","img/orange_2bandit_a2.png","70","","70","test","1","","8","","","","square","circle","8","8","1","0.875","","","","","","","",""
"null","524185","SARL_v6","SARL_v6sy4y7utl","58a1fe40ea3d11000170d9b9","freq_resp","","","img/orange_2bandit_a.png","70","img/orange_2bandit_a.png","70","test","","","","","","","","","","","1","","","","","","","","",""
"null","524339","SARL_v6","SARL_v6sy4y7utl","58a1fe40ea3d11000170d9b9","fixation","","","img/fixation.png","null","","","test","","","","","","","","","","","","","","","","","","","",""
"340","524681","SARL_v6","SARL_v6sy4y7utl","58a1fe40ea3d11000170d9b9","freq","","","img/orange_2bandit_a2.png","70","","70","test","1","","9","","","","square","circle","9","9","1","0.8888888888888888","","","","","","","",""
"null","525143","SARL_v6","SARL_v6sy4y7utl","58a1fe40ea3d11000170d9b9","freq_resp","","","img/orange_2bandit_a.png","70","img/orange_2bandit_a.png","70","test","","","","","","","","","","","1","","","","","","","","",""
"null","525296","SARL_v6","SARL_v6sy4y7utl","58a1fe40ea3d11000170d9b9","fixation","","","img/fixation.png","null","","","test","","","","","","","","","","","","","","","","","","","",""
"390","525689","SARL_v6","SARL_v6sy4y7utl","58a1fe40ea3d11000170d9b9","freq","","","img/orange_2bandit_a2.png","70","","70","test","1","","10","","","","square","circle","10","10","1","0.9","","","","","","","",""
"null","526104","SARL_v6","SARL_v6sy4y7utl","58a1fe40ea3d11000170d9b9","freq_resp","","","img/orange_2bandit_a.png","70","img/orange_2bandit_a.png","70","test","","","","","","","","","","","1","","","","","","","","",""
"null","526257","SARL_v6","SARL_v6sy4y7utl","58a1fe40ea3d11000170d9b9","fixation","","","img/fixation.png","null","","","test","","","","","","","","","","","","","","","","","","","",""
"398","526657","SARL_v6","SARL_v6sy4y7utl","58a1fe40ea3d11000170d9b9","freq","","","img/orange_2bandit_a2.png","70","","70","test","1","","11","","","","square","circle","11","11","1","0.9090909090909091","","","","","","","",""
"null","527064","SARL_v6","SARL_v6sy4y7utl","58a1fe40ea3d11000170d9b9","freq_resp","","","img/orange_2bandit_a.png","70","img/orange_2bandit_a.png","70","test","","","","","","","","","","","1","","","","","","","","",""
"null","527221","SARL_v6","SARL_v6sy4y7utl","58a1fe40ea3d11000170d9b9","fixation","","","img/fixation.png","null","","","test","","","","","","","","","","","","","","","","","","","",""
"394","527617","SARL_v6","SARL_v6sy4y7utl","58a1fe40ea3d11000170d9b9","infreq","","","img/blue_2bandit_a2.png","68","","68","test","1","","12","","","","square","circle","12","12","1","0.9166666666666666","","","","","","","",""
"null","528026","SARL_v6","SARL_v6sy4y7utl","58a1fe40ea3d11000170d9b9","infreq_resp","","","img/blue_2bandit_a.png","68","img/blue_2bandit_a.png","68","test","","","","","","","","","","","1","","","","","","","","",""
"null","528179","SARL_v6","SARL_v6sy4y7utl","58a1fe40ea3d11000170d9b9","fixation","","","img/fixation.png","null","","","test","","","","","","","","","","","","","","","","","","","",""
"597","528777","SARL_v6","SARL_v6sy4y7utl","58a1fe40ea3d11000170d9b9","freq","","","img/orange_2bandit_a2.png","70","","70","test","1","","13","","","","square","circle","13","13","1","0.9230769230769231","","","","","","","",""
"null","528986","SARL_v6","SARL_v6sy4y7utl","58a1fe40ea3d11000170d9b9","freq_resp","","","img/orange_2bandit_a.png","70","img/orange_2bandit_a.png","70","test","","","","","","","","","","","1","","","","","","","","",""
"null","529143","SARL_v6","SARL_v6sy4y7utl","58a1fe40ea3d11000170d9b9","fixation","","","img/fixation.png","null","","","test","","","","","","","","","","","","","","","","","","","",""
"560","529705","SARL_v6","SARL_v6sy4y7utl","58a1fe40ea3d11000170d9b9","freq","","","img/orange_2bandit_a2.png","70","","70","test","1","","14","","","","square","circle","14","14","1","0.9285714285714286","","","","","","","",""
"null","529950","SARL_v6","SARL_v6sy4y7utl","58a1fe40ea3d11000170d9b9","freq_resp","","","img/orange_2bandit_a.png","70","img/orange_2bandit_a.png","70","test","","","","","","","","","","","1","","","","","","","","",""
"null","530104","SARL_v6","SARL_v6sy4y7utl","58a1fe40ea3d11000170d9b9","fixation","","","img/fixation.png","null","","","test","","","","","","","","","","","","","","","","","","","",""
"528","530633","SARL_v6","SARL_v6sy4y7utl","58a1fe40ea3d11000170d9b9","freq","","","img/orange_2bandit_a2.png","70","","70","test","1","","15","","","","square","circle","15","15","1","0.9333333333333333","","","","","","","",""
"null","530910","SARL_v6","SARL_v6sy4y7utl","58a1fe40ea3d11000170d9b9","freq_resp","","","img/orange_2bandit_a.png","70","img/orange_2bandit_a.png","70","test","","","","","","","","","","","1","","","","","","","","",""
"null","531064","SARL_v6","SARL_v6sy4y7utl","58a1fe40ea3d11000170d9b9","fixation","","","img/fixation.png","null","","","test","","","","","","","","","","","","","","","","","","","",""
"528","531593","SARL_v6","SARL_v6sy4y7utl","58a1fe40ea3d11000170d9b9","freq","","","img/orange_2bandit_a2.png","70","","70","test","1","","16","","","","square","circle","16","16","1","0.9375","","","","","","","",""
"null","531870","SARL_v6","SARL_v6sy4y7utl","58a1fe40ea3d11000170d9b9","freq_resp","","","img/orange_2bandit_a.png","70","img/orange_2bandit_a.png","70","test","","","","","","","","","","","1","","","","","","","","",""
"null","532025","SARL_v6","SARL_v6sy4y7utl","58a1fe40ea3d11000170d9b9","fixation","","","img/fixation.png","null","","","test","","","","","","","","","","","","","","","","","","","",""
"599","532625","SARL_v6","SARL_v6sy4y7utl","58a1fe40ea3d11000170d9b9","freq","","","img/orange_2bandit_a2.png","70","","70","test","1","","17","","","","square","circle","17","17","1","0.9411764705882353","","","","","","","",""
"null","532831","SARL_v6","SARL_v6sy4y7utl","58a1fe40ea3d11000170d9b9","freq_resp","","","img/orange_2bandit_a.png","70","img/orange_2bandit_a.png","70","test","","","","","","","","","","","1","","","","","","","","",""
"null","532985","SARL_v6","SARL_v6sy4y7utl","58a1fe40ea3d11000170d9b9","fixation","","","img/fixation.png","null","","","test","","","","","","","","","","","","","","","","","","","",""
"453","533441","SARL_v6","SARL_v6sy4y7utl","58a1fe40ea3d11000170d9b9","freq","","","img/orange_2bandit_a2.png","70","","70","test","1","","18","","","","square","circle","18","18","1","0.9444444444444444","","","","","","","",""
"null","533792","SARL_v6","SARL_v6sy4y7utl","58a1fe40ea3d11000170d9b9","freq_resp","","","img/orange_2bandit_a.png","70","img/orange_2bandit_a.png","70","test","","","","","","","","","","","1","","","","","","","","",""
"null","533946","SARL_v6","SARL_v6sy4y7utl","58a1fe40ea3d11000170d9b9","fixation","","","img/fixation.png","null","","","test","","","","","","","","","","","","","","","","","","","",""
"429","534377","SARL_v6","SARL_v6sy4y7utl","58a1fe40ea3d11000170d9b9","freq","","","img/orange_2bandit_a2.png","70","","70","test","1","","19","","","","square","circle","19","19","1","0.9473684210526315","","","","","","","",""
"null","534750","SARL_v6","SARL_v6sy4y7utl","58a1fe40ea3d11000170d9b9","freq_resp","","","img/orange_2bandit_a.png","70","img/orange_2bandit_a.png","70","test","","","","","","","","","","","1","","","","","","","","",""
"null","534904","SARL_v6","SARL_v6sy4y7utl","58a1fe40ea3d11000170d9b9","fixation","","","img/fixation.png","null","","","test","","","","","","","","","","","","","","","","","","","",""
"576","535481","SARL_v6","SARL_v6sy4y7utl","58a1fe40ea3d11000170d9b9","freq","","","img/orange_2bandit_a2.png","70","","70","test","1","","20","","","","square","circle","20","20","1","0.95","","","","","","","",""
"null","535708","SARL_v6","SARL_v6sy4y7utl","58a1fe40ea3d11000170d9b9","freq_resp","","","img/orange_2bandit_a.png","70","img/orange_2bandit_a.png","70","test","","","","","","","","","","","1","","","","","","","","",""
"null","535862","SARL_v6","SARL_v6sy4y7utl","58a1fe40ea3d11000170d9b9","fixation","","","img/fixation.png","null","","","test","","","","","","","","","","","","","","","","","","","",""
"null","536666","SARL_v6","SARL_v6sy4y7utl","58a1fe40ea3d11000170d9b9","freq","","","img/orange_2bandit_a2.png","null","","70","test","0","","21","","","","square","circle","21","21","1","0.9047619047619048","","","","","","","",""
"null","536820","SARL_v6","SARL_v6sy4y7utl","58a1fe40ea3d11000170d9b9","fixation","","","img/fixation.png","null","","","test","","","","","","","","","","","","","","","","","","","",""
"475","537297","SARL_v6","SARL_v6sy4y7utl","58a1fe40ea3d11000170d9b9","infreq","","","img/blue_2bandit_a2.png","68","","68","test","1","","22","","","","square","circle","22","22","1","0.9090909090909091","","","","","","","",""
"null","537627","SARL_v6","SARL_v6sy4y7utl","58a1fe40ea3d11000170d9b9","infreq_resp","","","img/blue_2bandit_a.png","68","img/blue_2bandit_a.png","68","test","","","","","","","","","","","1","","","","","","","","",""
"null","537783","SARL_v6","SARL_v6sy4y7utl","58a1fe40ea3d11000170d9b9","fixation","","","img/fixation.png","null","","","test","","","","","","","","","","","","","","","","","","","",""
"560","538345","SARL_v6","SARL_v6sy4y7utl","58a1fe40ea3d11000170d9b9","freq","","","img/orange_2bandit_a2.png","70","","70","test","1","","23","","","","square","circle","23","23","1","0.9130434782608695","","","","","","","",""
"null","538587","SARL_v6","SARL_v6sy4y7utl","58a1fe40ea3d11000170d9b9","freq_resp","","","img/orange_2bandit_a.png","70","img/orange_2bandit_a.png","70","test","","","","","","","","","","","1","","","","","","","","",""
"null","538744","SARL_v6","SARL_v6sy4y7utl","58a1fe40ea3d11000170d9b9","fixation","","","img/fixation.png","null","","","test","","","","","","","","","","","","","","","","","","","",""
"519","539265","SARL_v6","SARL_v6sy4y7utl","58a1fe40ea3d11000170d9b9","freq","","","img/orange_2bandit_a2.png","70","","70","test","1","","24","","","","square","circle","24","24","1","0.9166666666666666","","","","","","","",""
"null","539548","SARL_v6","SARL_v6sy4y7utl","58a1fe40ea3d11000170d9b9","freq_resp","","","img/orange_2bandit_a.png","70","img/orange_2bandit_a.png","70","test","","","","","","","","","","","1","","","","","","","","",""
"null","539701","SARL_v6","SARL_v6sy4y7utl","58a1fe40ea3d11000170d9b9","fixation","","","img/fixation.png","null","","","test","","","","","","","","","","","","","","","","","","","",""
"377","540081","SARL_v6","SARL_v6sy4y7utl","58a1fe40ea3d11000170d9b9","freq","","","img/orange_2bandit_a2.png","70","","70","test","1","","25","","","","square","circle","25","25","1","0.92","","","","","","","",""
"null","540509","SARL_v6","SARL_v6sy4y7utl","58a1fe40ea3d11000170d9b9","freq_resp","","","img/orange_2bandit_a.png","70","img/orange_2bandit_a.png","70","test","","","","","","","","","","","1","","","","","","","","",""
"null","540665","SARL_v6","SARL_v6sy4y7utl","58a1fe40ea3d11000170d9b9","fixation","","","img/fixation.png","null","","","test","","","","","","","","","","","","","","","","","","","",""
"542","541209","SARL_v6","SARL_v6sy4y7utl","58a1fe40ea3d11000170d9b9","freq","","","img/orange_2bandit_a2.png","70","","70","test","1","","26","","","","square","circle","26","26","1","0.9230769230769231","","","","","","","",""
"null","541473","SARL_v6","SARL_v6sy4y7utl","58a1fe40ea3d11000170d9b9","freq_resp","","","img/orange_2bandit_a.png","70","img/orange_2bandit_a.png","70","test","","","","","","","","","","","1","","","","","","","","",""
"null","541628","SARL_v6","SARL_v6sy4y7utl","58a1fe40ea3d11000170d9b9","fixation","","","img/fixation.png","null","","","test","","","","","","","","","","","","","","","","","","","",""
"835","542465","SARL_v6","SARL_v6sy4y7utl","58a1fe40ea3d11000170d9b9","rl","","","img/black_2bandit_a2.png","74","","0","test","","","27","","","-3","square","circle","","0","1","","74","-3","-3","-3","-3","square","1","0"
"null","543219","SARL_v6","SARL_v6sy4y7utl","58a1fe40ea3d11000170d9b9","feedback","","","<div class=""verylowPoints_sq""> -3 </div>","null","","na","test","","","NaN","","","","","","","","1","","74","","","","","","1",""
"572","543793","SARL_v6","SARL_v6sy4y7utl","58a1fe40ea3d11000170d9b9","freq","","","img/orange_2bandit_a2.png","70","","70","test","1","","28","","","","square","circle","27","1","2","0.9259259259259259","","","","","","","",""
"null","544026","SARL_v6","SARL_v6sy4y7utl","58a1fe40ea3d11000170d9b9","freq_resp","","","img/orange_2bandit_a.png","70","img/orange_2bandit_a.png","70","test","","","","","","","","","","","2","","","","","","","","",""
"null","544180","SARL_v6","SARL_v6sy4y7utl","58a1fe40ea3d11000170d9b9","fixation","","","img/fixation.png","null","","","test","","","","","","","","","","","","","","","","","","","",""
"402","544585","SARL_v6","SARL_v6sy4y7utl","58a1fe40ea3d11000170d9b9","freq","","","img/orange_2bandit_a2.png","70","","70","test","1","","29","","","","square","circle","28","2","2","0.9285714285714286","","","","","","","",""
"null","544987","SARL_v6","SARL_v6sy4y7utl","58a1fe40ea3d11000170d9b9","freq_resp","","","img/orange_2bandit_a.png","70","img/orange_2bandit_a.png","70","test","","","","","","","","","","","2","","","","","","","","",""
"null","545141","SARL_v6","SARL_v6sy4y7utl","58a1fe40ea3d11000170d9b9","fixation","","","img/fixation.png","null","","","test","","","","","","","","","","","","","","","","","","","",""
"370","545513","SARL_v6","SARL_v6sy4y7utl","58a1fe40ea3d11000170d9b9","freq","","","img/orange_2bandit_a2.png","70","","70","test","1","","30","","","","square","circle","29","3","2","0.9310344827586207","","","","","","","",""
"null","545945","SARL_v6","SARL_v6sy4y7utl","58a1fe40ea3d11000170d9b9","freq_resp","","","img/orange_2bandit_a.png","70","img/orange_2bandit_a.png","70","test","","","","","","","","","","","2","","","","","","","","",""
"null","546099","SARL_v6","SARL_v6sy4y7utl","58a1fe40ea3d11000170d9b9","fixation","","","img/fixation.png","null","","","test","","","","","","","","","","","","","","","","","","","",""
"357","546457","SARL_v6","SARL_v6sy4y7utl","58a1fe40ea3d11000170d9b9","freq","","","img/orange_2bandit_a2.png","70","","70","test","1","","31","","","","square","circle","30","4","2","0.9333333333333333","","","","","","","",""
"null","546902","SARL_v6","SARL_v6sy4y7utl","58a1fe40ea3d11000170d9b9","freq_resp","","","img/orange_2bandit_a.png","70","img/orange_2bandit_a.png","70","test","","","","","","","","","","","2","","","","","","","","",""
"null","547057","SARL_v6","SARL_v6sy4y7utl","58a1fe40ea3d11000170d9b9","fixation","","","img/fixation.png","null","","","test","","","","","","","","","","","","","","","","","","","",""
"342","547401","SARL_v6","SARL_v6sy4y7utl","58a1fe40ea3d11000170d9b9","freq","","","img/orange_2bandit_a2.png","70","","70","test","1","","32","","","","square","circle","31","5","2","0.9354838709677419","","","","","","","",""
"null","547864","SARL_v6","SARL_v6sy4y7utl","58a1fe40ea3d11000170d9b9","freq_resp","","","img/orange_2bandit_a.png","70","img/orange_2bandit_a.png","70","test","","","","","","","","","","","2","","","","","","","","",""
"null","548017","SARL_v6","SARL_v6sy4y7utl","58a1fe40ea3d11000170d9b9","fixation","","","img/fixation.png","null","","","test","","","","","","","","","","","","","","","","","","","",""
"374","548393","SARL_v6","SARL_v6sy4y7utl","58a1fe40ea3d11000170d9b9","freq","","","img/orange_2bandit_a2.png","70","","70","test","1","","33","","","","square","circle","32","6","2","0.9375","","","","","","","",""
"null","548821","SARL_v6","SARL_v6sy4y7utl","58a1fe40ea3d11000170d9b9","freq_resp","","","img/orange_2bandit_a.png","70","img/orange_2bandit_a.png","70","test","","","","","","","","","","","2","","","","","","","","",""
"null","548976","SARL_v6","SARL_v6sy4y7utl","58a1fe40ea3d11000170d9b9","fixation","","","img/fixation.png","null","","","test","","","","","","","","","","","","","","","","","","","",""
"null","549779","SARL_v6","SARL_v6sy4y7utl","58a1fe40ea3d11000170d9b9","freq","","","img/orange_2bandit_a2.png","null","","70","test","0","","34","","","","square","circle","33","7","2","0.9090909090909091","","","","","","","",""
"null","549933","SARL_v6","SARL_v6sy4y7utl","58a1fe40ea3d11000170d9b9","fixation","","","img/fixation.png","null","","","test","","","","","","","","","","","","","","","","","","","",""
"610","550545","SARL_v6","SARL_v6sy4y7utl","58a1fe40ea3d11000170d9b9","infreq","","","img/blue_2bandit_a2.png","68","","68","test","1","","35","","","","square","circle","34","8","2","0.9117647058823529","","","","","","","",""
"null","550737","SARL_v6","SARL_v6sy4y7utl","58a1fe40ea3d11000170d9b9","infreq_resp","","","img/blue_2bandit_a.png","68","img/blue_2bandit_a.png","68","test","","","","","","","","","","","2","","","","","","","","",""
"null","550894","SARL_v6","SARL_v6sy4y7utl","58a1fe40ea3d11000170d9b9","fixation","","","img/fixation.png","null","","","test","","","","","","","","","","","","","","","","","","","",""
"425","551321","SARL_v6","SARL_v6sy4y7utl","58a1fe40ea3d11000170d9b9","freq","","","img/orange_2bandit_a2.png","70","","70","test","1","","36","","","","square","circle","35","9","2","0.9142857142857143","","","","","","","",""
"null","551700","SARL_v6","SARL_v6sy4y7utl","58a1fe40ea3d11000170d9b9","freq_resp","","","img/orange_2bandit_a.png","70","img/orange_2bandit_a.png","70","test","","","","","","","","","","","2","","","","","","","","",""
"null","551854","SARL_v6","SARL_v6sy4y7utl","58a1fe40ea3d11000170d9b9","fixation","","","img/fixation.png","null","","","test","","","","","","","","","","","","","","","","","","","",""
"304","552160","SARL_v6","SARL_v6sy4y7utl","58a1fe40ea3d11000170d9b9","freq","","","img/orange_2bandit_a2.png","70","","70","test","1","","37","","","","square","circle","36","10","2","0.9166666666666666","","","","","","","",""
"null","552661","SARL_v6","SARL_v6sy4y7utl","58a1fe40ea3d11000170d9b9","freq_resp","","","img/orange_2bandit_a.png","70","img/orange_2bandit_a.png","70","test","","","","","","","","","","","2","","","","","","","","",""
"null","552815","SARL_v6","SARL_v6sy4y7utl","58a1fe40ea3d11000170d9b9","fixation","","","img/fixation.png","null","","","test","","","","","","","","","","","","","","","","","","","",""
"368","553185","SARL_v6","SARL_v6sy4y7utl","58a1fe40ea3d11000170d9b9","freq","","","img/orange_2bandit_a2.png","70","","70","test","1","","38","","","","square","circle","37","11","2","0.918918918918919","","","","","","","",""
"null","553619","SARL_v6","SARL_v6sy4y7utl","58a1fe40ea3d11000170d9b9","freq_resp","","","img/orange_2bandit_a.png","70","img/orange_2bandit_a.png","70","test","","","","","","","","","","","2","","","","","","","","",""
"null","553773","SARL_v6","SARL_v6sy4y7utl","58a1fe40ea3d11000170d9b9","fixation","","","img/fixation.png","null","","","test","","","","","","","","","","","","","","","","","","","",""
"394","554169","SARL_v6","SARL_v6sy4y7utl","58a1fe40ea3d11000170d9b9","freq","","","img/orange_2bandit_a2.png","70","","70","test","1","","39","","","","square","circle","38","12","2","0.9210526315789473","","","","","","","",""
"null","554577","SARL_v6","SARL_v6sy4y7utl","58a1fe40ea3d11000170d9b9","freq_resp","","","img/orange_2bandit_a.png","70","img/orange_2bandit_a.png","70","test","","","","","","","","","","","2","","","","","","","","",""
"null","554730","SARL_v6","SARL_v6sy4y7utl","58a1fe40ea3d11000170d9b9","fixation","","","img/fixation.png","null","","","test","","","","","","","","","","","","","","","","","","","",""
"372","555105","SARL_v6","SARL_v6sy4y7utl","58a1fe40ea3d11000170d9b9","freq","","","img/orange_2bandit_a2.png","70","","70","test","1","","40","","","","square","circle","39","13","2","0.9230769230769231","","","","","","","",""
"null","555535","SARL_v6","SARL_v6sy4y7utl","58a1fe40ea3d11000170d9b9","freq_resp","","","img/orange_2bandit_a.png","70","img/orange_2bandit_a.png","70","test","","","","","","","","","","","2","","","","","","","","",""
"null","555688","SARL_v6","SARL_v6sy4y7utl","58a1fe40ea3d11000170d9b9","fixation","","","img/fixation.png","null","","","test","","","","","","","","","","","","","","","","","","","",""
"399","556089","SARL_v6","SARL_v6sy4y7utl","58a1fe40ea3d11000170d9b9","freq","","","img/orange_2bandit_a2.png","70","","70","test","1","","41","","","","square","circle","40","14","2","0.925","","","","","","","",""
"null","556495","SARL_v6","SARL_v6sy4y7utl","58a1fe40ea3d11000170d9b9","freq_resp","","","img/orange_2bandit_a.png","70","img/orange_2bandit_a.png","70","test","","","","","","","","","","","2","","","","","","","","",""
"null","556649","SARL_v6","SARL_v6sy4y7utl","58a1fe40ea3d11000170d9b9","fixation","","","img/fixation.png","null","","","test","","","","","","","","","","","","","","","","","","","",""
"342","556993","SARL_v6","SARL_v6sy4y7utl","58a1fe40ea3d11000170d9b9","infreq","","","img/blue_2bandit_a2.png","68","","68","test","1","","42","","","","square","circle","41","15","2","0.926829268292683","","","","","","","",""
"null","557456","SARL_v6","SARL_v6sy4y7utl","58a1fe40ea3d11000170d9b9","infreq_resp","","","img/blue_2bandit_a.png","68","img/blue_2bandit_a.png","68","test","","","","","","","","","","","2","","","","","","","","",""
"null","557610","SARL_v6","SARL_v6sy4y7utl","58a1fe40ea3d11000170d9b9","fixation","","","img/fixation.png","null","","","test","","","","","","","","","","","","","","","","","","","",""
"573","558185","SARL_v6","SARL_v6sy4y7utl","58a1fe40ea3d11000170d9b9","freq","","","img/orange_2bandit_a2.png","70","","70","test","1","","43","","","","square","circle","42","16","2","0.9285714285714286","","","","","","","",""
"null","558414","SARL_v6","SARL_v6sy4y7utl","58a1fe40ea3d11000170d9b9","freq_resp","","","img/orange_2bandit_a.png","70","img/orange_2bandit_a.png","70","test","","","","","","","","","","","2","","","","","","","","",""
"null","558567","SARL_v6","SARL_v6sy4y7utl","58a1fe40ea3d11000170d9b9","fixation","","","img/fixation.png","null","","","test","","","","","","","","","","","","","","","","","","","",""
"479","559049","SARL_v6","SARL_v6sy4y7utl","58a1fe40ea3d11000170d9b9","freq","","","img/orange_2bandit_a2.png","70","","70","test","1","","44","","","","square","circle","43","17","2","0.9302325581395349","","","","","","","",""
"null","559375","SARL_v6","SARL_v6sy4y7utl","58a1fe40ea3d11000170d9b9","freq_resp","","","img/orange_2bandit_a.png","70","img/orange_2bandit_a.png","70","test","","","","","","","","","","","2","","","","","","","","",""
"null","559529","SARL_v6","SARL_v6sy4y7utl","58a1fe40ea3d11000170d9b9","fixation","","","img/fixation.png","null","","","test","","","","","","","","","","","","","","","","","","","",""
"327","559856","SARL_v6","SARL_v6sy4y7utl","58a1fe40ea3d11000170d9b9","freq","","","img/orange_2bandit_a2.png","68","","70","test","0","","45","","","","square","circle","44","18","2","0.9090909090909091","","","","","","","",""
"null","560332","SARL_v6","SARL_v6sy4y7utl","58a1fe40ea3d11000170d9b9","freq_resp","","","img/orange_2bandit_a.png","68","img/orange_2bandit_a.png","70","test","","","","","","","","","","","2","","","","","","","","",""
"null","560489","SARL_v6","SARL_v6sy4y7utl","58a1fe40ea3d11000170d9b9","fixation","","","img/fixation.png","null","","","test","","","","","","","","","","","","","","","","","","","",""
"694","561185","SARL_v6","SARL_v6sy4y7utl","58a1fe40ea3d11000170d9b9","freq","","","img/orange_2bandit_a2.png","70","","70","test","1","","46","","","","square","circle","45","19","2","0.9111111111111111","","","","","","","",""
"null","561293","SARL_v6","SARL_v6sy4y7utl","58a1fe40ea3d11000170d9b9","freq_resp","","","img/orange_2bandit_a.png","70","img/orange_2bandit_a.png","70","test","","","","","","","","","","","2","","","","","","","","",""
"null","561446","SARL_v6","SARL_v6sy4y7utl","58a1fe40ea3d11000170d9b9","fixation","","","img/fixation.png","null","","","test","","","","","","","","","","","","","","","","","","","",""
"729","562176","SARL_v6","SARL_v6sy4y7utl","58a1fe40ea3d11000170d9b9","freq","","","img/orange_2bandit_a2.png","70","","70","test","1","","47","","","","square","circle","46","20","2","0.9130434782608695","","","","","","","",""
"null","562251","SARL_v6","SARL_v6sy4y7utl","58a1fe40ea3d11000170d9b9","freq_resp","","","img/orange_2bandit_a.png","70","img/orange_2bandit_a.png","70","test","","","","","","","","","","","2","","","","","","","","",""
"null","562408","SARL_v6","SARL_v6sy4y7utl","58a1fe40ea3d11000170d9b9","fixation","","","img/fixation.png","null","","","test","","","","","","","","","","","","","","","","","","","",""
"383","562793","SARL_v6","SARL_v6sy4y7utl","58a1fe40ea3d11000170d9b9","freq","","","img/orange_2bandit_a2.png","70","","70","test","1","","48","","","","square","circle","47","21","2","0.9148936170212766","","","","","","","",""
"null","563211","SARL_v6","SARL_v6sy4y7utl","58a1fe40ea3d11000170d9b9","freq_resp","","","img/orange_2bandit_a.png","70","img/orange_2bandit_a.png","70","test","","","","","","","","","","","2","","","","","","","","",""
"null","563368","SARL_v6","SARL_v6sy4y7utl","58a1fe40ea3d11000170d9b9","fixation","","","img/fixation.png","null","","","test","","","","","","","","","","","","","","","","","","","",""
"358","563729","SARL_v6","SARL_v6sy4y7utl","58a1fe40ea3d11000170d9b9","freq","","","img/orange_2bandit_a2.png","70","","70","test","1","","49","","","","square","circle","48","22","2","0.9166666666666666","","","","","","","",""
"null","564175","SARL_v6","SARL_v6sy4y7utl","58a1fe40ea3d11000170d9b9","freq_resp","","","img/orange_2bandit_a.png","70","img/orange_2bandit_a.png","70","test","","","","","","","","","","","2","","","","","","","","",""
"null","564329","SARL_v6","SARL_v6sy4y7utl","58a1fe40ea3d11000170d9b9","fixation","","","img/fixation.png","null","","","test","","","","","","","","","","","","","","","","","","","",""
"391","564721","SARL_v6","SARL_v6sy4y7utl","58a1fe40ea3d11000170d9b9","freq","","","img/orange_2bandit_a2.png","70","","70","test","1","","50","","","","square","circle","49","23","2","0.9183673469387755","","","","","","","",""
"null","565136","SARL_v6","SARL_v6sy4y7utl","58a1fe40ea3d11000170d9b9","freq_resp","","","img/orange_2bandit_a.png","70","img/orange_2bandit_a.png","70","test","","","","","","","","","","","2","","","","","","","","",""
"null","565290","SARL_v6","SARL_v6sy4y7utl","58a1fe40ea3d11000170d9b9","fixation","","","img/fixation.png","null","","","test","","","","","","","","","","","","","","","","","","","",""
"309","565601","SARL_v6","SARL_v6sy4y7utl","58a1fe40ea3d11000170d9b9","freq","","","img/orange_2bandit_a2.png","70","","70","test","1","","51","","","","square","circle","50","24","2","0.92","","","","","","","",""
"null","566094","SARL_v6","SARL_v6sy4y7utl","58a1fe40ea3d11000170d9b9","freq_resp","","","img/orange_2bandit_a.png","70","img/orange_2bandit_a.png","70","test","","","","","","","","","","","2","","","","","","","","",""
"null","566251","SARL_v6","SARL_v6sy4y7utl","58a1fe40ea3d11000170d9b9","fixation","","","img/fixation.png","null","","","test","","","","","","","","","","","","","","","","","","","",""
"541","566793","SARL_v6","SARL_v6sy4y7utl","58a1fe40ea3d11000170d9b9","rl","","","img/black_2bandit_a2.png","75","","0","test","","","52","","","-8","square","circle","","0","2","","75","-8","-5","-5","-8","circle","2","0"
"null","567545","SARL_v6","SARL_v6sy4y7utl","58a1fe40ea3d11000170d9b9","feedback","","","<div class=""verylowPoints""> -8 </div>","null","","na","test","","","NaN","","","","","","","","2","","75","","","","","","2",""
"350","567897","SARL_v6","SARL_v6sy4y7utl","58a1fe40ea3d11000170d9b9","freq","","","img/orange_2bandit_a2.png","70","","70","test","1","","53","","","","square","circle","51","1","3","0.9215686274509803","","","","","","","",""
"null","568349","SARL_v6","SARL_v6sy4y7utl","58a1fe40ea3d11000170d9b9","freq_resp","","","img/orange_2bandit_a.png","70","img/orange_2bandit_a.png","70","test","","","","","","","","","","","3","","","","","","","","",""
"null","568503","SARL_v6","SARL_v6sy4y7utl","58a1fe40ea3d11000170d9b9","fixation","","","img/fixation.png","null","","","test","","","","","","","","","","","","","","","","","","","",""
"384","568889","SARL_v6","SARL_v6sy4y7utl","58a1fe40ea3d11000170d9b9","freq","","","img/orange_2bandit_a2.png","70","","70","test","1","","54","","","","square","circle","52","2","3","0.9230769230769231","","","","","","","",""
"null","569306","SARL_v6","SARL_v6sy4y7utl","58a1fe40ea3d11000170d9b9","freq_resp","","","img/orange_2bandit_a.png","70","img/orange_2bandit_a.png","70","test","","","","","","","","","","","3","","","","","","","","",""
"null","569461","SARL_v6","SARL_v6sy4y7utl","58a1fe40ea3d11000170d9b9","fixation","","","img/fixation.png","null","","","test","","","","","","","","","","","","","","","","","","","",""
"402","569865","SARL_v6","SARL_v6sy4y7utl","58a1fe40ea3d11000170d9b9","freq","","","img/orange_2bandit_a2.png","70","","70","test","1","","55","","","","square","circle","53","3","3","0.9245283018867925","","","","","","","",""
"null","570265","SARL_v6","SARL_v6sy4y7utl","58a1fe40ea3d11000170d9b9","freq_resp","","","img/orange_2bandit_a.png","70","img/orange_2bandit_a.png","70","test","","","","","","","","","","","3","","","","","","","","",""
"null","570419","SARL_v6","SARL_v6sy4y7utl","58a1fe40ea3d11000170d9b9","fixation","","","img/fixation.png","null","","","test","","","","","","","","","","","","","","","","","","","",""
"362","570787","SARL_v6","SARL_v6sy4y7utl","58a1fe40ea3d11000170d9b9","freq","","","img/orange_2bandit_a2.png","70","","70","test","1","","56","","","","square","circle","54","4","3","0.9259259259259259","","","","","","","",""
"null","571229","SARL_v6","SARL_v6sy4y7utl","58a1fe40ea3d11000170d9b9","freq_resp","","","img/orange_2bandit_a.png","70","img/orange_2bandit_a.png","70","test","","","","","","","","","","","3","","","","","","","","",""
"null","571383","SARL_v6","SARL_v6sy4y7utl","58a1fe40ea3d11000170d9b9","fixation","","","img/fixation.png","null","","","test","","","","","","","","","","","","","","","","","","","",""
"368","571753","SARL_v6","SARL_v6sy4y7utl","58a1fe40ea3d11000170d9b9","freq","","","img/orange_2bandit_a2.png","70","","70","test","1","","57","","","","square","circle","55","5","3","0.9272727272727272","","","","","","","",""
"null","572192","SARL_v6","SARL_v6sy4y7utl","58a1fe40ea3d11000170d9b9","freq_resp","","","img/orange_2bandit_a.png","70","img/orange_2bandit_a.png","70","test","","","","","","","","","","","3","","","","","","","","",""
"null","572346","SARL_v6","SARL_v6sy4y7utl","58a1fe40ea3d11000170d9b9","fixation","","","img/fixation.png","null","","","test","","","","","","","","","","","","","","","","","","","",""
"356","572705","SARL_v6","SARL_v6sy4y7utl","58a1fe40ea3d11000170d9b9","freq","","","img/orange_2bandit_a2.png","70","","70","test","1","","58","","","","square","circle","56","6","3","0.9285714285714286","","","","","","","",""
"null","573151","SARL_v6","SARL_v6sy4y7utl","58a1fe40ea3d11000170d9b9","freq_resp","","","img/orange_2bandit_a.png","70","img/orange_2bandit_a.png","70","test","","","","","","","","","","","3","","","","","","","","",""
"null","573303","SARL_v6","SARL_v6sy4y7utl","58a1fe40ea3d11000170d9b9","fixation","","","img/fixation.png","null","","","test","","","","","","","","","","","","","","","","","","","",""
"311","573617","SARL_v6","SARL_v6sy4y7utl","58a1fe40ea3d11000170d9b9","freq","","","img/orange_2bandit_a2.png","70","","70","test","1","","59","","","","square","circle","57","7","3","0.9298245614035088","","","","","","","",""
"null","574111","SARL_v6","SARL_v6sy4y7utl","58a1fe40ea3d11000170d9b9","freq_resp","","","img/orange_2bandit_a.png","70","img/orange_2bandit_a.png","70","test","","","","","","","","","","","3","","","","","","","","",""
"null","574267","SARL_v6","SARL_v6sy4y7utl","58a1fe40ea3d11000170d9b9","fixation","","","img/fixation.png","null","","","test","","","","","","","","","","","","","","","","","","","",""
"484","574753","SARL_v6","SARL_v6sy4y7utl","58a1fe40ea3d11000170d9b9","infreq","","","img/blue_2bandit_a2.png","68","","68","test","1","","60","","","","square","circle","58","8","3","0.9310344827586207","","","","","","","",""
"null","575071","SARL_v6","SARL_v6sy4y7utl","58a1fe40ea3d11000170d9b9","infreq_resp","","","img/blue_2bandit_a.png","68","img/blue_2bandit_a.png","68","test","","","","","","","","","","","3","","","","","","","","",""
"null","575228","SARL_v6","SARL_v6sy4y7utl","58a1fe40ea3d11000170d9b9","fixation","","","img/fixation.png","null","","","test","","","","","","","","","","","","","","","","","","","",""
"451","575681","SARL_v6","SARL_v6sy4y7utl","58a1fe40ea3d11000170d9b9","infreq","","","img/blue_2bandit_a2.png","68","","68","test","1","","61","","","","square","circle","59","9","3","0.9322033898305084","","","","","","","",""
"null","576032","SARL_v6","SARL_v6sy4y7utl","58a1fe40ea3d11000170d9b9","infreq_resp","","","img/blue_2bandit_a.png","68","img/blue_2bandit_a.png","68","test","","","","","","","","","","","3","","","","","","","","",""
"null","576188","SARL_v6","SARL_v6sy4y7utl","58a1fe40ea3d11000170d9b9","fixation","","","img/fixation.png","null","","","test","","","","","","","","","","","","","","","","","","","",""
"395","576585","SARL_v6","SARL_v6sy4y7utl","58a1fe40ea3d11000170d9b9","freq","","","img/orange_2bandit_a2.png","70","","70","test","1","","62","","","","square","circle","60","10","3","0.9333333333333333","","","","","","","",""
"null","576993","SARL_v6","SARL_v6sy4y7utl","58a1fe40ea3d11000170d9b9","freq_resp","","","img/orange_2bandit_a.png","70","img/orange_2bandit_a.png","70","test","","","","","","","","","","","3","","","","","","","","",""
"null","577147","SARL_v6","SARL_v6sy4y7utl","58a1fe40ea3d11000170d9b9","fixation","","","img/fixation.png","null","","","test","","","","","","","","","","","","","","","","","","","",""
"301","577449","SARL_v6","SARL_v6sy4y7utl","58a1fe40ea3d11000170d9b9","freq","","","img/orange_2bandit_a2.png","70","","70","test","1","","63","","","","square","circle","61","11","3","0.9344262295081968","","","","","","","",""
"null","577953","SARL_v6","SARL_v6sy4y7utl","58a1fe40ea3d11000170d9b9","freq_resp","","","img/orange_2bandit_a.png","70","img/orange_2bandit_a.png","70","test","","","","","","","","","","","3","","","","","","","","",""
"null","578107","SARL_v6","SARL_v6sy4y7utl","58a1fe40ea3d11000170d9b9","fixation","","","img/fixation.png","null","","","test","","","","","","","","","","","","","","","","","","","",""
"340","578449","SARL_v6","SARL_v6sy4y7utl","58a1fe40ea3d11000170d9b9","freq","","","img/orange_2bandit_a2.png","70","","70","test","1","","64","","","","square","circle","62","12","3","0.9354838709677419","","","","","","","",""
"null","578915","SARL_v6","SARL_v6sy4y7utl","58a1fe40ea3d11000170d9b9","freq_resp","","","img/orange_2bandit_a.png","70","img/orange_2bandit_a.png","70","test","","","","","","","","","","","3","","","","","","","","",""
"null","579068","SARL_v6","SARL_v6sy4y7utl","58a1fe40ea3d11000170d9b9","fixation","","","img/fixation.png","null","","","test","","","","","","","","","","","","","","","","","","","",""
"435","579504","SARL_v6","SARL_v6sy4y7utl","58a1fe40ea3d11000170d9b9","freq","","","img/orange_2bandit_a2.png","70","","70","test","1","","65","","","","square","circle","63","13","3","0.9365079365079365","","","","","","","",""
"null","579874","SARL_v6","SARL_v6sy4y7utl","58a1fe40ea3d11000170d9b9","freq_resp","","","img/orange_2bandit_a.png","70","img/orange_2bandit_a.png","70","test","","","","","","","","","","","3","","","","","","","","",""
"null","580032","SARL_v6","SARL_v6sy4y7utl","58a1fe40ea3d11000170d9b9","fixation","","","img/fixation.png","null","","","test","","","","","","","","","","","","","","","","","","","",""
"471","580505","SARL_v6","SARL_v6sy4y7utl","58a1fe40ea3d11000170d9b9","freq","","","img/orange_2bandit_a2.png","70","","70","test","1","","66","","","","square","circle","64","14","3","0.9375","","","","","","","",""
"null","580839","SARL_v6","SARL_v6sy4y7utl","58a1fe40ea3d11000170d9b9","freq_resp","","","img/orange_2bandit_a.png","70","img/orange_2bandit_a.png","70","test","","","","","","","","","","","3","","","","","","","","",""
"null","580992","SARL_v6","SARL_v6sy4y7utl","58a1fe40ea3d11000170d9b9","fixation","","","img/fixation.png","null","","","test","","","","","","","","","","","","","","","","","","","",""
"487","581480","SARL_v6","SARL_v6sy4y7utl","58a1fe40ea3d11000170d9b9","freq","","","img/orange_2bandit_a2.png","70","","70","test","1","","67","","","","square","circle","65","15","3","0.9384615384615385","","","","","","","",""
"null","581796","SARL_v6","SARL_v6sy4y7utl","58a1fe40ea3d11000170d9b9","freq_resp","","","img/orange_2bandit_a.png","70","img/orange_2bandit_a.png","70","test","","","","","","","","","","","3","","","","","","","","",""
"null","581950","SARL_v6","SARL_v6sy4y7utl","58a1fe40ea3d11000170d9b9","fixation","","","img/fixation.png","null","","","test","","","","","","","","","","","","","","","","","","","",""
"377","582329","SARL_v6","SARL_v6sy4y7utl","58a1fe40ea3d11000170d9b9","freq","","","img/orange_2bandit_a2.png","70","","70","test","1","","68","","","","square","circle","66","16","3","0.9393939393939394","","","","","","","",""
"null","582754","SARL_v6","SARL_v6sy4y7utl","58a1fe40ea3d11000170d9b9","freq_resp","","","img/orange_2bandit_a.png","70","img/orange_2bandit_a.png","70","test","","","","","","","","","","","3","","","","","","","","",""
"null","582908","SARL_v6","SARL_v6sy4y7utl","58a1fe40ea3d11000170d9b9","fixation","","","img/fixation.png","null","","","test","","","","","","","","","","","","","","","","","","","",""
"523","583433","SARL_v6","SARL_v6sy4y7utl","58a1fe40ea3d11000170d9b9","freq","","","img/orange_2bandit_a2.png","70","","70","test","1","","69","","","","square","circle","67","17","3","0.9402985074626866","","","","","","","",""
"null","583712","SARL_v6","SARL_v6sy4y7utl","58a1fe40ea3d11000170d9b9","freq_resp","","","img/orange_2bandit_a.png","70","img/orange_2bandit_a.png","70","test","","","","","","","","","","","3","","","","","","","","",""
"null","583866","SARL_v6","SARL_v6sy4y7utl","58a1fe40ea3d11000170d9b9","fixation","","","img/fixation.png","null","","","test","","","","","","","","","","","","","","","","","","","",""
"436","584305","SARL_v6","SARL_v6sy4y7utl","58a1fe40ea3d11000170d9b9","freq","","","img/orange_2bandit_a2.png","70","","70","test","1","","70","","","","square","circle","68","18","3","0.9411764705882353","","","","","","","",""
"null","584673","SARL_v6","SARL_v6sy4y7utl","58a1fe40ea3d11000170d9b9","freq_resp","","","img/orange_2bandit_a.png","70","img/orange_2bandit_a.png","70","test","","","","","","","","","","","3","","","","","","","","",""
"null","584826","SARL_v6","SARL_v6sy4y7utl","58a1fe40ea3d11000170d9b9","fixation","","","img/fixation.png","null","","","test","","","","","","","","","","","","","","","","","","","",""
"500","585328","SARL_v6","SARL_v6sy4y7utl","58a1fe40ea3d11000170d9b9","freq","","","img/orange_2bandit_a2.png","70","","70","test","1","","71","","","","square","circle","69","19","3","0.9420289855072463","","","","","","","",""
"null","585630","SARL_v6","SARL_v6sy4y7utl","58a1fe40ea3d11000170d9b9","freq_resp","","","img/orange_2bandit_a.png","70","img/orange_2bandit_a.png","70","test","","","","","","","","","","","3","","","","","","","","",""
"null","585787","SARL_v6","SARL_v6sy4y7utl","58a1fe40ea3d11000170d9b9","fixation","","","img/fixation.png","null","","","test","","","","","","","","","","","","","","","","","","","",""
"419","586209","SARL_v6","SARL_v6sy4y7utl","58a1fe40ea3d11000170d9b9","freq","","","img/orange_2bandit_a2.png","70","","70","test","1","","72","","","","square","circle","70","20","3","0.9428571428571428","","","","","","","",""
"null","586595","SARL_v6","SARL_v6sy4y7utl","58a1fe40ea3d11000170d9b9","freq_resp","","","img/orange_2bandit_a.png","70","img/orange_2bandit_a.png","70","test","","","","","","","","","","","3","","","","","","","","",""
"null","586750","SARL_v6","SARL_v6sy4y7utl","58a1fe40ea3d11000170d9b9","fixation","","","img/fixation.png","null","","","test","","","","","","","","","","","","","","","","","","","",""
"336","587089","SARL_v6","SARL_v6sy4y7utl","58a1fe40ea3d11000170d9b9","freq","","","img/orange_2bandit_a2.png","70","","70","test","1","","73","","","","square","circle","71","21","3","0.9436619718309859","","","","","","","",""
"null","587555","SARL_v6","SARL_v6sy4y7utl","58a1fe40ea3d11000170d9b9","freq_resp","","","img/orange_2bandit_a.png","70","img/orange_2bandit_a.png","70","test","","","","","","","","","","","3","","","","","","","","",""
"null","587711","SARL_v6","SARL_v6sy4y7utl","58a1fe40ea3d11000170d9b9","fixation","","","img/fixation.png","null","","","test","","","","","","","","","","","","","","","","","","","",""
"343","588057","SARL_v6","SARL_v6sy4y7utl","58a1fe40ea3d11000170d9b9","freq","","","img/orange_2bandit_a2.png","70","","70","test","1","","74","","","","square","circle","72","22","3","0.9444444444444444","","","","","","","",""
"null","588516","SARL_v6","SARL_v6sy4y7utl","58a1fe40ea3d11000170d9b9","freq_resp","","","img/orange_2bandit_a.png","70","img/orange_2bandit_a.png","70","test","","","","","","","","","","","3","","","","","","","","",""
"null","588670","SARL_v6","SARL_v6sy4y7utl","58a1fe40ea3d11000170d9b9","fixation","","","img/fixation.png","null","","","test","","","","","","","","","","","","","","","","","","","",""
"393","589064","SARL_v6","SARL_v6sy4y7utl","58a1fe40ea3d11000170d9b9","rl","","","img/black_2bandit_a2.png","75","","0","test","","","75","","","-8","square","circle","","0","3","","75","-8","-4","-4","-8","circle","3","0"
"null","589818","SARL_v6","SARL_v6sy4y7utl","58a1fe40ea3d11000170d9b9","feedback","","","<div class=""verylowPoints""> -8 </div>","null","","na","test","","","NaN","","","","","","","","3","","75","","","","","","3",""
"309","590128","SARL_v6","SARL_v6sy4y7utl","58a1fe40ea3d11000170d9b9","freq","","","img/orange_2bandit_a2.png","70","","70","test","1","","76","","","","square","circle","73","1","4","0.9452054794520548","","","","","","","",""
"null","590623","SARL_v6","SARL_v6sy4y7utl","58a1fe40ea3d11000170d9b9","freq_resp","","","img/orange_2bandit_a.png","70","img/orange_2bandit_a.png","70","test","","","","","","","","","","","4","","","","","","","","",""
"null","590776","SARL_v6","SARL_v6sy4y7utl","58a1fe40ea3d11000170d9b9","fixation","","","img/fixation.png","null","","","test","","","","","","","","","","","","","","","","","","","",""
"262","591040","SARL_v6","SARL_v6sy4y7utl","58a1fe40ea3d11000170d9b9","freq","","","img/orange_2bandit_a2.png","70","","70","test","1","","77","","","","square","circle","74","2","4","0.9459459459459459","","","","","","","",""
"null","591584","SARL_v6","SARL_v6sy4y7utl","58a1fe40ea3d11000170d9b9","freq_resp","","","img/orange_2bandit_a.png","70","img/orange_2bandit_a.png","70","test","","","","","","","","","","","4","","","","","","","","",""
"null","591737","SARL_v6","SARL_v6sy4y7utl","58a1fe40ea3d11000170d9b9","fixation","","","img/fixation.png","null","","","test","","","","","","","","","","","","","","","","","","","",""
"317","592057","SARL_v6","SARL_v6sy4y7utl","58a1fe40ea3d11000170d9b9","freq","","","img/orange_2bandit_a2.png","70","","70","test","1","","78","","","","square","circle","75","3","4","0.9466666666666667","","","","","","","",""
"null","592544","SARL_v6","SARL_v6sy4y7utl","58a1fe40ea3d11000170d9b9","freq_resp","","","img/orange_2bandit_a.png","70","img/orange_2bandit_a.png","70","test","","","","","","","","","","","4","","","","","","","","",""
"null","592701","SARL_v6","SARL_v6sy4y7utl","58a1fe40ea3d11000170d9b9","fixation","","","img/fixation.png","null","","","test","","","","","","","","","","","","","","","","","","","",""
"186","592889","SARL_v6","SARL_v6sy4y7utl","58a1fe40ea3d11000170d9b9","freq","","","img/orange_2bandit_a2.png","70","","70","test","1","","79","","","","square","circle","76","4","4","0.9473684210526315","","","","","","","",""
"null","593508","SARL_v6","SARL_v6sy4y7utl","58a1fe40ea3d11000170d9b9","freq_resp","","","img/orange_2bandit_a.png","70","img/orange_2bandit_a.png","70","test","","","","","","","","","","","4","","","","","","","","",""
"null","593664","SARL_v6","SARL_v6sy4y7utl","58a1fe40ea3d11000170d9b9","fixation","","","img/fixation.png","null","","","test","","","","","","","","","","","","","","","","","","","",""
"303","593969","SARL_v6","SARL_v6sy4y7utl","58a1fe40ea3d11000170d9b9","freq","","","img/orange_2bandit_a2.png","70","","70","test","1","","80","","","","square","circle","77","5","4","0.948051948051948","","","","","","","",""
"null","594471","SARL_v6","SARL_v6sy4y7utl","58a1fe40ea3d11000170d9b9","freq_resp","","","img/orange_2bandit_a.png","70","img/orange_2bandit_a.png","70","test","","","","","","","","","","","4","","","","","","","","",""
"null","594628","SARL_v6","SARL_v6sy4y7utl","58a1fe40ea3d11000170d9b9","fixation","","","img/fixation.png","null","","","test","","","","","","","","","","","","","","","","","","","",""
"506","595137","SARL_v6","SARL_v6sy4y7utl","58a1fe40ea3d11000170d9b9","infreq","","","img/blue_2bandit_a2.png","68","","68","test","1","","81","","","","square","circle","78","6","4","0.9487179487179487","","","","","","","",""
"null","595435","SARL_v6","SARL_v6sy4y7utl","58a1fe40ea3d11000170d9b9","infreq_resp","","","img/blue_2bandit_a.png","68","img/blue_2bandit_a.png","68","test","","","","","","","","","","","4","","","","","","","","",""
"null","595592","SARL_v6","SARL_v6sy4y7utl","58a1fe40ea3d11000170d9b9","fixation","","","img/fixation.png","null","","","test","","","","","","","","","","","","","","","","","","","",""
"383","595976","SARL_v6","SARL_v6sy4y7utl","58a1fe40ea3d11000170d9b9","freq","","","img/orange_2bandit_a2.png","70","","70","test","1","","82","","","","square","circle","79","7","4","0.9493670886075949","","","","","","","",""
"null","596396","SARL_v6","SARL_v6sy4y7utl","58a1fe40ea3d11000170d9b9","freq_resp","","","img/orange_2bandit_a.png","70","img/orange_2bandit_a.png","70","test","","","","","","","","","","","4","","","","","","","","",""
"null","596552","SARL_v6","SARL_v6sy4y7utl","58a1fe40ea3d11000170d9b9","fixation","","","img/fixation.png","null","","","test","","","","","","","","","","","","","","","","","","","",""
"278","596832","SARL_v6","SARL_v6sy4y7utl","58a1fe40ea3d11000170d9b9","freq","","","img/orange_2bandit_a2.png","70","","70","test","1","","83","","","","square","circle","80","8","4","0.95","","","","","","","",""
"null","597359","SARL_v6","SARL_v6sy4y7utl","58a1fe40ea3d11000170d9b9","freq_resp","","","img/orange_2bandit_a.png","70","img/orange_2bandit_a.png","70","test","","","","","","","","","","","4","","","","","","","","",""
"null","597516","SARL_v6","SARL_v6sy4y7utl","58a1fe40ea3d11000170d9b9","fixation","","","img/fixation.png","null","","","test","","","","","","","","","","","","","","","","","","","",""
"187","597704","SARL_v6","SARL_v6sy4y7utl","58a1fe40ea3d11000170d9b9","freq","","","img/orange_2bandit_a2.png","70","","70","test","1","","84","","","","square","circle","81","9","4","0.9506172839506173","","","","","","","",""
"null","598320","SARL_v6","SARL_v6sy4y7utl","58a1fe40ea3d11000170d9b9","freq_resp","","","img/orange_2bandit_a.png","70","img/orange_2bandit_a.png","70","test","","","","","","","","","","","4","","","","","","","","",""
"null","598474","SARL_v6","SARL_v6sy4y7utl","58a1fe40ea3d11000170d9b9","fixation","","","img/fixation.png","null","","","test","","","","","","","","","","","","","","","","","","","",""
"307","598784","SARL_v6","SARL_v6sy4y7utl","58a1fe40ea3d11000170d9b9","freq","","","img/orange_2bandit_a2.png","70","","70","test","1","","85","","","","square","circle","82","10","4","0.9512195121951219","","","","","","","",""
"null","599284","SARL_v6","SARL_v6sy4y7utl","58a1fe40ea3d11000170d9b9","freq_resp","","","img/orange_2bandit_a.png","70","img/orange_2bandit_a.png","70","test","","","","","","","","","","","4","","","","","","","","",""
"null","599436","SARL_v6","SARL_v6sy4y7utl","58a1fe40ea3d11000170d9b9","fixation","","","img/fixation.png","null","","","test","","","","","","","","","","","","","","","","","","","",""
"321","599760","SARL_v6","SARL_v6sy4y7utl","58a1fe40ea3d11000170d9b9","freq","","","img/orange_2bandit_a2.png","70","","70","test","1","","86","","","","square","circle","83","11","4","0.9518072289156626","","","","","","","",""
"null","600244","SARL_v6","SARL_v6sy4y7utl","58a1fe40ea3d11000170d9b9","freq_resp","","","img/orange_2bandit_a.png","70","img/orange_2bandit_a.png","70","test","","","","","","","","","","","4","","","","","","","","",""
"null","600401","SARL_v6","SARL_v6sy4y7utl","58a1fe40ea3d11000170d9b9","fixation","","","img/fixation.png","null","","","test","","","","","","","","","","","","","","","","","","","",""
"261","600664","SARL_v6","SARL_v6sy4y7utl","58a1fe40ea3d11000170d9b9","freq","","","img/orange_2bandit_a2.png","70","","70","test","1","","87","","","","square","circle","84","12","4","0.9523809523809523","","","","","","","",""
"null","601207","SARL_v6","SARL_v6sy4y7utl","58a1fe40ea3d11000170d9b9","freq_resp","","","img/orange_2bandit_a.png","70","img/orange_2bandit_a.png","70","test","","","","","","","","","","","4","","","","","","","","",""
"null","601362","SARL_v6","SARL_v6sy4y7utl","58a1fe40ea3d11000170d9b9","fixation","","","img/fixation.png","null","","","test","","","","","","","","","","","","","","","","","","","",""
"597","601961","SARL_v6","SARL_v6sy4y7utl","58a1fe40ea3d11000170d9b9","infreq","","","img/blue_2bandit_a2.png","68","","68","test","1","","88","","","","square","circle","85","13","4","0.9529411764705882","","","","","","","",""
"null","602168","SARL_v6","SARL_v6sy4y7utl","58a1fe40ea3d11000170d9b9","infreq_resp","","","img/blue_2bandit_a.png","68","img/blue_2bandit_a.png","68","test","","","","","","","","","","","4","","","","","","","","",""
"null","602322","SARL_v6","SARL_v6sy4y7utl","58a1fe40ea3d11000170d9b9","fixation","","","img/fixation.png","null","","","test","","","","","","","","","","","","","","","","","","","",""
"420","602744","SARL_v6","SARL_v6sy4y7utl","58a1fe40ea3d11000170d9b9","freq","","","img/orange_2bandit_a2.png","70","","70","test","1","","89","","","","square","circle","86","14","4","0.9534883720930233","","","","","","","",""
"null","603130","SARL_v6","SARL_v6sy4y7utl","58a1fe40ea3d11000170d9b9","freq_resp","","","img/orange_2bandit_a.png","70","img/orange_2bandit_a.png","70","test","","","","","","","","","","","4","","","","","","","","",""
"null","603286","SARL_v6","SARL_v6sy4y7utl","58a1fe40ea3d11000170d9b9","fixation","","","img/fixation.png","null","","","test","","","","","","","","","","","","","","","","","","","",""
"576","603864","SARL_v6","SARL_v6sy4y7utl","58a1fe40ea3d11000170d9b9","freq","","","img/orange_2bandit_a2.png","70","","70","test","1","","90","","","","square","circle","87","15","4","0.9540229885057471","","","","","","","",""
"null","604093","SARL_v6","SARL_v6sy4y7utl","58a1fe40ea3d11000170d9b9","freq_resp","","","img/orange_2bandit_a.png","70","img/orange_2bandit_a.png","70","test","","","","","","","","","","","4","","","","","","","","",""
"null","604246","SARL_v6","SARL_v6sy4y7utl","58a1fe40ea3d11000170d9b9","fixation","","","img/fixation.png","null","","","test","","","","","","","","","","","","","","","","","","","",""
"552","604800","SARL_v6","SARL_v6sy4y7utl","58a1fe40ea3d11000170d9b9","freq","","","img/orange_2bandit_a2.png","70","","70","test","1","","91","","","","square","circle","88","16","4","0.9545454545454546","","","","","","","",""
"null","605051","SARL_v6","SARL_v6sy4y7utl","58a1fe40ea3d11000170d9b9","freq_resp","","","img/orange_2bandit_a.png","70","img/orange_2bandit_a.png","70","test","","","","","","","","","","","4","","","","","","","","",""
"null","605207","SARL_v6","SARL_v6sy4y7utl","58a1fe40ea3d11000170d9b9","fixation","","","img/fixation.png","null","","","test","","","","","","","","","","","","","","","","","","","",""
"575","605784","SARL_v6","SARL_v6sy4y7utl","58a1fe40ea3d11000170d9b9","freq","","","img/orange_2bandit_a2.png","70","","70","test","1","","92","","","","square","circle","89","17","4","0.9550561797752809","","","","","","","",""
"null","606011","SARL_v6","SARL_v6sy4y7utl","58a1fe40ea3d11000170d9b9","freq_resp","","","img/orange_2bandit_a.png","70","img/orange_2bandit_a.png","70","test","","","","","","","","","","","4","","","","","","","","",""
"null","606166","SARL_v6","SARL_v6sy4y7utl","58a1fe40ea3d11000170d9b9","fixation","","","img/fixation.png","null","","","test","","","","","","","","","","","","","","","","","","","",""
"689","606857","SARL_v6","SARL_v6sy4y7utl","58a1fe40ea3d11000170d9b9","freq","","","img/orange_2bandit_a2.png","70","","70","test","1","","93","","","","square","circle","90","18","4","0.9555555555555556","","","","","","","",""
"null","606972","SARL_v6","SARL_v6sy4y7utl","58a1fe40ea3d11000170d9b9","freq_resp","","","img/orange_2bandit_a.png","70","img/orange_2bandit_a.png","70","test","","","","","","","","","","","4","","","","","","","","",""
"null","607129","SARL_v6","SARL_v6sy4y7utl","58a1fe40ea3d11000170d9b9","fixation","","","img/fixation.png","null","","","test","","","","","","","","","","","","","","","","","","","",""
"398","607529","SARL_v6","SARL_v6sy4y7utl","58a1fe40ea3d11000170d9b9","freq","","","img/orange_2bandit_a2.png","70","","70","test","1","","94","","","","square","circle","91","19","4","0.9560439560439561","","","","","","","",""
"null","607933","SARL_v6","SARL_v6sy4y7utl","58a1fe40ea3d11000170d9b9","freq_resp","","","img/orange_2bandit_a.png","70","img/orange_2bandit_a.png","70","test","","","","","","","","","","","4","","","","","","","","",""
"null","608087","SARL_v6","SARL_v6sy4y7utl","58a1fe40ea3d11000170d9b9","fixation","","","img/fixation.png","null","","","test","","","","","","","","","","","","","","","","","","","",""
"624","608712","SARL_v6","SARL_v6sy4y7utl","58a1fe40ea3d11000170d9b9","rl","","","img/black_2bandit_a2.png","74","","0","test","","","95","","","0","square","circle","","0","4","","74","-12","0","0","-12","square","4","0"
"null","609468","SARL_v6","SARL_v6sy4y7utl","58a1fe40ea3d11000170d9b9","feedback","","","<div class=""verylowPoints_sq""> 0 </div>","null","","na","test","","","NaN","","","","","","","","4","","74","","","","","","4",""
"393","609865","SARL_v6","SARL_v6sy4y7utl","58a1fe40ea3d11000170d9b9","freq","","","img/orange_2bandit_a2.png","70","","70","test","1","","96","","","","square","circle","92","1","5","0.9565217391304348","","","","","","","",""
"null","610275","SARL_v6","SARL_v6sy4y7utl","58a1fe40ea3d11000170d9b9","freq_resp","","","img/orange_2bandit_a.png","70","img/orange_2bandit_a.png","70","test","","","","","","","","","","","5","","","","","","","","",""
"null","610429","SARL_v6","SARL_v6sy4y7utl","58a1fe40ea3d11000170d9b9","fixation","","","img/fixation.png","null","","","test","","","","","","","","","","","","","","","","","","","",""
"329","610760","SARL_v6","SARL_v6sy4y7utl","58a1fe40ea3d11000170d9b9","freq","","","img/orange_2bandit_a2.png","70","","70","test","1","","97","","","","square","circle","93","2","5","0.956989247311828","","","","","","","",""
"null","611236","SARL_v6","SARL_v6sy4y7utl","58a1fe40ea3d11000170d9b9","freq_resp","","","img/orange_2bandit_a.png","70","img/orange_2bandit_a.png","70","test","","","","","","","","","","","5","","","","","","","","",""
"null","611389","SARL_v6","SARL_v6sy4y7utl","58a1fe40ea3d11000170d9b9","fixation","","","img/fixation.png","null","","","test","","","","","","","","","","","","","","","","","","","",""
"289","611680","SARL_v6","SARL_v6sy4y7utl","58a1fe40ea3d11000170d9b9","freq","","","img/orange_2bandit_a2.png","70","","70","test","1","","98","","","","square","circle","94","3","5","0.9574468085106383","","","","","","","",""
"null","612197","SARL_v6","SARL_v6sy4y7utl","58a1fe40ea3d11000170d9b9","freq_resp","","","img/orange_2bandit_a.png","70","img/orange_2bandit_a.png","70","test","","","","","","","","","","","5","","","","","","","","",""
"null","612351","SARL_v6","SARL_v6sy4y7utl","58a1fe40ea3d11000170d9b9","fixation","","","img/fixation.png","null","","","test","","","","","","","","","","","","","","","","","","","",""
"383","612736","SARL_v6","SARL_v6sy4y7utl","58a1fe40ea3d11000170d9b9","freq","","","img/orange_2bandit_a2.png","70","","70","test","1","","99","","","","square","circle","95","4","5","0.9578947368421052","","","","","","","",""
"null","613157","SARL_v6","SARL_v6sy4y7utl","58a1fe40ea3d11000170d9b9","freq_resp","","","img/orange_2bandit_a.png","70","img/orange_2bandit_a.png","70","test","","","","","","","","","","","5","","","","","","","","",""
"null","613314","SARL_v6","SARL_v6sy4y7utl","58a1fe40ea3d11000170d9b9","fixation","","","img/fixation.png","null","","","test","","","","","","","","","","","","","","","","","","","",""
"405","613720","SARL_v6","SARL_v6sy4y7utl","58a1fe40ea3d11000170d9b9","freq","","","img/orange_2bandit_a2.png","70","","70","test","1","","100","","","","square","circle","96","5","5","0.9583333333333334","","","","","","","",""
"null","614118","SARL_v6","SARL_v6sy4y7utl","58a1fe40ea3d11000170d9b9","freq_resp","","","img/orange_2bandit_a.png","70","img/orange_2bandit_a.png","70","test","","","","","","","","","","","5","","","","","","","","",""
"null","614275","SARL_v6","SARL_v6sy4y7utl","58a1fe40ea3d11000170d9b9","fixation","","","img/fixation.png","null","","","test","","","","","","","","","","","","","","","","","","","",""
"515","614792","SARL_v6","SARL_v6sy4y7utl","58a1fe40ea3d11000170d9b9","freq","","","img/orange_2bandit_a2.png","70","","70","test","1","","101","","","","square","circle","97","6","5","0.9587628865979382","","","","","","","",""
"null","615081","SARL_v6","SARL_v6sy4y7utl","58a1fe40ea3d11000170d9b9","freq_resp","","","img/orange_2bandit_a.png","70","img/orange_2bandit_a.png","70","test","","","","","","","","","","","5","","","","","","","","",""
"null","615238","SARL_v6","SARL_v6sy4y7utl","58a1fe40ea3d11000170d9b9","fixation","","","img/fixation.png","null","","","test","","","","","","","","","","","","","","","","","","","",""
"488","615728","SARL_v6","SARL_v6sy4y7utl","58a1fe40ea3d11000170d9b9","freq","","","img/orange_2bandit_a2.png","70","","70","test","1","","102","","","","square","circle","98","7","5","0.9591836734693877","","","","","","","",""
"null","616042","SARL_v6","SARL_v6sy4y7utl","58a1fe40ea3d11000170d9b9","freq_resp","","","img/orange_2bandit_a.png","70","img/orange_2bandit_a.png","70","test","","","","","","","","","","","5","","","","","","","","",""
"null","616199","SARL_v6","SARL_v6sy4y7utl","58a1fe40ea3d11000170d9b9","fixation","","","img/fixation.png","null","","","test","","","","","","","","","","","","","","","","","","","",""
"375","616576","SARL_v6","SARL_v6sy4y7utl","58a1fe40ea3d11000170d9b9","freq","","","img/orange_2bandit_a2.png","70","","70","test","1","","103","","","","square","circle","99","8","5","0.9595959595959596","","","","","","","",""
"null","617004","SARL_v6","SARL_v6sy4y7utl","58a1fe40ea3d11000170d9b9","freq_resp","","","img/orange_2bandit_a.png","70","img/orange_2bandit_a.png","70","test","","","","","","","","","","","5","","","","","","","","",""
"null","617160","SARL_v6","SARL_v6sy4y7utl","58a1fe40ea3d11000170d9b9","fixation","","","img/fixation.png","null","","","test","","","","","","","","","","","","","","","","","","","",""
"263","617425","SARL_v6","SARL_v6sy4y7utl","58a1fe40ea3d11000170d9b9","freq","","","img/orange_2bandit_a2.png","70","","70","test","1","","104","","","","square","circle","100","9","5","0.96","","","","","","","",""
"null","617964","SARL_v6","SARL_v6sy4y7utl","58a1fe40ea3d11000170d9b9","freq_resp","","","img/orange_2bandit_a.png","70","img/orange_2bandit_a.png","70","test","","","","","","","","","","","5","","","","","","","","",""
"null","618121","SARL_v6","SARL_v6sy4y7utl","58a1fe40ea3d11000170d9b9","fixation","","","img/fixation.png","null","","","test","","","","","","","","","","","","","","","","","","","",""
"350","618472","SARL_v6","SARL_v6sy4y7utl","58a1fe40ea3d11000170d9b9","freq","","","img/orange_2bandit_a2.png","70","","70","test","1","","105","","","","square","circle","101","10","5","0.9603960396039604","","","","","","","",""
"null","618928","SARL_v6","SARL_v6sy4y7utl","58a1fe40ea3d11000170d9b9","freq_resp","","","img/orange_2bandit_a.png","70","img/orange_2bandit_a.png","70","test","","","","","","","","","","","5","","","","","","","","",""
"null","619081","SARL_v6","SARL_v6sy4y7utl","58a1fe40ea3d11000170d9b9","fixation","","","img/fixation.png","null","","","test","","","","","","","","","","","","","","","","","","","",""
"781","619864","SARL_v6","SARL_v6sy4y7utl","58a1fe40ea3d11000170d9b9","infreq","","","img/blue_2bandit_a2.png","68","","68","test","1","","106","","","","square","circle","102","11","5","0.9607843137254902","","","","","","","",""
"null","619889","SARL_v6","SARL_v6sy4y7utl","58a1fe40ea3d11000170d9b9","infreq_resp","","","img/blue_2bandit_a.png","68","img/blue_2bandit_a.png","68","test","","","","","","","","","","","5","","","","","","","","",""
"null","620042","SARL_v6","SARL_v6sy4y7utl","58a1fe40ea3d11000170d9b9","fixation","","","img/fixation.png","null","","","test","","","","","","","","","","","","","","","","","","","",""
"532","620576","SARL_v6","SARL_v6sy4y7utl","58a1fe40ea3d11000170d9b9","freq","","","img/orange_2bandit_a2.png","70","","70","test","1","","107","","","","square","circle","103","12","5","0.9611650485436893","","","","","","","",""
"null","620849","SARL_v6","SARL_v6sy4y7utl","58a1fe40ea3d11000170d9b9","freq_resp","","","img/orange_2bandit_a.png","70","img/orange_2bandit_a.png","70","test","","","","","","","","","","","5","","","","","","","","",""
"null","621003","SARL_v6","SARL_v6sy4y7utl","58a1fe40ea3d11000170d9b9","fixation","","","img/fixation.png","null","","","test","","","","","","","","","","","","","","","","","","","",""
"299","621304","SARL_v6","SARL_v6sy4y7utl","58a1fe40ea3d11000170d9b9","freq","","","img/orange_2bandit_a2.png","70","","70","test","1","","108","","","","square","circle","104","13","5","0.9615384615384616","","","","","","","",""
"null","621812","SARL_v6","SARL_v6sy4y7utl","58a1fe40ea3d11000170d9b9","freq_resp","","","img/orange_2bandit_a.png","70","img/orange_2bandit_a.png","70","test","","","","","","","","","","","5","","","","","","","","",""
"null","621966","SARL_v6","SARL_v6sy4y7utl","58a1fe40ea3d11000170d9b9","fixation","","","img/fixation.png","null","","","test","","","","","","","","","","","","","","","","","","","",""
"256","622225","SARL_v6","SARL_v6sy4y7utl","58a1fe40ea3d11000170d9b9","freq","","","img/orange_2bandit_a2.png","70","","70","test","1","","109","","","","square","circle","105","14","5","0.9619047619047619","","","","","","","",""
"null","622773","SARL_v6","SARL_v6sy4y7utl","58a1fe40ea3d11000170d9b9","freq_resp","","","img/orange_2bandit_a.png","70","img/orange_2bandit_a.png","70","test","","","","","","","","","","","5","","","","","","","","",""
"null","622927","SARL_v6","SARL_v6sy4y7utl","58a1fe40ea3d11000170d9b9","fixation","","","img/fixation.png","null","","","test","","","","","","","","","","","","","","","","","","","",""
"416","623344","SARL_v6","SARL_v6sy4y7utl","58a1fe40ea3d11000170d9b9","freq","","","img/orange_2bandit_a2.png","70","","70","test","1","","110","","","","square","circle","106","15","5","0.9622641509433962","","","","","","","",""
"null","623731","SARL_v6","SARL_v6sy4y7utl","58a1fe40ea3d11000170d9b9","freq_resp","","","img/orange_2bandit_a.png","70","img/orange_2bandit_a.png","70","test","","","","","","","","","","","5","","","","","","","","",""
"null","623885","SARL_v6","SARL_v6sy4y7utl","58a1fe40ea3d11000170d9b9","fixation","","","img/fixation.png","null","","","test","","","","","","","","","","","","","","","","","","","",""
"481","624367","SARL_v6","SARL_v6sy4y7utl","58a1fe40ea3d11000170d9b9","infreq","","","img/blue_2bandit_a2.png","68","","68","test","1","","111","","","","square","circle","107","16","5","0.9626168224299065","","","","","","","",""
"null","624692","SARL_v6","SARL_v6sy4y7utl","58a1fe40ea3d11000170d9b9","infreq_resp","","","img/blue_2bandit_a.png","68","img/blue_2bandit_a.png","68","test","","","","","","","","","","","5","","","","","","","","",""
"null","624845","SARL_v6","SARL_v6sy4y7utl","58a1fe40ea3d11000170d9b9","fixation","","","img/fixation.png","null","","","test","","","","","","","","","","","","","","","","","","","",""
"392","625240","SARL_v6","SARL_v6sy4y7utl","58a1fe40ea3d11000170d9b9","freq","","","img/orange_2bandit_a2.png","70","","70","test","1","","112","","","","square","circle","108","17","5","0.9629629629629629","","","","","","","",""
"null","625652","SARL_v6","SARL_v6sy4y7utl","58a1fe40ea3d11000170d9b9","freq_resp","","","img/orange_2bandit_a.png","70","img/orange_2bandit_a.png","70","test","","","","","","","","","","","5","","","","","","","","",""
"null","625805","SARL_v6","SARL_v6sy4y7utl","58a1fe40ea3d11000170d9b9","fixation","","","img/fixation.png","null","","","test","","","","","","","","","","","","","","","","","","","",""
"273","626080","SARL_v6","SARL_v6sy4y7utl","58a1fe40ea3d11000170d9b9","freq","","","img/orange_2bandit_a2.png","70","","70","test","1","","113","","","","square","circle","109","18","5","0.963302752293578","","","","","","","",""
"null","626610","SARL_v6","SARL_v6sy4y7utl","58a1fe40ea3d11000170d9b9","freq_resp","","","img/orange_2bandit_a.png","70","img/orange_2bandit_a.png","70","test","","","","","","","","","","","5","","","","","","","","",""
"null","626763","SARL_v6","SARL_v6sy4y7utl","58a1fe40ea3d11000170d9b9","fixation","","","img/fixation.png","null","","","test","","","","","","","","","","","","","","","","","","","",""
"275","627040","SARL_v6","SARL_v6sy4y7utl","58a1fe40ea3d11000170d9b9","freq","","","img/orange_2bandit_a2.png","70","","70","test","1","","114","","","","square","circle","110","19","5","0.9636363636363636","","","","","","","",""
"null","627568","SARL_v6","SARL_v6sy4y7utl","58a1fe40ea3d11000170d9b9","freq_resp","","","img/orange_2bandit_a.png","70","img/orange_2bandit_a.png","70","test","","","","","","","","","","","5","","","","","","","","",""
"null","627725","SARL_v6","SARL_v6sy4y7utl","58a1fe40ea3d11000170d9b9","fixation","","","img/fixation.png","null","","","test","","","","","","","","","","","","","","","","","","","",""
"257","627984","SARL_v6","SARL_v6sy4y7utl","58a1fe40ea3d11000170d9b9","freq","","","img/orange_2bandit_a2.png","70","","70","test","1","","115","","","","square","circle","111","20","5","0.963963963963964","","","","","","","",""
"null","628531","SARL_v6","SARL_v6sy4y7utl","58a1fe40ea3d11000170d9b9","freq_resp","","","img/orange_2bandit_a.png","70","img/orange_2bandit_a.png","70","test","","","","","","","","","","","5","","","","","","","","",""
"null","628688","SARL_v6","SARL_v6sy4y7utl","58a1fe40ea3d11000170d9b9","fixation","","","img/fixation.png","null","","","test","","","","","","","","","","","","","","","","","","","",""
"278","628968","SARL_v6","SARL_v6sy4y7utl","58a1fe40ea3d11000170d9b9","freq","","","img/orange_2bandit_a2.png","70","","70","test","1","","116","","","","square","circle","112","21","5","0.9642857142857143","","","","","","","",""
"null","629495","SARL_v6","SARL_v6sy4y7utl","58a1fe40ea3d11000170d9b9","freq_resp","","","img/orange_2bandit_a.png","70","img/orange_2bandit_a.png","70","test","","","","","","","","","","","5","","","","","","","","",""
"null","629649","SARL_v6","SARL_v6sy4y7utl","58a1fe40ea3d11000170d9b9","fixation","","","img/fixation.png","null","","","test","","","","","","","","","","","","","","","","","","","",""
"238","629888","SARL_v6","SARL_v6sy4y7utl","58a1fe40ea3d11000170d9b9","freq","","","img/orange_2bandit_a2.png","70","","70","test","1","","117","","","","square","circle","113","22","5","0.9646017699115044","","","","","","","",""
"null","630453","SARL_v6","SARL_v6sy4y7utl","58a1fe40ea3d11000170d9b9","freq_resp","","","img/orange_2bandit_a.png","70","img/orange_2bandit_a.png","70","test","","","","","","","","","","","5","","","","","","","","",""
"null","630610","SARL_v6","SARL_v6sy4y7utl","58a1fe40ea3d11000170d9b9","fixation","","","img/fixation.png","null","","","test","","","","","","","","","","","","","","","","","","","",""
"420","631031","SARL_v6","SARL_v6sy4y7utl","58a1fe40ea3d11000170d9b9","freq","","","img/orange_2bandit_a2.png","70","","70","test","1","","118","","","","square","circle","114","23","5","0.9649122807017544","","","","","","","",""
"null","631413","SARL_v6","SARL_v6sy4y7utl","58a1fe40ea3d11000170d9b9","freq_resp","","","img/orange_2bandit_a.png","70","img/orange_2bandit_a.png","70","test","","","","","","","","","","","5","","","","","","","","",""
"null","631566","SARL_v6","SARL_v6sy4y7utl","58a1fe40ea3d11000170d9b9","fixation","","","img/fixation.png","null","","","test","","","","","","","","","","","","","","","","","","","",""
"887","632456","SARL_v6","SARL_v6sy4y7utl","58a1fe40ea3d11000170d9b9","rl","","","img/black_2bandit_a2.png","74","","0","test","","","119","","","4","square","circle","","0","5","","74","-7","4","4","-7","square","5","0"
"null","633211","SARL_v6","SARL_v6sy4y7utl","58a1fe40ea3d11000170d9b9","feedback","","","<div class=""veryhighPoints_sq""> 4 </div>","null","","na","test","","","NaN","","","","","","","","5","","74","","","","","","5",""
"339","633552","SARL_v6","SARL_v6sy4y7utl","58a1fe40ea3d11000170d9b9","freq","","","img/orange_2bandit_a2.png","70","","70","test","1","","120","","","","square","circle","115","1","6","0.9652173913043478","","","","","","","",""
"null","634017","SARL_v6","SARL_v6sy4y7utl","58a1fe40ea3d11000170d9b9","freq_resp","","","img/orange_2bandit_a.png","70","img/orange_2bandit_a.png","70","test","","","","","","","","","","","6","","","","","","","","",""
"null","634171","SARL_v6","SARL_v6sy4y7utl","58a1fe40ea3d11000170d9b9","fixation","","","img/fixation.png","null","","","test","","","","","","","","","","","","","","","","","","","",""
"371","634543","SARL_v6","SARL_v6sy4y7utl","58a1fe40ea3d11000170d9b9","freq","","","img/orange_2bandit_a2.png","70","","70","test","1","","121","","","","square","circle","116","2","6","0.9655172413793104","","","","","","","",""
"null","634977","SARL_v6","SARL_v6sy4y7utl","58a1fe40ea3d11000170d9b9","freq_resp","","","img/orange_2bandit_a.png","70","img/orange_2bandit_a.png","70","test","","","","","","","","","","","6","","","","","","","","",""
"null","635133","SARL_v6","SARL_v6sy4y7utl","58a1fe40ea3d11000170d9b9","fixation","","","img/fixation.png","null","","","test","","","","","","","","","","","","","","","","","","","",""
"439","635576","SARL_v6","SARL_v6sy4y7utl","58a1fe40ea3d11000170d9b9","freq","","","img/orange_2bandit_a2.png","70","","70","test","1","","122","","","","square","circle","117","3","6","0.9658119658119658","","","","","","","",""
"null","635942","SARL_v6","SARL_v6sy4y7utl","58a1fe40ea3d11000170d9b9","freq_resp","","","img/orange_2bandit_a.png","70","img/orange_2bandit_a.png","70","test","","","","","","","","","","","6","","","","","","","","",""
"null","636099","SARL_v6","SARL_v6sy4y7utl","58a1fe40ea3d11000170d9b9","fixation","","","img/fixation.png","null","","","test","","","","","","","","","","","","","","","","","","","",""
"362","636464","SARL_v6","SARL_v6sy4y7utl","58a1fe40ea3d11000170d9b9","freq","","","img/orange_2bandit_a2.png","70","","70","test","1","","123","","","","square","circle","118","4","6","0.9661016949152542","","","","","","","",""
"null","636905","SARL_v6","SARL_v6sy4y7utl","58a1fe40ea3d11000170d9b9","freq_resp","","","img/orange_2bandit_a.png","70","img/orange_2bandit_a.png","70","test","","","","","","","","","","","6","","","","","","","","",""
"null","637059","SARL_v6","SARL_v6sy4y7utl","58a1fe40ea3d11000170d9b9","fixation","","","img/fixation.png","null","","","test","","","","","","","","","","","","","","","","","","","",""
"330","637393","SARL_v6","SARL_v6sy4y7utl","58a1fe40ea3d11000170d9b9","freq","","","img/orange_2bandit_a2.png","70","","70","test","1","","124","","","","square","circle","119","5","6","0.9663865546218487","","","","","","","",""
"null","637866","SARL_v6","SARL_v6sy4y7utl","58a1fe40ea3d11000170d9b9","freq_resp","","","img/orange_2bandit_a.png","70","img/orange_2bandit_a.png","70","test","","","","","","","","","","","6","","","","","","","","",""
"null","638023","SARL_v6","SARL_v6sy4y7utl","58a1fe40ea3d11000170d9b9","fixation","","","img/fixation.png","null","","","test","","","","","","","","","","","","","","","","","","","",""
"303","638328","SARL_v6","SARL_v6sy4y7utl","58a1fe40ea3d11000170d9b9","freq","","","img/orange_2bandit_a2.png","70","","70","test","1","","125","","","","square","circle","120","6","6","0.9666666666666667","","","","","","","",""
"null","638830","SARL_v6","SARL_v6sy4y7utl","58a1fe40ea3d11000170d9b9","freq_resp","","","img/orange_2bandit_a.png","70","img/orange_2bandit_a.png","70","test","","","","","","","","","","","6","","","","","","","","",""
"null","638983","SARL_v6","SARL_v6sy4y7utl","58a1fe40ea3d11000170d9b9","fixation","","","img/fixation.png","null","","","test","","","","","","","","","","","","","","","","","","","",""
"375","639360","SARL_v6","SARL_v6sy4y7utl","58a1fe40ea3d11000170d9b9","freq","","","img/orange_2bandit_a2.png","70","","70","test","1","","126","","","","square","circle","121","7","6","0.9669421487603306","","","","","","","",""
"null","639790","SARL_v6","SARL_v6sy4y7utl","58a1fe40ea3d11000170d9b9","freq_resp","","","img/orange_2bandit_a.png","70","img/orange_2bandit_a.png","70","test","","","","","","","","","","","6","","","","","","","","",""
"null","639944","SARL_v6","SARL_v6sy4y7utl","58a1fe40ea3d11000170d9b9","fixation","","","img/fixation.png","null","","","test","","","","","","","","","","","","","","","","","","","",""
"310","640256","SARL_v6","SARL_v6sy4y7utl","58a1fe40ea3d11000170d9b9","freq","","","img/orange_2bandit_a2.png","70","","70","test","1","","127","","","","square","circle","122","8","6","0.9672131147540983","","","","","","","",""
"null","640748","SARL_v6","SARL_v6sy4y7utl","58a1fe40ea3d11000170d9b9","freq_resp","","","img/orange_2bandit_a.png","70","img/orange_2bandit_a.png","70","test","","","","","","","","","","","6","","","","","","","","",""
"null","640902","SARL_v6","SARL_v6sy4y7utl","58a1fe40ea3d11000170d9b9","fixation","","","img/fixation.png","null","","","test","","","","","","","","","","","","","","","","","","","",""
"289","641191","SARL_v6","SARL_v6sy4y7utl","58a1fe40ea3d11000170d9b9","freq","","","img/orange_2bandit_a2.png","70","","70","test","1","","128","","","","square","circle","123","9","6","0.967479674796748","","","","","","","",""
"null","641706","SARL_v6","SARL_v6sy4y7utl","58a1fe40ea3d11000170d9b9","freq_resp","","","img/orange_2bandit_a.png","70","img/orange_2bandit_a.png","70","test","","","","","","","","","","","6","","","","","","","","",""
"null","641862","SARL_v6","SARL_v6sy4y7utl","58a1fe40ea3d11000170d9b9","fixation","","","img/fixation.png","null","","","test","","","","","","","","","","","","","","","","","","","",""
"463","642328","SARL_v6","SARL_v6sy4y7utl","58a1fe40ea3d11000170d9b9","infreq","","","img/blue_2bandit_a2.png","68","","68","test","1","","129","","","","square","circle","124","10","6","0.967741935483871","","","","","","","",""
"null","642670","SARL_v6","SARL_v6sy4y7utl","58a1fe40ea3d11000170d9b9","infreq_resp","","","img/blue_2bandit_a.png","68","img/blue_2bandit_a.png","68","test","","","","","","","","","","","6","","","","","","","","",""
"null","642823","SARL_v6","SARL_v6sy4y7utl","58a1fe40ea3d11000170d9b9","fixation","","","img/fixation.png","null","","","test","","","","","","","","","","","","","","","","","","","",""
"327","643152","SARL_v6","SARL_v6sy4y7utl","58a1fe40ea3d11000170d9b9","freq","","","img/orange_2bandit_a2.png","70","","70","test","1","","130","","","","square","circle","125","11","6","0.968","","","","","","","",""
"null","643630","SARL_v6","SARL_v6sy4y7utl","58a1fe40ea3d11000170d9b9","freq_resp","","","img/orange_2bandit_a.png","70","img/orange_2bandit_a.png","70","test","","","","","","","","","","","6","","","","","","","","",""
"null","643784","SARL_v6","SARL_v6sy4y7utl","58a1fe40ea3d11000170d9b9","fixation","","","img/fixation.png","null","","","test","","","","","","","","","","","","","","","","","","","",""
"270","644056","SARL_v6","SARL_v6sy4y7utl","58a1fe40ea3d11000170d9b9","freq","","","img/orange_2bandit_a2.png","70","","70","test","1","","131","","","","square","circle","126","12","6","0.9682539682539683","","","","","","","",""
"null","644591","SARL_v6","SARL_v6sy4y7utl","58a1fe40ea3d11000170d9b9","freq_resp","","","img/orange_2bandit_a.png","70","img/orange_2bandit_a.png","70","test","","","","","","","","","","","6","","","","","","","","",""
"null","644745","SARL_v6","SARL_v6sy4y7utl","58a1fe40ea3d11000170d9b9","fixation","","","img/fixation.png","null","","","test","","","","","","","","","","","","","","","","","","","",""
"253","645000","SARL_v6","SARL_v6sy4y7utl","58a1fe40ea3d11000170d9b9","freq","","","img/orange_2bandit_a2.png","70","","70","test","1","","132","","","","square","circle","127","13","6","0.968503937007874","","","","","","","",""
"null","645552","SARL_v6","SARL_v6sy4y7utl","58a1fe40ea3d11000170d9b9","freq_resp","","","img/orange_2bandit_a.png","70","img/orange_2bandit_a.png","70","test","","","","","","","","","","","6","","","","","","","","",""
"null","645705","SARL_v6","SARL_v6sy4y7utl","58a1fe40ea3d11000170d9b9","fixation","","","img/fixation.png","null","","","test","","","","","","","","","","","","","","","","","","","",""
