"rt","responses","time_elapsed","subject","demoID","trialType","rlType","attType","stimulus","key_press","stim","corrresp","phase","corr","pracCounter","reward","bandOne","bandTwo","trialNum","attentionNum","attentionRunNum","blockNum","performance","bandChosen","circleVal","squareVal","coin","bandOneVal","bandTwoVal","pReward","shapeChosen","rlNum","badFlag"
"515098","{""Q0"":""msl000052""}","515123","SARL_v68f0quk5p","msl000052","","","","","","","","","","","","","","","","","","","","","","","","","","","",""
"55483","","570612","SARL_v68f0quk5p","msl000052","","","","","","","","","","","","","","","","","","","","","","","","","","","",""
"","","573347","SARL_v68f0quk5p","msl000052","fullscreen","fullscreen","fullscreen","","","","","","","","","","","","","","","","","","","","","","","","",""
"101461","","674812","SARL_v68f0quk5p","msl000052","","","","","","","","","","","","","","","","","","","","","","","","","","","",""
"null","","675619","SARL_v68f0quk5p","msl000052","freqPrac","","","img/orange_2bandit_b2.png","null","img/orange_2bandit_b2.png","70","prac","0","1","","","","","","","","","","","","","","","","","",""
"null","","676626","SARL_v68f0quk5p","msl000052","feedback","","","img/tooSlow.png","null","","na","prac","","","","","","","","","","","","","","","","","","","",""
"null","","676781","SARL_v68f0quk5p","msl000052","fixation","","","img/fixation.png","null","","","prac","","","","","","","","","","","","","","","","","","","",""
"null","","677587","SARL_v68f0quk5p","msl000052","infreqPrac","","","img/green_2bandit_b2.png","null","img/green_2bandit_b2.png","68","prac","0","2","","","","","","","","","","","","","","","","","",""
"null","","678594","SARL_v68f0quk5p","msl000052","feedback","","","img/tooSlow.png","null","","na","prac","","","","","","","","","","","","","","","","","","","",""
"null","","678749","SARL_v68f0quk5p","msl000052","fixation","","","img/fixation.png","null","","","prac","","","","","","","","","","","","","","","","","","","",""
"null","","679556","SARL_v68f0quk5p","msl000052","freqPrac","","","img/orange_2bandit_b2.png","null","img/orange_2bandit_b2.png","70","prac","0","3","","","","","","","","","","","","","","","","","",""
"null","","680561","SARL_v68f0quk5p","msl000052","feedback","","","img/tooSlow.png","null","","na","prac","","","","","","","","","","","","","","","","","","","",""
"null","","680717","SARL_v68f0quk5p","msl000052","fixation","","","img/fixation.png","null","","","prac","","","","","","","","","","","","","","","","","","","",""
"294","","681016","SARL_v68f0quk5p","msl000052","infreqPrac","","","img/green_2bandit_b2.png","68","img/green_2bandit_b2.png","68","prac","1","3","","","","","","","","","","","","","","","","","",""
"294","","681528","SARL_v68f0quk5p","msl000052","infreqPrac_resp","","","img/green_2bandit_b.png","68","img/green_2bandit_b.png","68","prac","","","","","","","","","","","","","","","","","","","",""
"122","","681683","SARL_v68f0quk5p","msl000052","fixation","","","img/fixation.png","68","","","prac","","","","","","","","","","","","","","","","","","","",""
"496","","682185","SARL_v68f0quk5p","msl000052","infreqPrac","","","img/green_2bandit_b2.png","68","img/green_2bandit_b2.png","68","prac","1","3","","","","","","","","","","","","","","","","","",""
"496","","682495","SARL_v68f0quk5p","msl000052","infreqPrac_resp","","","img/green_2bandit_b.png","68","img/green_2bandit_b.png","68","prac","","","","","","","","","","","","","","","","","","","",""
"null","","682651","SARL_v68f0quk5p","msl000052","fixation","","","img/fixation.png","null","","","prac","","","","","","","","","","","","","","","","","","","",""
"130","","682786","SARL_v68f0quk5p","msl000052","infreqPrac","","","img/green_2bandit_b2.png","68","img/green_2bandit_b2.png","68","prac","1","3","","","","","","","","","","","","","","","","","",""
"130","","683463","SARL_v68f0quk5p","msl000052","infreqPrac_resp","","","img/green_2bandit_b.png","68","img/green_2bandit_b.png","68","prac","","","","","","","","","","","","","","","","","","","",""
"null","","683619","SARL_v68f0quk5p","msl000052","fixation","","","img/fixation.png","null","","","prac","","","","","","","","","","","","","","","","","","","",""
"347","","683971","SARL_v68f0quk5p","msl000052","freqPrac","","","img/orange_2bandit_b2.png","68","img/orange_2bandit_b2.png","70","prac","0","4","","","","","","","","","","","","","","","","","",""
"347","","684430","SARL_v68f0quk5p","msl000052","freqPrac_resp","","","img/orange_2bandit_b.png","68","img/orange_2bandit_b.png","70","prac","","","","","","","","","","","","","","","","","","","",""
"null","","685436","SARL_v68f0quk5p","msl000052","feedback","","","img/wrongKey.png","null","","na","prac","","","","","","","","","","","","","","","","","","","",""
"null","","685590","SARL_v68f0quk5p","msl000052","fixation","","","img/fixation.png","null","","","prac","","","","","","","","","","","","","","","","","","","",""
"514","","686109","SARL_v68f0quk5p","msl000052","infreqPrac","","","img/green_2bandit_b2.png","68","img/green_2bandit_b2.png","68","prac","1","4","","","","","","","","","","","","","","","","","",""
"514","","686401","SARL_v68f0quk5p","msl000052","infreqPrac_resp","","","img/green_2bandit_b.png","68","img/green_2bandit_b.png","68","prac","","","","","","","","","","","","","","","","","","","",""
"null","","686556","SARL_v68f0quk5p","msl000052","fixation","","","img/fixation.png","null","","","prac","","","","","","","","","","","","","","","","","","","",""
"30","","686592","SARL_v68f0quk5p","msl000052","freqPrac","","","img/orange_2bandit_b2.png","68","img/orange_2bandit_b2.png","70","prac","0","5","","","","","","","","","","","","","","","","","",""
"30","","687369","SARL_v68f0quk5p","msl000052","freqPrac_resp","","","img/orange_2bandit_b.png","68","img/orange_2bandit_b.png","70","prac","","","","","","","","","","","","","","","","","","","",""
"null","","688375","SARL_v68f0quk5p","msl000052","feedback","","","img/wrongKey.png","null","","na","prac","","","","","","","","","","","","","","","","","","","",""
"null","","688531","SARL_v68f0quk5p","msl000052","fixation","","","img/fixation.png","null","","","prac","","","","","","","","","","","","","","","","","","","",""
"459","","688995","SARL_v68f0quk5p","msl000052","freqPrac","","","img/orange_2bandit_b2.png","70","img/orange_2bandit_b2.png","70","prac","1","5","","","","","","","","","","","","","","","","","",""
"459","","689342","SARL_v68f0quk5p","msl000052","freqPrac_resp","","","img/orange_2bandit_b.png","70","img/orange_2bandit_b.png","70","prac","","","","","","","","","","","","","","","","","","","",""
"null","","689497","SARL_v68f0quk5p","msl000052","fixation","","","img/fixation.png","null","","","prac","","","","","","","","","","","","","","","","","","","",""
"77640","","767141","SARL_v68f0quk5p","msl000052","","","","","","","","prac","","","","","","","","","","","","","","","","","","","",""
"801","","767947","SARL_v68f0quk5p","msl000052","rlPractice","","","img/black_2bandit_b2.png","74","img/black_2bandit_b2.png","","prac","","","75","","","","","","","","","","","","","","","","",""
"null","","768703","SARL_v68f0quk5p","msl000052","feedback","","","img/boo_L_b.png","null","","na","prac","","","","","","","","","","","","","","","","","","","",""
"null","","768859","SARL_v68f0quk5p","msl000052","fixation","","","img/fixation.png","null","","","prac","","","","","","","","","","","","","","","","","","","",""
"373","","769236","SARL_v68f0quk5p","msl000052","rlPractice","","","img/black_2bandit_b2.png","75","img/black_2bandit_b2.png","","prac","","","75","","","","","","","","","","","","","","","","",""
"null","","769993","SARL_v68f0quk5p","msl000052","feedback","","","img/yay_R_b.png","null","","na","prac","","","","","","","","","","","","","","","","","","","",""
"null","","770149","SARL_v68f0quk5p","msl000052","fixation","","","img/fixation.png","null","","","prac","","","","","","","","","","","","","","","","","","","",""
"244","","770397","SARL_v68f0quk5p","msl000052","rlPractice","","","img/black_2bandit_b2.png","75","img/black_2bandit_b2.png","","prac","","","75","","","","","","","","","","","","","","","","",""
"null","","771153","SARL_v68f0quk5p","msl000052","feedback","","","img/yay_R_b.png","null","","na","prac","","","","","","","","","","","","","","","","","","","",""
"null","","771308","SARL_v68f0quk5p","msl000052","fixation","","","img/fixation.png","null","","","prac","","","","","","","","","","","","","","","","","","","",""
"294","","771606","SARL_v68f0quk5p","msl000052","rlPractice","","","img/black_2bandit_b2.png","75","img/black_2bandit_b2.png","","prac","","","75","","","","","","","","","","","","","","","","",""
"null","","772362","SARL_v68f0quk5p","msl000052","feedback","","","img/yay_R_b.png","null","","na","prac","","","","","","","","","","","","","","","","","","","",""
"null","","772518","SARL_v68f0quk5p","msl000052","fixation","","","img/fixation.png","null","","","prac","","","","","","","","","","","","","","","","","","","",""
"253","","772776","SARL_v68f0quk5p","msl000052","rlPractice","","","img/black_2bandit_b2.png","75","img/black_2bandit_b2.png","","prac","","","75","","","","","","","","","","","","","","","","",""
"null","","773533","SARL_v68f0quk5p","msl000052","feedback","","","img/yay_R_b.png","null","","na","prac","","","","","","","","","","","","","","","","","","","",""
"null","","773688","SARL_v68f0quk5p","msl000052","fixation","","","img/fixation.png","null","","","prac","","","","","","","","","","","","","","","","","","","",""
"132","","773824","SARL_v68f0quk5p","msl000052","rlPractice","","","img/black_2bandit_b2.png","75","img/black_2bandit_b2.png","","prac","","","75","","","","","","","","","","","","","","","","",""
"null","","774581","SARL_v68f0quk5p","msl000052","feedback","","","img/yay_R_b.png","null","","na","prac","","","","","","","","","","","","","","","","","","","",""
"null","","774735","SARL_v68f0quk5p","msl000052","fixation","","","img/fixation.png","null","","","prac","","","","","","","","","","","","","","","","","","","",""
"230","","774971","SARL_v68f0quk5p","msl000052","rlPractice","","","img/black_2bandit_b2.png","75","img/black_2bandit_b2.png","","prac","","","75","","","","","","","","","","","","","","","","",""
"null","","775726","SARL_v68f0quk5p","msl000052","feedback","","","img/yay_R_b.png","null","","na","prac","","","","","","","","","","","","","","","","","","","",""
"null","","775883","SARL_v68f0quk5p","msl000052","fixation","","","img/fixation.png","null","","","prac","","","","","","","","","","","","","","","","","","","",""
"43568","","819454","SARL_v68f0quk5p","msl000052","","","","","","","","prac","","","","","","","","","","","","","","","","","","","",""
"null","","820259","SARL_v68f0quk5p","msl000052","mixAttFreqPrac","","","img/orange_2bandit_b2.png","null","img/orange_2bandit_b2.png","70","prac","","","","","","","","","","","","","","","","","","","",""
"20","","820414","SARL_v68f0quk5p","msl000052","fixation","","","img/fixation.png","70","","","prac","","","","","","","","","","","","","","","","","","","",""
"499","","820918","SARL_v68f0quk5p","msl000052","mixAttInfreqPrac","","","img/green_2bandit_b2.png","68","img/green_2bandit_b2.png","68","prac","","","","","","","","","","","","","","","","","","","",""
"499","","821226","SARL_v68f0quk5p","msl000052","infreqPrac_resp","","","img/green_2bandit_b.png","68","img/orange_2bandit_b.png","68","prac","","","","","","","","","","","","","","","","","","","",""
"null","","821381","SARL_v68f0quk5p","msl000052","fixation","","","img/fixation.png","null","","","prac","","","","","","","","","","","","","","","","","","","",""
"54","","821441","SARL_v68f0quk5p","msl000052","mixAttInfreqPrac","","","img/green_2bandit_b2.png","68","img/green_2bandit_b2.png","68","prac","","","","","","","","","","","","","","","","","","","",""
"54","","822193","SARL_v68f0quk5p","msl000052","infreqPrac_resp","","","img/green_2bandit_b.png","68","img/orange_2bandit_b.png","68","prac","","","","","","","","","","","","","","","","","","","",""
"67","","822348","SARL_v68f0quk5p","msl000052","fixation","","","img/fixation.png","68","","","prac","","","","","","","","","","","","","","","","","","","",""
"729","","823083","SARL_v68f0quk5p","msl000052","mixAttInfreqPrac","","","img/green_2bandit_b2.png","68","img/green_2bandit_b2.png","68","prac","","","","","","","","","","","","","","","","","","","",""
"729","","823159","SARL_v68f0quk5p","msl000052","infreqPrac_resp","","","img/green_2bandit_b.png","68","img/orange_2bandit_b.png","68","prac","","","","","","","","","","","","","","","","","","","",""
"null","","823315","SARL_v68f0quk5p","msl000052","fixation","","","img/fixation.png","null","","","prac","","","","","","","","","","","","","","","","","","","",""
"540","","823860","SARL_v68f0quk5p","msl000052","mixAttFreqPrac","","","img/orange_2bandit_b2.png","70","img/orange_2bandit_b2.png","70","prac","","","","","","","","","","","","","","","","","","","",""
"540","","824127","SARL_v68f0quk5p","msl000052","freqPrac_resp","","","img/orange_2bandit_b.png","70","img/orange_2bandit_b.png","70","prac","","","","","","","","","","","","","","","","","","","",""
"null","","824283","SARL_v68f0quk5p","msl000052","fixation","","","img/fixation.png","null","","","prac","","","","","","","","","","","","","","","","","","","",""
"553","","824841","SARL_v68f0quk5p","msl000052","mixRLPractice","","","img/black_2bandit_b2.png","74","img/black_2bandit_b2.png","","prac","","","","","","","","","","","","","","","","","","","",""
"null","","825596","SARL_v68f0quk5p","msl000052","feedback","","","img/boo_L_b.png","null","","na","prac","","","","","","","","","","","","","","","","","","","",""
"null","","826402","SARL_v68f0quk5p","msl000052","mixAttFreqPrac","","","img/orange_2bandit_b2.png","null","img/orange_2bandit_b2.png","70","prac","","","","","","","","","","","","","","","","","","","",""
"7","","826557","SARL_v68f0quk5p","msl000052","fixation","","","img/fixation.png","70","","","prac","","","","","","","","","","","","","","","","","","","",""
"441","","827003","SARL_v68f0quk5p","msl000052","mixAttInfreqPrac","","","img/green_2bandit_b2.png","68","img/green_2bandit_b2.png","68","prac","","","","","","","","","","","","","","","","","","","",""
"441","","827368","SARL_v68f0quk5p","msl000052","infreqPrac_resp","","","img/green_2bandit_b.png","68","img/orange_2bandit_b.png","68","prac","","","","","","","","","","","","","","","","","","","",""
"null","","827522","SARL_v68f0quk5p","msl000052","fixation","","","img/fixation.png","null","","","prac","","","","","","","","","","","","","","","","","","","",""
"438","","827966","SARL_v68f0quk5p","msl000052","mixAttFreqPrac","","","img/orange_2bandit_b2.png","70","img/orange_2bandit_b2.png","70","prac","","","","","","","","","","","","","","","","","","","",""
"438","","828334","SARL_v68f0quk5p","msl000052","freqPrac_resp","","","img/orange_2bandit_b.png","70","img/orange_2bandit_b.png","70","prac","","","","","","","","","","","","","","","","","","","",""
"null","","828489","SARL_v68f0quk5p","msl000052","fixation","","","img/fixation.png","null","","","prac","","","","","","","","","","","","","","","","","","","",""
"346","","828840","SARL_v68f0quk5p","msl000052","mixAttFreqPrac","","","img/orange_2bandit_b2.png","70","img/orange_2bandit_b2.png","70","prac","","","","","","","","","","","","","","","","","","","",""
"346","","829299","SARL_v68f0quk5p","msl000052","freqPrac_resp","","","img/orange_2bandit_b.png","70","img/orange_2bandit_b.png","70","prac","","","","","","","","","","","","","","","","","","","",""
"null","","829455","SARL_v68f0quk5p","msl000052","fixation","","","img/fixation.png","null","","","prac","","","","","","","","","","","","","","","","","","","",""
"459","","829918","SARL_v68f0quk5p","msl000052","mixAttInfreqPrac","","","img/green_2bandit_b2.png","68","img/green_2bandit_b2.png","68","prac","","","","","","","","","","","","","","","","","","","",""
"459","","830264","SARL_v68f0quk5p","msl000052","infreqPrac_resp","","","img/green_2bandit_b.png","68","img/orange_2bandit_b.png","68","prac","","","","","","","","","","","","","","","","","","","",""
"null","","830420","SARL_v68f0quk5p","msl000052","fixation","","","img/fixation.png","null","","","prac","","","","","","","","","","","","","","","","","","","",""
"523","","830947","SARL_v68f0quk5p","msl000052","mixRLPractice","","","img/black_2bandit_b2.png","75","img/black_2bandit_b2.png","","prac","","","","","","","","","","","","","","","","","","","",""
"null","","831702","SARL_v68f0quk5p","msl000052","feedback","","","img/yay_R_b.png","null","","na","prac","","","","","","","","","","","","","","","","","","","",""
"23710","","855417","SARL_v68f0quk5p","msl000052","","","","","","","","prac","","","","","","","","","","","","","","","","","","","",""
"null","","856222","SARL_v68f0quk5p","msl000052","freq","","","img/orange_2bandit_b2.png","null","","70","test","0","","","circle","square","1","1","1","1","0","","","","","","","","","",""
"null","","856379","SARL_v68f0quk5p","msl000052","fixation","","","img/fixation.png","null","","","test","","","","","","","","","","","","","","","","","","","",""
"306","","856689","SARL_v68f0quk5p","msl000052","freq","","","img/orange_2bandit_b2.png","70","","70","test","1","","","circle","square","2","2","2","1","0.5","","","","","","","","","",""
"null","","857189","SARL_v68f0quk5p","msl000052","freq_resp","","","img/orange_2bandit_b.png","70","img/orange_2bandit_b.png","70","test","","","","","","","","","1","","","","","","","","","","",""
"null","","857344","SARL_v68f0quk5p","msl000052","fixation","","","img/fixation.png","null","","","test","","","","","","","","","","","","","","","","","","","",""
"4","","857352","SARL_v68f0quk5p","msl000052","freq","","","img/orange_2bandit_b2.png","70","","70","test","1","","","circle","square","3","3","3","1","0.6666666666666666","","","","","","","","","",""
"null","","858155","SARL_v68f0quk5p","msl000052","freq_resp","","","img/orange_2bandit_b.png","70","img/orange_2bandit_b.png","70","test","","","","","","","","","1","","","","","","","","","","",""
"null","","858311","SARL_v68f0quk5p","msl000052","fixation","","","img/fixation.png","null","","","test","","","","","","","","","","","","","","","","","","","",""
"110","","858426","SARL_v68f0quk5p","msl000052","freq","","","img/orange_2bandit_b2.png","70","","70","test","1","","","circle","square","4","4","4","1","0.75","","","","","","","","","",""
"null","","859123","SARL_v68f0quk5p","msl000052","freq_resp","","","img/orange_2bandit_b.png","70","img/orange_2bandit_b.png","70","test","","","","","","","","","1","","","","","","","","","","",""
"null","","859279","SARL_v68f0quk5p","msl000052","fixation","","","img/fixation.png","null","","","test","","","","","","","","","","","","","","","","","","","",""
"null","","860084","SARL_v68f0quk5p","msl000052","freq","","","img/orange_2bandit_b2.png","null","","70","test","0","","","circle","square","5","5","5","1","0.6","","","","","","","","","",""
"null","","860239","SARL_v68f0quk5p","msl000052","fixation","","","img/fixation.png","null","","","test","","","","","","","","","","","","","","","","","","","",""
"null","","861045","SARL_v68f0quk5p","msl000052","freq","","","img/orange_2bandit_b2.png","null","","70","test","0","","","circle","square","6","6","6","1","0.5","","","","","","","","","",""
"null","","861201","SARL_v68f0quk5p","msl000052","fixation","","","img/fixation.png","null","","","test","","","","","","","","","","","","","","","","","","","",""
"448","","861655","SARL_v68f0quk5p","msl000052","infreq","","","img/green_2bandit_b2.png","68","","68","test","1","","","circle","square","7","7","7","1","0.5714285714285714","","","","","","","","","",""
"null","","862013","SARL_v68f0quk5p","msl000052","infreq_resp","","","img/green_2bandit_b.png","68","img/green_2bandit_b.png","68","test","","","","","","","","","1","","","","","","","","","","",""
"null","","862169","SARL_v68f0quk5p","msl000052","fixation","","","img/fixation.png","null","","","test","","","","","","","","","","","","","","","","","","","",""
"282","","862456","SARL_v68f0quk5p","msl000052","freq","","","img/orange_2bandit_b2.png","68","","70","test","0","","","circle","square","8","8","8","1","0.5","","","","","","","","","",""
"null","","862979","SARL_v68f0quk5p","msl000052","freq_resp","","","img/orange_2bandit_b.png","68","img/orange_2bandit_b.png","70","test","","","","","","","","","1","","","","","","","","","","",""
"null","","863136","SARL_v68f0quk5p","msl000052","fixation","","","img/fixation.png","null","","","test","","","","","","","","","","","","","","","","","","","",""
"315","","863455","SARL_v68f0quk5p","msl000052","freq","","","img/orange_2bandit_b2.png","70","","70","test","1","","","circle","square","9","9","9","1","0.5555555555555556","","","","","","","","","",""
"null","","863945","SARL_v68f0quk5p","msl000052","freq_resp","","","img/orange_2bandit_b.png","70","img/orange_2bandit_b.png","70","test","","","","","","","","","1","","","","","","","","","","",""
"null","","864101","SARL_v68f0quk5p","msl000052","fixation","","","img/fixation.png","null","","","test","","","","","","","","","","","","","","","","","","","",""
"258","","864365","SARL_v68f0quk5p","msl000052","freq","","","img/orange_2bandit_b2.png","70","","70","test","1","","","circle","square","10","10","10","1","0.6","","","","","","","","","",""
"null","","864913","SARL_v68f0quk5p","msl000052","freq_resp","","","img/orange_2bandit_b.png","70","img/orange_2bandit_b.png","70","test","","","","","","","","","1","","","","","","","","","","",""
"null","","865069","SARL_v68f0quk5p","msl000052","fixation","","","img/fixation.png","null","","","test","","","","","","","","","","","","","","","","","","","",""
"132","","865207","SARL_v68f0quk5p","msl000052","freq","","","img/orange_2bandit_b2.png","70","","70","test","1","","","circle","square","11","11","11","1","0.6363636363636364","","","","","","","","","",""
"null","","865881","SARL_v68f0quk5p","msl000052","freq_resp","","","img/orange_2bandit_b.png","70","img/orange_2bandit_b.png","70","test","","","","","","","","","1","","","","","","","","","","",""
"null","","866036","SARL_v68f0quk5p","msl000052","fixation","","","img/fixation.png","null","","","test","","","","","","","","","","","","","","","","","","","",""
"129","","866171","SARL_v68f0quk5p","msl000052","freq","","","img/orange_2bandit_b2.png","70","","70","test","1","","","circle","square","12","12","12","1","0.6666666666666666","","","","","","","","","",""
"null","","866847","SARL_v68f0quk5p","msl000052","freq_resp","","","img/orange_2bandit_b.png","70","img/orange_2bandit_b.png","70","test","","","","","","","","","1","","","","","","","","","","",""
"null","","867003","SARL_v68f0quk5p","msl000052","fixation","","","img/fixation.png","null","","","test","","","","","","","","","","","","","","","","","","","",""
"136","","867144","SARL_v68f0quk5p","msl000052","infreq","","","img/green_2bandit_b2.png","70","","68","test","0","","","circle","square","13","13","13","1","0.6153846153846154","","","","","","","","","",""
"null","","867814","SARL_v68f0quk5p","msl000052","infreq_resp","","","img/green_2bandit_b.png","70","img/green_2bandit_b.png","68","test","","","","","","","","","1","","","","","","","","","","",""
"null","","867971","SARL_v68f0quk5p","msl000052","fixation","","","img/fixation.png","null","","","test","","","","","","","","","","","","","","","","","","","",""
"450","","868426","SARL_v68f0quk5p","msl000052","freq","","","img/orange_2bandit_b2.png","70","","70","test","1","","","circle","square","14","14","14","1","0.6428571428571429","","","","","","","","","",""
"null","","868782","SARL_v68f0quk5p","msl000052","freq_resp","","","img/orange_2bandit_b.png","70","img/orange_2bandit_b.png","70","test","","","","","","","","","1","","","","","","","","","","",""
"null","","868938","SARL_v68f0quk5p","msl000052","fixation","","","img/fixation.png","null","","","test","","","","","","","","","","","","","","","","","","","",""
"359","","869302","SARL_v68f0quk5p","msl000052","freq","","","img/orange_2bandit_b2.png","70","","70","test","1","","","circle","square","15","15","15","1","0.6666666666666666","","","","","","","","","",""
"null","","869748","SARL_v68f0quk5p","msl000052","freq_resp","","","img/orange_2bandit_b.png","70","img/orange_2bandit_b.png","70","test","","","","","","","","","1","","","","","","","","","","",""
"null","","869904","SARL_v68f0quk5p","msl000052","fixation","","","img/fixation.png","null","","","test","","","","","","","","","","","","","","","","","","","",""
"354","","870264","SARL_v68f0quk5p","msl000052","freq","","","img/orange_2bandit_b2.png","70","","70","test","1","","","circle","square","16","16","16","1","0.6875","","","","","","","","","",""
"null","","870716","SARL_v68f0quk5p","msl000052","freq_resp","","","img/orange_2bandit_b.png","70","img/orange_2bandit_b.png","70","test","","","","","","","","","1","","","","","","","","","","",""
"null","","870871","SARL_v68f0quk5p","msl000052","fixation","","","img/fixation.png","null","","","test","","","","","","","","","","","","","","","","","","","",""
"299","","871175","SARL_v68f0quk5p","msl000052","freq","","","img/orange_2bandit_b2.png","70","","70","test","1","","","circle","square","17","17","17","1","0.7058823529411765","","","","","","","","","",""
"null","","871682","SARL_v68f0quk5p","msl000052","freq_resp","","","img/orange_2bandit_b.png","70","img/orange_2bandit_b.png","70","test","","","","","","","","","1","","","","","","","","","","",""
"null","","871836","SARL_v68f0quk5p","msl000052","fixation","","","img/fixation.png","null","","","test","","","","","","","","","","","","","","","","","","","",""
"422","","872264","SARL_v68f0quk5p","msl000052","freq","","","img/orange_2bandit_b2.png","70","","70","test","1","","","circle","square","18","18","18","1","0.7222222222222222","","","","","","","","","",""
"null","","872648","SARL_v68f0quk5p","msl000052","freq_resp","","","img/orange_2bandit_b.png","70","img/orange_2bandit_b.png","70","test","","","","","","","","","1","","","","","","","","","","",""
"null","","872805","SARL_v68f0quk5p","msl000052","fixation","","","img/fixation.png","null","","","test","","","","","","","","","","","","","","","","","","","",""
"354","","873162","SARL_v68f0quk5p","msl000052","freq","","","img/orange_2bandit_b2.png","70","","70","test","1","","","circle","square","19","19","19","1","0.7368421052631579","","","","","","","","","",""
"null","","873614","SARL_v68f0quk5p","msl000052","freq_resp","","","img/orange_2bandit_b.png","70","img/orange_2bandit_b.png","70","test","","","","","","","","","1","","","","","","","","","","",""
"null","","873770","SARL_v68f0quk5p","msl000052","fixation","","","img/fixation.png","null","","","test","","","","","","","","","","","","","","","","","","","",""
"386","","874162","SARL_v68f0quk5p","msl000052","freq","","","img/orange_2bandit_b2.png","70","","70","test","1","","","circle","square","20","20","20","1","0.75","","","","","","","","","",""
"null","","874582","SARL_v68f0quk5p","msl000052","freq_resp","","","img/orange_2bandit_b.png","70","img/orange_2bandit_b.png","70","test","","","","","","","","","1","","","","","","","","","","",""
"null","","874739","SARL_v68f0quk5p","msl000052","fixation","","","img/fixation.png","null","","","test","","","","","","","","","","","","","","","","","","","",""
"427","","875171","SARL_v68f0quk5p","msl000052","freq","","","img/orange_2bandit_b2.png","70","","70","test","1","","","circle","square","21","21","21","1","0.7619047619047619","","","","","","","","","",""
"null","","875550","SARL_v68f0quk5p","msl000052","freq_resp","","","img/orange_2bandit_b.png","70","img/orange_2bandit_b.png","70","test","","","","","","","","","1","","","","","","","","","","",""
"null","","875705","SARL_v68f0quk5p","msl000052","fixation","","","img/fixation.png","null","","","test","","","","","","","","","","","","","","","","","","","",""
"429","","876139","SARL_v68f0quk5p","msl000052","freq","","","img/orange_2bandit_b2.png","70","","70","test","1","","","circle","square","22","22","22","1","0.7727272727272727","","","","","","","","","",""
"null","","876515","SARL_v68f0quk5p","msl000052","freq_resp","","","img/orange_2bandit_b.png","70","img/orange_2bandit_b.png","70","test","","","","","","","","","1","","","","","","","","","","",""
"null","","876670","SARL_v68f0quk5p","msl000052","fixation","","","img/fixation.png","null","","","test","","","","","","","","","","","","","","","","","","","",""
"426","","877102","SARL_v68f0quk5p","msl000052","freq","","","img/orange_2bandit_b2.png","70","","70","test","1","","","circle","square","23","23","23","1","0.782608695652174","","","","","","","","","",""
"null","","877482","SARL_v68f0quk5p","msl000052","freq_resp","","","img/orange_2bandit_b.png","70","img/orange_2bandit_b.png","70","test","","","","","","","","","1","","","","","","","","","","",""
"null","","877637","SARL_v68f0quk5p","msl000052","fixation","","","img/fixation.png","null","","","test","","","","","","","","","","","","","","","","","","","",""
"836","","878478","SARL_v68f0quk5p","msl000052","rl","","","img/black_2bandit_b2.png","75","","0","test","","","0","circle","square","24","","0","1","","75","0.2","0.8","0.8936193728106283","0.2","0.8","0.8","square","1","0"
"null","","879235","SARL_v68f0quk5p","msl000052","feedback","","","img/boo_R_b.png","null","","na","test","","","","","","","","","1","","75","0.2","0.8","","","","0.8","","1",""
"null","","880041","SARL_v68f0quk5p","msl000052","freq","","","img/orange_2bandit_b2.png","null","","70","test","0","","","circle","square","25","24","1","2","0.75","","","","","","","","","",""
"null","","880196","SARL_v68f0quk5p","msl000052","fixation","","","img/fixation.png","null","","","test","","","","","","","","","","","","","","","","","","","",""
"539","","880740","SARL_v68f0quk5p","msl000052","freq","","","img/orange_2bandit_b2.png","70","","70","test","1","","","circle","square","26","25","2","2","0.76","","","","","","","","","",""
"null","","881007","SARL_v68f0quk5p","msl000052","freq_resp","","","img/orange_2bandit_b.png","70","img/orange_2bandit_b.png","70","test","","","","","","","","","2","","","","","","","","","","",""
"null","","881162","SARL_v68f0quk5p","msl000052","fixation","","","img/fixation.png","null","","","test","","","","","","","","","","","","","","","","","","","",""
"422","","881588","SARL_v68f0quk5p","msl000052","freq","","","img/orange_2bandit_b2.png","70","","70","test","1","","","circle","square","27","26","3","2","0.7692307692307693","","","","","","","","","",""
"null","","881972","SARL_v68f0quk5p","msl000052","freq_resp","","","img/orange_2bandit_b.png","70","img/orange_2bandit_b.png","70","test","","","","","","","","","2","","","","","","","","","","",""
"null","","882128","SARL_v68f0quk5p","msl000052","fixation","","","img/fixation.png","null","","","test","","","","","","","","","","","","","","","","","","","",""
"305","","882437","SARL_v68f0quk5p","msl000052","freq","","","img/orange_2bandit_b2.png","70","","70","test","1","","","circle","square","28","27","4","2","0.7777777777777778","","","","","","","","","",""
"null","","882938","SARL_v68f0quk5p","msl000052","freq_resp","","","img/orange_2bandit_b.png","70","img/orange_2bandit_b.png","70","test","","","","","","","","","2","","","","","","","","","","",""
"null","","883095","SARL_v68f0quk5p","msl000052","fixation","","","img/fixation.png","null","","","test","","","","","","","","","","","","","","","","","","","",""
"373","","883471","SARL_v68f0quk5p","msl000052","infreq","","","img/green_2bandit_b2.png","68","","68","test","1","","","circle","square","29","28","5","2","0.7857142857142857","","","","","","","","","",""
"null","","883904","SARL_v68f0quk5p","msl000052","infreq_resp","","","img/green_2bandit_b.png","68","img/green_2bandit_b.png","68","test","","","","","","","","","2","","","","","","","","","","",""
"null","","884061","SARL_v68f0quk5p","msl000052","fixation","","","img/fixation.png","null","","","test","","","","","","","","","","","","","","","","","","","",""
"396","","884462","SARL_v68f0quk5p","msl000052","freq","","","img/orange_2bandit_b2.png","70","","70","test","1","","","circle","square","30","29","6","2","0.7931034482758621","","","","","","","","","",""
"null","","884872","SARL_v68f0quk5p","msl000052","freq_resp","","","img/orange_2bandit_b.png","70","img/orange_2bandit_b.png","70","test","","","","","","","","","2","","","","","","","","","","",""
"null","","885028","SARL_v68f0quk5p","msl000052","fixation","","","img/fixation.png","null","","","test","","","","","","","","","","","","","","","","","","","",""
"289","","885321","SARL_v68f0quk5p","msl000052","freq","","","img/orange_2bandit_b2.png","70","","70","test","1","","","circle","square","31","30","7","2","0.8","","","","","","","","","",""
"null","","885838","SARL_v68f0quk5p","msl000052","freq_resp","","","img/orange_2bandit_b.png","70","img/orange_2bandit_b.png","70","test","","","","","","","","","2","","","","","","","","","","",""
"null","","885994","SARL_v68f0quk5p","msl000052","fixation","","","img/fixation.png","null","","","test","","","","","","","","","","","","","","","","","","","",""
"429","","886427","SARL_v68f0quk5p","msl000052","freq","","","img/orange_2bandit_b2.png","70","","70","test","1","","","circle","square","32","31","8","2","0.8064516129032258","","","","","","","","","",""
"null","","886805","SARL_v68f0quk5p","msl000052","freq_resp","","","img/orange_2bandit_b.png","70","img/orange_2bandit_b.png","70","test","","","","","","","","","2","","","","","","","","","","",""
"null","","886960","SARL_v68f0quk5p","msl000052","fixation","","","img/fixation.png","null","","","test","","","","","","","","","","","","","","","","","","","",""
"416","","887381","SARL_v68f0quk5p","msl000052","freq","","","img/orange_2bandit_b2.png","70","","70","test","1","","","circle","square","33","32","9","2","0.8125","","","","","","","","","",""
"null","","887771","SARL_v68f0quk5p","msl000052","freq_resp","","","img/orange_2bandit_b.png","70","img/orange_2bandit_b.png","70","test","","","","","","","","","2","","","","","","","","","","",""
"null","","887928","SARL_v68f0quk5p","msl000052","fixation","","","img/fixation.png","null","","","test","","","","","","","","","","","","","","","","","","","",""
"372","","888304","SARL_v68f0quk5p","msl000052","freq","","","img/orange_2bandit_b2.png","70","","70","test","1","","","circle","square","34","33","10","2","0.8181818181818182","","","","","","","","","",""
"null","","888738","SARL_v68f0quk5p","msl000052","freq_resp","","","img/orange_2bandit_b.png","70","img/orange_2bandit_b.png","70","test","","","","","","","","","2","","","","","","","","","","",""
"null","","888894","SARL_v68f0quk5p","msl000052","fixation","","","img/fixation.png","null","","","test","","","","","","","","","","","","","","","","","","","",""
"null","","889700","SARL_v68f0quk5p","msl000052","freq","","","img/orange_2bandit_b2.png","null","","70","test","0","","","circle","square","35","34","11","2","0.7941176470588235","","","","","","","","","",""
"null","","889856","SARL_v68f0quk5p","msl000052","fixation","","","img/fixation.png","null","","","test","","","","","","","","","","","","","","","","","","","",""
"155","","890017","SARL_v68f0quk5p","msl000052","freq","","","img/orange_2bandit_b2.png","70","","70","test","1","","","circle","square","36","35","12","2","0.8","","","","","","","","","",""
"null","","890669","SARL_v68f0quk5p","msl000052","freq_resp","","","img/orange_2bandit_b.png","70","img/orange_2bandit_b.png","70","test","","","","","","","","","2","","","","","","","","","","",""
"null","","890824","SARL_v68f0quk5p","msl000052","fixation","","","img/fixation.png","null","","","test","","","","","","","","","","","","","","","","","","","",""
"115","","890944","SARL_v68f0quk5p","msl000052","freq","","","img/orange_2bandit_b2.png","70","","70","test","1","","","circle","square","37","36","13","2","0.8055555555555556","","","","","","","","","",""
"null","","891635","SARL_v68f0quk5p","msl000052","freq_resp","","","img/orange_2bandit_b.png","70","img/orange_2bandit_b.png","70","test","","","","","","","","","2","","","","","","","","","","",""
"null","","891791","SARL_v68f0quk5p","msl000052","fixation","","","img/fixation.png","null","","","test","","","","","","","","","","","","","","","","","","","",""
"68","","891864","SARL_v68f0quk5p","msl000052","infreq","","","img/green_2bandit_b2.png","70","","68","test","0","","","circle","square","38","37","14","2","0.7837837837837838","","","","","","","","","",""
"null","","892602","SARL_v68f0quk5p","msl000052","infreq_resp","","","img/green_2bandit_b.png","70","img/green_2bandit_b.png","68","test","","","","","","","","","2","","","","","","","","","","",""
"null","","892758","SARL_v68f0quk5p","msl000052","fixation","","","img/fixation.png","null","","","test","","","","","","","","","","","","","","","","","","","",""
"404","","893168","SARL_v68f0quk5p","msl000052","freq","","","img/orange_2bandit_b2.png","70","","70","test","1","","","circle","square","39","38","15","2","0.7894736842105263","","","","","","","","","",""
"null","","893568","SARL_v68f0quk5p","msl000052","freq_resp","","","img/orange_2bandit_b.png","70","img/orange_2bandit_b.png","70","test","","","","","","","","","2","","","","","","","","","","",""
"null","","893724","SARL_v68f0quk5p","msl000052","fixation","","","img/fixation.png","null","","","test","","","","","","","","","","","","","","","","","","","",""
"353","","894081","SARL_v68f0quk5p","msl000052","freq","","","img/orange_2bandit_b2.png","70","","70","test","1","","","circle","square","40","39","16","2","0.7948717948717948","","","","","","","","","",""
"null","","894534","SARL_v68f0quk5p","msl000052","freq_resp","","","img/orange_2bandit_b.png","70","img/orange_2bandit_b.png","70","test","","","","","","","","","2","","","","","","","","","","",""
"null","","894689","SARL_v68f0quk5p","msl000052","fixation","","","img/fixation.png","null","","","test","","","","","","","","","","","","","","","","","","","",""
"316","","895009","SARL_v68f0quk5p","msl000052","freq","","","img/orange_2bandit_b2.png","70","","70","test","1","","","circle","square","41","40","17","2","0.8","","","","","","","","","",""
"null","","895500","SARL_v68f0quk5p","msl000052","freq_resp","","","img/orange_2bandit_b.png","70","img/orange_2bandit_b.png","70","test","","","","","","","","","2","","","","","","","","","","",""
"null","","895655","SARL_v68f0quk5p","msl000052","fixation","","","img/fixation.png","null","","","test","","","","","","","","","","","","","","","","","","","",""
"152","","895812","SARL_v68f0quk5p","msl000052","freq","","","img/orange_2bandit_b2.png","70","","70","test","1","","","circle","square","42","41","18","2","0.8048780487804879","","","","","","","","","",""
"null","","896466","SARL_v68f0quk5p","msl000052","freq_resp","","","img/orange_2bandit_b.png","70","img/orange_2bandit_b.png","70","test","","","","","","","","","2","","","","","","","","","","",""
"null","","896624","SARL_v68f0quk5p","msl000052","fixation","","","img/fixation.png","null","","","test","","","","","","","","","","","","","","","","","","","",""
"278","","896907","SARL_v68f0quk5p","msl000052","infreq","","","img/green_2bandit_b2.png","70","","68","test","0","","","circle","square","43","42","19","2","0.7857142857142857","","","","","","","","","",""
"null","","897434","SARL_v68f0quk5p","msl000052","infreq_resp","","","img/green_2bandit_b.png","70","img/green_2bandit_b.png","68","test","","","","","","","","","2","","","","","","","","","","",""
"null","","897589","SARL_v68f0quk5p","msl000052","fixation","","","img/fixation.png","null","","","test","","","","","","","","","","","","","","","","","","","",""
"383","","897977","SARL_v68f0quk5p","msl000052","freq","","","img/orange_2bandit_b2.png","70","","70","test","1","","","circle","square","44","43","20","2","0.7906976744186046","","","","","","","","","",""
"null","","898400","SARL_v68f0quk5p","msl000052","freq_resp","","","img/orange_2bandit_b.png","70","img/orange_2bandit_b.png","70","test","","","","","","","","","2","","","","","","","","","","",""
"null","","898555","SARL_v68f0quk5p","msl000052","fixation","","","img/fixation.png","null","","","test","","","","","","","","","","","","","","","","","","","",""
"305","","898864","SARL_v68f0quk5p","msl000052","freq","","","img/orange_2bandit_b2.png","70","","70","test","1","","","circle","square","45","44","21","2","0.7954545454545454","","","","","","","","","",""
"null","","899365","SARL_v68f0quk5p","msl000052","freq_resp","","","img/orange_2bandit_b.png","70","img/orange_2bandit_b.png","70","test","","","","","","","","","2","","","","","","","","","","",""
"null","","899520","SARL_v68f0quk5p","msl000052","fixation","","","img/fixation.png","null","","","test","","","","","","","","","","","","","","","","","","","",""
"340","","899866","SARL_v68f0quk5p","msl000052","freq","","","img/orange_2bandit_b2.png","70","","70","test","1","","","circle","square","46","45","22","2","0.8","","","","","","","","","",""
"null","","900332","SARL_v68f0quk5p","msl000052","freq_resp","","","img/orange_2bandit_b.png","70","img/orange_2bandit_b.png","70","test","","","","","","","","","2","","","","","","","","","","",""
"null","","900488","SARL_v68f0quk5p","msl000052","fixation","","","img/fixation.png","null","","","test","","","","","","","","","","","","","","","","","","","",""
"767","","901260","SARL_v68f0quk5p","msl000052","rl","","","img/black_2bandit_b2.png","75","","0","test","","","1","circle","square","47","","0","2","","75","0.2","0.8","0.36066447979481686","0.2","0.8","0.8","square","2","0"
"null","","902015","SARL_v68f0quk5p","msl000052","feedback","","","img/yay_R_b.png","null","","na","test","","","","","","","","","2","","75","0.2","0.8","","","","0.8","","2",""
"584","","902605","SARL_v68f0quk5p","msl000052","freq","","","img/orange_2bandit_b2.png","70","","70","test","1","","","circle","square","48","46","1","3","0.8043478260869565","","","","","","","","","",""
"null","","902827","SARL_v68f0quk5p","msl000052","freq_resp","","","img/orange_2bandit_b.png","70","img/orange_2bandit_b.png","70","test","","","","","","","","","3","","","","","","","","","","",""
"null","","902983","SARL_v68f0quk5p","msl000052","fixation","","","img/fixation.png","null","","","test","","","","","","","","","","","","","","","","","","","",""
"430","","903418","SARL_v68f0quk5p","msl000052","freq","","","img/orange_2bandit_b2.png","70","","70","test","1","","","circle","square","49","47","2","3","0.8085106382978723","","","","","","","","","",""
"null","","903793","SARL_v68f0quk5p","msl000052","freq_resp","","","img/orange_2bandit_b.png","70","img/orange_2bandit_b.png","70","test","","","","","","","","","3","","","","","","","","","","",""
"null","","903949","SARL_v68f0quk5p","msl000052","fixation","","","img/fixation.png","null","","","test","","","","","","","","","","","","","","","","","","","",""
"335","","904291","SARL_v68f0quk5p","msl000052","freq","","","img/orange_2bandit_b2.png","70","","70","test","1","","","circle","square","50","48","3","3","0.8125","","","","","","","","","",""
"null","","904761","SARL_v68f0quk5p","msl000052","freq_resp","","","img/orange_2bandit_b.png","70","img/orange_2bandit_b.png","70","test","","","","","","","","","3","","","","","","","","","","",""
"null","","904916","SARL_v68f0quk5p","msl000052","fixation","","","img/fixation.png","null","","","test","","","","","","","","","","","","","","","","","","","",""
"387","","905309","SARL_v68f0quk5p","msl000052","freq","","","img/orange_2bandit_b2.png","70","","70","test","1","","","circle","square","51","49","4","3","0.8163265306122449","","","","","","","","","",""
"null","","905727","SARL_v68f0quk5p","msl000052","freq_resp","","","img/orange_2bandit_b.png","70","img/orange_2bandit_b.png","70","test","","","","","","","","","3","","","","","","","","","","",""
"null","","905882","SARL_v68f0quk5p","msl000052","fixation","","","img/fixation.png","null","","","test","","","","","","","","","","","","","","","","","","","",""
"361","","906247","SARL_v68f0quk5p","msl000052","freq","","","img/orange_2bandit_b2.png","70","","70","test","1","","","circle","square","52","50","5","3","0.82","","","","","","","","","",""
"null","","906692","SARL_v68f0quk5p","msl000052","freq_resp","","","img/orange_2bandit_b.png","70","img/orange_2bandit_b.png","70","test","","","","","","","","","3","","","","","","","","","","",""
"null","","906849","SARL_v68f0quk5p","msl000052","fixation","","","img/fixation.png","null","","","test","","","","","","","","","","","","","","","","","","","",""
"303","","907157","SARL_v68f0quk5p","msl000052","freq","","","img/orange_2bandit_b2.png","70","","70","test","1","","","circle","square","53","51","6","3","0.8235294117647058","","","","","","","","","",""
"null","","907660","SARL_v68f0quk5p","msl000052","freq_resp","","","img/orange_2bandit_b.png","70","img/orange_2bandit_b.png","70","test","","","","","","","","","3","","","","","","","","","","",""
"null","","907816","SARL_v68f0quk5p","msl000052","fixation","","","img/fixation.png","null","","","test","","","","","","","","","","","","","","","","","","","",""
"638","","908460","SARL_v68f0quk5p","msl000052","infreq","","","img/green_2bandit_b2.png","68","","68","test","1","","","circle","square","54","52","7","3","0.8269230769230769","","","","","","","","","",""
"null","","908629","SARL_v68f0quk5p","msl000052","infreq_resp","","","img/green_2bandit_b.png","68","img/green_2bandit_b.png","68","test","","","","","","","","","3","","","","","","","","","","",""
"null","","908784","SARL_v68f0quk5p","msl000052","fixation","","","img/fixation.png","null","","","test","","","","","","","","","","","","","","","","","","","",""
"459","","909249","SARL_v68f0quk5p","msl000052","freq","","","img/orange_2bandit_b2.png","70","","70","test","1","","","circle","square","55","53","8","3","0.8301886792452831","","","","","","","","","",""
"null","","909596","SARL_v68f0quk5p","msl000052","freq_resp","","","img/orange_2bandit_b.png","70","img/orange_2bandit_b.png","70","test","","","","","","","","","3","","","","","","","","","","",""
"null","","909751","SARL_v68f0quk5p","msl000052","fixation","","","img/fixation.png","null","","","test","","","","","","","","","","","","","","","","","","","",""
"363","","910118","SARL_v68f0quk5p","msl000052","freq","","","img/orange_2bandit_b2.png","70","","70","test","1","","","circle","square","56","54","9","3","0.8333333333333334","","","","","","","","","",""
"null","","910562","SARL_v68f0quk5p","msl000052","freq_resp","","","img/orange_2bandit_b.png","70","img/orange_2bandit_b.png","70","test","","","","","","","","","3","","","","","","","","","","",""
"null","","910717","SARL_v68f0quk5p","msl000052","fixation","","","img/fixation.png","null","","","test","","","","","","","","","","","","","","","","","","","",""
"367","","911091","SARL_v68f0quk5p","msl000052","freq","","","img/orange_2bandit_b2.png","70","","70","test","1","","","circle","square","57","55","10","3","0.8363636363636363","","","","","","","","","",""
"null","","911529","SARL_v68f0quk5p","msl000052","freq_resp","","","img/orange_2bandit_b.png","70","img/orange_2bandit_b.png","70","test","","","","","","","","","3","","","","","","","","","","",""
"null","","911685","SARL_v68f0quk5p","msl000052","fixation","","","img/fixation.png","null","","","test","","","","","","","","","","","","","","","","","","","",""
"286","","911975","SARL_v68f0quk5p","msl000052","freq","","","img/orange_2bandit_b2.png","70","","70","test","1","","","circle","square","58","56","11","3","0.8392857142857143","","","","","","","","","",""
"null","","912495","SARL_v68f0quk5p","msl000052","freq_resp","","","img/orange_2bandit_b.png","70","img/orange_2bandit_b.png","70","test","","","","","","","","","3","","","","","","","","","","",""
"null","","912652","SARL_v68f0quk5p","msl000052","fixation","","","img/fixation.png","null","","","test","","","","","","","","","","","","","","","","","","","",""
"346","","913003","SARL_v68f0quk5p","msl000052","freq","","","img/orange_2bandit_b2.png","70","","70","test","1","","","circle","square","59","57","12","3","0.8421052631578947","","","","","","","","","",""
"null","","913462","SARL_v68f0quk5p","msl000052","freq_resp","","","img/orange_2bandit_b.png","70","img/orange_2bandit_b.png","70","test","","","","","","","","","3","","","","","","","","","","",""
"null","","913617","SARL_v68f0quk5p","msl000052","fixation","","","img/fixation.png","null","","","test","","","","","","","","","","","","","","","","","","","",""
"349","","913971","SARL_v68f0quk5p","msl000052","freq","","","img/orange_2bandit_b2.png","70","","70","test","1","","","circle","square","60","58","13","3","0.8448275862068966","","","","","","","","","",""
"null","","914428","SARL_v68f0quk5p","msl000052","freq_resp","","","img/orange_2bandit_b.png","70","img/orange_2bandit_b.png","70","test","","","","","","","","","3","","","","","","","","","","",""
"null","","914585","SARL_v68f0quk5p","msl000052","fixation","","","img/fixation.png","null","","","test","","","","","","","","","","","","","","","","","","","",""
"418","","915007","SARL_v68f0quk5p","msl000052","freq","","","img/orange_2bandit_b2.png","70","","70","test","1","","","circle","square","61","59","14","3","0.847457627118644","","","","","","","","","",""
"null","","915395","SARL_v68f0quk5p","msl000052","freq_resp","","","img/orange_2bandit_b.png","70","img/orange_2bandit_b.png","70","test","","","","","","","","","3","","","","","","","","","","",""
"null","","915551","SARL_v68f0quk5p","msl000052","fixation","","","img/fixation.png","null","","","test","","","","","","","","","","","","","","","","","","","",""
"639","","916195","SARL_v68f0quk5p","msl000052","infreq","","","img/green_2bandit_b2.png","68","","68","test","1","","","circle","square","62","60","15","3","0.85","","","","","","","","","",""
"null","","916363","SARL_v68f0quk5p","msl000052","infreq_resp","","","img/green_2bandit_b.png","68","img/green_2bandit_b.png","68","test","","","","","","","","","3","","","","","","","","","","",""
"null","","916518","SARL_v68f0quk5p","msl000052","fixation","","","img/fixation.png","null","","","test","","","","","","","","","","","","","","","","","","","",""
"425","","916949","SARL_v68f0quk5p","msl000052","freq","","","img/orange_2bandit_b2.png","70","","70","test","1","","","circle","square","63","61","16","3","0.8524590163934426","","","","","","","","","",""
"null","","917329","SARL_v68f0quk5p","msl000052","freq_resp","","","img/orange_2bandit_b.png","70","img/orange_2bandit_b.png","70","test","","","","","","","","","3","","","","","","","","","","",""
"null","","917485","SARL_v68f0quk5p","msl000052","fixation","","","img/fixation.png","null","","","test","","","","","","","","","","","","","","","","","","","",""
"386","","917877","SARL_v68f0quk5p","msl000052","freq","","","img/orange_2bandit_b2.png","70","","70","test","1","","","circle","square","64","62","17","3","0.8548387096774194","","","","","","","","","",""
"null","","918295","SARL_v68f0quk5p","msl000052","freq_resp","","","img/orange_2bandit_b.png","70","img/orange_2bandit_b.png","70","test","","","","","","","","","3","","","","","","","","","","",""
"null","","918452","SARL_v68f0quk5p","msl000052","fixation","","","img/fixation.png","null","","","test","","","","","","","","","","","","","","","","","","","",""
"333","","918790","SARL_v68f0quk5p","msl000052","freq","","","img/orange_2bandit_b2.png","70","","70","test","1","","","circle","square","65","63","18","3","0.8571428571428571","","","","","","","","","",""
"null","","919262","SARL_v68f0quk5p","msl000052","freq_resp","","","img/orange_2bandit_b.png","70","img/orange_2bandit_b.png","70","test","","","","","","","","","3","","","","","","","","","","",""
"null","","919417","SARL_v68f0quk5p","msl000052","fixation","","","img/fixation.png","null","","","test","","","","","","","","","","","","","","","","","","","",""
"381","","919804","SARL_v68f0quk5p","msl000052","freq","","","img/orange_2bandit_b2.png","70","","70","test","1","","","circle","square","66","64","19","3","0.859375","","","","","","","","","",""
"null","","920228","SARL_v68f0quk5p","msl000052","freq_resp","","","img/orange_2bandit_b.png","70","img/orange_2bandit_b.png","70","test","","","","","","","","","3","","","","","","","","","","",""
"null","","920385","SARL_v68f0quk5p","msl000052","fixation","","","img/fixation.png","null","","","test","","","","","","","","","","","","","","","","","","","",""
"303","","920693","SARL_v68f0quk5p","msl000052","freq","","","img/orange_2bandit_b2.png","70","","70","test","1","","","circle","square","67","65","20","3","0.8615384615384616","","","","","","","","","",""
"null","","921196","SARL_v68f0quk5p","msl000052","freq_resp","","","img/orange_2bandit_b.png","70","img/orange_2bandit_b.png","70","test","","","","","","","","","3","","","","","","","","","","",""
"null","","921351","SARL_v68f0quk5p","msl000052","fixation","","","img/fixation.png","null","","","test","","","","","","","","","","","","","","","","","","","",""
"490","","921846","SARL_v68f0quk5p","msl000052","rl","","","img/black_2bandit_b2.png","75","","0","test","","","1","circle","square","68","","0","3","","75","0.2","0.8","0.09142042483396784","0.2","0.8","0.8","square","3","0"
"null","","922603","SARL_v68f0quk5p","msl000052","feedback","","","img/yay_R_b.png","null","","na","test","","","","","","","","","3","","75","0.2","0.8","","","","0.8","","3",""
"289","","922895","SARL_v68f0quk5p","msl000052","freq","","","img/orange_2bandit_b2.png","70","","70","test","1","","","circle","square","69","66","1","4","0.8636363636363636","","","","","","","","","",""
"null","","923412","SARL_v68f0quk5p","msl000052","freq_resp","","","img/orange_2bandit_b.png","70","img/orange_2bandit_b.png","70","test","","","","","","","","","4","","","","","","","","","","",""
"null","","923569","SARL_v68f0quk5p","msl000052","fixation","","","img/fixation.png","null","","","test","","","","","","","","","","","","","","","","","","","",""
"279","","923854","SARL_v68f0quk5p","msl000052","freq","","","img/orange_2bandit_b2.png","70","","70","test","1","","","circle","square","70","67","2","4","0.8656716417910447","","","","","","","","","",""
"null","","924380","SARL_v68f0quk5p","msl000052","freq_resp","","","img/orange_2bandit_b.png","70","img/orange_2bandit_b.png","70","test","","","","","","","","","4","","","","","","","","","","",""
"null","","924537","SARL_v68f0quk5p","msl000052","fixation","","","img/fixation.png","null","","","test","","","","","","","","","","","","","","","","","","","",""
"276","","924817","SARL_v68f0quk5p","msl000052","infreq","","","img/green_2bandit_b2.png","70","","68","test","0","","","circle","square","71","68","3","4","0.8529411764705882","","","","","","","","","",""
"null","","925347","SARL_v68f0quk5p","msl000052","infreq_resp","","","img/green_2bandit_b.png","70","img/green_2bandit_b.png","68","test","","","","","","","","","4","","","","","","","","","","",""
"null","","925503","SARL_v68f0quk5p","msl000052","fixation","","","img/fixation.png","null","","","test","","","","","","","","","","","","","","","","","","","",""
"468","","925977","SARL_v68f0quk5p","msl000052","freq","","","img/orange_2bandit_b2.png","70","","70","test","1","","","circle","square","72","69","4","4","0.855072463768116","","","","","","","","","",""
"null","","926316","SARL_v68f0quk5p","msl000052","freq_resp","","","img/orange_2bandit_b.png","70","img/orange_2bandit_b.png","70","test","","","","","","","","","4","","","","","","","","","","",""
"null","","926472","SARL_v68f0quk5p","msl000052","fixation","","","img/fixation.png","null","","","test","","","","","","","","","","","","","","","","","","","",""
"332","","926810","SARL_v68f0quk5p","msl000052","freq","","","img/orange_2bandit_b2.png","70","","70","test","1","","","circle","square","73","70","5","4","0.8571428571428571","","","","","","","","","",""
"null","","927284","SARL_v68f0quk5p","msl000052","freq_resp","","","img/orange_2bandit_b.png","70","img/orange_2bandit_b.png","70","test","","","","","","","","","4","","","","","","","","","","",""
"null","","927439","SARL_v68f0quk5p","msl000052","fixation","","","img/fixation.png","null","","","test","","","","","","","","","","","","","","","","","","","",""
"359","","927803","SARL_v68f0quk5p","msl000052","infreq","","","img/green_2bandit_b2.png","70","","68","test","0","","","circle","square","74","71","6","4","0.8450704225352113","","","","","","","","","",""
"null","","928249","SARL_v68f0quk5p","msl000052","infreq_resp","","","img/green_2bandit_b.png","70","img/green_2bandit_b.png","68","test","","","","","","","","","4","","","","","","","","","","",""
"null","","928405","SARL_v68f0quk5p","msl000052","fixation","","","img/fixation.png","null","","","test","","","","","","","","","","","","","","","","","","","",""
"407","","928816","SARL_v68f0quk5p","msl000052","freq","","","img/orange_2bandit_b2.png","70","","70","test","1","","","circle","square","75","72","7","4","0.8472222222222222","","","","","","","","","",""
"null","","929215","SARL_v68f0quk5p","msl000052","freq_resp","","","img/orange_2bandit_b.png","70","img/orange_2bandit_b.png","70","test","","","","","","","","","4","","","","","","","","","","",""
"null","","929369","SARL_v68f0quk5p","msl000052","fixation","","","img/fixation.png","null","","","test","","","","","","","","","","","","","","","","","","","",""
"356","","929731","SARL_v68f0quk5p","msl000052","freq","","","img/orange_2bandit_b2.png","70","","70","test","1","","","circle","square","76","73","8","4","0.8493150684931506","","","","","","","","","",""
"null","","930181","SARL_v68f0quk5p","msl000052","freq_resp","","","img/orange_2bandit_b.png","70","img/orange_2bandit_b.png","70","test","","","","","","","","","4","","","","","","","","","","",""
"null","","930337","SARL_v68f0quk5p","msl000052","fixation","","","img/fixation.png","null","","","test","","","","","","","","","","","","","","","","","","","",""
"385","","930726","SARL_v68f0quk5p","msl000052","freq","","","img/orange_2bandit_b2.png","70","","70","test","1","","","circle","square","77","74","9","4","0.8513513513513513","","","","","","","","","",""
"null","","931147","SARL_v68f0quk5p","msl000052","freq_resp","","","img/orange_2bandit_b.png","70","img/orange_2bandit_b.png","70","test","","","","","","","","","4","","","","","","","","","","",""
"null","","931302","SARL_v68f0quk5p","msl000052","fixation","","","img/fixation.png","null","","","test","","","","","","","","","","","","","","","","","","","",""
"372","","931678","SARL_v68f0quk5p","msl000052","freq","","","img/orange_2bandit_b2.png","70","","70","test","1","","","circle","square","78","75","10","4","0.8533333333333334","","","","","","","","","",""
"null","","932111","SARL_v68f0quk5p","msl000052","freq_resp","","","img/orange_2bandit_b.png","70","img/orange_2bandit_b.png","70","test","","","","","","","","","4","","","","","","","","","","",""
"null","","932266","SARL_v68f0quk5p","msl000052","fixation","","","img/fixation.png","null","","","test","","","","","","","","","","","","","","","","","","","",""
"435","","932707","SARL_v68f0quk5p","msl000052","freq","","","img/orange_2bandit_b2.png","70","","70","test","1","","","circle","square","79","76","11","4","0.8552631578947368","","","","","","","","","",""
"null","","933079","SARL_v68f0quk5p","msl000052","freq_resp","","","img/orange_2bandit_b.png","70","img/orange_2bandit_b.png","70","test","","","","","","","","","4","","","","","","","","","","",""
"null","","933234","SARL_v68f0quk5p","msl000052","fixation","","","img/fixation.png","null","","","test","","","","","","","","","","","","","","","","","","","",""
"293","","933532","SARL_v68f0quk5p","msl000052","freq","","","img/orange_2bandit_b2.png","70","","70","test","1","","","circle","square","80","77","12","4","0.8571428571428571","","","","","","","","","",""
"null","","934045","SARL_v68f0quk5p","msl000052","freq_resp","","","img/orange_2bandit_b.png","70","img/orange_2bandit_b.png","70","test","","","","","","","","","4","","","","","","","","","","",""
"null","","934200","SARL_v68f0quk5p","msl000052","fixation","","","img/fixation.png","null","","","test","","","","","","","","","","","","","","","","","","","",""
"391","","934597","SARL_v68f0quk5p","msl000052","freq","","","img/orange_2bandit_b2.png","70","","70","test","1","","","circle","square","81","78","13","4","0.8589743589743589","","","","","","","","","",""
"null","","935012","SARL_v68f0quk5p","msl000052","freq_resp","","","img/orange_2bandit_b.png","70","img/orange_2bandit_b.png","70","test","","","","","","","","","4","","","","","","","","","","",""
"null","","935168","SARL_v68f0quk5p","msl000052","fixation","","","img/fixation.png","null","","","test","","","","","","","","","","","","","","","","","","","",""
"356","","935528","SARL_v68f0quk5p","msl000052","freq","","","img/orange_2bandit_b2.png","70","","70","test","1","","","circle","square","82","79","14","4","0.8607594936708861","","","","","","","","","",""
"null","","935978","SARL_v68f0quk5p","msl000052","freq_resp","","","img/orange_2bandit_b.png","70","img/orange_2bandit_b.png","70","test","","","","","","","","","4","","","","","","","","","","",""
"null","","936133","SARL_v68f0quk5p","msl000052","fixation","","","img/fixation.png","null","","","test","","","","","","","","","","","","","","","","","","","",""
"454","","936592","SARL_v68f0quk5p","msl000052","freq","","","img/orange_2bandit_b2.png","70","","70","test","1","","","circle","square","83","80","15","4","0.8625","","","","","","","","","",""
"null","","936943","SARL_v68f0quk5p","msl000052","freq_resp","","","img/orange_2bandit_b.png","70","img/orange_2bandit_b.png","70","test","","","","","","","","","4","","","","","","","","","","",""
"null","","937099","SARL_v68f0quk5p","msl000052","fixation","","","img/fixation.png","null","","","test","","","","","","","","","","","","","","","","","","","",""
"451","","937553","SARL_v68f0quk5p","msl000052","freq","","","img/orange_2bandit_b2.png","70","","70","test","1","","","circle","square","84","81","16","4","0.8641975308641975","","","","","","","","","",""
"null","","937908","SARL_v68f0quk5p","msl000052","freq_resp","","","img/orange_2bandit_b.png","70","img/orange_2bandit_b.png","70","test","","","","","","","","","4","","","","","","","","","","",""
"null","","938064","SARL_v68f0quk5p","msl000052","fixation","","","img/fixation.png","null","","","test","","","","","","","","","","","","","","","","","","","",""
"528","","938596","SARL_v68f0quk5p","msl000052","infreq","","","img/green_2bandit_b2.png","68","","68","test","1","","","circle","square","85","82","17","4","0.8658536585365854","","","","","","","","","",""
"null","","938875","SARL_v68f0quk5p","msl000052","infreq_resp","","","img/green_2bandit_b.png","68","img/green_2bandit_b.png","68","test","","","","","","","","","4","","","","","","","","","","",""
"null","","939030","SARL_v68f0quk5p","msl000052","fixation","","","img/fixation.png","null","","","test","","","","","","","","","","","","","","","","","","","",""
"428","","939463","SARL_v68f0quk5p","msl000052","freq","","","img/orange_2bandit_b2.png","70","","70","test","1","","","circle","square","86","83","18","4","0.8674698795180723","","","","","","","","","",""
"null","","939840","SARL_v68f0quk5p","msl000052","freq_resp","","","img/orange_2bandit_b.png","70","img/orange_2bandit_b.png","70","test","","","","","","","","","4","","","","","","","","","","",""
"null","","939996","SARL_v68f0quk5p","msl000052","fixation","","","img/fixation.png","null","","","test","","","","","","","","","","","","","","","","","","","",""
"321","","940322","SARL_v68f0quk5p","msl000052","freq","","","img/orange_2bandit_b2.png","70","","70","test","1","","","circle","square","87","84","19","4","0.8690476190476191","","","","","","","","","",""
"null","","940806","SARL_v68f0quk5p","msl000052","freq_resp","","","img/orange_2bandit_b.png","70","img/orange_2bandit_b.png","70","test","","","","","","","","","4","","","","","","","","","","",""
"null","","940962","SARL_v68f0quk5p","msl000052","fixation","","","img/fixation.png","null","","","test","","","","","","","","","","","","","","","","","","","",""
"245","","941211","SARL_v68f0quk5p","msl000052","freq","","","img/orange_2bandit_b2.png","70","","70","test","1","","","circle","square","88","85","20","4","0.8705882352941177","","","","","","","","","",""
"null","","941772","SARL_v68f0quk5p","msl000052","freq_resp","","","img/orange_2bandit_b.png","70","img/orange_2bandit_b.png","70","test","","","","","","","","","4","","","","","","","","","","",""
"null","","941927","SARL_v68f0quk5p","msl000052","fixation","","","img/fixation.png","null","","","test","","","","","","","","","","","","","","","","","","","",""
"326","","942258","SARL_v68f0quk5p","msl000052","freq","","","img/orange_2bandit_b2.png","70","","70","test","1","","","circle","square","89","86","21","4","0.872093023255814","","","","","","","","","",""
"null","","942739","SARL_v68f0quk5p","msl000052","freq_resp","","","img/orange_2bandit_b.png","70","img/orange_2bandit_b.png","70","test","","","","","","","","","4","","","","","","","","","","",""
"null","","942895","SARL_v68f0quk5p","msl000052","fixation","","","img/fixation.png","null","","","test","","","","","","","","","","","","","","","","","","","",""
"606","","943505","SARL_v68f0quk5p","msl000052","rl","","","img/black_2bandit_b2.png","75","","0","test","","","1","circle","square","90","","0","4","","75","0.2","0.8","0.044306191206836876","0.2","0.8","0.8","square","4","0"
"null","","944262","SARL_v68f0quk5p","msl000052","feedback","","","img/yay_R_b.png","null","","na","test","","","","","","","","","4","","75","0.2","0.8","","","","0.8","","4",""
"448","","944714","SARL_v68f0quk5p","msl000052","freq","","","img/orange_2bandit_b2.png","70","","70","test","1","","","circle","square","91","87","1","5","0.8735632183908046","","","","","","","","","",""
"null","","945072","SARL_v68f0quk5p","msl000052","freq_resp","","","img/orange_2bandit_b.png","70","img/orange_2bandit_b.png","70","test","","","","","","","","","5","","","","","","","","","","",""
"null","","945227","SARL_v68f0quk5p","msl000052","fixation","","","img/fixation.png","null","","","test","","","","","","","","","","","","","","","","","","","",""
"421","","945654","SARL_v68f0quk5p","msl000052","freq","","","img/orange_2bandit_b2.png","70","","70","test","1","","","circle","square","92","88","2","5","0.875","","","","","","","","","",""
"null","","946039","SARL_v68f0quk5p","msl000052","freq_resp","","","img/orange_2bandit_b.png","70","img/orange_2bandit_b.png","70","test","","","","","","","","","5","","","","","","","","","","",""
"null","","946195","SARL_v68f0quk5p","msl000052","fixation","","","img/fixation.png","null","","","test","","","","","","","","","","","","","","","","","","","",""
"422","","946621","SARL_v68f0quk5p","msl000052","freq","","","img/orange_2bandit_b2.png","70","","70","test","1","","","circle","square","93","89","3","5","0.8764044943820225","","","","","","","","","",""
"null","","947005","SARL_v68f0quk5p","msl000052","freq_resp","","","img/orange_2bandit_b.png","70","img/orange_2bandit_b.png","70","test","","","","","","","","","5","","","","","","","","","","",""
"null","","947162","SARL_v68f0quk5p","msl000052","fixation","","","img/fixation.png","null","","","test","","","","","","","","","","","","","","","","","","","",""
"454","","947621","SARL_v68f0quk5p","msl000052","infreq","","","img/green_2bandit_b2.png","68","","68","test","1","","","circle","square","94","90","4","5","0.8777777777777778","","","","","","","","","",""
"null","","947973","SARL_v68f0quk5p","msl000052","infreq_resp","","","img/green_2bandit_b.png","68","img/green_2bandit_b.png","68","test","","","","","","","","","5","","","","","","","","","","",""
"null","","948130","SARL_v68f0quk5p","msl000052","fixation","","","img/fixation.png","null","","","test","","","","","","","","","","","","","","","","","","","",""
"429","","948564","SARL_v68f0quk5p","msl000052","freq","","","img/orange_2bandit_b2.png","70","","70","test","1","","","circle","square","95","91","5","5","0.8791208791208791","","","","","","","","","",""
"null","","948939","SARL_v68f0quk5p","msl000052","freq_resp","","","img/orange_2bandit_b.png","70","img/orange_2bandit_b.png","70","test","","","","","","","","","5","","","","","","","","","","",""
"null","","949095","SARL_v68f0quk5p","msl000052","fixation","","","img/fixation.png","null","","","test","","","","","","","","","","","","","","","","","","","",""
"372","","949471","SARL_v68f0quk5p","msl000052","freq","","","img/orange_2bandit_b2.png","70","","70","test","1","","","circle","square","96","92","6","5","0.8804347826086957","","","","","","","","","",""
"null","","949905","SARL_v68f0quk5p","msl000052","freq_resp","","","img/orange_2bandit_b.png","70","img/orange_2bandit_b.png","70","test","","","","","","","","","5","","","","","","","","","","",""
"null","","950060","SARL_v68f0quk5p","msl000052","fixation","","","img/fixation.png","null","","","test","","","","","","","","","","","","","","","","","","","",""
"395","","950460","SARL_v68f0quk5p","msl000052","freq","","","img/orange_2bandit_b2.png","70","","70","test","1","","","circle","square","97","93","7","5","0.8817204301075269","","","","","","","","","",""
"null","","950871","SARL_v68f0quk5p","msl000052","freq_resp","","","img/orange_2bandit_b.png","70","img/orange_2bandit_b.png","70","test","","","","","","","","","5","","","","","","","","","","",""
"null","","951027","SARL_v68f0quk5p","msl000052","fixation","","","img/fixation.png","null","","","test","","","","","","","","","","","","","","","","","","","",""
"402","","951433","SARL_v68f0quk5p","msl000052","freq","","","img/orange_2bandit_b2.png","70","","70","test","1","","","circle","square","98","94","8","5","0.8829787234042553","","","","","","","","","",""
"null","","951836","SARL_v68f0quk5p","msl000052","freq_resp","","","img/orange_2bandit_b.png","70","img/orange_2bandit_b.png","70","test","","","","","","","","","5","","","","","","","","","","",""
"null","","951992","SARL_v68f0quk5p","msl000052","fixation","","","img/fixation.png","null","","","test","","","","","","","","","","","","","","","","","","","",""
"441","","952438","SARL_v68f0quk5p","msl000052","freq","","","img/orange_2bandit_b2.png","70","","70","test","1","","","circle","square","99","95","9","5","0.8842105263157894","","","","","","","","","",""
"null","","952803","SARL_v68f0quk5p","msl000052","freq_resp","","","img/orange_2bandit_b.png","70","img/orange_2bandit_b.png","70","test","","","","","","","","","5","","","","","","","","","","",""
"null","","952958","SARL_v68f0quk5p","msl000052","fixation","","","img/fixation.png","null","","","test","","","","","","","","","","","","","","","","","","","",""
"434","","953398","SARL_v68f0quk5p","msl000052","freq","","","img/orange_2bandit_b2.png","70","","70","test","1","","","circle","square","100","96","10","5","0.8854166666666666","","","","","","","","","",""
"null","","953771","SARL_v68f0quk5p","msl000052","freq_resp","","","img/orange_2bandit_b.png","70","img/orange_2bandit_b.png","70","test","","","","","","","","","5","","","","","","","","","","",""
"null","","953926","SARL_v68f0quk5p","msl000052","fixation","","","img/fixation.png","null","","","test","","","","","","","","","","","","","","","","","","","",""
"414","","954346","SARL_v68f0quk5p","msl000052","freq","","","img/orange_2bandit_b2.png","70","","70","test","1","","","circle","square","101","97","11","5","0.8865979381443299","","","","","","","","","",""
"null","","954737","SARL_v68f0quk5p","msl000052","freq_resp","","","img/orange_2bandit_b.png","70","img/orange_2bandit_b.png","70","test","","","","","","","","","5","","","","","","","","","","",""
"null","","954894","SARL_v68f0quk5p","msl000052","fixation","","","img/fixation.png","null","","","test","","","","","","","","","","","","","","","","","","","",""
"455","","955354","SARL_v68f0quk5p","msl000052","infreq","","","img/green_2bandit_b2.png","68","","68","test","1","","","circle","square","102","98","12","5","0.8877551020408163","","","","","","","","","",""
"null","","955706","SARL_v68f0quk5p","msl000052","infreq_resp","","","img/green_2bandit_b.png","68","img/green_2bandit_b.png","68","test","","","","","","","","","5","","","","","","","","","","",""
"null","","955861","SARL_v68f0quk5p","msl000052","fixation","","","img/fixation.png","null","","","test","","","","","","","","","","","","","","","","","","","",""
"447","","956314","SARL_v68f0quk5p","msl000052","freq","","","img/orange_2bandit_b2.png","70","","70","test","1","","","circle","square","103","99","13","5","0.8888888888888888","","","","","","","","","",""
"null","","956673","SARL_v68f0quk5p","msl000052","freq_resp","","","img/orange_2bandit_b.png","70","img/orange_2bandit_b.png","70","test","","","","","","","","","5","","","","","","","","","","",""
"null","","956829","SARL_v68f0quk5p","msl000052","fixation","","","img/fixation.png","null","","","test","","","","","","","","","","","","","","","","","","","",""
"317","","957151","SARL_v68f0quk5p","msl000052","freq","","","img/orange_2bandit_b2.png","70","","70","test","1","","","circle","square","104","100","14","5","0.89","","","","","","","","","",""
"null","","957640","SARL_v68f0quk5p","msl000052","freq_resp","","","img/orange_2bandit_b.png","70","img/orange_2bandit_b.png","70","test","","","","","","","","","5","","","","","","","","","","",""
"null","","957796","SARL_v68f0quk5p","msl000052","fixation","","","img/fixation.png","null","","","test","","","","","","","","","","","","","","","","","","","",""
"279","","958079","SARL_v68f0quk5p","msl000052","freq","","","img/orange_2bandit_b2.png","70","","70","test","1","","","circle","square","105","101","15","5","0.8910891089108911","","","","","","","","","",""
"null","","958605","SARL_v68f0quk5p","msl000052","freq_resp","","","img/orange_2bandit_b.png","70","img/orange_2bandit_b.png","70","test","","","","","","","","","5","","","","","","","","","","",""
"null","","958760","SARL_v68f0quk5p","msl000052","fixation","","","img/fixation.png","null","","","test","","","","","","","","","","","","","","","","","","","",""
"204","","958970","SARL_v68f0quk5p","msl000052","freq","","","img/orange_2bandit_b2.png","70","","70","test","1","","","circle","square","106","102","16","5","0.8921568627450981","","","","","","","","","",""
"null","","959572","SARL_v68f0quk5p","msl000052","freq_resp","","","img/orange_2bandit_b.png","70","img/orange_2bandit_b.png","70","test","","","","","","","","","5","","","","","","","","","","",""
"null","","959728","SARL_v68f0quk5p","msl000052","fixation","","","img/fixation.png","null","","","test","","","","","","","","","","","","","","","","","","","",""
"140","","959872","SARL_v68f0quk5p","msl000052","freq","","","img/orange_2bandit_b2.png","70","","70","test","1","","","circle","square","107","103","17","5","0.8932038834951457","","","","","","","","","",""
"null","","960538","SARL_v68f0quk5p","msl000052","freq_resp","","","img/orange_2bandit_b.png","70","img/orange_2bandit_b.png","70","test","","","","","","","","","5","","","","","","","","","","",""
"null","","960693","SARL_v68f0quk5p","msl000052","fixation","","","img/fixation.png","null","","","test","","","","","","","","","","","","","","","","","","","",""
"104","","960801","SARL_v68f0quk5p","msl000052","freq","","","img/orange_2bandit_b2.png","70","","70","test","1","","","circle","square","108","104","18","5","0.8942307692307693","","","","","","","","","",""
"null","","961503","SARL_v68f0quk5p","msl000052","freq_resp","","","img/orange_2bandit_b.png","70","img/orange_2bandit_b.png","70","test","","","","","","","","","5","","","","","","","","","","",""
"null","","961658","SARL_v68f0quk5p","msl000052","fixation","","","img/fixation.png","null","","","test","","","","","","","","","","","","","","","","","","","",""
"125","","961789","SARL_v68f0quk5p","msl000052","infreq","","","img/green_2bandit_b2.png","70","","68","test","0","","","circle","square","109","105","19","5","0.8857142857142857","","","","","","","","","",""
"null","","962469","SARL_v68f0quk5p","msl000052","infreq_resp","","","img/green_2bandit_b.png","70","img/green_2bandit_b.png","68","test","","","","","","","","","5","","","","","","","","","","",""
"null","","962626","SARL_v68f0quk5p","msl000052","fixation","","","img/fixation.png","null","","","test","","","","","","","","","","","","","","","","","","","",""
"525","","963156","SARL_v68f0quk5p","msl000052","freq","","","img/orange_2bandit_b2.png","70","","70","test","1","","","circle","square","110","106","20","5","0.8867924528301887","","","","","","","","","",""
"null","","963436","SARL_v68f0quk5p","msl000052","freq_resp","","","img/orange_2bandit_b.png","70","img/orange_2bandit_b.png","70","test","","","","","","","","","5","","","","","","","","","","",""
"null","","963591","SARL_v68f0quk5p","msl000052","fixation","","","img/fixation.png","null","","","test","","","","","","","","","","","","","","","","","","","",""
"421","","964017","SARL_v68f0quk5p","msl000052","freq","","","img/orange_2bandit_b2.png","70","","70","test","1","","","circle","square","111","107","21","5","0.8878504672897196","","","","","","","","","",""
"null","","964401","SARL_v68f0quk5p","msl000052","freq_resp","","","img/orange_2bandit_b.png","70","img/orange_2bandit_b.png","70","test","","","","","","","","","5","","","","","","","","","","",""
"null","","964557","SARL_v68f0quk5p","msl000052","fixation","","","img/fixation.png","null","","","test","","","","","","","","","","","","","","","","","","","",""
"510","","965072","SARL_v68f0quk5p","msl000052","infreq","","","img/green_2bandit_b2.png","68","","68","test","1","","","circle","square","112","108","22","5","0.8888888888888888","","","","","","","","","",""
"null","","965368","SARL_v68f0quk5p","msl000052","infreq_resp","","","img/green_2bandit_b.png","68","img/green_2bandit_b.png","68","test","","","","","","","","","5","","","","","","","","","","",""
"null","","965523","SARL_v68f0quk5p","msl000052","fixation","","","img/fixation.png","null","","","test","","","","","","","","","","","","","","","","","","","",""
"431","","965960","SARL_v68f0quk5p","msl000052","freq","","","img/orange_2bandit_b2.png","70","","70","test","1","","","circle","square","113","109","23","5","0.8899082568807339","","","","","","","","","",""
"null","","966335","SARL_v68f0quk5p","msl000052","freq_resp","","","img/orange_2bandit_b.png","70","img/orange_2bandit_b.png","70","test","","","","","","","","","5","","","","","","","","","","",""
"null","","966491","SARL_v68f0quk5p","msl000052","fixation","","","img/fixation.png","null","","","test","","","","","","","","","","","","","","","","","","","",""
"297","","966793","SARL_v68f0quk5p","msl000052","freq","","","img/orange_2bandit_b2.png","70","","70","test","1","","","circle","square","114","110","24","5","0.8909090909090909","","","","","","","","","",""
"null","","967302","SARL_v68f0quk5p","msl000052","freq_resp","","","img/orange_2bandit_b.png","70","img/orange_2bandit_b.png","70","test","","","","","","","","","5","","","","","","","","","","",""
"null","","967456","SARL_v68f0quk5p","msl000052","fixation","","","img/fixation.png","null","","","test","","","","","","","","","","","","","","","","","","","",""
"400","","967861","SARL_v68f0quk5p","msl000052","freq","","","img/orange_2bandit_b2.png","70","","70","test","1","","","circle","square","115","111","25","5","0.8918918918918919","","","","","","","","","",""
"null","","968267","SARL_v68f0quk5p","msl000052","freq_resp","","","img/orange_2bandit_b.png","70","img/orange_2bandit_b.png","70","test","","","","","","","","","5","","","","","","","","","","",""
"null","","968423","SARL_v68f0quk5p","msl000052","fixation","","","img/fixation.png","null","","","test","","","","","","","","","","","","","","","","","","","",""
"452","","968880","SARL_v68f0quk5p","msl000052","rl","","","img/black_2bandit_b2.png","75","","0","test","","","1","circle","square","116","","0","5","","75","0.2","0.8","0.06452205229504027","0.2","0.8","0.8","square","5","0"
"null","","969636","SARL_v68f0quk5p","msl000052","feedback","","","img/yay_R_b.png","null","","na","test","","","","","","","","","5","","75","0.2","0.8","","","","0.8","","5",""
"465","","970105","SARL_v68f0quk5p","msl000052","freq","","","img/orange_2bandit_b2.png","70","","70","test","1","","","circle","square","117","112","1","6","0.8928571428571429","","","","","","","","","",""
"null","","970445","SARL_v68f0quk5p","msl000052","freq_resp","","","img/orange_2bandit_b.png","70","img/orange_2bandit_b.png","70","test","","","","","","","","","6","","","","","","","","","","",""
"null","","970601","SARL_v68f0quk5p","msl000052","fixation","","","img/fixation.png","null","","","test","","","","","","","","","","","","","","","","","","","",""
"429","","971036","SARL_v68f0quk5p","msl000052","freq","","","img/orange_2bandit_b2.png","70","","70","test","1","","","circle","square","118","113","2","6","0.8938053097345132","","","","","","","","","",""
"null","","971413","SARL_v68f0quk5p","msl000052","freq_resp","","","img/orange_2bandit_b.png","70","img/orange_2bandit_b.png","70","test","","","","","","","","","6","","","","","","","","","","",""
"null","","971569","SARL_v68f0quk5p","msl000052","fixation","","","img/fixation.png","null","","","test","","","","","","","","","","","","","","","","","","","",""
"474","","972047","SARL_v68f0quk5p","msl000052","freq","","","img/orange_2bandit_b2.png","70","","70","test","1","","","circle","square","119","114","3","6","0.8947368421052632","","","","","","","","","",""
"null","","972379","SARL_v68f0quk5p","msl000052","freq_resp","","","img/orange_2bandit_b.png","70","img/orange_2bandit_b.png","70","test","","","","","","","","","6","","","","","","","","","","",""
"null","","972535","SARL_v68f0quk5p","msl000052","fixation","","","img/fixation.png","null","","","test","","","","","","","","","","","","","","","","","","","",""
"406","","972946","SARL_v68f0quk5p","msl000052","freq","","","img/orange_2bandit_b2.png","70","","70","test","1","","","circle","square","120","115","4","6","0.8956521739130435","","","","","","","","","",""
"null","","973344","SARL_v68f0quk5p","msl000052","freq_resp","","","img/orange_2bandit_b.png","70","img/orange_2bandit_b.png","70","test","","","","","","","","","6","","","","","","","","","","",""
"null","","973500","SARL_v68f0quk5p","msl000052","fixation","","","img/fixation.png","null","","","test","","","","","","","","","","","","","","","","","","","",""
"430","","973935","SARL_v68f0quk5p","msl000052","freq","","","img/orange_2bandit_b2.png","70","","70","test","1","","","circle","square","121","116","5","6","0.896551724137931","","","","","","","","","",""
"null","","974310","SARL_v68f0quk5p","msl000052","freq_resp","","","img/orange_2bandit_b.png","70","img/orange_2bandit_b.png","70","test","","","","","","","","","6","","","","","","","","","","",""
"null","","974466","SARL_v68f0quk5p","msl000052","fixation","","","img/fixation.png","null","","","test","","","","","","","","","","","","","","","","","","","",""
"409","","974880","SARL_v68f0quk5p","msl000052","freq","","","img/orange_2bandit_b2.png","70","","70","test","1","","","circle","square","122","117","6","6","0.8974358974358975","","","","","","","","","",""
"null","","975277","SARL_v68f0quk5p","msl000052","freq_resp","","","img/orange_2bandit_b.png","70","img/orange_2bandit_b.png","70","test","","","","","","","","","6","","","","","","","","","","",""
"null","","975432","SARL_v68f0quk5p","msl000052","fixation","","","img/fixation.png","null","","","test","","","","","","","","","","","","","","","","","","","",""
"472","","975908","SARL_v68f0quk5p","msl000052","freq","","","img/orange_2bandit_b2.png","70","","70","test","1","","","circle","square","123","118","7","6","0.8983050847457628","","","","","","","","","",""
"null","","976243","SARL_v68f0quk5p","msl000052","freq_resp","","","img/orange_2bandit_b.png","70","img/orange_2bandit_b.png","70","test","","","","","","","","","6","","","","","","","","","","",""
"null","","976399","SARL_v68f0quk5p","msl000052","fixation","","","img/fixation.png","null","","","test","","","","","","","","","","","","","","","","","","","",""
"424","","976827","SARL_v68f0quk5p","msl000052","freq","","","img/orange_2bandit_b2.png","70","","70","test","1","","","circle","square","124","119","8","6","0.8991596638655462","","","","","","","","","",""
"null","","977210","SARL_v68f0quk5p","msl000052","freq_resp","","","img/orange_2bandit_b.png","70","img/orange_2bandit_b.png","70","test","","","","","","","","","6","","","","","","","","","","",""
"null","","977366","SARL_v68f0quk5p","msl000052","fixation","","","img/fixation.png","null","","","test","","","","","","","","","","","","","","","","","","","",""
"465","","977835","SARL_v68f0quk5p","msl000052","freq","","","img/orange_2bandit_b2.png","70","","70","test","1","","","circle","square","125","120","9","6","0.9","","","","","","","","","",""
"null","","978175","SARL_v68f0quk5p","msl000052","freq_resp","","","img/orange_2bandit_b.png","70","img/orange_2bandit_b.png","70","test","","","","","","","","","6","","","","","","","","","","",""
"null","","978331","SARL_v68f0quk5p","msl000052","fixation","","","img/fixation.png","null","","","test","","","","","","","","","","","","","","","","","","","",""
"493","","978829","SARL_v68f0quk5p","msl000052","freq","","","img/orange_2bandit_b2.png","70","","70","test","1","","","circle","square","126","121","10","6","0.9008264462809917","","","","","","","","","",""
"null","","979142","SARL_v68f0quk5p","msl000052","freq_resp","","","img/orange_2bandit_b.png","70","img/orange_2bandit_b.png","70","test","","","","","","","","","6","","","","","","","","","","",""
"null","","979297","SARL_v68f0quk5p","msl000052","fixation","","","img/fixation.png","null","","","test","","","","","","","","","","","","","","","","","","","",""
"515","","979818","SARL_v68f0quk5p","msl000052","freq","","","img/orange_2bandit_b2.png","70","","70","test","1","","","circle","square","127","122","11","6","0.9016393442622951","","","","","","","","","",""
"null","","980108","SARL_v68f0quk5p","msl000052","freq_resp","","","img/orange_2bandit_b.png","70","img/orange_2bandit_b.png","70","test","","","","","","","","","6","","","","","","","","","","",""
"null","","980263","SARL_v68f0quk5p","msl000052","fixation","","","img/fixation.png","null","","","test","","","","","","","","","","","","","","","","","","","",""
"536","","980803","SARL_v68f0quk5p","msl000052","freq","","","img/orange_2bandit_b2.png","70","","70","test","1","","","circle","square","128","123","12","6","0.9024390243902439","","","","","","","","","",""
"null","","981072","SARL_v68f0quk5p","msl000052","freq_resp","","","img/orange_2bandit_b.png","70","img/orange_2bandit_b.png","70","test","","","","","","","","","6","","","","","","","","","","",""
"null","","981228","SARL_v68f0quk5p","msl000052","fixation","","","img/fixation.png","null","","","test","","","","","","","","","","","","","","","","","","","",""
"623","","981856","SARL_v68f0quk5p","msl000052","freq","","","img/orange_2bandit_b2.png","70","","70","test","1","","","circle","square","129","124","13","6","0.9032258064516129","","","","","","","","","",""
"null","","982039","SARL_v68f0quk5p","msl000052","freq_resp","","","img/orange_2bandit_b.png","70","img/orange_2bandit_b.png","70","test","","","","","","","","","6","","","","","","","","","","",""
"null","","982195","SARL_v68f0quk5p","msl000052","fixation","","","img/fixation.png","null","","","test","","","","","","","","","","","","","","","","","","","",""
"608","","982809","SARL_v68f0quk5p","msl000052","freq","","","img/orange_2bandit_b2.png","70","","70","test","1","","","circle","square","130","125","14","6","0.904","","","","","","","","","",""
"null","","983007","SARL_v68f0quk5p","msl000052","freq_resp","","","img/orange_2bandit_b.png","70","img/orange_2bandit_b.png","70","test","","","","","","","","","6","","","","","","","","","","",""
"null","","983163","SARL_v68f0quk5p","msl000052","fixation","","","img/fixation.png","null","","","test","","","","","","","","","","","","","","","","","","","",""
"531","","983699","SARL_v68f0quk5p","msl000052","freq","","","img/orange_2bandit_b2.png","70","","70","test","1","","","circle","square","131","126","15","6","0.9047619047619048","","","","","","","","","",""
"null","","983973","SARL_v68f0quk5p","msl000052","freq_resp","","","img/orange_2bandit_b.png","70","img/orange_2bandit_b.png","70","test","","","","","","","","","6","","","","","","","","","","",""
"null","","984130","SARL_v68f0quk5p","msl000052","fixation","","","img/fixation.png","null","","","test","","","","","","","","","","","","","","","","","","","",""
"474","","984610","SARL_v68f0quk5p","msl000052","infreq","","","img/green_2bandit_b2.png","68","","68","test","1","","","circle","square","132","127","16","6","0.905511811023622","","","","","","","","","",""
"null","","984943","SARL_v68f0quk5p","msl000052","infreq_resp","","","img/green_2bandit_b.png","68","img/green_2bandit_b.png","68","test","","","","","","","","","6","","","","","","","","","","",""
"null","","985099","SARL_v68f0quk5p","msl000052","fixation","","","img/fixation.png","null","","","test","","","","","","","","","","","","","","","","","","","",""
"365","","985469","SARL_v68f0quk5p","msl000052","freq","","","img/orange_2bandit_b2.png","70","","70","test","1","","","circle","square","133","128","17","6","0.90625","","","","","","","","","",""
"null","","985910","SARL_v68f0quk5p","msl000052","freq_resp","","","img/orange_2bandit_b.png","70","img/orange_2bandit_b.png","70","test","","","","","","","","","6","","","","","","","","","","",""
"null","","986067","SARL_v68f0quk5p","msl000052","fixation","","","img/fixation.png","null","","","test","","","","","","","","","","","","","","","","","","","",""
"338","","986409","SARL_v68f0quk5p","msl000052","freq","","","img/orange_2bandit_b2.png","70","","70","test","1","","","circle","square","134","129","18","6","0.9069767441860465","","","","","","","","","",""
"null","","986877","SARL_v68f0quk5p","msl000052","freq_resp","","","img/orange_2bandit_b.png","70","img/orange_2bandit_b.png","70","test","","","","","","","","","6","","","","","","","","","","",""
"null","","987033","SARL_v68f0quk5p","msl000052","fixation","","","img/fixation.png","null","","","test","","","","","","","","","","","","","","","","","","","",""
"335","","987372","SARL_v68f0quk5p","msl000052","freq","","","img/orange_2bandit_b2.png","70","","70","test","1","","","circle","square","135","130","19","6","0.9076923076923077","","","","","","","","","",""
"null","","987842","SARL_v68f0quk5p","msl000052","freq_resp","","","img/orange_2bandit_b.png","70","img/orange_2bandit_b.png","70","test","","","","","","","","","6","","","","","","","","","","",""
"null","","987998","SARL_v68f0quk5p","msl000052","fixation","","","img/fixation.png","null","","","test","","","","","","","","","","","","","","","","","","","",""
"302","","988305","SARL_v68f0quk5p","msl000052","freq","","","img/orange_2bandit_b2.png","70","","70","test","1","","","circle","square","136","131","20","6","0.9083969465648855","","","","","","","","","",""
"null","","988809","SARL_v68f0quk5p","msl000052","freq_resp","","","img/orange_2bandit_b.png","70","img/orange_2bandit_b.png","70","test","","","","","","","","","6","","","","","","","","","","",""
"null","","988964","SARL_v68f0quk5p","msl000052","fixation","","","img/fixation.png","null","","","test","","","","","","","","","","","","","","","","","","","",""
"264","","989234","SARL_v68f0quk5p","msl000052","freq","","","img/orange_2bandit_b2.png","70","","70","test","1","","","circle","square","137","132","21","6","0.9090909090909091","","","","","","","","","",""
"null","","989776","SARL_v68f0quk5p","msl000052","freq_resp","","","img/orange_2bandit_b.png","70","img/orange_2bandit_b.png","70","test","","","","","","","","","6","","","","","","","","","","",""
"null","","989933","SARL_v68f0quk5p","msl000052","fixation","","","img/fixation.png","null","","","test","","","","","","","","","","","","","","","","","","","",""
"287","","990224","SARL_v68f0quk5p","msl000052","infreq","","","img/green_2bandit_b2.png","70","","68","test","0","","","circle","square","138","133","22","6","0.9022556390977443","","","","","","","","","",""
"null","","990743","SARL_v68f0quk5p","msl000052","infreq_resp","","","img/green_2bandit_b.png","70","img/green_2bandit_b.png","68","test","","","","","","","","","6","","","","","","","","","","",""
"null","","990899","SARL_v68f0quk5p","msl000052","fixation","","","img/fixation.png","null","","","test","","","","","","","","","","","","","","","","","","","",""
"434","","991337","SARL_v68f0quk5p","msl000052","freq","","","img/orange_2bandit_b2.png","70","","70","test","1","","","circle","square","139","134","23","6","0.9029850746268657","","","","","","","","","",""
"null","","991708","SARL_v68f0quk5p","msl000052","freq_resp","","","img/orange_2bandit_b.png","70","img/orange_2bandit_b.png","70","test","","","","","","","","","6","","","","","","","","","","",""
"null","","991864","SARL_v68f0quk5p","msl000052","fixation","","","img/fixation.png","null","","","test","","","","","","","","","","","","","","","","","","","",""
"650","","992519","SARL_v68f0quk5p","msl000052","rl","","","img/black_2bandit_b2.png","75","","0","test","","","1","circle","square","140","","0","6","","75","0.2","0.8","0.7491297191079399","0.2","0.8","0.8","square","6","0"
"null","","993275","SARL_v68f0quk5p","msl000052","feedback","","","img/yay_R_b.png","null","","na","test","","","","","","","","","6","","75","0.2","0.8","","","","0.8","","6",""
"471","","993753","SARL_v68f0quk5p","msl000052","freq","","","img/orange_2bandit_b2.png","70","","70","test","1","","","circle","square","141","135","1","7","0.9037037037037037","","","","","","","","","",""
"null","","994086","SARL_v68f0quk5p","msl000052","freq_resp","","","img/orange_2bandit_b.png","70","img/orange_2bandit_b.png","70","test","","","","","","","","","7","","","","","","","","","","",""
"null","","994242","SARL_v68f0quk5p","msl000052","fixation","","","img/fixation.png","null","","","test","","","","","","","","","","","","","","","","","","","",""
"422","","994669","SARL_v68f0quk5p","msl000052","infreq","","","img/green_2bandit_b2.png","68","","68","test","1","","","circle","square","142","136","2","7","0.9044117647058824","","","","","","","","","",""
"null","","995053","SARL_v68f0quk5p","msl000052","infreq_resp","","","img/green_2bandit_b.png","68","img/green_2bandit_b.png","68","test","","","","","","","","","7","","","","","","","","","","",""
"null","","995208","SARL_v68f0quk5p","msl000052","fixation","","","img/fixation.png","null","","","test","","","","","","","","","","","","","","","","","","","",""
"411","","995622","SARL_v68f0quk5p","msl000052","freq","","","img/orange_2bandit_b2.png","70","","70","test","1","","","circle","square","143","137","3","7","0.9051094890510949","","","","","","","","","",""
"null","","996018","SARL_v68f0quk5p","msl000052","freq_resp","","","img/orange_2bandit_b.png","70","img/orange_2bandit_b.png","70","test","","","","","","","","","7","","","","","","","","","","",""
"null","","996173","SARL_v68f0quk5p","msl000052","fixation","","","img/fixation.png","null","","","test","","","","","","","","","","","","","","","","","","","",""
"323","","996501","SARL_v68f0quk5p","msl000052","freq","","","img/orange_2bandit_b2.png","70","","70","test","1","","","circle","square","144","138","4","7","0.9057971014492754","","","","","","","","","",""
"null","","996984","SARL_v68f0quk5p","msl000052","freq_resp","","","img/orange_2bandit_b.png","70","img/orange_2bandit_b.png","70","test","","","","","","","","","7","","","","","","","","","","",""
"null","","997140","SARL_v68f0quk5p","msl000052","fixation","","","img/fixation.png","null","","","test","","","","","","","","","","","","","","","","","","","",""
"317","","997462","SARL_v68f0quk5p","msl000052","freq","","","img/orange_2bandit_b2.png","70","","70","test","1","","","circle","square","145","139","5","7","0.9064748201438849","","","","","","","","","",""
"null","","997951","SARL_v68f0quk5p","msl000052","freq_resp","","","img/orange_2bandit_b.png","70","img/orange_2bandit_b.png","70","test","","","","","","","","","7","","","","","","","","","","",""
"null","","998106","SARL_v68f0quk5p","msl000052","fixation","","","img/fixation.png","null","","","test","","","","","","","","","","","","","","","","","","","",""
"403","","998514","SARL_v68f0quk5p","msl000052","freq","","","img/orange_2bandit_b2.png","70","","70","test","1","","","circle","square","146","140","6","7","0.9071428571428571","","","","","","","","","",""
"null","","998917","SARL_v68f0quk5p","msl000052","freq_resp","","","img/orange_2bandit_b.png","70","img/orange_2bandit_b.png","70","test","","","","","","","","","7","","","","","","","","","","",""
"null","","999073","SARL_v68f0quk5p","msl000052","fixation","","","img/fixation.png","null","","","test","","","","","","","","","","","","","","","","","","","",""
"536","","999613","SARL_v68f0quk5p","msl000052","freq","","","img/orange_2bandit_b2.png","70","","70","test","1","","","circle","square","147","141","7","7","0.9078014184397163","","","","","","","","","",""
"null","","999884","SARL_v68f0quk5p","msl000052","freq_resp","","","img/orange_2bandit_b.png","70","img/orange_2bandit_b.png","70","test","","","","","","","","","7","","","","","","","","","","",""
"null","","1000040","SARL_v68f0quk5p","msl000052","fixation","","","img/fixation.png","null","","","test","","","","","","","","","","","","","","","","","","","",""
"616","","1000661","SARL_v68f0quk5p","msl000052","freq","","","img/orange_2bandit_b2.png","70","","70","test","1","","","circle","square","148","142","8","7","0.9084507042253521","","","","","","","","","",""
"null","","1000851","SARL_v68f0quk5p","msl000052","freq_resp","","","img/orange_2bandit_b.png","70","img/orange_2bandit_b.png","70","test","","","","","","","","","7","","","","","","","","","","",""
"null","","1001007","SARL_v68f0quk5p","msl000052","fixation","","","img/fixation.png","null","","","test","","","","","","","","","","","","","","","","","","","",""
"668","","1001681","SARL_v68f0quk5p","msl000052","freq","","","img/orange_2bandit_b2.png","70","","70","test","1","","","circle","square","149","143","9","7","0.9090909090909091","","","","","","","","","",""
"null","","1001819","SARL_v68f0quk5p","msl000052","freq_resp","","","img/orange_2bandit_b.png","70","img/orange_2bandit_b.png","70","test","","","","","","","","","7","","","","","","","","","","",""
"null","","1001975","SARL_v68f0quk5p","msl000052","fixation","","","img/fixation.png","null","","","test","","","","","","","","","","","","","","","","","","","",""
"539","","1002519","SARL_v68f0quk5p","msl000052","freq","","","img/orange_2bandit_b2.png","70","","70","test","1","","","circle","square","150","144","10","7","0.9097222222222222","","","","","","","","","",""
