"rt","responses","time_elapsed","subject","demoID","trialType","rlType","attType","stimulus","key_press","stim","corrresp","phase","corr","pracCounter","reward","bandOne","bandTwo","trialNum","attentionNum","attentionRunNum","blockNum","performance","bandChosen","circleVal","squareVal","coin","bandOneVal","bandTwoVal","pReward","shapeChosen","rlNum","badFlag"
"519692","{""Q0"":""msl000121""}","519717","SARL_v6evvdhzk7","msl000121","","","","","","","","","","","","","","","","","","","","","","","","","","","",""
"40169","","559892","SARL_v6evvdhzk7","msl000121","","","","","","","","","","","","","","","","","","","","","","","","","","","",""
"","","562215","SARL_v6evvdhzk7","msl000121","fullscreen","fullscreen","fullscreen","","","","","","","","","","","","","","","","","","","","","","","","",""
"58332","","620552","SARL_v6evvdhzk7","msl000121","","","","","","","","","","","","","","","","","","","","","","","","","","","",""
"null","","621357","SARL_v6evvdhzk7","msl000121","freqPrac","","","img/green_2bandit_a2.png","null","img/green_2bandit_a2.png","70","prac","0","1","","","","","","","","","","","","","","","","","",""
"null","","622364","SARL_v6evvdhzk7","msl000121","feedback","","","img/tooSlow.png","null","","na","prac","","","","","","","","","","","","","","","","","","","",""
"null","","622520","SARL_v6evvdhzk7","msl000121","fixation","","","img/fixation.png","null","","","prac","","","","","","","","","","","","","","","","","","","",""
"null","","623325","SARL_v6evvdhzk7","msl000121","infreqPrac","","","img/orange_2bandit_a2.png","null","img/orange_2bandit_a2.png","68","prac","0","2","","","","","","","","","","","","","","","","","",""
"null","","624331","SARL_v6evvdhzk7","msl000121","feedback","","","img/tooSlow.png","null","","na","prac","","","","","","","","","","","","","","","","","","","",""
"null","","624487","SARL_v6evvdhzk7","msl000121","fixation","","","img/fixation.png","null","","","prac","","","","","","","","","","","","","","","","","","","",""
"613","","625105","SARL_v6evvdhzk7","msl000121","freqPrac","","","img/green_2bandit_a2.png","68","img/green_2bandit_a2.png","70","prac","0","3","","","","","","","","","","","","","","","","","",""
"613","","625298","SARL_v6evvdhzk7","msl000121","freqPrac_resp","","","img/green_2bandit_a.png","68","img/green_2bandit_a.png","70","prac","","","","","","","","","","","","","","","","","","","",""
"null","","626302","SARL_v6evvdhzk7","msl000121","feedback","","","img/wrongKey.png","null","","na","prac","","","","","","","","","","","","","","","","","","","",""
"null","","626458","SARL_v6evvdhzk7","msl000121","fixation","","","img/fixation.png","null","","","prac","","","","","","","","","","","","","","","","","","","",""
"null","","627264","SARL_v6evvdhzk7","msl000121","infreqPrac","","","img/orange_2bandit_a2.png","null","img/orange_2bandit_a2.png","68","prac","0","4","","","","","","","","","","","","","","","","","",""
"null","","628270","SARL_v6evvdhzk7","msl000121","feedback","","","img/tooSlow.png","null","","na","prac","","","","","","","","","","","","","","","","","","","",""
"null","","628426","SARL_v6evvdhzk7","msl000121","fixation","","","img/fixation.png","null","","","prac","","","","","","","","","","","","","","","","","","","",""
"null","","629232","SARL_v6evvdhzk7","msl000121","infreqPrac","","","img/orange_2bandit_a2.png","null","img/orange_2bandit_a2.png","68","prac","0","5","","","","","","","","","","","","","","","","","",""
"null","","630237","SARL_v6evvdhzk7","msl000121","feedback","","","img/tooSlow.png","null","","na","prac","","","","","","","","","","","","","","","","","","","",""
"null","","630392","SARL_v6evvdhzk7","msl000121","fixation","","","img/fixation.png","null","","","prac","","","","","","","","","","","","","","","","","","","",""
"null","","631197","SARL_v6evvdhzk7","msl000121","infreqPrac","","","img/orange_2bandit_a2.png","null","img/orange_2bandit_a2.png","68","prac","0","6","","","","","","","","","","","","","","","","","",""
"null","","632203","SARL_v6evvdhzk7","msl000121","feedback","","","img/tooSlow.png","null","","na","prac","","","","","","","","","","","","","","","","","","","",""
"null","","632359","SARL_v6evvdhzk7","msl000121","fixation","","","img/fixation.png","null","","","prac","","","","","","","","","","","","","","","","","","","",""
"null","","633164","SARL_v6evvdhzk7","msl000121","freqPrac","","","img/green_2bandit_a2.png","null","img/green_2bandit_a2.png","70","prac","0","7","","","","","","","","","","","","","","","","","",""
"null","","634169","SARL_v6evvdhzk7","msl000121","feedback","","","img/tooSlow.png","null","","na","prac","","","","","","","","","","","","","","","","","","","",""
"null","","634326","SARL_v6evvdhzk7","msl000121","fixation","","","img/fixation.png","null","","","prac","","","","","","","","","","","","","","","","","","","",""
"null","","635131","SARL_v6evvdhzk7","msl000121","infreqPrac","","","img/orange_2bandit_a2.png","null","img/orange_2bandit_a2.png","68","prac","0","8","","","","","","","","","","","","","","","","","",""
"null","","636136","SARL_v6evvdhzk7","msl000121","feedback","","","img/tooSlow.png","null","","na","prac","","","","","","","","","","","","","","","","","","","",""
"null","","636292","SARL_v6evvdhzk7","msl000121","fixation","","","img/fixation.png","null","","","prac","","","","","","","","","","","","","","","","","","","",""
"null","","637099","SARL_v6evvdhzk7","msl000121","freqPrac","","","img/green_2bandit_a2.png","null","img/green_2bandit_a2.png","70","prac","0","9","","","","","","","","","","","","","","","","","",""
"null","","638104","SARL_v6evvdhzk7","msl000121","feedback","","","img/tooSlow.png","null","","na","prac","","","","","","","","","","","","","","","","","","","",""
"null","","638258","SARL_v6evvdhzk7","msl000121","fixation","","","img/fixation.png","null","","","prac","","","","","","","","","","","","","","","","","","","",""
"618","","638883","SARL_v6evvdhzk7","msl000121","freqPrac","","","img/green_2bandit_a2.png","68","img/green_2bandit_a2.png","70","prac","0","10","","","","","","","","","","","","","","","","","",""
"618","","639069","SARL_v6evvdhzk7","msl000121","freqPrac_resp","","","img/green_2bandit_a.png","68","img/green_2bandit_a.png","70","prac","","","","","","","","","","","","","","","","","","","",""
"null","","640075","SARL_v6evvdhzk7","msl000121","feedback","","","img/wrongKey.png","null","","na","prac","","","","","","","","","","","","","","","","","","","",""
"null","","640230","SARL_v6evvdhzk7","msl000121","fixation","","","img/fixation.png","null","","","prac","","","","","","","","","","","","","","","","","","","",""
"68754","","708990","SARL_v6evvdhzk7","msl000121","","","","","","","","prac","","","","","","","","","","","","","","","","","","","",""
"1433","","710428","SARL_v6evvdhzk7","msl000121","rlPractice","","","img/black_2bandit_a2.png","75","img/black_2bandit_a2.png","","prac","","","75","","","","","","","","","","","","","","","","",""
"null","","711184","SARL_v6evvdhzk7","msl000121","feedback","","","img/yay_R_a.png","null","","na","prac","","","","","","","","","","","","","","","","","","","",""
"null","","711339","SARL_v6evvdhzk7","msl000121","fixation","","","img/fixation.png","null","","","prac","","","","","","","","","","","","","","","","","","","",""
"1091","","712434","SARL_v6evvdhzk7","msl000121","rlPractice","","","img/black_2bandit_a2.png","74","img/black_2bandit_a2.png","","prac","","","75","","","","","","","","","","","","","","","","",""
"null","","713191","SARL_v6evvdhzk7","msl000121","feedback","","","img/boo_L_a.png","null","","na","prac","","","","","","","","","","","","","","","","","","","",""
"null","","713346","SARL_v6evvdhzk7","msl000121","fixation","","","img/fixation.png","null","","","prac","","","","","","","","","","","","","","","","","","","",""
"520","","713872","SARL_v6evvdhzk7","msl000121","rlPractice","","","img/black_2bandit_a2.png","75","img/black_2bandit_a2.png","","prac","","","75","","","","","","","","","","","","","","","","",""
"null","","714628","SARL_v6evvdhzk7","msl000121","feedback","","","img/yay_R_a.png","null","","na","prac","","","","","","","","","","","","","","","","","","","",""
"null","","714784","SARL_v6evvdhzk7","msl000121","fixation","","","img/fixation.png","null","","","prac","","","","","","","","","","","","","","","","","","","",""
"471","","715260","SARL_v6evvdhzk7","msl000121","rlPractice","","","img/black_2bandit_a2.png","75","img/black_2bandit_a2.png","","prac","","","75","","","","","","","","","","","","","","","","",""
"null","","716015","SARL_v6evvdhzk7","msl000121","feedback","","","img/yay_R_a.png","null","","na","prac","","","","","","","","","","","","","","","","","","","",""
"null","","716170","SARL_v6evvdhzk7","msl000121","fixation","","","img/fixation.png","null","","","prac","","","","","","","","","","","","","","","","","","","",""
"415","","716589","SARL_v6evvdhzk7","msl000121","rlPractice","","","img/black_2bandit_a2.png","75","img/black_2bandit_a2.png","","prac","","","75","","","","","","","","","","","","","","","","",""
"null","","717344","SARL_v6evvdhzk7","msl000121","feedback","","","img/yay_R_a.png","null","","na","prac","","","","","","","","","","","","","","","","","","","",""
"null","","717500","SARL_v6evvdhzk7","msl000121","fixation","","","img/fixation.png","null","","","prac","","","","","","","","","","","","","","","","","","","",""
"380","","717884","SARL_v6evvdhzk7","msl000121","rlPractice","","","img/black_2bandit_a2.png","75","img/black_2bandit_a2.png","","prac","","","75","","","","","","","","","","","","","","","","",""
"null","","718639","SARL_v6evvdhzk7","msl000121","feedback","","","img/yay_R_a.png","null","","na","prac","","","","","","","","","","","","","","","","","","","",""
"null","","718795","SARL_v6evvdhzk7","msl000121","fixation","","","img/fixation.png","null","","","prac","","","","","","","","","","","","","","","","","","","",""
"344","","719143","SARL_v6evvdhzk7","msl000121","rlPractice","","","img/black_2bandit_a2.png","75","img/black_2bandit_a2.png","","prac","","","75","","","","","","","","","","","","","","","","",""
"null","","719898","SARL_v6evvdhzk7","msl000121","feedback","","","img/yay_R_a.png","null","","na","prac","","","","","","","","","","","","","","","","","","","",""
"null","","720054","SARL_v6evvdhzk7","msl000121","fixation","","","img/fixation.png","null","","","prac","","","","","","","","","","","","","","","","","","","",""
"20573","","740632","SARL_v6evvdhzk7","msl000121","","","","","","","","prac","","","","","","","","","","","","","","","","","","","",""
"null","","741438","SARL_v6evvdhzk7","msl000121","mixAttFreqPrac","","","img/green_2bandit_a2.png","null","img/green_2bandit_a2.png","70","prac","","","","","","","","","","","","","","","","","","","",""
"null","","741594","SARL_v6evvdhzk7","msl000121","fixation","","","img/fixation.png","null","","","prac","","","","","","","","","","","","","","","","","","","",""
"null","","742400","SARL_v6evvdhzk7","msl000121","mixAttInfreqPrac","","","img/orange_2bandit_a2.png","null","img/orange_2bandit_a2.png","68","prac","","","","","","","","","","","","","","","","","","","",""
"null","","742555","SARL_v6evvdhzk7","msl000121","fixation","","","img/fixation.png","null","","","prac","","","","","","","","","","","","","","","","","","","",""
"730","","743290","SARL_v6evvdhzk7","msl000121","mixAttInfreqPrac","","","img/orange_2bandit_a2.png","68","img/orange_2bandit_a2.png","68","prac","","","","","","","","","","","","","","","","","","","",""
"730","","743366","SARL_v6evvdhzk7","msl000121","infreqPrac_resp","","","img/orange_2bandit_a.png","68","img/green_2bandit_a.png","68","prac","","","","","","","","","","","","","","","","","","","",""
"null","","743521","SARL_v6evvdhzk7","msl000121","fixation","","","img/fixation.png","null","","","prac","","","","","","","","","","","","","","","","","","","",""
"650","","744178","SARL_v6evvdhzk7","msl000121","mixAttInfreqPrac","","","img/orange_2bandit_a2.png","68","img/orange_2bandit_a2.png","68","prac","","","","","","","","","","","","","","","","","","","",""
"650","","744333","SARL_v6evvdhzk7","msl000121","infreqPrac_resp","","","img/orange_2bandit_a.png","68","img/green_2bandit_a.png","68","prac","","","","","","","","","","","","","","","","","","","",""
"null","","744489","SARL_v6evvdhzk7","msl000121","fixation","","","img/fixation.png","null","","","prac","","","","","","","","","","","","","","","","","","","",""
"null","","745294","SARL_v6evvdhzk7","msl000121","mixAttFreqPrac","","","img/green_2bandit_a2.png","null","img/green_2bandit_a2.png","70","prac","","","","","","","","","","","","","","","","","","","",""
"54","","745451","SARL_v6evvdhzk7","msl000121","fixation","","","img/fixation.png","70","","","prac","","","","","","","","","","","","","","","","","","","",""
"851","","746306","SARL_v6evvdhzk7","msl000121","mixRLPractice","","","img/black_2bandit_a2.png","75","img/black_2bandit_a2.png","","prac","","","","","","","","","","","","","","","","","","","",""
"null","","747062","SARL_v6evvdhzk7","msl000121","feedback","","","img/boo_R_a.png","null","","na","prac","","","","","","","","","","","","","","","","","","","",""
"549","","747615","SARL_v6evvdhzk7","msl000121","mixAttFreqPrac","","","img/green_2bandit_a2.png","68","img/green_2bandit_a2.png","70","prac","","","","","","","","","","","","","","","","","","","",""
"549","","747871","SARL_v6evvdhzk7","msl000121","freqPrac_resp","","","img/green_2bandit_a.png","68","img/green_2bandit_a.png","70","prac","","","","","","","","","","","","","","","","","","","",""
"null","","748027","SARL_v6evvdhzk7","msl000121","fixation","","","img/fixation.png","null","","","prac","","","","","","","","","","","","","","","","","","","",""
"668","","748700","SARL_v6evvdhzk7","msl000121","mixAttInfreqPrac","","","img/orange_2bandit_a2.png","70","img/orange_2bandit_a2.png","68","prac","","","","","","","","","","","","","","","","","","","",""
"668","","748838","SARL_v6evvdhzk7","msl000121","infreqPrac_resp","","","img/orange_2bandit_a.png","70","img/green_2bandit_a.png","68","prac","","","","","","","","","","","","","","","","","","","",""
"null","","748994","SARL_v6evvdhzk7","msl000121","fixation","","","img/fixation.png","null","","","prac","","","","","","","","","","","","","","","","","","","",""
"609","","749608","SARL_v6evvdhzk7","msl000121","mixAttFreqPrac","","","img/green_2bandit_a2.png","68","img/green_2bandit_a2.png","70","prac","","","","","","","","","","","","","","","","","","","",""
"609","","749805","SARL_v6evvdhzk7","msl000121","freqPrac_resp","","","img/green_2bandit_a.png","68","img/green_2bandit_a.png","70","prac","","","","","","","","","","","","","","","","","","","",""
"null","","749960","SARL_v6evvdhzk7","msl000121","fixation","","","img/fixation.png","null","","","prac","","","","","","","","","","","","","","","","","","","",""
"null","","750765","SARL_v6evvdhzk7","msl000121","mixAttFreqPrac","","","img/green_2bandit_a2.png","null","img/green_2bandit_a2.png","70","prac","","","","","","","","","","","","","","","","","","","",""
"null","","750922","SARL_v6evvdhzk7","msl000121","fixation","","","img/fixation.png","null","","","prac","","","","","","","","","","","","","","","","","","","",""
"0","","750926","SARL_v6evvdhzk7","msl000121","mixAttInfreqPrac","","","img/orange_2bandit_a2.png","70","img/orange_2bandit_a2.png","68","prac","","","","","","","","","","","","","","","","","","","",""
"0","","751730","SARL_v6evvdhzk7","msl000121","infreqPrac_resp","","","img/orange_2bandit_a.png","70","img/green_2bandit_a.png","68","prac","","","","","","","","","","","","","","","","","","","",""
"null","","751885","SARL_v6evvdhzk7","msl000121","fixation","","","img/fixation.png","null","","","prac","","","","","","","","","","","","","","","","","","","",""
"504","","752392","SARL_v6evvdhzk7","msl000121","mixRLPractice","","","img/black_2bandit_a2.png","75","img/black_2bandit_a2.png","","prac","","","","","","","","","","","","","","","","","","","",""
"null","","753148","SARL_v6evvdhzk7","msl000121","feedback","","","img/yay_R_a.png","null","","na","prac","","","","","","","","","","","","","","","","","","","",""
"31612","","784763","SARL_v6evvdhzk7","msl000121","","","","","","","","prac","","","","","","","","","","","","","","","","","","","",""
"null","","785570","SARL_v6evvdhzk7","msl000121","freq","","","img/green_2bandit_a2.png","null","","70","test","0","","","square","circle","1","1","1","1","0","","","","","","","","","",""
"null","","785725","SARL_v6evvdhzk7","msl000121","fixation","","","img/fixation.png","null","","","test","","","","","","","","","","","","","","","","","","","",""
"755","","786486","SARL_v6evvdhzk7","msl000121","freq","","","img/green_2bandit_a2.png","68","","70","test","0","","","square","circle","2","2","2","1","0","","","","","","","","","",""
"null","","786537","SARL_v6evvdhzk7","msl000121","freq_resp","","","img/green_2bandit_a.png","68","img/green_2bandit_a.png","70","test","","","","","","","","","1","","","","","","","","","","",""
"null","","786692","SARL_v6evvdhzk7","msl000121","fixation","","","img/fixation.png","null","","","test","","","","","","","","","","","","","","","","","","","",""
"415","","787112","SARL_v6evvdhzk7","msl000121","freq","","","img/green_2bandit_a2.png","68","","70","test","0","","","square","circle","3","3","3","1","0","","","","","","","","","",""
"null","","787502","SARL_v6evvdhzk7","msl000121","freq_resp","","","img/green_2bandit_a.png","68","img/green_2bandit_a.png","70","test","","","","","","","","","1","","","","","","","","","","",""
"null","","787657","SARL_v6evvdhzk7","msl000121","fixation","","","img/fixation.png","null","","","test","","","","","","","","","","","","","","","","","","","",""
"767","","788429","SARL_v6evvdhzk7","msl000121","freq","","","img/green_2bandit_a2.png","70","","70","test","1","","","square","circle","4","4","4","1","0.25","","","","","","","","","",""
"null","","788469","SARL_v6evvdhzk7","msl000121","freq_resp","","","img/green_2bandit_a.png","70","img/green_2bandit_a.png","70","test","","","","","","","","","1","","","","","","","","","","",""
"null","","788624","SARL_v6evvdhzk7","msl000121","fixation","","","img/fixation.png","null","","","test","","","","","","","","","","","","","","","","","","","",""
"542","","789171","SARL_v6evvdhzk7","msl000121","freq","","","img/green_2bandit_a2.png","70","","70","test","1","","","square","circle","5","5","5","1","0.4","","","","","","","","","",""
"null","","789435","SARL_v6evvdhzk7","msl000121","freq_resp","","","img/green_2bandit_a.png","70","img/green_2bandit_a.png","70","test","","","","","","","","","1","","","","","","","","","","",""
"null","","789591","SARL_v6evvdhzk7","msl000121","fixation","","","img/fixation.png","null","","","test","","","","","","","","","","","","","","","","","","","",""
"643","","790239","SARL_v6evvdhzk7","msl000121","infreq","","","img/orange_2bandit_a2.png","68","","68","test","1","","","square","circle","6","6","6","1","0.5","","","","","","","","","",""
"null","","790403","SARL_v6evvdhzk7","msl000121","infreq_resp","","","img/orange_2bandit_a.png","68","img/orange_2bandit_a.png","68","test","","","","","","","","","1","","","","","","","","","","",""
"null","","790559","SARL_v6evvdhzk7","msl000121","fixation","","","img/fixation.png","null","","","test","","","","","","","","","","","","","","","","","","","",""
"null","","791364","SARL_v6evvdhzk7","msl000121","freq","","","img/green_2bandit_a2.png","null","","70","test","0","","","square","circle","7","7","7","1","0.42857142857142855","","","","","","","","","",""
"null","","791520","SARL_v6evvdhzk7","msl000121","fixation","","","img/fixation.png","null","","","test","","","","","","","","","","","","","","","","","","","",""
"null","","792325","SARL_v6evvdhzk7","msl000121","freq","","","img/green_2bandit_a2.png","null","","70","test","0","","","square","circle","8","8","8","1","0.375","","","","","","","","","",""
"null","","792480","SARL_v6evvdhzk7","msl000121","fixation","","","img/fixation.png","null","","","test","","","","","","","","","","","","","","","","","","","",""
"52","","792538","SARL_v6evvdhzk7","msl000121","infreq","","","img/orange_2bandit_a2.png","70","","68","test","0","","","square","circle","9","9","9","1","0.3333333333333333","","","","","","","","","",""
"null","","793290","SARL_v6evvdhzk7","msl000121","infreq_resp","","","img/orange_2bandit_a.png","70","img/orange_2bandit_a.png","68","test","","","","","","","","","1","","","","","","","","","","",""
"null","","793447","SARL_v6evvdhzk7","msl000121","fixation","","","img/fixation.png","null","","","test","","","","","","","","","","","","","","","","","","","",""
"632","","794084","SARL_v6evvdhzk7","msl000121","freq","","","img/green_2bandit_a2.png","68","","70","test","0","","","square","circle","10","10","10","1","0.3","","","","","","","","","",""
"null","","794258","SARL_v6evvdhzk7","msl000121","freq_resp","","","img/green_2bandit_a.png","68","img/green_2bandit_a.png","70","test","","","","","","","","","1","","","","","","","","","","",""
"null","","794413","SARL_v6evvdhzk7","msl000121","fixation","","","img/fixation.png","null","","","test","","","","","","","","","","","","","","","","","","","",""
"632","","795050","SARL_v6evvdhzk7","msl000121","freq","","","img/green_2bandit_a2.png","68","","70","test","0","","","square","circle","11","11","11","1","0.2727272727272727","","","","","","","","","",""
"null","","795222","SARL_v6evvdhzk7","msl000121","freq_resp","","","img/green_2bandit_a.png","68","img/green_2bandit_a.png","70","test","","","","","","","","","1","","","","","","","","","","",""
"null","","795377","SARL_v6evvdhzk7","msl000121","fixation","","","img/fixation.png","null","","","test","","","","","","","","","","","","","","","","","","","",""
"614","","795997","SARL_v6evvdhzk7","msl000121","freq","","","img/green_2bandit_a2.png","70","","70","test","1","","","square","circle","12","12","12","1","0.3333333333333333","","","","","","","","","",""
"null","","796189","SARL_v6evvdhzk7","msl000121","freq_resp","","","img/green_2bandit_a.png","70","img/green_2bandit_a.png","70","test","","","","","","","","","1","","","","","","","","","","",""
"null","","796344","SARL_v6evvdhzk7","msl000121","fixation","","","img/fixation.png","null","","","test","","","","","","","","","","","","","","","","","","","",""
"null","","797150","SARL_v6evvdhzk7","msl000121","infreq","","","img/orange_2bandit_a2.png","null","","68","test","0","","","square","circle","13","13","13","1","0.3076923076923077","","","","","","","","","",""
"null","","797306","SARL_v6evvdhzk7","msl000121","fixation","","","img/fixation.png","null","","","test","","","","","","","","","","","","","","","","","","","",""
"null","","798111","SARL_v6evvdhzk7","msl000121","freq","","","img/green_2bandit_a2.png","null","","70","test","0","","","square","circle","14","14","14","1","0.2857142857142857","","","","","","","","","",""
"null","","798266","SARL_v6evvdhzk7","msl000121","fixation","","","img/fixation.png","null","","","test","","","","","","","","","","","","","","","","","","","",""
"null","","799072","SARL_v6evvdhzk7","msl000121","freq","","","img/green_2bandit_a2.png","null","","70","test","0","","","square","circle","15","15","15","1","0.26666666666666666","","","","","","","","","",""
"null","","799227","SARL_v6evvdhzk7","msl000121","fixation","","","img/fixation.png","null","","","test","","","","","","","","","","","","","","","","","","","",""
"419","","799650","SARL_v6evvdhzk7","msl000121","freq","","","img/green_2bandit_a2.png","70","","70","test","1","","","square","circle","16","16","16","1","0.3125","","","","","","","","","",""
"null","","800037","SARL_v6evvdhzk7","msl000121","freq_resp","","","img/green_2bandit_a.png","70","img/green_2bandit_a.png","70","test","","","","","","","","","1","","","","","","","","","","",""
"null","","800193","SARL_v6evvdhzk7","msl000121","fixation","","","img/fixation.png","null","","","test","","","","","","","","","","","","","","","","","","","",""
"406","","800604","SARL_v6evvdhzk7","msl000121","freq","","","img/green_2bandit_a2.png","70","","70","test","1","","","square","circle","17","17","17","1","0.35294117647058826","","","","","","","","","",""
"null","","801003","SARL_v6evvdhzk7","msl000121","freq_resp","","","img/green_2bandit_a.png","70","img/green_2bandit_a.png","70","test","","","","","","","","","1","","","","","","","","","","",""
"null","","801158","SARL_v6evvdhzk7","msl000121","fixation","","","img/fixation.png","null","","","test","","","","","","","","","","","","","","","","","","","",""
"389","","801554","SARL_v6evvdhzk7","msl000121","freq","","","img/green_2bandit_a2.png","70","","70","test","1","","","square","circle","18","18","18","1","0.3888888888888889","","","","","","","","","",""
"null","","801970","SARL_v6evvdhzk7","msl000121","freq_resp","","","img/green_2bandit_a.png","70","img/green_2bandit_a.png","70","test","","","","","","","","","1","","","","","","","","","","",""
"null","","802125","SARL_v6evvdhzk7","msl000121","fixation","","","img/fixation.png","null","","","test","","","","","","","","","","","","","","","","","","","",""
"352","","802483","SARL_v6evvdhzk7","msl000121","freq","","","img/green_2bandit_a2.png","70","","70","test","1","","","square","circle","19","19","19","1","0.42105263157894735","","","","","","","","","",""
"null","","802936","SARL_v6evvdhzk7","msl000121","freq_resp","","","img/green_2bandit_a.png","70","img/green_2bandit_a.png","70","test","","","","","","","","","1","","","","","","","","","","",""
"null","","803092","SARL_v6evvdhzk7","msl000121","fixation","","","img/fixation.png","null","","","test","","","","","","","","","","","","","","","","","","","",""
"354","","803450","SARL_v6evvdhzk7","msl000121","freq","","","img/green_2bandit_a2.png","70","","70","test","1","","","square","circle","20","20","20","1","0.45","","","","","","","","","",""
"null","","803902","SARL_v6evvdhzk7","msl000121","freq_resp","","","img/green_2bandit_a.png","70","img/green_2bandit_a.png","70","test","","","","","","","","","1","","","","","","","","","","",""
"null","","804058","SARL_v6evvdhzk7","msl000121","fixation","","","img/fixation.png","null","","","test","","","","","","","","","","","","","","","","","","","",""
"338","","804400","SARL_v6evvdhzk7","msl000121","freq","","","img/green_2bandit_a2.png","70","","70","test","1","","","square","circle","21","21","21","1","0.47619047619047616","","","","","","","","","",""
"null","","804867","SARL_v6evvdhzk7","msl000121","freq_resp","","","img/green_2bandit_a.png","70","img/green_2bandit_a.png","70","test","","","","","","","","","1","","","","","","","","","","",""
"null","","805022","SARL_v6evvdhzk7","msl000121","fixation","","","img/fixation.png","null","","","test","","","","","","","","","","","","","","","","","","","",""
"361","","805388","SARL_v6evvdhzk7","msl000121","freq","","","img/green_2bandit_a2.png","70","","70","test","1","","","square","circle","22","22","22","1","0.5","","","","","","","","","",""
"null","","805831","SARL_v6evvdhzk7","msl000121","freq_resp","","","img/green_2bandit_a.png","70","img/green_2bandit_a.png","70","test","","","","","","","","","1","","","","","","","","","","",""
"null","","805986","SARL_v6evvdhzk7","msl000121","fixation","","","img/fixation.png","null","","","test","","","","","","","","","","","","","","","","","","","",""
"763","","806753","SARL_v6evvdhzk7","msl000121","freq","","","img/green_2bandit_a2.png","70","","70","test","1","","","square","circle","23","23","23","1","0.5217391304347826","","","","","","","","","",""
"null","","806797","SARL_v6evvdhzk7","msl000121","freq_resp","","","img/green_2bandit_a.png","70","img/green_2bandit_a.png","70","test","","","","","","","","","1","","","","","","","","","","",""
"null","","806952","SARL_v6evvdhzk7","msl000121","fixation","","","img/fixation.png","null","","","test","","","","","","","","","","","","","","","","","","","",""
"508","","807465","SARL_v6evvdhzk7","msl000121","freq","","","img/green_2bandit_a2.png","70","","70","test","1","","","square","circle","24","24","24","1","0.5416666666666666","","","","","","","","","",""
"null","","807762","SARL_v6evvdhzk7","msl000121","freq_resp","","","img/green_2bandit_a.png","70","img/green_2bandit_a.png","70","test","","","","","","","","","1","","","","","","","","","","",""
"null","","807918","SARL_v6evvdhzk7","msl000121","fixation","","","img/fixation.png","null","","","test","","","","","","","","","","","","","","","","","","","",""
"427","","808349","SARL_v6evvdhzk7","msl000121","freq","","","img/green_2bandit_a2.png","70","","70","test","1","","","square","circle","25","25","25","1","0.56","","","","","","","","","",""
"null","","808728","SARL_v6evvdhzk7","msl000121","freq_resp","","","img/green_2bandit_a.png","70","img/green_2bandit_a.png","70","test","","","","","","","","","1","","","","","","","","","","",""
"null","","808883","SARL_v6evvdhzk7","msl000121","fixation","","","img/fixation.png","null","","","test","","","","","","","","","","","","","","","","","","","",""
"630","","809518","SARL_v6evvdhzk7","msl000121","rl","","","img/black_2bandit_a2.png","75","","0","test","","","1","square","circle","26","","0","1","","75","0.8","0.2","0.3184166841227376","0.2","0.8","0.8","circle","1","0"
"null","","810274","SARL_v6evvdhzk7","msl000121","feedback","","","img/yay_R_a.png","null","","na","test","","","","","","","","","1","","75","0.8","0.2","","","","0.8","","1",""
"605","","810883","SARL_v6evvdhzk7","msl000121","freq","","","img/green_2bandit_a2.png","70","","70","test","1","","","square","circle","27","26","1","2","0.5769230769230769","","","","","","","","","",""
"null","","811084","SARL_v6evvdhzk7","msl000121","freq_resp","","","img/green_2bandit_a.png","70","img/green_2bandit_a.png","70","test","","","","","","","","","2","","","","","","","","","","",""
"null","","811240","SARL_v6evvdhzk7","msl000121","fixation","","","img/fixation.png","null","","","test","","","","","","","","","","","","","","","","","","","",""
"741","","811987","SARL_v6evvdhzk7","msl000121","infreq","","","img/orange_2bandit_a2.png","68","","68","test","1","","","square","circle","28","27","2","2","0.5925925925925926","","","","","","","","","",""
"null","","812052","SARL_v6evvdhzk7","msl000121","infreq_resp","","","img/orange_2bandit_a.png","68","img/orange_2bandit_a.png","68","test","","","","","","","","","2","","","","","","","","","","",""
"null","","812207","SARL_v6evvdhzk7","msl000121","fixation","","","img/fixation.png","null","","","test","","","","","","","","","","","","","","","","","","","",""
"590","","812801","SARL_v6evvdhzk7","msl000121","freq","","","img/green_2bandit_a2.png","70","","70","test","1","","","square","circle","29","28","3","2","0.6071428571428571","","","","","","","","","",""
"null","","813016","SARL_v6evvdhzk7","msl000121","freq_resp","","","img/green_2bandit_a.png","70","img/green_2bandit_a.png","70","test","","","","","","","","","2","","","","","","","","","","",""
"null","","813172","SARL_v6evvdhzk7","msl000121","fixation","","","img/fixation.png","null","","","test","","","","","","","","","","","","","","","","","","","",""
"674","","813850","SARL_v6evvdhzk7","msl000121","freq","","","img/green_2bandit_a2.png","70","","70","test","1","","","square","circle","30","29","4","2","0.6206896551724138","","","","","","","","","",""
"null","","813982","SARL_v6evvdhzk7","msl000121","freq_resp","","","img/green_2bandit_a.png","70","img/green_2bandit_a.png","70","test","","","","","","","","","2","","","","","","","","","","",""
"null","","814136","SARL_v6evvdhzk7","msl000121","fixation","","","img/fixation.png","null","","","test","","","","","","","","","","","","","","","","","","","",""
"593","","814735","SARL_v6evvdhzk7","msl000121","freq","","","img/green_2bandit_a2.png","70","","70","test","1","","","square","circle","31","30","5","2","0.6333333333333333","","","","","","","","","",""
"null","","814947","SARL_v6evvdhzk7","msl000121","freq_resp","","","img/green_2bandit_a.png","70","img/green_2bandit_a.png","70","test","","","","","","","","","2","","","","","","","","","","",""
"null","","815103","SARL_v6evvdhzk7","msl000121","fixation","","","img/fixation.png","null","","","test","","","","","","","","","","","","","","","","","","","",""
"594","","815701","SARL_v6evvdhzk7","msl000121","freq","","","img/green_2bandit_a2.png","70","","70","test","1","","","square","circle","32","31","6","2","0.6451612903225806","","","","","","","","","",""
"null","","815914","SARL_v6evvdhzk7","msl000121","freq_resp","","","img/green_2bandit_a.png","70","img/green_2bandit_a.png","70","test","","","","","","","","","2","","","","","","","","","","",""
"null","","816069","SARL_v6evvdhzk7","msl000121","fixation","","","img/fixation.png","null","","","test","","","","","","","","","","","","","","","","","","","",""
"488","","816562","SARL_v6evvdhzk7","msl000121","freq","","","img/green_2bandit_a2.png","70","","70","test","1","","","square","circle","33","32","7","2","0.65625","","","","","","","","","",""
"null","","816880","SARL_v6evvdhzk7","msl000121","freq_resp","","","img/green_2bandit_a.png","70","img/green_2bandit_a.png","70","test","","","","","","","","","2","","","","","","","","","","",""
"null","","817035","SARL_v6evvdhzk7","msl000121","fixation","","","img/fixation.png","null","","","test","","","","","","","","","","","","","","","","","","","",""
"363","","817403","SARL_v6evvdhzk7","msl000121","freq","","","img/green_2bandit_a2.png","70","","70","test","1","","","square","circle","34","33","8","2","0.6666666666666666","","","","","","","","","",""
"null","","817846","SARL_v6evvdhzk7","msl000121","freq_resp","","","img/green_2bandit_a.png","70","img/green_2bandit_a.png","70","test","","","","","","","","","2","","","","","","","","","","",""
"null","","818001","SARL_v6evvdhzk7","msl000121","fixation","","","img/fixation.png","null","","","test","","","","","","","","","","","","","","","","","","","",""
"447","","818452","SARL_v6evvdhzk7","msl000121","freq","","","img/green_2bandit_a2.png","70","","70","test","1","","","square","circle","35","34","9","2","0.6764705882352942","","","","","","","","","",""
"null","","818810","SARL_v6evvdhzk7","msl000121","freq_resp","","","img/green_2bandit_a.png","70","img/green_2bandit_a.png","70","test","","","","","","","","","2","","","","","","","","","","",""
"null","","818965","SARL_v6evvdhzk7","msl000121","fixation","","","img/fixation.png","null","","","test","","","","","","","","","","","","","","","","","","","",""
"502","","819473","SARL_v6evvdhzk7","msl000121","freq","","","img/green_2bandit_a2.png","70","","70","test","1","","","square","circle","36","35","10","2","0.6857142857142857","","","","","","","","","",""
"null","","819776","SARL_v6evvdhzk7","msl000121","freq_resp","","","img/green_2bandit_a.png","70","img/green_2bandit_a.png","70","test","","","","","","","","","2","","","","","","","","","","",""
"null","","819931","SARL_v6evvdhzk7","msl000121","fixation","","","img/fixation.png","null","","","test","","","","","","","","","","","","","","","","","","","",""
"383","","820319","SARL_v6evvdhzk7","msl000121","freq","","","img/green_2bandit_a2.png","70","","70","test","1","","","square","circle","37","36","11","2","0.6944444444444444","","","","","","","","","",""
"null","","820742","SARL_v6evvdhzk7","msl000121","freq_resp","","","img/green_2bandit_a.png","70","img/green_2bandit_a.png","70","test","","","","","","","","","2","","","","","","","","","","",""
"null","","820898","SARL_v6evvdhzk7","msl000121","fixation","","","img/fixation.png","null","","","test","","","","","","","","","","","","","","","","","","","",""
"365","","821268","SARL_v6evvdhzk7","msl000121","freq","","","img/green_2bandit_a2.png","70","","70","test","1","","","square","circle","38","37","12","2","0.7027027027027027","","","","","","","","","",""
"null","","821708","SARL_v6evvdhzk7","msl000121","freq_resp","","","img/green_2bandit_a.png","70","img/green_2bandit_a.png","70","test","","","","","","","","","2","","","","","","","","","","",""
"null","","821864","SARL_v6evvdhzk7","msl000121","fixation","","","img/fixation.png","null","","","test","","","","","","","","","","","","","","","","","","","",""
"323","","822192","SARL_v6evvdhzk7","msl000121","freq","","","img/green_2bandit_a2.png","70","","70","test","1","","","square","circle","39","38","13","2","0.7105263157894737","","","","","","","","","",""
"null","","822675","SARL_v6evvdhzk7","msl000121","freq_resp","","","img/green_2bandit_a.png","70","img/green_2bandit_a.png","70","test","","","","","","","","","2","","","","","","","","","","",""
"null","","822830","SARL_v6evvdhzk7","msl000121","fixation","","","img/fixation.png","null","","","test","","","","","","","","","","","","","","","","","","","",""
"325","","823160","SARL_v6evvdhzk7","msl000121","freq","","","img/green_2bandit_a2.png","70","","70","test","1","","","square","circle","40","39","14","2","0.717948717948718","","","","","","","","","",""
"null","","823641","SARL_v6evvdhzk7","msl000121","freq_resp","","","img/green_2bandit_a.png","70","img/green_2bandit_a.png","70","test","","","","","","","","","2","","","","","","","","","","",""
"null","","823796","SARL_v6evvdhzk7","msl000121","fixation","","","img/fixation.png","null","","","test","","","","","","","","","","","","","","","","","","","",""
"309","","824110","SARL_v6evvdhzk7","msl000121","freq","","","img/green_2bandit_a2.png","70","","70","test","1","","","square","circle","41","40","15","2","0.725","","","","","","","","","",""
"null","","824607","SARL_v6evvdhzk7","msl000121","freq_resp","","","img/green_2bandit_a.png","70","img/green_2bandit_a.png","70","test","","","","","","","","","2","","","","","","","","","","",""
"null","","824762","SARL_v6evvdhzk7","msl000121","fixation","","","img/fixation.png","null","","","test","","","","","","","","","","","","","","","","","","","",""
"303","","825069","SARL_v6evvdhzk7","msl000121","freq","","","img/green_2bandit_a2.png","70","","70","test","1","","","square","circle","42","41","16","2","0.7317073170731707","","","","","","","","","",""
"null","","825571","SARL_v6evvdhzk7","msl000121","freq_resp","","","img/green_2bandit_a.png","70","img/green_2bandit_a.png","70","test","","","","","","","","","2","","","","","","","","","","",""
"null","","825726","SARL_v6evvdhzk7","msl000121","fixation","","","img/fixation.png","null","","","test","","","","","","","","","","","","","","","","","","","",""
"788","","826518","SARL_v6evvdhzk7","msl000121","infreq","","","img/orange_2bandit_a2.png","68","","68","test","1","","","square","circle","43","42","17","2","0.7380952380952381","","","","","","","","","",""
"null","","826535","SARL_v6evvdhzk7","msl000121","infreq_resp","","","img/orange_2bandit_a.png","68","img/orange_2bandit_a.png","68","test","","","","","","","","","2","","","","","","","","","","",""
"null","","826690","SARL_v6evvdhzk7","msl000121","fixation","","","img/fixation.png","null","","","test","","","","","","","","","","","","","","","","","","","",""
"588","","827283","SARL_v6evvdhzk7","msl000121","freq","","","img/green_2bandit_a2.png","70","","70","test","1","","","square","circle","44","43","18","2","0.7441860465116279","","","","","","","","","",""
"null","","827500","SARL_v6evvdhzk7","msl000121","freq_resp","","","img/green_2bandit_a.png","70","img/green_2bandit_a.png","70","test","","","","","","","","","2","","","","","","","","","","",""
"null","","827655","SARL_v6evvdhzk7","msl000121","fixation","","","img/fixation.png","null","","","test","","","","","","","","","","","","","","","","","","","",""
"469","","828129","SARL_v6evvdhzk7","msl000121","freq","","","img/green_2bandit_a2.png","70","","70","test","1","","","square","circle","45","44","19","2","0.75","","","","","","","","","",""
"null","","828466","SARL_v6evvdhzk7","msl000121","freq_resp","","","img/green_2bandit_a.png","70","img/green_2bandit_a.png","70","test","","","","","","","","","2","","","","","","","","","","",""
"null","","828621","SARL_v6evvdhzk7","msl000121","fixation","","","img/fixation.png","null","","","test","","","","","","","","","","","","","","","","","","","",""
"498","","829123","SARL_v6evvdhzk7","msl000121","rl","","","img/black_2bandit_a2.png","75","","0","test","","","0","square","circle","46","","0","2","","75","0.8","0.2","0.8635655045428032","0.2","0.8","0.8","circle","2","0"
"null","","829879","SARL_v6evvdhzk7","msl000121","feedback","","","img/boo_R_a.png","null","","na","test","","","","","","","","","2","","75","0.8","0.2","","","","0.8","","2",""
"651","","830535","SARL_v6evvdhzk7","msl000121","freq","","","img/green_2bandit_a2.png","70","","70","test","1","","","square","circle","47","45","1","3","0.7555555555555555","","","","","","","","","",""
"null","","830689","SARL_v6evvdhzk7","msl000121","freq_resp","","","img/green_2bandit_a.png","70","img/green_2bandit_a.png","70","test","","","","","","","","","3","","","","","","","","","","",""
"null","","830845","SARL_v6evvdhzk7","msl000121","fixation","","","img/fixation.png","null","","","test","","","","","","","","","","","","","","","","","","","",""
"437","","831287","SARL_v6evvdhzk7","msl000121","freq","","","img/green_2bandit_a2.png","70","","70","test","1","","","square","circle","48","46","2","3","0.7608695652173914","","","","","","","","","",""
"null","","831655","SARL_v6evvdhzk7","msl000121","freq_resp","","","img/green_2bandit_a.png","70","img/green_2bandit_a.png","70","test","","","","","","","","","3","","","","","","","","","","",""
"null","","831811","SARL_v6evvdhzk7","msl000121","fixation","","","img/fixation.png","null","","","test","","","","","","","","","","","","","","","","","","","",""
"343","","832159","SARL_v6evvdhzk7","msl000121","freq","","","img/green_2bandit_a2.png","70","","70","test","1","","","square","circle","49","47","3","3","0.7659574468085106","","","","","","","","","",""
"null","","832621","SARL_v6evvdhzk7","msl000121","freq_resp","","","img/green_2bandit_a.png","70","img/green_2bandit_a.png","70","test","","","","","","","","","3","","","","","","","","","","",""
"null","","832777","SARL_v6evvdhzk7","msl000121","fixation","","","img/fixation.png","null","","","test","","","","","","","","","","","","","","","","","","","",""
"338","","833120","SARL_v6evvdhzk7","msl000121","freq","","","img/green_2bandit_a2.png","70","","70","test","1","","","square","circle","50","48","4","3","0.7708333333333334","","","","","","","","","",""
"null","","833586","SARL_v6evvdhzk7","msl000121","freq_resp","","","img/green_2bandit_a.png","70","img/green_2bandit_a.png","70","test","","","","","","","","","3","","","","","","","","","","",""
"null","","833743","SARL_v6evvdhzk7","msl000121","fixation","","","img/fixation.png","null","","","test","","","","","","","","","","","","","","","","","","","",""
"275","","834023","SARL_v6evvdhzk7","msl000121","freq","","","img/green_2bandit_a2.png","70","","70","test","1","","","square","circle","51","49","5","3","0.7755102040816326","","","","","","","","","",""
"null","","834554","SARL_v6evvdhzk7","msl000121","freq_resp","","","img/green_2bandit_a.png","70","img/green_2bandit_a.png","70","test","","","","","","","","","3","","","","","","","","","","",""
"null","","834710","SARL_v6evvdhzk7","msl000121","fixation","","","img/fixation.png","null","","","test","","","","","","","","","","","","","","","","","","","",""
"327","","835042","SARL_v6evvdhzk7","msl000121","freq","","","img/green_2bandit_a2.png","70","","70","test","1","","","square","circle","52","50","6","3","0.78","","","","","","","","","",""
"null","","835520","SARL_v6evvdhzk7","msl000121","freq_resp","","","img/green_2bandit_a.png","70","img/green_2bandit_a.png","70","test","","","","","","","","","3","","","","","","","","","","",""
"null","","835677","SARL_v6evvdhzk7","msl000121","fixation","","","img/fixation.png","null","","","test","","","","","","","","","","","","","","","","","","","",""
"630","","836311","SARL_v6evvdhzk7","msl000121","infreq","","","img/orange_2bandit_a2.png","68","","68","test","1","","","square","circle","53","51","7","3","0.7843137254901961","","","","","","","","","",""
"null","","836487","SARL_v6evvdhzk7","msl000121","infreq_resp","","","img/orange_2bandit_a.png","68","img/orange_2bandit_a.png","68","test","","","","","","","","","3","","","","","","","","","","",""
"null","","836642","SARL_v6evvdhzk7","msl000121","fixation","","","img/fixation.png","null","","","test","","","","","","","","","","","","","","","","","","","",""
"548","","837194","SARL_v6evvdhzk7","msl000121","freq","","","img/green_2bandit_a2.png","70","","70","test","1","","","square","circle","54","52","8","3","0.7884615384615384","","","","","","","","","",""
"null","","837451","SARL_v6evvdhzk7","msl000121","freq_resp","","","img/green_2bandit_a.png","70","img/green_2bandit_a.png","70","test","","","","","","","","","3","","","","","","","","","","",""
"null","","837607","SARL_v6evvdhzk7","msl000121","fixation","","","img/fixation.png","null","","","test","","","","","","","","","","","","","","","","","","","",""
"522","","838134","SARL_v6evvdhzk7","msl000121","freq","","","img/green_2bandit_a2.png","70","","70","test","1","","","square","circle","55","53","9","3","0.7924528301886793","","","","","","","","","",""
"null","","838417","SARL_v6evvdhzk7","msl000121","freq_resp","","","img/green_2bandit_a.png","70","img/green_2bandit_a.png","70","test","","","","","","","","","3","","","","","","","","","","",""
"null","","838572","SARL_v6evvdhzk7","msl000121","fixation","","","img/fixation.png","null","","","test","","","","","","","","","","","","","","","","","","","",""
"395","","838970","SARL_v6evvdhzk7","msl000121","freq","","","img/green_2bandit_a2.png","70","","70","test","1","","","square","circle","56","54","10","3","0.7962962962962963","","","","","","","","","",""
"null","","839380","SARL_v6evvdhzk7","msl000121","freq_resp","","","img/green_2bandit_a.png","70","img/green_2bandit_a.png","70","test","","","","","","","","","3","","","","","","","","","","",""
"null","","839536","SARL_v6evvdhzk7","msl000121","fixation","","","img/fixation.png","null","","","test","","","","","","","","","","","","","","","","","","","",""
"283","","839823","SARL_v6evvdhzk7","msl000121","freq","","","img/green_2bandit_a2.png","70","","70","test","1","","","square","circle","57","55","11","3","0.8","","","","","","","","","",""
"null","","840346","SARL_v6evvdhzk7","msl000121","freq_resp","","","img/green_2bandit_a.png","70","img/green_2bandit_a.png","70","test","","","","","","","","","3","","","","","","","","","","",""
"null","","840501","SARL_v6evvdhzk7","msl000121","fixation","","","img/fixation.png","null","","","test","","","","","","","","","","","","","","","","","","","",""
"229","","840735","SARL_v6evvdhzk7","msl000121","freq","","","img/green_2bandit_a2.png","70","","70","test","1","","","square","circle","58","56","12","3","0.8035714285714286","","","","","","","","","",""
"null","","841312","SARL_v6evvdhzk7","msl000121","freq_resp","","","img/green_2bandit_a.png","70","img/green_2bandit_a.png","70","test","","","","","","","","","3","","","","","","","","","","",""
"null","","841467","SARL_v6evvdhzk7","msl000121","fixation","","","img/fixation.png","null","","","test","","","","","","","","","","","","","","","","","","","",""
"275","","841747","SARL_v6evvdhzk7","msl000121","freq","","","img/green_2bandit_a2.png","70","","70","test","1","","","square","circle","59","57","13","3","0.8070175438596491","","","","","","","","","",""
"null","","842277","SARL_v6evvdhzk7","msl000121","freq_resp","","","img/green_2bandit_a.png","70","img/green_2bandit_a.png","70","test","","","","","","","","","3","","","","","","","","","","",""
"null","","842433","SARL_v6evvdhzk7","msl000121","fixation","","","img/fixation.png","null","","","test","","","","","","","","","","","","","","","","","","","",""
"308","","842746","SARL_v6evvdhzk7","msl000121","freq","","","img/green_2bandit_a2.png","70","","70","test","1","","","square","circle","60","58","14","3","0.8103448275862069","","","","","","","","","",""
"null","","843243","SARL_v6evvdhzk7","msl000121","freq_resp","","","img/green_2bandit_a.png","70","img/green_2bandit_a.png","70","test","","","","","","","","","3","","","","","","","","","","",""
"null","","843399","SARL_v6evvdhzk7","msl000121","fixation","","","img/fixation.png","null","","","test","","","","","","","","","","","","","","","","","","","",""
"301","","843705","SARL_v6evvdhzk7","msl000121","freq","","","img/green_2bandit_a2.png","70","","70","test","1","","","square","circle","61","59","15","3","0.8135593220338984","","","","","","","","","",""
"null","","844209","SARL_v6evvdhzk7","msl000121","freq_resp","","","img/green_2bandit_a.png","70","img/green_2bandit_a.png","70","test","","","","","","","","","3","","","","","","","","","","",""
"null","","844366","SARL_v6evvdhzk7","msl000121","fixation","","","img/fixation.png","null","","","test","","","","","","","","","","","","","","","","","","","",""
"312","","844683","SARL_v6evvdhzk7","msl000121","freq","","","img/green_2bandit_a2.png","70","","70","test","1","","","square","circle","62","60","16","3","0.8166666666666667","","","","","","","","","",""
"null","","845176","SARL_v6evvdhzk7","msl000121","freq_resp","","","img/green_2bandit_a.png","70","img/green_2bandit_a.png","70","test","","","","","","","","","3","","","","","","","","","","",""
"null","","845331","SARL_v6evvdhzk7","msl000121","fixation","","","img/fixation.png","null","","","test","","","","","","","","","","","","","","","","","","","",""
"302","","845637","SARL_v6evvdhzk7","msl000121","freq","","","img/green_2bandit_a2.png","70","","70","test","1","","","square","circle","63","61","17","3","0.819672131147541","","","","","","","","","",""
"null","","846140","SARL_v6evvdhzk7","msl000121","freq_resp","","","img/green_2bandit_a.png","70","img/green_2bandit_a.png","70","test","","","","","","","","","3","","","","","","","","","","",""
"null","","846295","SARL_v6evvdhzk7","msl000121","fixation","","","img/fixation.png","null","","","test","","","","","","","","","","","","","","","","","","","",""
"296","","846595","SARL_v6evvdhzk7","msl000121","infreq","","","img/orange_2bandit_a2.png","70","","68","test","0","","","square","circle","64","62","18","3","0.8064516129032258","","","","","","","","","",""
"null","","847104","SARL_v6evvdhzk7","msl000121","infreq_resp","","","img/orange_2bandit_a.png","70","img/orange_2bandit_a.png","68","test","","","","","","","","","3","","","","","","","","","","",""
"null","","847260","SARL_v6evvdhzk7","msl000121","fixation","","","img/fixation.png","null","","","test","","","","","","","","","","","","","","","","","","","",""
"597","","847861","SARL_v6evvdhzk7","msl000121","freq","","","img/green_2bandit_a2.png","70","","70","test","1","","","square","circle","65","63","19","3","0.8095238095238095","","","","","","","","","",""
"null","","848070","SARL_v6evvdhzk7","msl000121","freq_resp","","","img/green_2bandit_a.png","70","img/green_2bandit_a.png","70","test","","","","","","","","","3","","","","","","","","","","",""
"null","","848227","SARL_v6evvdhzk7","msl000121","fixation","","","img/fixation.png","null","","","test","","","","","","","","","","","","","","","","","","","",""
"464","","848693","SARL_v6evvdhzk7","msl000121","freq","","","img/green_2bandit_a2.png","70","","70","test","1","","","square","circle","66","64","20","3","0.8125","","","","","","","","","",""
"null","","849035","SARL_v6evvdhzk7","msl000121","freq_resp","","","img/green_2bandit_a.png","70","img/green_2bandit_a.png","70","test","","","","","","","","","3","","","","","","","","","","",""
"null","","849190","SARL_v6evvdhzk7","msl000121","fixation","","","img/fixation.png","null","","","test","","","","","","","","","","","","","","","","","","","",""
"444","","849639","SARL_v6evvdhzk7","msl000121","infreq","","","img/orange_2bandit_a2.png","70","","68","test","0","","","square","circle","67","65","21","3","0.8","","","","","","","","","",""
"null","","850000","SARL_v6evvdhzk7","msl000121","infreq_resp","","","img/orange_2bandit_a.png","70","img/orange_2bandit_a.png","68","test","","","","","","","","","3","","","","","","","","","","",""
"null","","850155","SARL_v6evvdhzk7","msl000121","fixation","","","img/fixation.png","null","","","test","","","","","","","","","","","","","","","","","","","",""
"441","","850601","SARL_v6evvdhzk7","msl000121","freq","","","img/green_2bandit_a2.png","70","","70","test","1","","","square","circle","68","66","22","3","0.803030303030303","","","","","","","","","",""
"null","","850966","SARL_v6evvdhzk7","msl000121","freq_resp","","","img/green_2bandit_a.png","70","img/green_2bandit_a.png","70","test","","","","","","","","","3","","","","","","","","","","",""
"null","","851121","SARL_v6evvdhzk7","msl000121","fixation","","","img/fixation.png","null","","","test","","","","","","","","","","","","","","","","","","","",""
"351","","851476","SARL_v6evvdhzk7","msl000121","freq","","","img/green_2bandit_a2.png","70","","70","test","1","","","square","circle","69","67","23","3","0.8059701492537313","","","","","","","","","",""
"null","","851930","SARL_v6evvdhzk7","msl000121","freq_resp","","","img/green_2bandit_a.png","70","img/green_2bandit_a.png","70","test","","","","","","","","","3","","","","","","","","","","",""
"null","","852086","SARL_v6evvdhzk7","msl000121","fixation","","","img/fixation.png","null","","","test","","","","","","","","","","","","","","","","","","","",""
"277","","852368","SARL_v6evvdhzk7","msl000121","freq","","","img/green_2bandit_a2.png","70","","70","test","1","","","square","circle","70","68","24","3","0.8088235294117647","","","","","","","","","",""
"null","","852896","SARL_v6evvdhzk7","msl000121","freq_resp","","","img/green_2bandit_a.png","70","img/green_2bandit_a.png","70","test","","","","","","","","","3","","","","","","","","","","",""
"null","","853052","SARL_v6evvdhzk7","msl000121","fixation","","","img/fixation.png","null","","","test","","","","","","","","","","","","","","","","","","","",""
"267","","853323","SARL_v6evvdhzk7","msl000121","freq","","","img/green_2bandit_a2.png","70","","70","test","1","","","square","circle","71","69","25","3","0.8115942028985508","","","","","","","","","",""
"null","","853861","SARL_v6evvdhzk7","msl000121","freq_resp","","","img/green_2bandit_a.png","70","img/green_2bandit_a.png","70","test","","","","","","","","","3","","","","","","","","","","",""
"null","","854017","SARL_v6evvdhzk7","msl000121","fixation","","","img/fixation.png","null","","","test","","","","","","","","","","","","","","","","","","","",""
"228","","854250","SARL_v6evvdhzk7","msl000121","freq","","","img/green_2bandit_a2.png","70","","70","test","1","","","square","circle","72","70","26","3","0.8142857142857143","","","","","","","","","",""
"null","","854827","SARL_v6evvdhzk7","msl000121","freq_resp","","","img/green_2bandit_a.png","70","img/green_2bandit_a.png","70","test","","","","","","","","","3","","","","","","","","","","",""
"null","","854982","SARL_v6evvdhzk7","msl000121","fixation","","","img/fixation.png","null","","","test","","","","","","","","","","","","","","","","","","","",""
"199","","855185","SARL_v6evvdhzk7","msl000121","freq","","","img/green_2bandit_a2.png","70","","70","test","1","","","square","circle","73","71","27","3","0.8169014084507042","","","","","","","","","",""
"null","","855792","SARL_v6evvdhzk7","msl000121","freq_resp","","","img/green_2bandit_a.png","70","img/green_2bandit_a.png","70","test","","","","","","","","","3","","","","","","","","","","",""
"null","","855947","SARL_v6evvdhzk7","msl000121","fixation","","","img/fixation.png","null","","","test","","","","","","","","","","","","","","","","","","","",""
"199","","856152","SARL_v6evvdhzk7","msl000121","freq","","","img/green_2bandit_a2.png","70","","70","test","1","","","square","circle","74","72","28","3","0.8194444444444444","","","","","","","","","",""
"null","","856758","SARL_v6evvdhzk7","msl000121","freq_resp","","","img/green_2bandit_a.png","70","img/green_2bandit_a.png","70","test","","","","","","","","","3","","","","","","","","","","",""
"null","","856914","SARL_v6evvdhzk7","msl000121","fixation","","","img/fixation.png","null","","","test","","","","","","","","","","","","","","","","","","","",""
"655","","857573","SARL_v6evvdhzk7","msl000121","rl","","","img/black_2bandit_a2.png","75","","0","test","","","1","square","circle","75","","0","3","","75","0.8","0.2","0.793241973890687","0.2","0.8","0.8","circle","3","0"
"null","","858329","SARL_v6evvdhzk7","msl000121","feedback","","","img/yay_R_a.png","null","","na","test","","","","","","","","","3","","75","0.8","0.2","","","","0.8","","3",""
"579","","858913","SARL_v6evvdhzk7","msl000121","freq","","","img/green_2bandit_a2.png","70","","70","test","1","","","square","circle","76","73","1","4","0.821917808219178","","","","","","","","","",""
"null","","859138","SARL_v6evvdhzk7","msl000121","freq_resp","","","img/green_2bandit_a.png","70","img/green_2bandit_a.png","70","test","","","","","","","","","4","","","","","","","","","","",""
"null","","859294","SARL_v6evvdhzk7","msl000121","fixation","","","img/fixation.png","null","","","test","","","","","","","","","","","","","","","","","","","",""
"382","","859681","SARL_v6evvdhzk7","msl000121","freq","","","img/green_2bandit_a2.png","70","","70","test","1","","","square","circle","77","74","2","4","0.8243243243243243","","","","","","","","","",""
"null","","860104","SARL_v6evvdhzk7","msl000121","freq_resp","","","img/green_2bandit_a.png","70","img/green_2bandit_a.png","70","test","","","","","","","","","4","","","","","","","","","","",""
"null","","860259","SARL_v6evvdhzk7","msl000121","fixation","","","img/fixation.png","null","","","test","","","","","","","","","","","","","","","","","","","",""
"257","","860521","SARL_v6evvdhzk7","msl000121","freq","","","img/green_2bandit_a2.png","70","","70","test","1","","","square","circle","78","75","3","4","0.8266666666666667","","","","","","","","","",""
"null","","861070","SARL_v6evvdhzk7","msl000121","freq_resp","","","img/green_2bandit_a.png","70","img/green_2bandit_a.png","70","test","","","","","","","","","4","","","","","","","","","","",""
"null","","861225","SARL_v6evvdhzk7","msl000121","fixation","","","img/fixation.png","null","","","test","","","","","","","","","","","","","","","","","","","",""
"197","","861428","SARL_v6evvdhzk7","msl000121","freq","","","img/green_2bandit_a2.png","70","","70","test","1","","","square","circle","79","76","4","4","0.8289473684210527","","","","","","","","","",""
"null","","862038","SARL_v6evvdhzk7","msl000121","freq_resp","","","img/green_2bandit_a.png","70","img/green_2bandit_a.png","70","test","","","","","","","","","4","","","","","","","","","","",""
"null","","862193","SARL_v6evvdhzk7","msl000121","fixation","","","img/fixation.png","null","","","test","","","","","","","","","","","","","","","","","","","",""
"272","","862469","SARL_v6evvdhzk7","msl000121","freq","","","img/green_2bandit_a2.png","70","","70","test","1","","","square","circle","80","77","5","4","0.8311688311688312","","","","","","","","","",""
"null","","863003","SARL_v6evvdhzk7","msl000121","freq_resp","","","img/green_2bandit_a.png","70","img/green_2bandit_a.png","70","test","","","","","","","","","4","","","","","","","","","","",""
"null","","863158","SARL_v6evvdhzk7","msl000121","fixation","","","img/fixation.png","null","","","test","","","","","","","","","","","","","","","","","","","",""
"197","","863359","SARL_v6evvdhzk7","msl000121","freq","","","img/green_2bandit_a2.png","70","","70","test","1","","","square","circle","81","78","6","4","0.8333333333333334","","","","","","","","","",""
"null","","863968","SARL_v6evvdhzk7","msl000121","freq_resp","","","img/green_2bandit_a.png","70","img/green_2bandit_a.png","70","test","","","","","","","","","4","","","","","","","","","","",""
"null","","864123","SARL_v6evvdhzk7","msl000121","fixation","","","img/fixation.png","null","","","test","","","","","","","","","","","","","","","","","","","",""
"167","","864295","SARL_v6evvdhzk7","msl000121","infreq","","","img/orange_2bandit_a2.png","70","","68","test","0","","","square","circle","82","79","7","4","0.8227848101265823","","","","","","","","","",""
"null","","864934","SARL_v6evvdhzk7","msl000121","infreq_resp","","","img/orange_2bandit_a.png","70","img/orange_2bandit_a.png","68","test","","","","","","","","","4","","","","","","","","","","",""
"null","","865090","SARL_v6evvdhzk7","msl000121","fixation","","","img/fixation.png","null","","","test","","","","","","","","","","","","","","","","","","","",""
"372","","865468","SARL_v6evvdhzk7","msl000121","freq","","","img/green_2bandit_a2.png","70","","70","test","1","","","square","circle","83","80","8","4","0.825","","","","","","","","","",""
"null","","865902","SARL_v6evvdhzk7","msl000121","freq_resp","","","img/green_2bandit_a.png","70","img/green_2bandit_a.png","70","test","","","","","","","","","4","","","","","","","","","","",""
"null","","866057","SARL_v6evvdhzk7","msl000121","fixation","","","img/fixation.png","null","","","test","","","","","","","","","","","","","","","","","","","",""
"301","","866362","SARL_v6evvdhzk7","msl000121","freq","","","img/green_2bandit_a2.png","70","","70","test","1","","","square","circle","84","81","9","4","0.8271604938271605","","","","","","","","","",""
"null","","866867","SARL_v6evvdhzk7","msl000121","freq_resp","","","img/green_2bandit_a.png","70","img/green_2bandit_a.png","70","test","","","","","","","","","4","","","","","","","","","","",""
"null","","867023","SARL_v6evvdhzk7","msl000121","fixation","","","img/fixation.png","null","","","test","","","","","","","","","","","","","","","","","","","",""
"313","","867340","SARL_v6evvdhzk7","msl000121","freq","","","img/green_2bandit_a2.png","70","","70","test","1","","","square","circle","85","82","10","4","0.8292682926829268","","","","","","","","","",""
"null","","867834","SARL_v6evvdhzk7","msl000121","freq_resp","","","img/green_2bandit_a.png","70","img/green_2bandit_a.png","70","test","","","","","","","","","4","","","","","","","","","","",""
"null","","867988","SARL_v6evvdhzk7","msl000121","fixation","","","img/fixation.png","null","","","test","","","","","","","","","","","","","","","","","","","",""
"377","","868370","SARL_v6evvdhzk7","msl000121","freq","","","img/green_2bandit_a2.png","70","","70","test","1","","","square","circle","86","83","11","4","0.8313253012048193","","","","","","","","","",""
"null","","868798","SARL_v6evvdhzk7","msl000121","freq_resp","","","img/green_2bandit_a.png","70","img/green_2bandit_a.png","70","test","","","","","","","","","4","","","","","","","","","","",""
"null","","868953","SARL_v6evvdhzk7","msl000121","fixation","","","img/fixation.png","null","","","test","","","","","","","","","","","","","","","","","","","",""
"562","","869520","SARL_v6evvdhzk7","msl000121","freq","","","img/green_2bandit_a2.png","70","","70","test","1","","","square","circle","87","84","12","4","0.8333333333333334","","","","","","","","","",""
"null","","869763","SARL_v6evvdhzk7","msl000121","freq_resp","","","img/green_2bandit_a.png","70","img/green_2bandit_a.png","70","test","","","","","","","","","4","","","","","","","","","","",""
"null","","869919","SARL_v6evvdhzk7","msl000121","fixation","","","img/fixation.png","null","","","test","","","","","","","","","","","","","","","","","","","",""
"543","","870468","SARL_v6evvdhzk7","msl000121","infreq","","","img/orange_2bandit_a2.png","68","","68","test","1","","","square","circle","88","85","13","4","0.8352941176470589","","","","","","","","","",""
"null","","870730","SARL_v6evvdhzk7","msl000121","infreq_resp","","","img/orange_2bandit_a.png","68","img/orange_2bandit_a.png","68","test","","","","","","","","","4","","","","","","","","","","",""
"null","","870885","SARL_v6evvdhzk7","msl000121","fixation","","","img/fixation.png","null","","","test","","","","","","","","","","","","","","","","","","","",""
"461","","871350","SARL_v6evvdhzk7","msl000121","freq","","","img/green_2bandit_a2.png","70","","70","test","1","","","square","circle","89","86","14","4","0.8372093023255814","","","","","","","","","",""
"null","","871695","SARL_v6evvdhzk7","msl000121","freq_resp","","","img/green_2bandit_a.png","70","img/green_2bandit_a.png","70","test","","","","","","","","","4","","","","","","","","","","",""
"null","","871851","SARL_v6evvdhzk7","msl000121","fixation","","","img/fixation.png","null","","","test","","","","","","","","","","","","","","","","","","","",""
"398","","872253","SARL_v6evvdhzk7","msl000121","freq","","","img/green_2bandit_a2.png","70","","70","test","1","","","square","circle","90","87","15","4","0.8390804597701149","","","","","","","","","",""
"null","","872661","SARL_v6evvdhzk7","msl000121","freq_resp","","","img/green_2bandit_a.png","70","img/green_2bandit_a.png","70","test","","","","","","","","","4","","","","","","","","","","",""
"null","","872815","SARL_v6evvdhzk7","msl000121","fixation","","","img/fixation.png","null","","","test","","","","","","","","","","","","","","","","","","","",""
"317","","873137","SARL_v6evvdhzk7","msl000121","freq","","","img/green_2bandit_a2.png","70","","70","test","1","","","square","circle","91","88","16","4","0.8409090909090909","","","","","","","","","",""
"null","","873626","SARL_v6evvdhzk7","msl000121","freq_resp","","","img/green_2bandit_a.png","70","img/green_2bandit_a.png","70","test","","","","","","","","","4","","","","","","","","","","",""
"null","","873781","SARL_v6evvdhzk7","msl000121","fixation","","","img/fixation.png","null","","","test","","","","","","","","","","","","","","","","","","","",""
"381","","874168","SARL_v6evvdhzk7","msl000121","freq","","","img/green_2bandit_a2.png","70","","70","test","1","","","square","circle","92","89","17","4","0.8426966292134831","","","","","","","","","",""
"null","","874593","SARL_v6evvdhzk7","msl000121","freq_resp","","","img/green_2bandit_a.png","70","img/green_2bandit_a.png","70","test","","","","","","","","","4","","","","","","","","","","",""
"null","","874747","SARL_v6evvdhzk7","msl000121","fixation","","","img/fixation.png","null","","","test","","","","","","","","","","","","","","","","","","","",""
"363","","875115","SARL_v6evvdhzk7","msl000121","freq","","","img/green_2bandit_a2.png","70","","70","test","1","","","square","circle","93","90","18","4","0.8444444444444444","","","","","","","","","",""
"null","","875557","SARL_v6evvdhzk7","msl000121","freq_resp","","","img/green_2bandit_a.png","70","img/green_2bandit_a.png","70","test","","","","","","","","","4","","","","","","","","","","",""
"null","","875713","SARL_v6evvdhzk7","msl000121","fixation","","","img/fixation.png","null","","","test","","","","","","","","","","","","","","","","","","","",""
"368","","876085","SARL_v6evvdhzk7","msl000121","freq","","","img/green_2bandit_a2.png","70","","70","test","1","","","square","circle","94","91","19","4","0.8461538461538461","","","","","","","","","",""
"null","","876524","SARL_v6evvdhzk7","msl000121","freq_resp","","","img/green_2bandit_a.png","70","img/green_2bandit_a.png","70","test","","","","","","","","","4","","","","","","","","","","",""
"null","","876678","SARL_v6evvdhzk7","msl000121","fixation","","","img/fixation.png","null","","","test","","","","","","","","","","","","","","","","","","","",""
"352","","877036","SARL_v6evvdhzk7","msl000121","freq","","","img/green_2bandit_a2.png","70","","70","test","1","","","square","circle","95","92","20","4","0.8478260869565217","","","","","","","","","",""
"null","","877490","SARL_v6evvdhzk7","msl000121","freq_resp","","","img/green_2bandit_a.png","70","img/green_2bandit_a.png","70","test","","","","","","","","","4","","","","","","","","","","",""
"null","","877646","SARL_v6evvdhzk7","msl000121","fixation","","","img/fixation.png","null","","","test","","","","","","","","","","","","","","","","","","","",""
"342","","877993","SARL_v6evvdhzk7","msl000121","freq","","","img/green_2bandit_a2.png","70","","70","test","1","","","square","circle","96","93","21","4","0.8494623655913979","","","","","","","","","",""
"null","","878456","SARL_v6evvdhzk7","msl000121","freq_resp","","","img/green_2bandit_a.png","70","img/green_2bandit_a.png","70","test","","","","","","","","","4","","","","","","","","","","",""
"null","","878611","SARL_v6evvdhzk7","msl000121","fixation","","","img/fixation.png","null","","","test","","","","","","","","","","","","","","","","","","","",""
"null","","879417","SARL_v6evvdhzk7","msl000121","infreq","","","img/orange_2bandit_a2.png","null","","68","test","0","","","square","circle","97","94","22","4","0.8404255319148937","","","","","","","","","",""
"null","","879572","SARL_v6evvdhzk7","msl000121","fixation","","","img/fixation.png","null","","","test","","","","","","","","","","","","","","","","","","","",""
"71","","879648","SARL_v6evvdhzk7","msl000121","freq","","","img/green_2bandit_a2.png","68","","70","test","0","","","square","circle","98","95","23","4","0.8315789473684211","","","","","","","","","",""
"null","","880381","SARL_v6evvdhzk7","msl000121","freq_resp","","","img/green_2bandit_a.png","68","img/green_2bandit_a.png","70","test","","","","","","","","","4","","","","","","","","","","",""
"null","","880537","SARL_v6evvdhzk7","msl000121","fixation","","","img/fixation.png","null","","","test","","","","","","","","","","","","","","","","","","","",""
"null","","881342","SARL_v6evvdhzk7","msl000121","freq","","","img/green_2bandit_a2.png","null","","70","test","0","","","square","circle","99","96","24","4","0.8229166666666666","","","","","","","","","",""
"null","","881498","SARL_v6evvdhzk7","msl000121","fixation","","","img/fixation.png","null","","","test","","","","","","","","","","","","","","","","","","","",""
"589","","882091","SARL_v6evvdhzk7","msl000121","rl","","","img/black_2bandit_a2.png","75","","0","test","","","1","square","circle","100","","0","4","","75","0.8","0.2","0.4337114829148573","0.2","0.8","0.8","circle","4","0"
"null","","882848","SARL_v6evvdhzk7","msl000121","feedback","","","img/yay_R_a.png","null","","na","test","","","","","","","","","4","","75","0.8","0.2","","","","0.8","","4",""
"616","","883468","SARL_v6evvdhzk7","msl000121","freq","","","img/green_2bandit_a2.png","70","","70","test","1","","","square","circle","101","97","1","5","0.8247422680412371","","","","","","","","","",""
"null","","883657","SARL_v6evvdhzk7","msl000121","freq_resp","","","img/green_2bandit_a.png","70","img/green_2bandit_a.png","70","test","","","","","","","","","5","","","","","","","","","","",""
"null","","883813","SARL_v6evvdhzk7","msl000121","fixation","","","img/fixation.png","null","","","test","","","","","","","","","","","","","","","","","","","",""
"553","","884371","SARL_v6evvdhzk7","msl000121","freq","","","img/green_2bandit_a2.png","70","","70","test","1","","","square","circle","102","98","2","5","0.826530612244898","","","","","","","","","",""
"null","","884624","SARL_v6evvdhzk7","msl000121","freq_resp","","","img/green_2bandit_a.png","70","img/green_2bandit_a.png","70","test","","","","","","","","","5","","","","","","","","","","",""
"null","","884778","SARL_v6evvdhzk7","msl000121","fixation","","","img/fixation.png","null","","","test","","","","","","","","","","","","","","","","","","","",""
"426","","885209","SARL_v6evvdhzk7","msl000121","freq","","","img/green_2bandit_a2.png","70","","70","test","1","","","square","circle","103","99","3","5","0.8282828282828283","","","","","","","","","",""
"null","","885590","SARL_v6evvdhzk7","msl000121","freq_resp","","","img/green_2bandit_a.png","70","img/green_2bandit_a.png","70","test","","","","","","","","","5","","","","","","","","","","",""
"null","","885745","SARL_v6evvdhzk7","msl000121","fixation","","","img/fixation.png","null","","","test","","","","","","","","","","","","","","","","","","","",""
"362","","886113","SARL_v6evvdhzk7","msl000121","freq","","","img/green_2bandit_a2.png","70","","70","test","1","","","square","circle","104","100","4","5","0.83","","","","","","","","","",""
"null","","886556","SARL_v6evvdhzk7","msl000121","freq_resp","","","img/green_2bandit_a.png","70","img/green_2bandit_a.png","70","test","","","","","","","","","5","","","","","","","","","","",""
"null","","886711","SARL_v6evvdhzk7","msl000121","fixation","","","img/fixation.png","null","","","test","","","","","","","","","","","","","","","","","","","",""
"309","","887025","SARL_v6evvdhzk7","msl000121","freq","","","img/green_2bandit_a2.png","70","","70","test","1","","","square","circle","105","101","5","5","0.8316831683168316","","","","","","","","","",""
"null","","887522","SARL_v6evvdhzk7","msl000121","freq_resp","","","img/green_2bandit_a.png","70","img/green_2bandit_a.png","70","test","","","","","","","","","5","","","","","","","","","","",""
"null","","887677","SARL_v6evvdhzk7","msl000121","fixation","","","img/fixation.png","null","","","test","","","","","","","","","","","","","","","","","","","",""
"344","","888026","SARL_v6evvdhzk7","msl000121","freq","","","img/green_2bandit_a2.png","70","","70","test","1","","","square","circle","106","102","6","5","0.8333333333333334","","","","","","","","","",""
"null","","888487","SARL_v6evvdhzk7","msl000121","freq_resp","","","img/green_2bandit_a.png","70","img/green_2bandit_a.png","70","test","","","","","","","","","5","","","","","","","","","","",""
"null","","888643","SARL_v6evvdhzk7","msl000121","fixation","","","img/fixation.png","null","","","test","","","","","","","","","","","","","","","","","","","",""
"355","","889003","SARL_v6evvdhzk7","msl000121","freq","","","img/green_2bandit_a2.png","70","","70","test","1","","","square","circle","107","103","7","5","0.8349514563106796","","","","","","","","","",""
"null","","889454","SARL_v6evvdhzk7","msl000121","freq_resp","","","img/green_2bandit_a.png","70","img/green_2bandit_a.png","70","test","","","","","","","","","5","","","","","","","","","","",""
"null","","889609","SARL_v6evvdhzk7","msl000121","fixation","","","img/fixation.png","null","","","test","","","","","","","","","","","","","","","","","","","",""
"557","","890171","SARL_v6evvdhzk7","msl000121","infreq","","","img/orange_2bandit_a2.png","68","","68","test","1","","","square","circle","108","104","8","5","0.8365384615384616","","","","","","","","","",""
"null","","890418","SARL_v6evvdhzk7","msl000121","infreq_resp","","","img/orange_2bandit_a.png","68","img/orange_2bandit_a.png","68","test","","","","","","","","","5","","","","","","","","","","",""
"null","","890574","SARL_v6evvdhzk7","msl000121","fixation","","","img/fixation.png","null","","","test","","","","","","","","","","","","","","","","","","","",""
"513","","891091","SARL_v6evvdhzk7","msl000121","freq","","","img/green_2bandit_a2.png","70","","70","test","1","","","square","circle","109","105","9","5","0.8380952380952381","","","","","","","","","",""
"null","","891384","SARL_v6evvdhzk7","msl000121","freq_resp","","","img/green_2bandit_a.png","70","img/green_2bandit_a.png","70","test","","","","","","","","","5","","","","","","","","","","",""
"null","","891540","SARL_v6evvdhzk7","msl000121","fixation","","","img/fixation.png","null","","","test","","","","","","","","","","","","","","","","","","","",""
"610","","892156","SARL_v6evvdhzk7","msl000121","infreq","","","img/orange_2bandit_a2.png","68","","68","test","1","","","square","circle","110","106","10","5","0.839622641509434","","","","","","","","","",""
"null","","892352","SARL_v6evvdhzk7","msl000121","infreq_resp","","","img/orange_2bandit_a.png","68","img/orange_2bandit_a.png","68","test","","","","","","","","","5","","","","","","","","","","",""
"null","","892508","SARL_v6evvdhzk7","msl000121","fixation","","","img/fixation.png","null","","","test","","","","","","","","","","","","","","","","","","","",""
"494","","893004","SARL_v6evvdhzk7","msl000121","freq","","","img/green_2bandit_a2.png","70","","70","test","1","","","square","circle","111","107","11","5","0.8411214953271028","","","","","","","","","",""
"null","","893316","SARL_v6evvdhzk7","msl000121","freq_resp","","","img/green_2bandit_a.png","70","img/green_2bandit_a.png","70","test","","","","","","","","","5","","","","","","","","","","",""
"null","","893472","SARL_v6evvdhzk7","msl000121","fixation","","","img/fixation.png","null","","","test","","","","","","","","","","","","","","","","","","","",""
"602","","894078","SARL_v6evvdhzk7","msl000121","freq","","","img/green_2bandit_a2.png","70","","70","test","1","","","square","circle","112","108","12","5","0.8425925925925926","","","","","","","","","",""
"null","","894281","SARL_v6evvdhzk7","msl000121","freq_resp","","","img/green_2bandit_a.png","70","img/green_2bandit_a.png","70","test","","","","","","","","","5","","","","","","","","","","",""
"null","","894438","SARL_v6evvdhzk7","msl000121","fixation","","","img/fixation.png","null","","","test","","","","","","","","","","","","","","","","","","","",""
"546","","894987","SARL_v6evvdhzk7","msl000121","freq","","","img/green_2bandit_a2.png","70","","70","test","1","","","square","circle","113","109","13","5","0.8440366972477065","","","","","","","","","",""
"null","","895246","SARL_v6evvdhzk7","msl000121","freq_resp","","","img/green_2bandit_a.png","70","img/green_2bandit_a.png","70","test","","","","","","","","","5","","","","","","","","","","",""
"null","","895402","SARL_v6evvdhzk7","msl000121","fixation","","","img/fixation.png","null","","","test","","","","","","","","","","","","","","","","","","","",""
"508","","895915","SARL_v6evvdhzk7","msl000121","freq","","","img/green_2bandit_a2.png","70","","70","test","1","","","square","circle","114","110","14","5","0.8454545454545455","","","","","","","","","",""
"null","","896213","SARL_v6evvdhzk7","msl000121","freq_resp","","","img/green_2bandit_a.png","70","img/green_2bandit_a.png","70","test","","","","","","","","","5","","","","","","","","","","",""
"null","","896368","SARL_v6evvdhzk7","msl000121","fixation","","","img/fixation.png","null","","","test","","","","","","","","","","","","","","","","","","","",""
"431","","896804","SARL_v6evvdhzk7","msl000121","freq","","","img/green_2bandit_a2.png","70","","70","test","1","","","square","circle","115","111","15","5","0.8468468468468469","","","","","","","","","",""
"null","","897178","SARL_v6evvdhzk7","msl000121","freq_resp","","","img/green_2bandit_a.png","70","img/green_2bandit_a.png","70","test","","","","","","","","","5","","","","","","","","","","",""
"null","","897334","SARL_v6evvdhzk7","msl000121","fixation","","","img/fixation.png","null","","","test","","","","","","","","","","","","","","","","","","","",""
"415","","897752","SARL_v6evvdhzk7","msl000121","freq","","","img/green_2bandit_a2.png","70","","70","test","1","","","square","circle","116","112","16","5","0.8482142857142857","","","","","","","","","",""
"null","","898143","SARL_v6evvdhzk7","msl000121","freq_resp","","","img/green_2bandit_a.png","70","img/green_2bandit_a.png","70","test","","","","","","","","","5","","","","","","","","","","",""
"null","","898297","SARL_v6evvdhzk7","msl000121","fixation","","","img/fixation.png","null","","","test","","","","","","","","","","","","","","","","","","","",""
"393","","898696","SARL_v6evvdhzk7","msl000121","freq","","","img/green_2bandit_a2.png","70","","70","test","1","","","square","circle","117","113","17","5","0.8495575221238938","","","","","","","","","",""
"null","","899109","SARL_v6evvdhzk7","msl000121","freq_resp","","","img/green_2bandit_a.png","70","img/green_2bandit_a.png","70","test","","","","","","","","","5","","","","","","","","","","",""
"null","","899264","SARL_v6evvdhzk7","msl000121","fixation","","","img/fixation.png","null","","","test","","","","","","","","","","","","","","","","","","","",""
"395","","899664","SARL_v6evvdhzk7","msl000121","freq","","","img/green_2bandit_a2.png","70","","70","test","1","","","square","circle","118","114","18","5","0.8508771929824561","","","","","","","","","",""
"null","","900075","SARL_v6evvdhzk7","msl000121","freq_resp","","","img/green_2bandit_a.png","70","img/green_2bandit_a.png","70","test","","","","","","","","","5","","","","","","","","","","",""
"null","","900230","SARL_v6evvdhzk7","msl000121","fixation","","","img/fixation.png","null","","","test","","","","","","","","","","","","","","","","","","","",""
"450","","900686","SARL_v6evvdhzk7","msl000121","freq","","","img/green_2bandit_a2.png","70","","70","test","1","","","square","circle","119","115","19","5","0.8521739130434782","","","","","","","","","",""
"null","","901042","SARL_v6evvdhzk7","msl000121","freq_resp","","","img/green_2bandit_a.png","70","img/green_2bandit_a.png","70","test","","","","","","","","","5","","","","","","","","","","",""
"null","","901198","SARL_v6evvdhzk7","msl000121","fixation","","","img/fixation.png","null","","","test","","","","","","","","","","","","","","","","","","","",""
"415","","901618","SARL_v6evvdhzk7","msl000121","freq","","","img/green_2bandit_a2.png","70","","70","test","1","","","square","circle","120","116","20","5","0.853448275862069","","","","","","","","","",""
"null","","902009","SARL_v6evvdhzk7","msl000121","freq_resp","","","img/green_2bandit_a.png","70","img/green_2bandit_a.png","70","test","","","","","","","","","5","","","","","","","","","","",""
"null","","902163","SARL_v6evvdhzk7","msl000121","fixation","","","img/fixation.png","null","","","test","","","","","","","","","","","","","","","","","","","",""
"588","","902756","SARL_v6evvdhzk7","msl000121","infreq","","","img/orange_2bandit_a2.png","68","","68","test","1","","","square","circle","121","117","21","5","0.8547008547008547","","","","","","","","","",""
"null","","902974","SARL_v6evvdhzk7","msl000121","infreq_resp","","","img/orange_2bandit_a.png","68","img/orange_2bandit_a.png","68","test","","","","","","","","","5","","","","","","","","","","",""
"null","","903129","SARL_v6evvdhzk7","msl000121","fixation","","","img/fixation.png","null","","","test","","","","","","","","","","","","","","","","","","","",""
"542","","903675","SARL_v6evvdhzk7","msl000121","freq","","","img/green_2bandit_a2.png","70","","70","test","1","","","square","circle","122","118","22","5","0.8559322033898306","","","","","","","","","",""
"null","","903938","SARL_v6evvdhzk7","msl000121","freq_resp","","","img/green_2bandit_a.png","70","img/green_2bandit_a.png","70","test","","","","","","","","","5","","","","","","","","","","",""
"null","","904094","SARL_v6evvdhzk7","msl000121","fixation","","","img/fixation.png","null","","","test","","","","","","","","","","","","","","","","","","","",""
"451","","904550","SARL_v6evvdhzk7","msl000121","freq","","","img/green_2bandit_a2.png","70","","70","test","1","","","square","circle","123","119","23","5","0.8571428571428571","","","","","","","","","",""
"null","","904904","SARL_v6evvdhzk7","msl000121","freq_resp","","","img/green_2bandit_a.png","70","img/green_2bandit_a.png","70","test","","","","","","","","","5","","","","","","","","","","",""
"null","","905059","SARL_v6evvdhzk7","msl000121","fixation","","","img/fixation.png","null","","","test","","","","","","","","","","","","","","","","","","","",""
"352","","905416","SARL_v6evvdhzk7","msl000121","freq","","","img/green_2bandit_a2.png","70","","70","test","1","","","square","circle","124","120","24","5","0.8583333333333333","","","","","","","","","",""
"null","","905871","SARL_v6evvdhzk7","msl000121","freq_resp","","","img/green_2bandit_a.png","70","img/green_2bandit_a.png","70","test","","","","","","","","","5","","","","","","","","","","",""
"null","","906025","SARL_v6evvdhzk7","msl000121","fixation","","","img/fixation.png","null","","","test","","","","","","","","","","","","","","","","","","","",""
"314","","906346","SARL_v6evvdhzk7","msl000121","freq","","","img/green_2bandit_a2.png","70","","70","test","1","","","square","circle","125","121","25","5","0.859504132231405","","","","","","","","","",""
"null","","906838","SARL_v6evvdhzk7","msl000121","freq_resp","","","img/green_2bandit_a.png","70","img/green_2bandit_a.png","70","test","","","","","","","","","5","","","","","","","","","","",""
"null","","906994","SARL_v6evvdhzk7","msl000121","fixation","","","img/fixation.png","null","","","test","","","","","","","","","","","","","","","","","","","",""
"447","","907445","SARL_v6evvdhzk7","msl000121","rl","","","img/black_2bandit_a2.png","75","","0","test","","","1","square","circle","126","","0","5","","75","0.8","0.2","0.673965761177232","0.2","0.8","0.8","circle","5","0"
"null","","908200","SARL_v6evvdhzk7","msl000121","feedback","","","img/yay_R_a.png","null","","na","test","","","","","","","","","5","","75","0.8","0.2","","","","0.8","","5",""
"602","","908807","SARL_v6evvdhzk7","msl000121","freq","","","img/green_2bandit_a2.png","70","","70","test","1","","","square","circle","127","122","1","6","0.860655737704918","","","","","","","","","",""
"null","","909011","SARL_v6evvdhzk7","msl000121","freq_resp","","","img/green_2bandit_a.png","70","img/green_2bandit_a.png","70","test","","","","","","","","","6","","","","","","","","","","",""
"null","","909167","SARL_v6evvdhzk7","msl000121","fixation","","","img/fixation.png","null","","","test","","","","","","","","","","","","","","","","","","","",""
"522","","909693","SARL_v6evvdhzk7","msl000121","freq","","","img/green_2bandit_a2.png","70","","70","test","1","","","square","circle","128","123","2","6","0.8617886178861789","","","","","","","","","",""
"null","","909977","SARL_v6evvdhzk7","msl000121","freq_resp","","","img/green_2bandit_a.png","70","img/green_2bandit_a.png","70","test","","","","","","","","","6","","","","","","","","","","",""
"null","","910132","SARL_v6evvdhzk7","msl000121","fixation","","","img/fixation.png","null","","","test","","","","","","","","","","","","","","","","","","","",""
"387","","910523","SARL_v6evvdhzk7","msl000121","freq","","","img/green_2bandit_a2.png","70","","70","test","1","","","square","circle","129","124","3","6","0.8629032258064516","","","","","","","","","",""
"null","","910941","SARL_v6evvdhzk7","msl000121","freq_resp","","","img/green_2bandit_a.png","70","img/green_2bandit_a.png","70","test","","","","","","","","","6","","","","","","","","","","",""
"null","","911097","SARL_v6evvdhzk7","msl000121","fixation","","","img/fixation.png","null","","","test","","","","","","","","","","","","","","","","","","","",""
"509","","911610","SARL_v6evvdhzk7","msl000121","infreq","","","img/orange_2bandit_a2.png","68","","68","test","1","","","square","circle","130","125","4","6","0.864","","","","","","","","","",""
"null","","911906","SARL_v6evvdhzk7","msl000121","infreq_resp","","","img/orange_2bandit_a.png","68","img/orange_2bandit_a.png","68","test","","","","","","","","","6","","","","","","","","","","",""
"null","","912062","SARL_v6evvdhzk7","msl000121","fixation","","","img/fixation.png","null","","","test","","","","","","","","","","","","","","","","","","","",""
"437","","912504","SARL_v6evvdhzk7","msl000121","freq","","","img/green_2bandit_a2.png","70","","70","test","1","","","square","circle","131","126","5","6","0.8650793650793651","","","","","","","","","",""
"null","","912873","SARL_v6evvdhzk7","msl000121","freq_resp","","","img/green_2bandit_a.png","70","img/green_2bandit_a.png","70","test","","","","","","","","","6","","","","","","","","","","",""
"null","","913027","SARL_v6evvdhzk7","msl000121","fixation","","","img/fixation.png","null","","","test","","","","","","","","","","","","","","","","","","","",""
"631","","913663","SARL_v6evvdhzk7","msl000121","freq","","","img/green_2bandit_a2.png","70","","70","test","1","","","square","circle","132","127","6","6","0.8661417322834646","","","","","","","","","",""
"null","","913837","SARL_v6evvdhzk7","msl000121","freq_resp","","","img/green_2bandit_a.png","70","img/green_2bandit_a.png","70","test","","","","","","","","","6","","","","","","","","","","",""
"null","","913993","SARL_v6evvdhzk7","msl000121","fixation","","","img/fixation.png","null","","","test","","","","","","","","","","","","","","","","","","","",""
"387","","914386","SARL_v6evvdhzk7","msl000121","freq","","","img/green_2bandit_a2.png","70","","70","test","1","","","square","circle","133","128","7","6","0.8671875","","","","","","","","","",""
"null","","914803","SARL_v6evvdhzk7","msl000121","freq_resp","","","img/green_2bandit_a.png","70","img/green_2bandit_a.png","70","test","","","","","","","","","6","","","","","","","","","","",""
"null","","914959","SARL_v6evvdhzk7","msl000121","fixation","","","img/fixation.png","null","","","test","","","","","","","","","","","","","","","","","","","",""
"531","","915496","SARL_v6evvdhzk7","msl000121","freq","","","img/green_2bandit_a2.png","70","","70","test","1","","","square","circle","134","129","8","6","0.8682170542635659","","","","","","","","","",""
"null","","915770","SARL_v6evvdhzk7","msl000121","freq_resp","","","img/green_2bandit_a.png","70","img/green_2bandit_a.png","70","test","","","","","","","","","6","","","","","","","","","","",""
"null","","915925","SARL_v6evvdhzk7","msl000121","fixation","","","img/fixation.png","null","","","test","","","","","","","","","","","","","","","","","","","",""
"440","","916371","SARL_v6evvdhzk7","msl000121","freq","","","img/green_2bandit_a2.png","70","","70","test","1","","","square","circle","135","130","9","6","0.8692307692307693","","","","","","","","","",""
"null","","916737","SARL_v6evvdhzk7","msl000121","freq_resp","","","img/green_2bandit_a.png","70","img/green_2bandit_a.png","70","test","","","","","","","","","6","","","","","","","","","","",""
"null","","916892","SARL_v6evvdhzk7","msl000121","fixation","","","img/fixation.png","null","","","test","","","","","","","","","","","","","","","","","","","",""
"425","","917323","SARL_v6evvdhzk7","msl000121","freq","","","img/green_2bandit_a2.png","70","","70","test","1","","","square","circle","136","131","10","6","0.8702290076335878","","","","","","","","","",""
"null","","917703","SARL_v6evvdhzk7","msl000121","freq_resp","","","img/green_2bandit_a.png","70","img/green_2bandit_a.png","70","test","","","","","","","","","6","","","","","","","","","","",""
"null","","917860","SARL_v6evvdhzk7","msl000121","fixation","","","img/fixation.png","null","","","test","","","","","","","","","","","","","","","","","","","",""
"397","","918262","SARL_v6evvdhzk7","msl000121","freq","","","img/green_2bandit_a2.png","70","","70","test","1","","","square","circle","137","132","11","6","0.8712121212121212","","","","","","","","","",""
"null","","918671","SARL_v6evvdhzk7","msl000121","freq_resp","","","img/green_2bandit_a.png","70","img/green_2bandit_a.png","70","test","","","","","","","","","6","","","","","","","","","","",""
"null","","918826","SARL_v6evvdhzk7","msl000121","fixation","","","img/fixation.png","null","","","test","","","","","","","","","","","","","","","","","","","",""
"349","","919180","SARL_v6evvdhzk7","msl000121","freq","","","img/green_2bandit_a2.png","70","","70","test","1","","","square","circle","138","133","12","6","0.8721804511278195","","","","","","","","","",""
"null","","919636","SARL_v6evvdhzk7","msl000121","freq_resp","","","img/green_2bandit_a.png","70","img/green_2bandit_a.png","70","test","","","","","","","","","6","","","","","","","","","","",""
"null","","919791","SARL_v6evvdhzk7","msl000121","fixation","","","img/fixation.png","null","","","test","","","","","","","","","","","","","","","","","","","",""
"363","","920158","SARL_v6evvdhzk7","msl000121","freq","","","img/green_2bandit_a2.png","70","","70","test","1","","","square","circle","139","134","13","6","0.8731343283582089","","","","","","","","","",""
"null","","920601","SARL_v6evvdhzk7","msl000121","freq_resp","","","img/green_2bandit_a.png","70","img/green_2bandit_a.png","70","test","","","","","","","","","6","","","","","","","","","","",""
"null","","920757","SARL_v6evvdhzk7","msl000121","fixation","","","img/fixation.png","null","","","test","","","","","","","","","","","","","","","","","","","",""
"351","","921114","SARL_v6evvdhzk7","msl000121","freq","","","img/green_2bandit_a2.png","70","","70","test","1","","","square","circle","140","135","14","6","0.8740740740740741","","","","","","","","","",""
"null","","921568","SARL_v6evvdhzk7","msl000121","freq_resp","","","img/green_2bandit_a.png","70","img/green_2bandit_a.png","70","test","","","","","","","","","6","","","","","","","","","","",""
"null","","921723","SARL_v6evvdhzk7","msl000121","fixation","","","img/fixation.png","null","","","test","","","","","","","","","","","","","","","","","","","",""
"367","","922095","SARL_v6evvdhzk7","msl000121","freq","","","img/green_2bandit_a2.png","70","","70","test","1","","","square","circle","141","136","15","6","0.875","","","","","","","","","",""
"null","","922534","SARL_v6evvdhzk7","msl000121","freq_resp","","","img/green_2bandit_a.png","70","img/green_2bandit_a.png","70","test","","","","","","","","","6","","","","","","","","","","",""
"null","","922689","SARL_v6evvdhzk7","msl000121","fixation","","","img/fixation.png","null","","","test","","","","","","","","","","","","","","","","","","","",""
"366","","923061","SARL_v6evvdhzk7","msl000121","freq","","","img/green_2bandit_a2.png","70","","70","test","1","","","square","circle","142","137","16","6","0.8759124087591241","","","","","","","","","",""
"null","","923501","SARL_v6evvdhzk7","msl000121","freq_resp","","","img/green_2bandit_a.png","70","img/green_2bandit_a.png","70","test","","","","","","","","","6","","","","","","","","","","",""
"null","","923656","SARL_v6evvdhzk7","msl000121","fixation","","","img/fixation.png","null","","","test","","","","","","","","","","","","","","","","","","","",""
"524","","924185","SARL_v6evvdhzk7","msl000121","infreq","","","img/orange_2bandit_a2.png","68","","68","test","1","","","square","circle","143","138","17","6","0.8768115942028986","","","","","","","","","",""
"null","","924467","SARL_v6evvdhzk7","msl000121","infreq_resp","","","img/orange_2bandit_a.png","68","img/orange_2bandit_a.png","68","test","","","","","","","","","6","","","","","","","","","","",""
"null","","924622","SARL_v6evvdhzk7","msl000121","fixation","","","img/fixation.png","null","","","test","","","","","","","","","","","","","","","","","","","",""
"497","","925124","SARL_v6evvdhzk7","msl000121","freq","","","img/green_2bandit_a2.png","70","","70","test","1","","","square","circle","144","139","18","6","0.8776978417266187","","","","","","","","","",""
"null","","925432","SARL_v6evvdhzk7","msl000121","freq_resp","","","img/green_2bandit_a.png","70","img/green_2bandit_a.png","70","test","","","","","","","","","6","","","","","","","","","","",""
"null","","925589","SARL_v6evvdhzk7","msl000121","fixation","","","img/fixation.png","null","","","test","","","","","","","","","","","","","","","","","","","",""
"674","","926266","SARL_v6evvdhzk7","msl000121","freq","","","img/green_2bandit_a2.png","70","","70","test","1","","","square","circle","145","140","19","6","0.8785714285714286","","","","","","","","","",""
"null","","926397","SARL_v6evvdhzk7","msl000121","freq_resp","","","img/green_2bandit_a.png","70","img/green_2bandit_a.png","70","test","","","","","","","","","6","","","","","","","","","","",""
"null","","926552","SARL_v6evvdhzk7","msl000121","fixation","","","img/fixation.png","null","","","test","","","","","","","","","","","","","","","","","","","",""
"510","","927067","SARL_v6evvdhzk7","msl000121","freq","","","img/green_2bandit_a2.png","70","","70","test","1","","","square","circle","146","141","20","6","0.8794326241134752","","","","","","","","","",""
"null","","927362","SARL_v6evvdhzk7","msl000121","freq_resp","","","img/green_2bandit_a.png","70","img/green_2bandit_a.png","70","test","","","","","","","","","6","","","","","","","","","","",""
"null","","927517","SARL_v6evvdhzk7","msl000121","fixation","","","img/fixation.png","null","","","test","","","","","","","","","","","","","","","","","","","",""
"526","","928049","SARL_v6evvdhzk7","msl000121","infreq","","","img/orange_2bandit_a2.png","68","","68","test","1","","","square","circle","147","142","21","6","0.8802816901408451","","","","","","","","","",""
"null","","928328","SARL_v6evvdhzk7","msl000121","infreq_resp","","","img/orange_2bandit_a.png","68","img/orange_2bandit_a.png","68","test","","","","","","","","","6","","","","","","","","","","",""
"null","","928484","SARL_v6evvdhzk7","msl000121","fixation","","","img/fixation.png","null","","","test","","","","","","","","","","","","","","","","","","","",""
"425","","928913","SARL_v6evvdhzk7","msl000121","freq","","","img/green_2bandit_a2.png","70","","70","test","1","","","square","circle","148","143","22","6","0.8811188811188811","","","","","","","","","",""
"null","","929293","SARL_v6evvdhzk7","msl000121","freq_resp","","","img/green_2bandit_a.png","70","img/green_2bandit_a.png","70","test","","","","","","","","","6","","","","","","","","","","",""
"null","","929449","SARL_v6evvdhzk7","msl000121","fixation","","","img/fixation.png","null","","","test","","","","","","","","","","","","","","","","","","","",""
"493","","929947","SARL_v6evvdhzk7","msl000121","freq","","","img/green_2bandit_a2.png","70","","70","test","1","","","square","circle","149","144","23","6","0.8819444444444444","","","","","","","","","",""
"null","","930260","SARL_v6evvdhzk7","msl000121","freq_resp","","","img/green_2bandit_a.png","70","img/green_2bandit_a.png","70","test","","","","","","","","","6","","","","","","","","","","",""
"null","","930415","SARL_v6evvdhzk7","msl000121","fixation","","","img/fixation.png","null","","","test","","","","","","","","","","","","","","","","","","","",""
"381","","930800","SARL_v6evvdhzk7","msl000121","freq","","","img/green_2bandit_a2.png","70","","70","test","1","","","square","circle","150","145","24","6","0.8827586206896552","","","","","","","","","",""
"null","","931224","SARL_v6evvdhzk7","msl000121","freq_resp","","","img/green_2bandit_a.png","70","img/green_2bandit_a.png","70","test","","","","","","","","","6","","","","","","","","","","",""
"null","","931379","SARL_v6evvdhzk7","msl000121","fixation","","","img/fixation.png","null","","","test","","","","","","","","","","","","","","","","","","","",""
"631","","932014","SARL_v6evvdhzk7","msl000121","rl","","","img/black_2bandit_a2.png","74","","0","test","","","0","square","circle","151","","0","6","","74","0.8","0.2","0.8631563219633315","0.2","0.8","0.2","square","6","0"
"null","","932770","SARL_v6evvdhzk7","msl000121","feedback","","","img/boo_L_a.png","null","","na","test","","","","","","","","","6","","74","0.8","0.2","","","","0.2","","6",""
"750","","933524","SARL_v6evvdhzk7","msl000121","freq","","","img/green_2bandit_a2.png","70","","70","test","1","","","square","circle","152","146","1","7","0.8835616438356164","","","","","","","","","",""
"null","","933579","SARL_v6evvdhzk7","msl000121","freq_resp","","","img/green_2bandit_a.png","70","img/green_2bandit_a.png","70","test","","","","","","","","","7","","","","","","","","","","",""
