"rt","responses","time_elapsed","subject","demoID","trialType","rlType","attType","stimulus","key_press","stim","corrresp","phase","corr","pracCounter","reward","bandOne","bandTwo","trialNum","attentionNum","attentionRunNum","blockNum","performance","bandChosen","circleVal","squareVal","coin","bandOneVal","bandTwoVal","pReward","shapeChosen","rlNum","badFlag"
"657633","{""Q0"":""msl000092""}","657660","SARL_v6uxzaglpt","msl000092","","","","","","","","","","","","","","","","","","","","","","","","","","","",""
"15702","","673368","SARL_v6uxzaglpt","msl000092","","","","","","","","","","","","","","","","","","","","","","","","","","","",""
"","","676011","SARL_v6uxzaglpt","msl000092","fullscreen","fullscreen","fullscreen","","","","","","","","","","","","","","","","","","","","","","","","",""
"91715","","767733","SARL_v6uxzaglpt","msl000092","","","","","","","","","","","","","","","","","","","","","","","","","","","",""
"null","","768538","SARL_v6uxzaglpt","msl000092","freqPrac","","","img/orange_2bandit_a2.png","null","img/orange_2bandit_a2.png","70","prac","0","1","","","","","","","","","","","","","","","","","",""
"null","","769544","SARL_v6uxzaglpt","msl000092","feedback","","","img/tooSlow.png","null","","na","prac","","","","","","","","","","","","","","","","","","","",""
"null","","769700","SARL_v6uxzaglpt","msl000092","fixation","","","img/fixation.png","null","","","prac","","","","","","","","","","","","","","","","","","","",""
"265","","769971","SARL_v6uxzaglpt","msl000092","infreqPrac","","","img/green_2bandit_a2.png","70","img/green_2bandit_a2.png","68","prac","0","2","","","","","","","","","","","","","","","","","",""
"265","","770510","SARL_v6uxzaglpt","msl000092","infreqPrac_resp","","","img/green_2bandit_a.png","70","img/green_2bandit_a.png","68","prac","","","","","","","","","","","","","","","","","","","",""
"null","","771516","SARL_v6uxzaglpt","msl000092","feedback","","","img/wrongKey.png","null","","na","prac","","","","","","","","","","","","","","","","","","","",""
"null","","771671","SARL_v6uxzaglpt","msl000092","fixation","","","img/fixation.png","null","","","prac","","","","","","","","","","","","","","","","","","","",""
"707","","772384","SARL_v6uxzaglpt","msl000092","freqPrac","","","img/orange_2bandit_a2.png","70","img/orange_2bandit_a2.png","70","prac","1","2","","","","","","","","","","","","","","","","","",""
"707","","772483","SARL_v6uxzaglpt","msl000092","freqPrac_resp","","","img/orange_2bandit_a.png","70","img/orange_2bandit_a.png","70","prac","","","","","","","","","","","","","","","","","","","",""
"null","","772638","SARL_v6uxzaglpt","msl000092","fixation","","","img/fixation.png","null","","","prac","","","","","","","","","","","","","","","","","","","",""
"412","","773056","SARL_v6uxzaglpt","msl000092","infreqPrac","","","img/green_2bandit_a2.png","68","img/green_2bandit_a2.png","68","prac","1","2","","","","","","","","","","","","","","","","","",""
"412","","773451","SARL_v6uxzaglpt","msl000092","infreqPrac_resp","","","img/green_2bandit_a.png","68","img/green_2bandit_a.png","68","prac","","","","","","","","","","","","","","","","","","","",""
"null","","773606","SARL_v6uxzaglpt","msl000092","fixation","","","img/fixation.png","null","","","prac","","","","","","","","","","","","","","","","","","","",""
"428","","774040","SARL_v6uxzaglpt","msl000092","infreqPrac","","","img/green_2bandit_a2.png","68","img/green_2bandit_a2.png","68","prac","1","2","","","","","","","","","","","","","","","","","",""
"428","","774418","SARL_v6uxzaglpt","msl000092","infreqPrac_resp","","","img/green_2bandit_a.png","68","img/green_2bandit_a.png","68","prac","","","","","","","","","","","","","","","","","","","",""
"null","","774573","SARL_v6uxzaglpt","msl000092","fixation","","","img/fixation.png","null","","","prac","","","","","","","","","","","","","","","","","","","",""
"352","","774930","SARL_v6uxzaglpt","msl000092","infreqPrac","","","img/green_2bandit_a2.png","68","img/green_2bandit_a2.png","68","prac","1","2","","","","","","","","","","","","","","","","","",""
"352","","775384","SARL_v6uxzaglpt","msl000092","infreqPrac_resp","","","img/green_2bandit_a.png","68","img/green_2bandit_a.png","68","prac","","","","","","","","","","","","","","","","","","","",""
"null","","775539","SARL_v6uxzaglpt","msl000092","fixation","","","img/fixation.png","null","","","prac","","","","","","","","","","","","","","","","","","","",""
"343","","775887","SARL_v6uxzaglpt","msl000092","freqPrac","","","img/orange_2bandit_a2.png","70","img/orange_2bandit_a2.png","70","prac","1","2","","","","","","","","","","","","","","","","","",""
"343","","776349","SARL_v6uxzaglpt","msl000092","freqPrac_resp","","","img/orange_2bandit_a.png","70","img/orange_2bandit_a.png","70","prac","","","","","","","","","","","","","","","","","","","",""
"null","","776504","SARL_v6uxzaglpt","msl000092","fixation","","","img/fixation.png","null","","","prac","","","","","","","","","","","","","","","","","","","",""
"391","","776901","SARL_v6uxzaglpt","msl000092","infreqPrac","","","img/green_2bandit_a2.png","68","img/green_2bandit_a2.png","68","prac","1","2","","","","","","","","","","","","","","","","","",""
"391","","777316","SARL_v6uxzaglpt","msl000092","infreqPrac_resp","","","img/green_2bandit_a.png","68","img/green_2bandit_a.png","68","prac","","","","","","","","","","","","","","","","","","","",""
"null","","777471","SARL_v6uxzaglpt","msl000092","fixation","","","img/fixation.png","null","","","prac","","","","","","","","","","","","","","","","","","","",""
"455","","777930","SARL_v6uxzaglpt","msl000092","freqPrac","","","img/orange_2bandit_a2.png","70","img/orange_2bandit_a2.png","70","prac","1","2","","","","","","","","","","","","","","","","","",""
"455","","778279","SARL_v6uxzaglpt","msl000092","freqPrac_resp","","","img/orange_2bandit_a.png","70","img/orange_2bandit_a.png","70","prac","","","","","","","","","","","","","","","","","","","",""
"null","","778436","SARL_v6uxzaglpt","msl000092","fixation","","","img/fixation.png","null","","","prac","","","","","","","","","","","","","","","","","","","",""
"454","","778894","SARL_v6uxzaglpt","msl000092","freqPrac","","","img/orange_2bandit_a2.png","70","img/orange_2bandit_a2.png","70","prac","1","2","","","","","","","","","","","","","","","","","",""
"454","","779245","SARL_v6uxzaglpt","msl000092","freqPrac_resp","","","img/orange_2bandit_a.png","70","img/orange_2bandit_a.png","70","prac","","","","","","","","","","","","","","","","","","","",""
"null","","779401","SARL_v6uxzaglpt","msl000092","fixation","","","img/fixation.png","null","","","prac","","","","","","","","","","","","","","","","","","","",""
"52977","","832383","SARL_v6uxzaglpt","msl000092","","","","","","","","prac","","","","","","","","","","","","","","","","","","","",""
"null","","833888","SARL_v6uxzaglpt","msl000092","rlPractice","","","img/black_2bandit_a2.png","null","img/black_2bandit_a2.png","","prac","","","75","","","","","","","","","","","","","","","","",""
"null","","834644","SARL_v6uxzaglpt","msl000092","feedback","","","img/tooSlow.png","null","","na","prac","","","","","","","","","","","","","","","","","","","",""
"null","","834800","SARL_v6uxzaglpt","msl000092","fixation","","","img/fixation.png","null","","","prac","","","","","","","","","","","","","","","","","","","",""
"1019","","835826","SARL_v6uxzaglpt","msl000092","rlPractice","","","img/black_2bandit_a2.png","74","img/black_2bandit_a2.png","","prac","","","75","","","","","","","","","","","","","","","","",""
"null","","836582","SARL_v6uxzaglpt","msl000092","feedback","","","img/boo_L_a.png","null","","na","prac","","","","","","","","","","","","","","","","","","","",""
"null","","836737","SARL_v6uxzaglpt","msl000092","fixation","","","img/fixation.png","null","","","prac","","","","","","","","","","","","","","","","","","","",""
"null","","838244","SARL_v6uxzaglpt","msl000092","rlPractice","","","img/black_2bandit_a2.png","null","img/black_2bandit_a2.png","","prac","","","75","","","","","","","","","","","","","","","","",""
"null","","838999","SARL_v6uxzaglpt","msl000092","feedback","","","img/tooSlow.png","null","","na","prac","","","","","","","","","","","","","","","","","","","",""
"null","","839155","SARL_v6uxzaglpt","msl000092","fixation","","","img/fixation.png","null","","","prac","","","","","","","","","","","","","","","","","","","",""
"451","","839612","SARL_v6uxzaglpt","msl000092","rlPractice","","","img/black_2bandit_a2.png","75","img/black_2bandit_a2.png","","prac","","","75","","","","","","","","","","","","","","","","",""
"null","","840368","SARL_v6uxzaglpt","msl000092","feedback","","","img/yay_R_a.png","null","","na","prac","","","","","","","","","","","","","","","","","","","",""
"null","","840523","SARL_v6uxzaglpt","msl000092","fixation","","","img/fixation.png","null","","","prac","","","","","","","","","","","","","","","","","","","",""
"423","","840951","SARL_v6uxzaglpt","msl000092","rlPractice","","","img/black_2bandit_a2.png","75","img/black_2bandit_a2.png","","prac","","","75","","","","","","","","","","","","","","","","",""
"null","","841706","SARL_v6uxzaglpt","msl000092","feedback","","","img/yay_R_a.png","null","","na","prac","","","","","","","","","","","","","","","","","","","",""
"null","","841861","SARL_v6uxzaglpt","msl000092","fixation","","","img/fixation.png","null","","","prac","","","","","","","","","","","","","","","","","","","",""
"357","","842224","SARL_v6uxzaglpt","msl000092","rlPractice","","","img/black_2bandit_a2.png","75","img/black_2bandit_a2.png","","prac","","","75","","","","","","","","","","","","","","","","",""
"null","","842979","SARL_v6uxzaglpt","msl000092","feedback","","","img/yay_R_a.png","null","","na","prac","","","","","","","","","","","","","","","","","","","",""
"null","","843134","SARL_v6uxzaglpt","msl000092","fixation","","","img/fixation.png","null","","","prac","","","","","","","","","","","","","","","","","","","",""
"398","","843537","SARL_v6uxzaglpt","msl000092","rlPractice","","","img/black_2bandit_a2.png","75","img/black_2bandit_a2.png","","prac","","","75","","","","","","","","","","","","","","","","",""
"null","","844292","SARL_v6uxzaglpt","msl000092","feedback","","","img/yay_R_a.png","null","","na","prac","","","","","","","","","","","","","","","","","","","",""
"null","","844447","SARL_v6uxzaglpt","msl000092","fixation","","","img/fixation.png","null","","","prac","","","","","","","","","","","","","","","","","","","",""
"23590","","868043","SARL_v6uxzaglpt","msl000092","","","","","","","","prac","","","","","","","","","","","","","","","","","","","",""
"475","","868523","SARL_v6uxzaglpt","msl000092","mixAttFreqPrac","","","img/orange_2bandit_a2.png","70","img/orange_2bandit_a2.png","70","prac","","","","","","","","","","","","","","","","","","","",""
"475","","868854","SARL_v6uxzaglpt","msl000092","freqPrac_resp","","","img/orange_2bandit_a.png","70","img/orange_2bandit_a.png","70","prac","","","","","","","","","","","","","","","","","","","",""
"null","","869010","SARL_v6uxzaglpt","msl000092","fixation","","","img/fixation.png","null","","","prac","","","","","","","","","","","","","","","","","","","",""
"597","","869612","SARL_v6uxzaglpt","msl000092","mixAttInfreqPrac","","","img/green_2bandit_a2.png","68","img/green_2bandit_a2.png","68","prac","","","","","","","","","","","","","","","","","","","",""
"597","","869822","SARL_v6uxzaglpt","msl000092","infreqPrac_resp","","","img/green_2bandit_a.png","68","img/orange_2bandit_a.png","68","prac","","","","","","","","","","","","","","","","","","","",""
"null","","869978","SARL_v6uxzaglpt","msl000092","fixation","","","img/fixation.png","null","","","prac","","","","","","","","","","","","","","","","","","","",""
"369","","870349","SARL_v6uxzaglpt","msl000092","mixAttInfreqPrac","","","img/green_2bandit_a2.png","70","img/green_2bandit_a2.png","68","prac","","","","","","","","","","","","","","","","","","","",""
"369","","870787","SARL_v6uxzaglpt","msl000092","infreqPrac_resp","","","img/green_2bandit_a.png","70","img/orange_2bandit_a.png","68","prac","","","","","","","","","","","","","","","","","","","",""
"null","","870943","SARL_v6uxzaglpt","msl000092","fixation","","","img/fixation.png","null","","","prac","","","","","","","","","","","","","","","","","","","",""
"517","","871465","SARL_v6uxzaglpt","msl000092","mixAttInfreqPrac","","","img/green_2bandit_a2.png","70","img/green_2bandit_a2.png","68","prac","","","","","","","","","","","","","","","","","","","",""
"517","","871754","SARL_v6uxzaglpt","msl000092","infreqPrac_resp","","","img/green_2bandit_a.png","70","img/orange_2bandit_a.png","68","prac","","","","","","","","","","","","","","","","","","","",""
"null","","871911","SARL_v6uxzaglpt","msl000092","fixation","","","img/fixation.png","null","","","prac","","","","","","","","","","","","","","","","","","","",""
"462","","872377","SARL_v6uxzaglpt","msl000092","mixAttFreqPrac","","","img/orange_2bandit_a2.png","70","img/orange_2bandit_a2.png","70","prac","","","","","","","","","","","","","","","","","","","",""
"462","","872721","SARL_v6uxzaglpt","msl000092","freqPrac_resp","","","img/orange_2bandit_a.png","70","img/orange_2bandit_a.png","70","prac","","","","","","","","","","","","","","","","","","","",""
"null","","872876","SARL_v6uxzaglpt","msl000092","fixation","","","img/fixation.png","null","","","prac","","","","","","","","","","","","","","","","","","","",""
"1089","","873969","SARL_v6uxzaglpt","msl000092","mixRLPractice","","","img/black_2bandit_a2.png","75","img/black_2bandit_a2.png","","prac","","","","","","","","","","","","","","","","","","","",""
"null","","874726","SARL_v6uxzaglpt","msl000092","feedback","","","img/boo_R_a.png","null","","na","prac","","","","","","","","","","","","","","","","","","","",""
"680","","875410","SARL_v6uxzaglpt","msl000092","mixAttFreqPrac","","","img/orange_2bandit_a2.png","68","img/orange_2bandit_a2.png","70","prac","","","","","","","","","","","","","","","","","","","",""
"680","","875536","SARL_v6uxzaglpt","msl000092","freqPrac_resp","","","img/orange_2bandit_a.png","68","img/orange_2bandit_a.png","70","prac","","","","","","","","","","","","","","","","","","","",""
"null","","875691","SARL_v6uxzaglpt","msl000092","fixation","","","img/fixation.png","null","","","prac","","","","","","","","","","","","","","","","","","","",""
"786","","876482","SARL_v6uxzaglpt","msl000092","mixAttInfreqPrac","","","img/green_2bandit_a2.png","68","img/green_2bandit_a2.png","68","prac","","","","","","","","","","","","","","","","","","","",""
"786","","876501","SARL_v6uxzaglpt","msl000092","infreqPrac_resp","","","img/green_2bandit_a.png","68","img/orange_2bandit_a.png","68","prac","","","","","","","","","","","","","","","","","","","",""
"null","","876658","SARL_v6uxzaglpt","msl000092","fixation","","","img/fixation.png","null","","","prac","","","","","","","","","","","","","","","","","","","",""
"497","","877160","SARL_v6uxzaglpt","msl000092","mixAttFreqPrac","","","img/orange_2bandit_a2.png","70","img/orange_2bandit_a2.png","70","prac","","","","","","","","","","","","","","","","","","","",""
"497","","877469","SARL_v6uxzaglpt","msl000092","freqPrac_resp","","","img/orange_2bandit_a.png","70","img/orange_2bandit_a.png","70","prac","","","","","","","","","","","","","","","","","","","",""
"null","","877625","SARL_v6uxzaglpt","msl000092","fixation","","","img/fixation.png","null","","","prac","","","","","","","","","","","","","","","","","","","",""
"533","","878163","SARL_v6uxzaglpt","msl000092","mixAttFreqPrac","","","img/orange_2bandit_a2.png","70","img/orange_2bandit_a2.png","70","prac","","","","","","","","","","","","","","","","","","","",""
"533","","878437","SARL_v6uxzaglpt","msl000092","freqPrac_resp","","","img/orange_2bandit_a.png","70","img/orange_2bandit_a.png","70","prac","","","","","","","","","","","","","","","","","","","",""
"null","","878592","SARL_v6uxzaglpt","msl000092","fixation","","","img/fixation.png","null","","","prac","","","","","","","","","","","","","","","","","","","",""
"610","","879207","SARL_v6uxzaglpt","msl000092","mixAttInfreqPrac","","","img/green_2bandit_a2.png","68","img/green_2bandit_a2.png","68","prac","","","","","","","","","","","","","","","","","","","",""
"610","","879404","SARL_v6uxzaglpt","msl000092","infreqPrac_resp","","","img/green_2bandit_a.png","68","img/orange_2bandit_a.png","68","prac","","","","","","","","","","","","","","","","","","","",""
"null","","879558","SARL_v6uxzaglpt","msl000092","fixation","","","img/fixation.png","null","","","prac","","","","","","","","","","","","","","","","","","","",""
"849","","880411","SARL_v6uxzaglpt","msl000092","mixRLPractice","","","img/black_2bandit_a2.png","75","img/black_2bandit_a2.png","","prac","","","","","","","","","","","","","","","","","","","",""
"null","","881167","SARL_v6uxzaglpt","msl000092","feedback","","","img/boo_R_a.png","null","","na","prac","","","","","","","","","","","","","","","","","","","",""
"30516","","911688","SARL_v6uxzaglpt","msl000092","","","","","","","","prac","","","","","","","","","","","","","","","","","","","",""
"607","","912298","SARL_v6uxzaglpt","msl000092","freq","","","img/orange_2bandit_a2.png","70","","70","test","1","","","square","circle","1","1","1","1","1","","","","","","","","","",""
"null","","912498","SARL_v6uxzaglpt","msl000092","freq_resp","","","img/orange_2bandit_a.png","70","img/orange_2bandit_a.png","70","test","","","","","","","","","1","","","","","","","","","","",""
"null","","912653","SARL_v6uxzaglpt","msl000092","fixation","","","img/fixation.png","null","","","test","","","","","","","","","","","","","","","","","","","",""
"478","","913138","SARL_v6uxzaglpt","msl000092","freq","","","img/orange_2bandit_a2.png","70","","70","test","1","","","square","circle","2","2","2","1","1","","","","","","","","","",""
"null","","913464","SARL_v6uxzaglpt","msl000092","freq_resp","","","img/orange_2bandit_a.png","70","img/orange_2bandit_a.png","70","test","","","","","","","","","1","","","","","","","","","","",""
"null","","913621","SARL_v6uxzaglpt","msl000092","fixation","","","img/fixation.png","null","","","test","","","","","","","","","","","","","","","","","","","",""
"496","","914123","SARL_v6uxzaglpt","msl000092","freq","","","img/orange_2bandit_a2.png","70","","70","test","1","","","square","circle","3","3","3","1","1","","","","","","","","","",""
"null","","914433","SARL_v6uxzaglpt","msl000092","freq_resp","","","img/orange_2bandit_a.png","70","img/orange_2bandit_a.png","70","test","","","","","","","","","1","","","","","","","","","","",""
"null","","914588","SARL_v6uxzaglpt","msl000092","fixation","","","img/fixation.png","null","","","test","","","","","","","","","","","","","","","","","","","",""
"518","","915109","SARL_v6uxzaglpt","msl000092","freq","","","img/orange_2bandit_a2.png","70","","70","test","1","","","square","circle","4","4","4","1","1","","","","","","","","","",""
"null","","915396","SARL_v6uxzaglpt","msl000092","freq_resp","","","img/orange_2bandit_a.png","70","img/orange_2bandit_a.png","70","test","","","","","","","","","1","","","","","","","","","","",""
"null","","915551","SARL_v6uxzaglpt","msl000092","fixation","","","img/fixation.png","null","","","test","","","","","","","","","","","","","","","","","","","",""
"531","","916088","SARL_v6uxzaglpt","msl000092","freq","","","img/orange_2bandit_a2.png","70","","70","test","1","","","square","circle","5","5","5","1","1","","","","","","","","","",""
"null","","916363","SARL_v6uxzaglpt","msl000092","freq_resp","","","img/orange_2bandit_a.png","70","img/orange_2bandit_a.png","70","test","","","","","","","","","1","","","","","","","","","","",""
"null","","916518","SARL_v6uxzaglpt","msl000092","fixation","","","img/fixation.png","null","","","test","","","","","","","","","","","","","","","","","","","",""
"502","","917026","SARL_v6uxzaglpt","msl000092","freq","","","img/orange_2bandit_a2.png","70","","70","test","1","","","square","circle","6","6","6","1","1","","","","","","","","","",""
"null","","917330","SARL_v6uxzaglpt","msl000092","freq_resp","","","img/orange_2bandit_a.png","70","img/orange_2bandit_a.png","70","test","","","","","","","","","1","","","","","","","","","","",""
"null","","917484","SARL_v6uxzaglpt","msl000092","fixation","","","img/fixation.png","null","","","test","","","","","","","","","","","","","","","","","","","",""
"477","","917967","SARL_v6uxzaglpt","msl000092","freq","","","img/orange_2bandit_a2.png","70","","70","test","1","","","square","circle","7","7","7","1","1","","","","","","","","","",""
"null","","918296","SARL_v6uxzaglpt","msl000092","freq_resp","","","img/orange_2bandit_a.png","70","img/orange_2bandit_a.png","70","test","","","","","","","","","1","","","","","","","","","","",""
"null","","918451","SARL_v6uxzaglpt","msl000092","fixation","","","img/fixation.png","null","","","test","","","","","","","","","","","","","","","","","","","",""
"492","","918948","SARL_v6uxzaglpt","msl000092","freq","","","img/orange_2bandit_a2.png","70","","70","test","1","","","square","circle","8","8","8","1","1","","","","","","","","","",""
"null","","919262","SARL_v6uxzaglpt","msl000092","freq_resp","","","img/orange_2bandit_a.png","70","img/orange_2bandit_a.png","70","test","","","","","","","","","1","","","","","","","","","","",""
"null","","919416","SARL_v6uxzaglpt","msl000092","fixation","","","img/fixation.png","null","","","test","","","","","","","","","","","","","","","","","","","",""
"500","","919921","SARL_v6uxzaglpt","msl000092","freq","","","img/orange_2bandit_a2.png","70","","70","test","1","","","square","circle","9","9","9","1","1","","","","","","","","","",""
"null","","920227","SARL_v6uxzaglpt","msl000092","freq_resp","","","img/orange_2bandit_a.png","70","img/orange_2bandit_a.png","70","test","","","","","","","","","1","","","","","","","","","","",""
"null","","920382","SARL_v6uxzaglpt","msl000092","fixation","","","img/fixation.png","null","","","test","","","","","","","","","","","","","","","","","","","",""
"499","","920885","SARL_v6uxzaglpt","msl000092","freq","","","img/orange_2bandit_a2.png","70","","70","test","1","","","square","circle","10","10","10","1","1","","","","","","","","","",""
"null","","921193","SARL_v6uxzaglpt","msl000092","freq_resp","","","img/orange_2bandit_a.png","70","img/orange_2bandit_a.png","70","test","","","","","","","","","1","","","","","","","","","","",""
"null","","921349","SARL_v6uxzaglpt","msl000092","fixation","","","img/fixation.png","null","","","test","","","","","","","","","","","","","","","","","","","",""
"480","","921833","SARL_v6uxzaglpt","msl000092","freq","","","img/orange_2bandit_a2.png","70","","70","test","1","","","square","circle","11","11","11","1","1","","","","","","","","","",""
"null","","922160","SARL_v6uxzaglpt","msl000092","freq_resp","","","img/orange_2bandit_a.png","70","img/orange_2bandit_a.png","70","test","","","","","","","","","1","","","","","","","","","","",""
"null","","922315","SARL_v6uxzaglpt","msl000092","fixation","","","img/fixation.png","null","","","test","","","","","","","","","","","","","","","","","","","",""
"436","","922756","SARL_v6uxzaglpt","msl000092","freq","","","img/orange_2bandit_a2.png","70","","70","test","1","","","square","circle","12","12","12","1","1","","","","","","","","","",""
"null","","923127","SARL_v6uxzaglpt","msl000092","freq_resp","","","img/orange_2bandit_a.png","70","img/orange_2bandit_a.png","70","test","","","","","","","","","1","","","","","","","","","","",""
"null","","923283","SARL_v6uxzaglpt","msl000092","fixation","","","img/fixation.png","null","","","test","","","","","","","","","","","","","","","","","","","",""
"433","","923721","SARL_v6uxzaglpt","msl000092","freq","","","img/orange_2bandit_a2.png","70","","70","test","1","","","square","circle","13","13","13","1","1","","","","","","","","","",""
"null","","924094","SARL_v6uxzaglpt","msl000092","freq_resp","","","img/orange_2bandit_a.png","70","img/orange_2bandit_a.png","70","test","","","","","","","","","1","","","","","","","","","","",""
"null","","924249","SARL_v6uxzaglpt","msl000092","fixation","","","img/fixation.png","null","","","test","","","","","","","","","","","","","","","","","","","",""
"406","","924661","SARL_v6uxzaglpt","msl000092","freq","","","img/orange_2bandit_a2.png","70","","70","test","1","","","square","circle","14","14","14","1","1","","","","","","","","","",""
"null","","925060","SARL_v6uxzaglpt","msl000092","freq_resp","","","img/orange_2bandit_a.png","70","img/orange_2bandit_a.png","70","test","","","","","","","","","1","","","","","","","","","","",""
"null","","925215","SARL_v6uxzaglpt","msl000092","fixation","","","img/fixation.png","null","","","test","","","","","","","","","","","","","","","","","","","",""
"382","","925602","SARL_v6uxzaglpt","msl000092","freq","","","img/orange_2bandit_a2.png","70","","70","test","1","","","square","circle","15","15","15","1","1","","","","","","","","","",""
"null","","926025","SARL_v6uxzaglpt","msl000092","freq_resp","","","img/orange_2bandit_a.png","70","img/orange_2bandit_a.png","70","test","","","","","","","","","1","","","","","","","","","","",""
"null","","926181","SARL_v6uxzaglpt","msl000092","fixation","","","img/fixation.png","null","","","test","","","","","","","","","","","","","","","","","","","",""
"435","","926621","SARL_v6uxzaglpt","msl000092","infreq","","","img/green_2bandit_a2.png","68","","68","test","1","","","square","circle","16","16","16","1","1","","","","","","","","","",""
"null","","926992","SARL_v6uxzaglpt","msl000092","infreq_resp","","","img/green_2bandit_a.png","68","img/green_2bandit_a.png","68","test","","","","","","","","","1","","","","","","","","","","",""
"null","","927148","SARL_v6uxzaglpt","msl000092","fixation","","","img/fixation.png","null","","","test","","","","","","","","","","","","","","","","","","","",""
"456","","927610","SARL_v6uxzaglpt","msl000092","freq","","","img/orange_2bandit_a2.png","70","","70","test","1","","","square","circle","17","17","17","1","1","","","","","","","","","",""
"null","","927958","SARL_v6uxzaglpt","msl000092","freq_resp","","","img/orange_2bandit_a.png","70","img/orange_2bandit_a.png","70","test","","","","","","","","","1","","","","","","","","","","",""
"null","","928115","SARL_v6uxzaglpt","msl000092","fixation","","","img/fixation.png","null","","","test","","","","","","","","","","","","","","","","","","","",""
"485","","928604","SARL_v6uxzaglpt","msl000092","infreq","","","img/green_2bandit_a2.png","68","","68","test","1","","","square","circle","18","18","18","1","1","","","","","","","","","",""
"null","","928924","SARL_v6uxzaglpt","msl000092","infreq_resp","","","img/green_2bandit_a.png","68","img/green_2bandit_a.png","68","test","","","","","","","","","1","","","","","","","","","","",""
"null","","929079","SARL_v6uxzaglpt","msl000092","fixation","","","img/fixation.png","null","","","test","","","","","","","","","","","","","","","","","","","",""
"524","","929607","SARL_v6uxzaglpt","msl000092","freq","","","img/orange_2bandit_a2.png","70","","70","test","1","","","square","circle","19","19","19","1","1","","","","","","","","","",""
"null","","929889","SARL_v6uxzaglpt","msl000092","freq_resp","","","img/orange_2bandit_a.png","70","img/orange_2bandit_a.png","70","test","","","","","","","","","1","","","","","","","","","","",""
"null","","930043","SARL_v6uxzaglpt","msl000092","fixation","","","img/fixation.png","null","","","test","","","","","","","","","","","","","","","","","","","",""
"517","","930566","SARL_v6uxzaglpt","msl000092","freq","","","img/orange_2bandit_a2.png","70","","70","test","1","","","square","circle","20","20","20","1","1","","","","","","","","","",""
"null","","930854","SARL_v6uxzaglpt","msl000092","freq_resp","","","img/orange_2bandit_a.png","70","img/orange_2bandit_a.png","70","test","","","","","","","","","1","","","","","","","","","","",""
"null","","931009","SARL_v6uxzaglpt","msl000092","fixation","","","img/fixation.png","null","","","test","","","","","","","","","","","","","","","","","","","",""
"507","","931521","SARL_v6uxzaglpt","msl000092","freq","","","img/orange_2bandit_a2.png","70","","70","test","1","","","square","circle","21","21","21","1","1","","","","","","","","","",""
"null","","931820","SARL_v6uxzaglpt","msl000092","freq_resp","","","img/orange_2bandit_a.png","70","img/orange_2bandit_a.png","70","test","","","","","","","","","1","","","","","","","","","","",""
"null","","931976","SARL_v6uxzaglpt","msl000092","fixation","","","img/fixation.png","null","","","test","","","","","","","","","","","","","","","","","","","",""
"472","","932453","SARL_v6uxzaglpt","msl000092","freq","","","img/orange_2bandit_a2.png","70","","70","test","1","","","square","circle","22","22","22","1","1","","","","","","","","","",""
"null","","932787","SARL_v6uxzaglpt","msl000092","freq_resp","","","img/orange_2bandit_a.png","70","img/orange_2bandit_a.png","70","test","","","","","","","","","1","","","","","","","","","","",""
"null","","932943","SARL_v6uxzaglpt","msl000092","fixation","","","img/fixation.png","null","","","test","","","","","","","","","","","","","","","","","","","",""
"460","","933407","SARL_v6uxzaglpt","msl000092","freq","","","img/orange_2bandit_a2.png","70","","70","test","1","","","square","circle","23","23","23","1","1","","","","","","","","","",""
"null","","933752","SARL_v6uxzaglpt","msl000092","freq_resp","","","img/orange_2bandit_a.png","70","img/orange_2bandit_a.png","70","test","","","","","","","","","1","","","","","","","","","","",""
"null","","933908","SARL_v6uxzaglpt","msl000092","fixation","","","img/fixation.png","null","","","test","","","","","","","","","","","","","","","","","","","",""
"428","","934340","SARL_v6uxzaglpt","msl000092","freq","","","img/orange_2bandit_a2.png","70","","70","test","1","","","square","circle","24","24","24","1","1","","","","","","","","","",""
"null","","934718","SARL_v6uxzaglpt","msl000092","freq_resp","","","img/orange_2bandit_a.png","70","img/orange_2bandit_a.png","70","test","","","","","","","","","1","","","","","","","","","","",""
"null","","934874","SARL_v6uxzaglpt","msl000092","fixation","","","img/fixation.png","null","","","test","","","","","","","","","","","","","","","","","","","",""
"410","","935288","SARL_v6uxzaglpt","msl000092","freq","","","img/orange_2bandit_a2.png","70","","70","test","1","","","square","circle","25","25","25","1","1","","","","","","","","","",""
"null","","935683","SARL_v6uxzaglpt","msl000092","freq_resp","","","img/orange_2bandit_a.png","70","img/orange_2bandit_a.png","70","test","","","","","","","","","1","","","","","","","","","","",""
"null","","935839","SARL_v6uxzaglpt","msl000092","fixation","","","img/fixation.png","null","","","test","","","","","","","","","","","","","","","","","","","",""
"406","","936251","SARL_v6uxzaglpt","msl000092","freq","","","img/orange_2bandit_a2.png","70","","70","test","1","","","square","circle","26","26","26","1","1","","","","","","","","","",""
"null","","936651","SARL_v6uxzaglpt","msl000092","freq_resp","","","img/orange_2bandit_a.png","70","img/orange_2bandit_a.png","70","test","","","","","","","","","1","","","","","","","","","","",""
"null","","936807","SARL_v6uxzaglpt","msl000092","fixation","","","img/fixation.png","null","","","test","","","","","","","","","","","","","","","","","","","",""
"434","","937246","SARL_v6uxzaglpt","msl000092","freq","","","img/orange_2bandit_a2.png","70","","70","test","1","","","square","circle","27","27","27","1","1","","","","","","","","","",""
"null","","937618","SARL_v6uxzaglpt","msl000092","freq_resp","","","img/orange_2bandit_a.png","70","img/orange_2bandit_a.png","70","test","","","","","","","","","1","","","","","","","","","","",""
"null","","937773","SARL_v6uxzaglpt","msl000092","fixation","","","img/fixation.png","null","","","test","","","","","","","","","","","","","","","","","","","",""
"420","","938199","SARL_v6uxzaglpt","msl000092","freq","","","img/orange_2bandit_a2.png","70","","70","test","1","","","square","circle","28","28","28","1","1","","","","","","","","","",""
"null","","938585","SARL_v6uxzaglpt","msl000092","freq_resp","","","img/orange_2bandit_a.png","70","img/orange_2bandit_a.png","70","test","","","","","","","","","1","","","","","","","","","","",""
"null","","938740","SARL_v6uxzaglpt","msl000092","fixation","","","img/fixation.png","null","","","test","","","","","","","","","","","","","","","","","","","",""
"383","","939129","SARL_v6uxzaglpt","msl000092","freq","","","img/orange_2bandit_a2.png","70","","70","test","1","","","square","circle","29","29","29","1","1","","","","","","","","","",""
"null","","939553","SARL_v6uxzaglpt","msl000092","freq_resp","","","img/orange_2bandit_a.png","70","img/orange_2bandit_a.png","70","test","","","","","","","","","1","","","","","","","","","","",""
"null","","939708","SARL_v6uxzaglpt","msl000092","fixation","","","img/fixation.png","null","","","test","","","","","","","","","","","","","","","","","","","",""
"579","","940291","SARL_v6uxzaglpt","msl000092","rl","","","img/black_2bandit_a2.png","74","","0","test","","","0","square","circle","30","","0","1","","74","0.2","0.8","0.8383755196558249","0.8","0.2","0.8","square","1","0"
"null","","941046","SARL_v6uxzaglpt","msl000092","feedback","","","img/boo_L_a.png","null","","na","test","","","","","","","","","1","","74","0.2","0.8","","","","0.8","","1",""
"585","","941636","SARL_v6uxzaglpt","msl000092","freq","","","img/orange_2bandit_a2.png","70","","70","test","1","","","square","circle","31","30","1","2","1","","","","","","","","","",""
"null","","941856","SARL_v6uxzaglpt","msl000092","freq_resp","","","img/orange_2bandit_a.png","70","img/orange_2bandit_a.png","70","test","","","","","","","","","2","","","","","","","","","","",""
"null","","942013","SARL_v6uxzaglpt","msl000092","fixation","","","img/fixation.png","null","","","test","","","","","","","","","","","","","","","","","","","",""
"528","","942545","SARL_v6uxzaglpt","msl000092","freq","","","img/orange_2bandit_a2.png","70","","70","test","1","","","square","circle","32","31","2","2","1","","","","","","","","","",""
"null","","942823","SARL_v6uxzaglpt","msl000092","freq_resp","","","img/orange_2bandit_a.png","70","img/orange_2bandit_a.png","70","test","","","","","","","","","2","","","","","","","","","","",""
"null","","942979","SARL_v6uxzaglpt","msl000092","fixation","","","img/fixation.png","null","","","test","","","","","","","","","","","","","","","","","","","",""
"466","","943449","SARL_v6uxzaglpt","msl000092","freq","","","img/orange_2bandit_a2.png","70","","70","test","1","","","square","circle","33","32","3","2","1","","","","","","","","","",""
"null","","943789","SARL_v6uxzaglpt","msl000092","freq_resp","","","img/orange_2bandit_a.png","70","img/orange_2bandit_a.png","70","test","","","","","","","","","2","","","","","","","","","","",""
"null","","943944","SARL_v6uxzaglpt","msl000092","fixation","","","img/fixation.png","null","","","test","","","","","","","","","","","","","","","","","","","",""
"428","","944378","SARL_v6uxzaglpt","msl000092","freq","","","img/orange_2bandit_a2.png","70","","70","test","1","","","square","circle","34","33","4","2","1","","","","","","","","","",""
"null","","944755","SARL_v6uxzaglpt","msl000092","freq_resp","","","img/orange_2bandit_a.png","70","img/orange_2bandit_a.png","70","test","","","","","","","","","2","","","","","","","","","","",""
"null","","944911","SARL_v6uxzaglpt","msl000092","fixation","","","img/fixation.png","null","","","test","","","","","","","","","","","","","","","","","","","",""
"398","","945315","SARL_v6uxzaglpt","msl000092","freq","","","img/orange_2bandit_a2.png","70","","70","test","1","","","square","circle","35","34","5","2","1","","","","","","","","","",""
"null","","945721","SARL_v6uxzaglpt","msl000092","freq_resp","","","img/orange_2bandit_a.png","70","img/orange_2bandit_a.png","70","test","","","","","","","","","2","","","","","","","","","","",""
"null","","945878","SARL_v6uxzaglpt","msl000092","fixation","","","img/fixation.png","null","","","test","","","","","","","","","","","","","","","","","","","",""
"403","","946287","SARL_v6uxzaglpt","msl000092","freq","","","img/orange_2bandit_a2.png","70","","70","test","1","","","square","circle","36","35","6","2","1","","","","","","","","","",""
"null","","946689","SARL_v6uxzaglpt","msl000092","freq_resp","","","img/orange_2bandit_a.png","70","img/orange_2bandit_a.png","70","test","","","","","","","","","2","","","","","","","","","","",""
"null","","946844","SARL_v6uxzaglpt","msl000092","fixation","","","img/fixation.png","null","","","test","","","","","","","","","","","","","","","","","","","",""
"700","","947550","SARL_v6uxzaglpt","msl000092","infreq","","","img/green_2bandit_a2.png","70","","68","test","0","","","square","circle","37","36","7","2","0.9722222222222222","","","","","","","","","",""
"null","","947654","SARL_v6uxzaglpt","msl000092","infreq_resp","","","img/green_2bandit_a.png","70","img/green_2bandit_a.png","68","test","","","","","","","","","2","","","","","","","","","","",""
"null","","947810","SARL_v6uxzaglpt","msl000092","fixation","","","img/fixation.png","null","","","test","","","","","","","","","","","","","","","","","","","",""
"null","","948614","SARL_v6uxzaglpt","msl000092","freq","","","img/orange_2bandit_a2.png","null","","70","test","0","","","square","circle","38","37","8","2","0.9459459459459459","","","","","","","","","",""
"null","","948770","SARL_v6uxzaglpt","msl000092","fixation","","","img/fixation.png","null","","","test","","","","","","","","","","","","","","","","","","","",""
"370","","949144","SARL_v6uxzaglpt","msl000092","infreq","","","img/green_2bandit_a2.png","68","","68","test","1","","","square","circle","39","38","9","2","0.9473684210526315","","","","","","","","","",""
"null","","949579","SARL_v6uxzaglpt","msl000092","infreq_resp","","","img/green_2bandit_a.png","68","img/green_2bandit_a.png","68","test","","","","","","","","","2","","","","","","","","","","",""
"null","","949734","SARL_v6uxzaglpt","msl000092","fixation","","","img/fixation.png","null","","","test","","","","","","","","","","","","","","","","","","","",""
"526","","950264","SARL_v6uxzaglpt","msl000092","freq","","","img/orange_2bandit_a2.png","70","","70","test","1","","","square","circle","40","39","10","2","0.9487179487179487","","","","","","","","","",""
"null","","950545","SARL_v6uxzaglpt","msl000092","freq_resp","","","img/orange_2bandit_a.png","70","img/orange_2bandit_a.png","70","test","","","","","","","","","2","","","","","","","","","","",""
"null","","950701","SARL_v6uxzaglpt","msl000092","fixation","","","img/fixation.png","null","","","test","","","","","","","","","","","","","","","","","","","",""
"629","","951335","SARL_v6uxzaglpt","msl000092","freq","","","img/orange_2bandit_a2.png","70","","70","test","1","","","square","circle","41","40","11","2","0.95","","","","","","","","","",""
"null","","951511","SARL_v6uxzaglpt","msl000092","freq_resp","","","img/orange_2bandit_a.png","70","img/orange_2bandit_a.png","70","test","","","","","","","","","2","","","","","","","","","","",""
"null","","951667","SARL_v6uxzaglpt","msl000092","fixation","","","img/fixation.png","null","","","test","","","","","","","","","","","","","","","","","","","",""
"471","","952143","SARL_v6uxzaglpt","msl000092","freq","","","img/orange_2bandit_a2.png","70","","70","test","1","","","square","circle","42","41","12","2","0.9512195121951219","","","","","","","","","",""
"null","","952478","SARL_v6uxzaglpt","msl000092","freq_resp","","","img/orange_2bandit_a.png","70","img/orange_2bandit_a.png","70","test","","","","","","","","","2","","","","","","","","","","",""
"null","","952634","SARL_v6uxzaglpt","msl000092","fixation","","","img/fixation.png","null","","","test","","","","","","","","","","","","","","","","","","","",""
"447","","953085","SARL_v6uxzaglpt","msl000092","freq","","","img/orange_2bandit_a2.png","70","","70","test","1","","","square","circle","43","42","13","2","0.9523809523809523","","","","","","","","","",""
"null","","953445","SARL_v6uxzaglpt","msl000092","freq_resp","","","img/orange_2bandit_a.png","70","img/orange_2bandit_a.png","70","test","","","","","","","","","2","","","","","","","","","","",""
"null","","953601","SARL_v6uxzaglpt","msl000092","fixation","","","img/fixation.png","null","","","test","","","","","","","","","","","","","","","","","","","",""
"445","","954051","SARL_v6uxzaglpt","msl000092","freq","","","img/orange_2bandit_a2.png","70","","70","test","1","","","square","circle","44","43","14","2","0.9534883720930233","","","","","","","","","",""
"null","","954412","SARL_v6uxzaglpt","msl000092","freq_resp","","","img/orange_2bandit_a.png","70","img/orange_2bandit_a.png","70","test","","","","","","","","","2","","","","","","","","","","",""
"null","","954569","SARL_v6uxzaglpt","msl000092","fixation","","","img/fixation.png","null","","","test","","","","","","","","","","","","","","","","","","","",""
"444","","955018","SARL_v6uxzaglpt","msl000092","freq","","","img/orange_2bandit_a2.png","70","","70","test","1","","","square","circle","45","44","15","2","0.9545454545454546","","","","","","","","","",""
"null","","955379","SARL_v6uxzaglpt","msl000092","freq_resp","","","img/orange_2bandit_a.png","70","img/orange_2bandit_a.png","70","test","","","","","","","","","2","","","","","","","","","","",""
"null","","955535","SARL_v6uxzaglpt","msl000092","fixation","","","img/fixation.png","null","","","test","","","","","","","","","","","","","","","","","","","",""
"449","","955989","SARL_v6uxzaglpt","msl000092","freq","","","img/orange_2bandit_a2.png","70","","70","test","1","","","square","circle","46","45","16","2","0.9555555555555556","","","","","","","","","",""
"null","","956345","SARL_v6uxzaglpt","msl000092","freq_resp","","","img/orange_2bandit_a.png","70","img/orange_2bandit_a.png","70","test","","","","","","","","","2","","","","","","","","","","",""
"null","","956501","SARL_v6uxzaglpt","msl000092","fixation","","","img/fixation.png","null","","","test","","","","","","","","","","","","","","","","","","","",""
"466","","956973","SARL_v6uxzaglpt","msl000092","freq","","","img/orange_2bandit_a2.png","70","","70","test","1","","","square","circle","47","46","17","2","0.9565217391304348","","","","","","","","","",""
"null","","957312","SARL_v6uxzaglpt","msl000092","freq_resp","","","img/orange_2bandit_a.png","70","img/orange_2bandit_a.png","70","test","","","","","","","","","2","","","","","","","","","","",""
"null","","957468","SARL_v6uxzaglpt","msl000092","fixation","","","img/fixation.png","null","","","test","","","","","","","","","","","","","","","","","","","",""
"473","","957946","SARL_v6uxzaglpt","msl000092","freq","","","img/orange_2bandit_a2.png","70","","70","test","1","","","square","circle","48","47","18","2","0.9574468085106383","","","","","","","","","",""
"null","","958278","SARL_v6uxzaglpt","msl000092","freq_resp","","","img/orange_2bandit_a.png","70","img/orange_2bandit_a.png","70","test","","","","","","","","","2","","","","","","","","","","",""
"null","","958432","SARL_v6uxzaglpt","msl000092","fixation","","","img/fixation.png","null","","","test","","","","","","","","","","","","","","","","","","","",""
"406","","958844","SARL_v6uxzaglpt","msl000092","freq","","","img/orange_2bandit_a2.png","70","","70","test","1","","","square","circle","49","48","19","2","0.9583333333333334","","","","","","","","","",""
"null","","959244","SARL_v6uxzaglpt","msl000092","freq_resp","","","img/orange_2bandit_a.png","70","img/orange_2bandit_a.png","70","test","","","","","","","","","2","","","","","","","","","","",""
"null","","959399","SARL_v6uxzaglpt","msl000092","fixation","","","img/fixation.png","null","","","test","","","","","","","","","","","","","","","","","","","",""
"424","","959828","SARL_v6uxzaglpt","msl000092","freq","","","img/orange_2bandit_a2.png","70","","70","test","1","","","square","circle","50","49","20","2","0.9591836734693877","","","","","","","","","",""
"null","","960210","SARL_v6uxzaglpt","msl000092","freq_resp","","","img/orange_2bandit_a.png","70","img/orange_2bandit_a.png","70","test","","","","","","","","","2","","","","","","","","","","",""
"null","","960365","SARL_v6uxzaglpt","msl000092","fixation","","","img/fixation.png","null","","","test","","","","","","","","","","","","","","","","","","","",""
"592","","960961","SARL_v6uxzaglpt","msl000092","infreq","","","img/green_2bandit_a2.png","68","","68","test","1","","","square","circle","51","50","21","2","0.96","","","","","","","","","",""
"null","","961174","SARL_v6uxzaglpt","msl000092","infreq_resp","","","img/green_2bandit_a.png","68","img/green_2bandit_a.png","68","test","","","","","","","","","2","","","","","","","","","","",""
"null","","961330","SARL_v6uxzaglpt","msl000092","fixation","","","img/fixation.png","null","","","test","","","","","","","","","","","","","","","","","","","",""
"523","","961857","SARL_v6uxzaglpt","msl000092","freq","","","img/orange_2bandit_a2.png","70","","70","test","1","","","square","circle","52","51","22","2","0.9607843137254902","","","","","","","","","",""
"null","","962139","SARL_v6uxzaglpt","msl000092","freq_resp","","","img/orange_2bandit_a.png","70","img/orange_2bandit_a.png","70","test","","","","","","","","","2","","","","","","","","","","",""
"null","","962294","SARL_v6uxzaglpt","msl000092","fixation","","","img/fixation.png","null","","","test","","","","","","","","","","","","","","","","","","","",""
"530","","962828","SARL_v6uxzaglpt","msl000092","freq","","","img/orange_2bandit_a2.png","70","","70","test","1","","","square","circle","53","52","23","2","0.9615384615384616","","","","","","","","","",""
"null","","963104","SARL_v6uxzaglpt","msl000092","freq_resp","","","img/orange_2bandit_a.png","70","img/orange_2bandit_a.png","70","test","","","","","","","","","2","","","","","","","","","","",""
"null","","963261","SARL_v6uxzaglpt","msl000092","fixation","","","img/fixation.png","null","","","test","","","","","","","","","","","","","","","","","","","",""
"442","","963706","SARL_v6uxzaglpt","msl000092","freq","","","img/orange_2bandit_a2.png","70","","70","test","1","","","square","circle","54","53","24","2","0.9622641509433962","","","","","","","","","",""
"null","","964071","SARL_v6uxzaglpt","msl000092","freq_resp","","","img/orange_2bandit_a.png","70","img/orange_2bandit_a.png","70","test","","","","","","","","","2","","","","","","","","","","",""
"null","","964226","SARL_v6uxzaglpt","msl000092","fixation","","","img/fixation.png","null","","","test","","","","","","","","","","","","","","","","","","","",""
"435","","964666","SARL_v6uxzaglpt","msl000092","freq","","","img/orange_2bandit_a2.png","70","","70","test","1","","","square","circle","55","54","25","2","0.9629629629629629","","","","","","","","","",""
"null","","965037","SARL_v6uxzaglpt","msl000092","freq_resp","","","img/orange_2bandit_a.png","70","img/orange_2bandit_a.png","70","test","","","","","","","","","2","","","","","","","","","","",""
"null","","965193","SARL_v6uxzaglpt","msl000092","fixation","","","img/fixation.png","null","","","test","","","","","","","","","","","","","","","","","","","",""
"395","","965594","SARL_v6uxzaglpt","msl000092","freq","","","img/orange_2bandit_a2.png","70","","70","test","1","","","square","circle","56","55","26","2","0.9636363636363636","","","","","","","","","",""
"null","","966004","SARL_v6uxzaglpt","msl000092","freq_resp","","","img/orange_2bandit_a.png","70","img/orange_2bandit_a.png","70","test","","","","","","","","","2","","","","","","","","","","",""
"null","","966159","SARL_v6uxzaglpt","msl000092","fixation","","","img/fixation.png","null","","","test","","","","","","","","","","","","","","","","","","","",""
"319","","966482","SARL_v6uxzaglpt","msl000092","freq","","","img/orange_2bandit_a2.png","70","","70","test","1","","","square","circle","57","56","27","2","0.9642857142857143","","","","","","","","","",""
"null","","966968","SARL_v6uxzaglpt","msl000092","freq_resp","","","img/orange_2bandit_a.png","70","img/orange_2bandit_a.png","70","test","","","","","","","","","2","","","","","","","","","","",""
"null","","967124","SARL_v6uxzaglpt","msl000092","fixation","","","img/fixation.png","null","","","test","","","","","","","","","","","","","","","","","","","",""
"286","","967415","SARL_v6uxzaglpt","msl000092","freq","","","img/orange_2bandit_a2.png","70","","70","test","1","","","square","circle","58","57","28","2","0.9649122807017544","","","","","","","","","",""
"null","","967935","SARL_v6uxzaglpt","msl000092","freq_resp","","","img/orange_2bandit_a.png","70","img/orange_2bandit_a.png","70","test","","","","","","","","","2","","","","","","","","","","",""
"null","","968090","SARL_v6uxzaglpt","msl000092","fixation","","","img/fixation.png","null","","","test","","","","","","","","","","","","","","","","","","","",""
"329","","968425","SARL_v6uxzaglpt","msl000092","freq","","","img/orange_2bandit_a2.png","70","","70","test","1","","","square","circle","59","58","29","2","0.9655172413793104","","","","","","","","","",""
"null","","968902","SARL_v6uxzaglpt","msl000092","freq_resp","","","img/orange_2bandit_a.png","70","img/orange_2bandit_a.png","70","test","","","","","","","","","2","","","","","","","","","","",""
"null","","969057","SARL_v6uxzaglpt","msl000092","fixation","","","img/fixation.png","null","","","test","","","","","","","","","","","","","","","","","","","",""
"925","","969988","SARL_v6uxzaglpt","msl000092","rl","","","img/black_2bandit_a2.png","75","","0","test","","","0","square","circle","60","","0","2","","75","0.2","0.8","0.9916082142268567","0.8","0.2","0.2","circle","2","0"
"null","","970742","SARL_v6uxzaglpt","msl000092","feedback","","","img/boo_R_a.png","null","","na","test","","","","","","","","","2","","75","0.2","0.8","","","","0.2","","2",""
"null","","971549","SARL_v6uxzaglpt","msl000092","freq","","","img/orange_2bandit_a2.png","null","","70","test","0","","","square","circle","61","59","1","3","0.9491525423728814","","","","","","","","","",""
"null","","971704","SARL_v6uxzaglpt","msl000092","fixation","","","img/fixation.png","null","","","test","","","","","","","","","","","","","","","","","","","",""
"544","","972252","SARL_v6uxzaglpt","msl000092","infreq","","","img/green_2bandit_a2.png","68","","68","test","1","","","square","circle","62","60","2","3","0.95","","","","","","","","","",""
"null","","972514","SARL_v6uxzaglpt","msl000092","infreq_resp","","","img/green_2bandit_a.png","68","img/green_2bandit_a.png","68","test","","","","","","","","","3","","","","","","","","","","",""
"null","","972670","SARL_v6uxzaglpt","msl000092","fixation","","","img/fixation.png","null","","","test","","","","","","","","","","","","","","","","","","","",""
"457","","973133","SARL_v6uxzaglpt","msl000092","freq","","","img/orange_2bandit_a2.png","70","","70","test","1","","","square","circle","63","61","3","3","0.9508196721311475","","","","","","","","","",""
"null","","973480","SARL_v6uxzaglpt","msl000092","freq_resp","","","img/orange_2bandit_a.png","70","img/orange_2bandit_a.png","70","test","","","","","","","","","3","","","","","","","","","","",""
"null","","973637","SARL_v6uxzaglpt","msl000092","fixation","","","img/fixation.png","null","","","test","","","","","","","","","","","","","","","","","","","",""
"499","","974140","SARL_v6uxzaglpt","msl000092","freq","","","img/orange_2bandit_a2.png","70","","70","test","1","","","square","circle","64","62","4","3","0.9516129032258065","","","","","","","","","",""
"null","","974447","SARL_v6uxzaglpt","msl000092","freq_resp","","","img/orange_2bandit_a.png","70","img/orange_2bandit_a.png","70","test","","","","","","","","","3","","","","","","","","","","",""
"null","","974602","SARL_v6uxzaglpt","msl000092","fixation","","","img/fixation.png","null","","","test","","","","","","","","","","","","","","","","","","","",""
"506","","975114","SARL_v6uxzaglpt","msl000092","freq","","","img/orange_2bandit_a2.png","70","","70","test","1","","","square","circle","65","63","5","3","0.9523809523809523","","","","","","","","","",""
"null","","975414","SARL_v6uxzaglpt","msl000092","freq_resp","","","img/orange_2bandit_a.png","70","img/orange_2bandit_a.png","70","test","","","","","","","","","3","","","","","","","","","","",""
"null","","975569","SARL_v6uxzaglpt","msl000092","fixation","","","img/fixation.png","null","","","test","","","","","","","","","","","","","","","","","","","",""
"510","","976083","SARL_v6uxzaglpt","msl000092","freq","","","img/orange_2bandit_a2.png","70","","70","test","1","","","square","circle","66","64","6","3","0.953125","","","","","","","","","",""
"null","","976379","SARL_v6uxzaglpt","msl000092","freq_resp","","","img/orange_2bandit_a.png","70","img/orange_2bandit_a.png","70","test","","","","","","","","","3","","","","","","","","","","",""
"null","","976534","SARL_v6uxzaglpt","msl000092","fixation","","","img/fixation.png","null","","","test","","","","","","","","","","","","","","","","","","","",""
"457","","976995","SARL_v6uxzaglpt","msl000092","freq","","","img/orange_2bandit_a2.png","70","","70","test","1","","","square","circle","67","65","7","3","0.9538461538461539","","","","","","","","","",""
"null","","977344","SARL_v6uxzaglpt","msl000092","freq_resp","","","img/orange_2bandit_a.png","70","img/orange_2bandit_a.png","70","test","","","","","","","","","3","","","","","","","","","","",""
"null","","977499","SARL_v6uxzaglpt","msl000092","fixation","","","img/fixation.png","null","","","test","","","","","","","","","","","","","","","","","","","",""
"487","","977991","SARL_v6uxzaglpt","msl000092","freq","","","img/orange_2bandit_a2.png","70","","70","test","1","","","square","circle","68","66","8","3","0.9545454545454546","","","","","","","","","",""
"null","","978310","SARL_v6uxzaglpt","msl000092","freq_resp","","","img/orange_2bandit_a.png","70","img/orange_2bandit_a.png","70","test","","","","","","","","","3","","","","","","","","","","",""
"null","","978465","SARL_v6uxzaglpt","msl000092","fixation","","","img/fixation.png","null","","","test","","","","","","","","","","","","","","","","","","","",""
"523","","978993","SARL_v6uxzaglpt","msl000092","infreq","","","img/green_2bandit_a2.png","68","","68","test","1","","","square","circle","69","67","9","3","0.9552238805970149","","","","","","","","","",""
"null","","979277","SARL_v6uxzaglpt","msl000092","infreq_resp","","","img/green_2bandit_a.png","68","img/green_2bandit_a.png","68","test","","","","","","","","","3","","","","","","","","","","",""
"null","","979432","SARL_v6uxzaglpt","msl000092","fixation","","","img/fixation.png","null","","","test","","","","","","","","","","","","","","","","","","","",""
"606","","980042","SARL_v6uxzaglpt","msl000092","freq","","","img/orange_2bandit_a2.png","70","","70","test","1","","","square","circle","70","68","10","3","0.9558823529411765","","","","","","","","","",""
"null","","980242","SARL_v6uxzaglpt","msl000092","freq_resp","","","img/orange_2bandit_a.png","70","img/orange_2bandit_a.png","70","test","","","","","","","","","3","","","","","","","","","","",""
"null","","980398","SARL_v6uxzaglpt","msl000092","fixation","","","img/fixation.png","null","","","test","","","","","","","","","","","","","","","","","","","",""
"522","","980925","SARL_v6uxzaglpt","msl000092","freq","","","img/orange_2bandit_a2.png","70","","70","test","1","","","square","circle","71","69","11","3","0.9565217391304348","","","","","","","","","",""
"null","","981209","SARL_v6uxzaglpt","msl000092","freq_resp","","","img/orange_2bandit_a.png","70","img/orange_2bandit_a.png","70","test","","","","","","","","","3","","","","","","","","","","",""
"null","","981364","SARL_v6uxzaglpt","msl000092","fixation","","","img/fixation.png","null","","","test","","","","","","","","","","","","","","","","","","","",""
"496","","981865","SARL_v6uxzaglpt","msl000092","infreq","","","img/green_2bandit_a2.png","68","","68","test","1","","","square","circle","72","70","12","3","0.9571428571428572","","","","","","","","","",""
"null","","982175","SARL_v6uxzaglpt","msl000092","infreq_resp","","","img/green_2bandit_a.png","68","img/green_2bandit_a.png","68","test","","","","","","","","","3","","","","","","","","","","",""
"null","","982331","SARL_v6uxzaglpt","msl000092","fixation","","","img/fixation.png","null","","","test","","","","","","","","","","","","","","","","","","","",""
"563","","982898","SARL_v6uxzaglpt","msl000092","freq","","","img/orange_2bandit_a2.png","70","","70","test","1","","","square","circle","73","71","13","3","0.9577464788732394","","","","","","","","","",""
"null","","983140","SARL_v6uxzaglpt","msl000092","freq_resp","","","img/orange_2bandit_a.png","70","img/orange_2bandit_a.png","70","test","","","","","","","","","3","","","","","","","","","","",""
"null","","983295","SARL_v6uxzaglpt","msl000092","fixation","","","img/fixation.png","null","","","test","","","","","","","","","","","","","","","","","","","",""
"581","","983881","SARL_v6uxzaglpt","msl000092","freq","","","img/orange_2bandit_a2.png","70","","70","test","1","","","square","circle","74","72","14","3","0.9583333333333334","","","","","","","","","",""
"null","","984105","SARL_v6uxzaglpt","msl000092","freq_resp","","","img/orange_2bandit_a.png","70","img/orange_2bandit_a.png","70","test","","","","","","","","","3","","","","","","","","","","",""
"null","","984261","SARL_v6uxzaglpt","msl000092","fixation","","","img/fixation.png","null","","","test","","","","","","","","","","","","","","","","","","","",""
"549","","984814","SARL_v6uxzaglpt","msl000092","freq","","","img/orange_2bandit_a2.png","70","","70","test","1","","","square","circle","75","73","15","3","0.958904109589041","","","","","","","","","",""
"null","","985071","SARL_v6uxzaglpt","msl000092","freq_resp","","","img/orange_2bandit_a.png","70","img/orange_2bandit_a.png","70","test","","","","","","","","","3","","","","","","","","","","",""
"null","","985226","SARL_v6uxzaglpt","msl000092","fixation","","","img/fixation.png","null","","","test","","","","","","","","","","","","","","","","","","","",""
"472","","985703","SARL_v6uxzaglpt","msl000092","freq","","","img/orange_2bandit_a2.png","70","","70","test","1","","","square","circle","76","74","16","3","0.9594594594594594","","","","","","","","","",""
"null","","986038","SARL_v6uxzaglpt","msl000092","freq_resp","","","img/orange_2bandit_a.png","70","img/orange_2bandit_a.png","70","test","","","","","","","","","3","","","","","","","","","","",""
"null","","986194","SARL_v6uxzaglpt","msl000092","fixation","","","img/fixation.png","null","","","test","","","","","","","","","","","","","","","","","","","",""
"457","","986657","SARL_v6uxzaglpt","msl000092","infreq","","","img/green_2bandit_a2.png","68","","68","test","1","","","square","circle","77","75","17","3","0.96","","","","","","","","","",""
"null","","987005","SARL_v6uxzaglpt","msl000092","infreq_resp","","","img/green_2bandit_a.png","68","img/green_2bandit_a.png","68","test","","","","","","","","","3","","","","","","","","","","",""
"null","","987161","SARL_v6uxzaglpt","msl000092","fixation","","","img/fixation.png","null","","","test","","","","","","","","","","","","","","","","","","","",""
"435","","987601","SARL_v6uxzaglpt","msl000092","freq","","","img/orange_2bandit_a2.png","70","","70","test","1","","","square","circle","78","76","18","3","0.9605263157894737","","","","","","","","","",""
"null","","987972","SARL_v6uxzaglpt","msl000092","freq_resp","","","img/orange_2bandit_a.png","70","img/orange_2bandit_a.png","70","test","","","","","","","","","3","","","","","","","","","","",""
"null","","988126","SARL_v6uxzaglpt","msl000092","fixation","","","img/fixation.png","null","","","test","","","","","","","","","","","","","","","","","","","",""
"417","","988548","SARL_v6uxzaglpt","msl000092","freq","","","img/orange_2bandit_a2.png","70","","70","test","1","","","square","circle","79","77","19","3","0.961038961038961","","","","","","","","","",""
"null","","988936","SARL_v6uxzaglpt","msl000092","freq_resp","","","img/orange_2bandit_a.png","70","img/orange_2bandit_a.png","70","test","","","","","","","","","3","","","","","","","","","","",""
"null","","989091","SARL_v6uxzaglpt","msl000092","fixation","","","img/fixation.png","null","","","test","","","","","","","","","","","","","","","","","","","",""
"382","","989477","SARL_v6uxzaglpt","msl000092","freq","","","img/orange_2bandit_a2.png","70","","70","test","1","","","square","circle","80","78","20","3","0.9615384615384616","","","","","","","","","",""
"null","","989901","SARL_v6uxzaglpt","msl000092","freq_resp","","","img/orange_2bandit_a.png","70","img/orange_2bandit_a.png","70","test","","","","","","","","","3","","","","","","","","","","",""
"null","","990055","SARL_v6uxzaglpt","msl000092","fixation","","","img/fixation.png","null","","","test","","","","","","","","","","","","","","","","","","","",""
"415","","990474","SARL_v6uxzaglpt","msl000092","freq","","","img/orange_2bandit_a2.png","70","","70","test","1","","","square","circle","81","79","21","3","0.9620253164556962","","","","","","","","","",""
"null","","990866","SARL_v6uxzaglpt","msl000092","freq_resp","","","img/orange_2bandit_a.png","70","img/orange_2bandit_a.png","70","test","","","","","","","","","3","","","","","","","","","","",""
"null","","991020","SARL_v6uxzaglpt","msl000092","fixation","","","img/fixation.png","null","","","test","","","","","","","","","","","","","","","","","","","",""
"389","","991413","SARL_v6uxzaglpt","msl000092","freq","","","img/orange_2bandit_a2.png","70","","70","test","1","","","square","circle","82","80","22","3","0.9625","","","","","","","","","",""
"null","","991831","SARL_v6uxzaglpt","msl000092","freq_resp","","","img/orange_2bandit_a.png","70","img/orange_2bandit_a.png","70","test","","","","","","","","","3","","","","","","","","","","",""
"null","","991988","SARL_v6uxzaglpt","msl000092","fixation","","","img/fixation.png","null","","","test","","","","","","","","","","","","","","","","","","","",""
"381","","992373","SARL_v6uxzaglpt","msl000092","freq","","","img/orange_2bandit_a2.png","70","","70","test","1","","","square","circle","83","81","23","3","0.9629629629629629","","","","","","","","","",""
"null","","992798","SARL_v6uxzaglpt","msl000092","freq_resp","","","img/orange_2bandit_a.png","70","img/orange_2bandit_a.png","70","test","","","","","","","","","3","","","","","","","","","","",""
"null","","992954","SARL_v6uxzaglpt","msl000092","fixation","","","img/fixation.png","null","","","test","","","","","","","","","","","","","","","","","","","",""
"366","","993325","SARL_v6uxzaglpt","msl000092","freq","","","img/orange_2bandit_a2.png","70","","70","test","1","","","square","circle","84","82","24","3","0.9634146341463414","","","","","","","","","",""
"null","","993765","SARL_v6uxzaglpt","msl000092","freq_resp","","","img/orange_2bandit_a.png","70","img/orange_2bandit_a.png","70","test","","","","","","","","","3","","","","","","","","","","",""
"null","","993921","SARL_v6uxzaglpt","msl000092","fixation","","","img/fixation.png","null","","","test","","","","","","","","","","","","","","","","","","","",""
"376","","994301","SARL_v6uxzaglpt","msl000092","freq","","","img/orange_2bandit_a2.png","70","","70","test","1","","","square","circle","85","83","25","3","0.963855421686747","","","","","","","","","",""
"null","","994730","SARL_v6uxzaglpt","msl000092","freq_resp","","","img/orange_2bandit_a.png","70","img/orange_2bandit_a.png","70","test","","","","","","","","","3","","","","","","","","","","",""
"null","","994886","SARL_v6uxzaglpt","msl000092","fixation","","","img/fixation.png","null","","","test","","","","","","","","","","","","","","","","","","","",""
"342","","995232","SARL_v6uxzaglpt","msl000092","freq","","","img/orange_2bandit_a2.png","70","","70","test","1","","","square","circle","86","84","26","3","0.9642857142857143","","","","","","","","","",""
"null","","995695","SARL_v6uxzaglpt","msl000092","freq_resp","","","img/orange_2bandit_a.png","70","img/orange_2bandit_a.png","70","test","","","","","","","","","3","","","","","","","","","","",""
"null","","995850","SARL_v6uxzaglpt","msl000092","fixation","","","img/fixation.png","null","","","test","","","","","","","","","","","","","","","","","","","",""
"367","","996222","SARL_v6uxzaglpt","msl000092","freq","","","img/orange_2bandit_a2.png","70","","70","test","1","","","square","circle","87","85","27","3","0.9647058823529412","","","","","","","","","",""
"null","","996660","SARL_v6uxzaglpt","msl000092","freq_resp","","","img/orange_2bandit_a.png","70","img/orange_2bandit_a.png","70","test","","","","","","","","","3","","","","","","","","","","",""
"null","","996816","SARL_v6uxzaglpt","msl000092","fixation","","","img/fixation.png","null","","","test","","","","","","","","","","","","","","","","","","","",""
"513","","997334","SARL_v6uxzaglpt","msl000092","rl","","","img/black_2bandit_a2.png","74","","0","test","","","1","square","circle","88","","0","3","","74","0.2","0.8","0.5628287306372812","0.8","0.2","0.8","square","3","0"
"null","","998092","SARL_v6uxzaglpt","msl000092","feedback","","","img/yay_L_a.png","null","","na","test","","","","","","","","","3","","74","0.2","0.8","","","","0.8","","3",""
"368","","998465","SARL_v6uxzaglpt","msl000092","freq","","","img/orange_2bandit_a2.png","70","","70","test","1","","","square","circle","89","86","1","4","0.9651162790697675","","","","","","","","","",""
"null","","998903","SARL_v6uxzaglpt","msl000092","freq_resp","","","img/orange_2bandit_a.png","70","img/orange_2bandit_a.png","70","test","","","","","","","","","4","","","","","","","","","","",""
"null","","999059","SARL_v6uxzaglpt","msl000092","fixation","","","img/fixation.png","null","","","test","","","","","","","","","","","","","","","","","","","",""
"347","","999413","SARL_v6uxzaglpt","msl000092","freq","","","img/orange_2bandit_a2.png","70","","70","test","1","","","square","circle","90","87","2","4","0.9655172413793104","","","","","","","","","",""
"null","","999871","SARL_v6uxzaglpt","msl000092","freq_resp","","","img/orange_2bandit_a.png","70","img/orange_2bandit_a.png","70","test","","","","","","","","","4","","","","","","","","","","",""
"null","","1000027","SARL_v6uxzaglpt","msl000092","fixation","","","img/fixation.png","null","","","test","","","","","","","","","","","","","","","","","","","",""
"360","","1000392","SARL_v6uxzaglpt","msl000092","freq","","","img/orange_2bandit_a2.png","70","","70","test","1","","","square","circle","91","88","3","4","0.9659090909090909","","","","","","","","","",""
"null","","1000838","SARL_v6uxzaglpt","msl000092","freq_resp","","","img/orange_2bandit_a.png","70","img/orange_2bandit_a.png","70","test","","","","","","","","","4","","","","","","","","","","",""
"null","","1000994","SARL_v6uxzaglpt","msl000092","fixation","","","img/fixation.png","null","","","test","","","","","","","","","","","","","","","","","","","",""
"351","","1001350","SARL_v6uxzaglpt","msl000092","freq","","","img/orange_2bandit_a2.png","70","","70","test","1","","","square","circle","92","89","4","4","0.9662921348314607","","","","","","","","","",""
"null","","1001804","SARL_v6uxzaglpt","msl000092","freq_resp","","","img/orange_2bandit_a.png","70","img/orange_2bandit_a.png","70","test","","","","","","","","","4","","","","","","","","","","",""
"null","","1001960","SARL_v6uxzaglpt","msl000092","fixation","","","img/fixation.png","null","","","test","","","","","","","","","","","","","","","","","","","",""
"414","","1002379","SARL_v6uxzaglpt","msl000092","freq","","","img/orange_2bandit_a2.png","70","","70","test","1","","","square","circle","93","90","5","4","0.9666666666666667","","","","","","","","","",""
"null","","1002769","SARL_v6uxzaglpt","msl000092","freq_resp","","","img/orange_2bandit_a.png","70","img/orange_2bandit_a.png","70","test","","","","","","","","","4","","","","","","","","","","",""
"null","","1002925","SARL_v6uxzaglpt","msl000092","fixation","","","img/fixation.png","null","","","test","","","","","","","","","","","","","","","","","","","",""
"403","","1003333","SARL_v6uxzaglpt","msl000092","freq","","","img/orange_2bandit_a2.png","70","","70","test","1","","","square","circle","94","91","6","4","0.967032967032967","","","","","","","","","",""
"null","","1003735","SARL_v6uxzaglpt","msl000092","freq_resp","","","img/orange_2bandit_a.png","70","img/orange_2bandit_a.png","70","test","","","","","","","","","4","","","","","","","","","","",""
"null","","1003890","SARL_v6uxzaglpt","msl000092","fixation","","","img/fixation.png","null","","","test","","","","","","","","","","","","","","","","","","","",""
"401","","1004296","SARL_v6uxzaglpt","msl000092","freq","","","img/orange_2bandit_a2.png","70","","70","test","1","","","square","circle","95","92","7","4","0.967391304347826","","","","","","","","","",""
"null","","1004702","SARL_v6uxzaglpt","msl000092","freq_resp","","","img/orange_2bandit_a.png","70","img/orange_2bandit_a.png","70","test","","","","","","","","","4","","","","","","","","","","",""
"null","","1004857","SARL_v6uxzaglpt","msl000092","fixation","","","img/fixation.png","null","","","test","","","","","","","","","","","","","","","","","","","",""
"368","","1005230","SARL_v6uxzaglpt","msl000092","freq","","","img/orange_2bandit_a2.png","70","","70","test","1","","","square","circle","96","93","8","4","0.967741935483871","","","","","","","","","",""
"null","","1005668","SARL_v6uxzaglpt","msl000092","freq_resp","","","img/orange_2bandit_a.png","70","img/orange_2bandit_a.png","70","test","","","","","","","","","4","","","","","","","","","","",""
"null","","1005824","SARL_v6uxzaglpt","msl000092","fixation","","","img/fixation.png","null","","","test","","","","","","","","","","","","","","","","","","","",""
"345","","1006174","SARL_v6uxzaglpt","msl000092","freq","","","img/orange_2bandit_a2.png","70","","70","test","1","","","square","circle","97","94","9","4","0.9680851063829787","","","","","","","","","",""
"null","","1006634","SARL_v6uxzaglpt","msl000092","freq_resp","","","img/orange_2bandit_a.png","70","img/orange_2bandit_a.png","70","test","","","","","","","","","4","","","","","","","","","","",""
"null","","1006789","SARL_v6uxzaglpt","msl000092","fixation","","","img/fixation.png","null","","","test","","","","","","","","","","","","","","","","","","","",""
"363","","1007157","SARL_v6uxzaglpt","msl000092","freq","","","img/orange_2bandit_a2.png","70","","70","test","1","","","square","circle","98","95","10","4","0.968421052631579","","","","","","","","","",""
"null","","1007600","SARL_v6uxzaglpt","msl000092","freq_resp","","","img/orange_2bandit_a.png","70","img/orange_2bandit_a.png","70","test","","","","","","","","","4","","","","","","","","","","",""
"null","","1007755","SARL_v6uxzaglpt","msl000092","fixation","","","img/fixation.png","null","","","test","","","","","","","","","","","","","","","","","","","",""
"346","","1008105","SARL_v6uxzaglpt","msl000092","freq","","","img/orange_2bandit_a2.png","70","","70","test","1","","","square","circle","99","96","11","4","0.96875","","","","","","","","","",""
"null","","1008565","SARL_v6uxzaglpt","msl000092","freq_resp","","","img/orange_2bandit_a.png","70","img/orange_2bandit_a.png","70","test","","","","","","","","","4","","","","","","","","","","",""
"null","","1008720","SARL_v6uxzaglpt","msl000092","fixation","","","img/fixation.png","null","","","test","","","","","","","","","","","","","","","","","","","",""
"333","","1009057","SARL_v6uxzaglpt","msl000092","freq","","","img/orange_2bandit_a2.png","70","","70","test","1","","","square","circle","100","97","12","4","0.9690721649484536","","","","","","","","","",""
"null","","1009530","SARL_v6uxzaglpt","msl000092","freq_resp","","","img/orange_2bandit_a.png","70","img/orange_2bandit_a.png","70","test","","","","","","","","","4","","","","","","","","","","",""
"null","","1009686","SARL_v6uxzaglpt","msl000092","fixation","","","img/fixation.png","null","","","test","","","","","","","","","","","","","","","","","","","",""
"306","","1009997","SARL_v6uxzaglpt","msl000092","freq","","","img/orange_2bandit_a2.png","70","","70","test","1","","","square","circle","101","98","13","4","0.9693877551020408","","","","","","","","","",""
"null","","1010495","SARL_v6uxzaglpt","msl000092","freq_resp","","","img/orange_2bandit_a.png","70","img/orange_2bandit_a.png","70","test","","","","","","","","","4","","","","","","","","","","",""
"null","","1010652","SARL_v6uxzaglpt","msl000092","fixation","","","img/fixation.png","null","","","test","","","","","","","","","","","","","","","","","","","",""
"323","","1010981","SARL_v6uxzaglpt","msl000092","freq","","","img/orange_2bandit_a2.png","70","","70","test","1","","","square","circle","102","99","14","4","0.9696969696969697","","","","","","","","","",""
"null","","1011463","SARL_v6uxzaglpt","msl000092","freq_resp","","","img/orange_2bandit_a.png","70","img/orange_2bandit_a.png","70","test","","","","","","","","","4","","","","","","","","","","",""
"null","","1011619","SARL_v6uxzaglpt","msl000092","fixation","","","img/fixation.png","null","","","test","","","","","","","","","","","","","","","","","","","",""
"415","","1012039","SARL_v6uxzaglpt","msl000092","infreq","","","img/green_2bandit_a2.png","68","","68","test","1","","","square","circle","103","100","15","4","0.97","","","","","","","","","",""
"null","","1012430","SARL_v6uxzaglpt","msl000092","infreq_resp","","","img/green_2bandit_a.png","68","img/green_2bandit_a.png","68","test","","","","","","","","","4","","","","","","","","","","",""
"null","","1012585","SARL_v6uxzaglpt","msl000092","fixation","","","img/fixation.png","null","","","test","","","","","","","","","","","","","","","","","","","",""
"362","","1012954","SARL_v6uxzaglpt","msl000092","freq","","","img/orange_2bandit_a2.png","70","","70","test","1","","","square","circle","104","101","16","4","0.9702970297029703","","","","","","","","","",""
"null","","1013397","SARL_v6uxzaglpt","msl000092","freq_resp","","","img/orange_2bandit_a.png","70","img/orange_2bandit_a.png","70","test","","","","","","","","","4","","","","","","","","","","",""
"null","","1013552","SARL_v6uxzaglpt","msl000092","fixation","","","img/fixation.png","null","","","test","","","","","","","","","","","","","","","","","","","",""
"350","","1013907","SARL_v6uxzaglpt","msl000092","freq","","","img/orange_2bandit_a2.png","70","","70","test","1","","","square","circle","105","102","17","4","0.9705882352941176","","","","","","","","","",""
"null","","1014363","SARL_v6uxzaglpt","msl000092","freq_resp","","","img/orange_2bandit_a.png","70","img/orange_2bandit_a.png","70","test","","","","","","","","","4","","","","","","","","","","",""
"null","","1014519","SARL_v6uxzaglpt","msl000092","fixation","","","img/fixation.png","null","","","test","","","","","","","","","","","","","","","","","","","",""
"333","","1014856","SARL_v6uxzaglpt","msl000092","freq","","","img/orange_2bandit_a2.png","70","","70","test","1","","","square","circle","106","103","18","4","0.970873786407767","","","","","","","","","",""
"null","","1015329","SARL_v6uxzaglpt","msl000092","freq_resp","","","img/orange_2bandit_a.png","70","img/orange_2bandit_a.png","70","test","","","","","","","","","4","","","","","","","","","","",""
"null","","1015485","SARL_v6uxzaglpt","msl000092","fixation","","","img/fixation.png","null","","","test","","","","","","","","","","","","","","","","","","","",""
"376","","1015864","SARL_v6uxzaglpt","msl000092","freq","","","img/orange_2bandit_a2.png","70","","70","test","1","","","square","circle","107","104","19","4","0.9711538461538461","","","","","","","","","",""
"null","","1016293","SARL_v6uxzaglpt","msl000092","freq_resp","","","img/orange_2bandit_a.png","70","img/orange_2bandit_a.png","70","test","","","","","","","","","4","","","","","","","","","","",""
"null","","1016448","SARL_v6uxzaglpt","msl000092","fixation","","","img/fixation.png","null","","","test","","","","","","","","","","","","","","","","","","","",""
"341","","1016794","SARL_v6uxzaglpt","msl000092","freq","","","img/orange_2bandit_a2.png","70","","70","test","1","","","square","circle","108","105","20","4","0.9714285714285714","","","","","","","","","",""
"null","","1017258","SARL_v6uxzaglpt","msl000092","freq_resp","","","img/orange_2bandit_a.png","70","img/orange_2bandit_a.png","70","test","","","","","","","","","4","","","","","","","","","","",""
"null","","1017415","SARL_v6uxzaglpt","msl000092","fixation","","","img/fixation.png","null","","","test","","","","","","","","","","","","","","","","","","","",""
"296","","1017715","SARL_v6uxzaglpt","msl000092","freq","","","img/orange_2bandit_a2.png","70","","70","test","1","","","square","circle","109","106","21","4","0.9716981132075472","","","","","","","","","",""
"null","","1018225","SARL_v6uxzaglpt","msl000092","freq_resp","","","img/orange_2bandit_a.png","70","img/orange_2bandit_a.png","70","test","","","","","","","","","4","","","","","","","","","","",""
"null","","1018382","SARL_v6uxzaglpt","msl000092","fixation","","","img/fixation.png","null","","","test","","","","","","","","","","","","","","","","","","","",""
"278","","1018664","SARL_v6uxzaglpt","msl000092","freq","","","img/orange_2bandit_a2.png","70","","70","test","1","","","square","circle","110","107","22","4","0.9719626168224299","","","","","","","","","",""
"null","","1019192","SARL_v6uxzaglpt","msl000092","freq_resp","","","img/orange_2bandit_a.png","70","img/orange_2bandit_a.png","70","test","","","","","","","","","4","","","","","","","","","","",""
"null","","1019349","SARL_v6uxzaglpt","msl000092","fixation","","","img/fixation.png","null","","","test","","","","","","","","","","","","","","","","","","","",""
"322","","1019675","SARL_v6uxzaglpt","msl000092","freq","","","img/orange_2bandit_a2.png","70","","70","test","1","","","square","circle","111","108","23","4","0.9722222222222222","","","","","","","","","",""
"null","","1020158","SARL_v6uxzaglpt","msl000092","freq_resp","","","img/orange_2bandit_a.png","70","img/orange_2bandit_a.png","70","test","","","","","","","","","4","","","","","","","","","","",""
"null","","1020313","SARL_v6uxzaglpt","msl000092","fixation","","","img/fixation.png","null","","","test","","","","","","","","","","","","","","","","","","","",""
"294","","1020611","SARL_v6uxzaglpt","msl000092","freq","","","img/orange_2bandit_a2.png","70","","70","test","1","","","square","circle","112","109","24","4","0.9724770642201835","","","","","","","","","",""
"null","","1021123","SARL_v6uxzaglpt","msl000092","freq_resp","","","img/orange_2bandit_a.png","70","img/orange_2bandit_a.png","70","test","","","","","","","","","4","","","","","","","","","","",""
"null","","1021279","SARL_v6uxzaglpt","msl000092","fixation","","","img/fixation.png","null","","","test","","","","","","","","","","","","","","","","","","","",""
"298","","1021582","SARL_v6uxzaglpt","msl000092","freq","","","img/orange_2bandit_a2.png","70","","70","test","1","","","square","circle","113","110","25","4","0.9727272727272728","","","","","","","","","",""
"null","","1022089","SARL_v6uxzaglpt","msl000092","freq_resp","","","img/orange_2bandit_a.png","70","img/orange_2bandit_a.png","70","test","","","","","","","","","4","","","","","","","","","","",""
"null","","1022245","SARL_v6uxzaglpt","msl000092","fixation","","","img/fixation.png","null","","","test","","","","","","","","","","","","","","","","","","","",""
"319","","1022568","SARL_v6uxzaglpt","msl000092","freq","","","img/orange_2bandit_a2.png","70","","70","test","1","","","square","circle","114","111","26","4","0.972972972972973","","","","","","","","","",""
"null","","1023055","SARL_v6uxzaglpt","msl000092","freq_resp","","","img/orange_2bandit_a.png","70","img/orange_2bandit_a.png","70","test","","","","","","","","","4","","","","","","","","","","",""
"null","","1023210","SARL_v6uxzaglpt","msl000092","fixation","","","img/fixation.png","null","","","test","","","","","","","","","","","","","","","","","","","",""
"307","","1023523","SARL_v6uxzaglpt","msl000092","infreq","","","img/green_2bandit_a2.png","70","","68","test","0","","","square","circle","115","112","27","4","0.9642857142857143","","","","","","","","","",""
"null","","1024021","SARL_v6uxzaglpt","msl000092","infreq_resp","","","img/green_2bandit_a.png","70","img/green_2bandit_a.png","68","test","","","","","","","","","4","","","","","","","","","","",""
"null","","1024176","SARL_v6uxzaglpt","msl000092","fixation","","","img/fixation.png","null","","","test","","","","","","","","","","","","","","","","","","","",""
"355","","1024536","SARL_v6uxzaglpt","msl000092","freq","","","img/orange_2bandit_a2.png","70","","70","test","1","","","square","circle","116","113","28","4","0.9646017699115044","","","","","","","","","",""
"null","","1024987","SARL_v6uxzaglpt","msl000092","freq_resp","","","img/orange_2bandit_a.png","70","img/orange_2bandit_a.png","70","test","","","","","","","","","4","","","","","","","","","","",""
"null","","1025142","SARL_v6uxzaglpt","msl000092","fixation","","","img/fixation.png","null","","","test","","","","","","","","","","","","","","","","","","","",""
"391","","1025540","SARL_v6uxzaglpt","msl000092","freq","","","img/orange_2bandit_a2.png","70","","70","test","1","","","square","circle","117","114","29","4","0.9649122807017544","","","","","","","","","",""
"null","","1025955","SARL_v6uxzaglpt","msl000092","freq_resp","","","img/orange_2bandit_a.png","70","img/orange_2bandit_a.png","70","test","","","","","","","","","4","","","","","","","","","","",""
"null","","1026110","SARL_v6uxzaglpt","msl000092","fixation","","","img/fixation.png","null","","","test","","","","","","","","","","","","","","","","","","","",""
"554","","1026670","SARL_v6uxzaglpt","msl000092","rl","","","img/black_2bandit_a2.png","74","","0","test","","","0","square","circle","118","","0","4","","74","0.2","0.8","0.8256622130856894","0.8","0.2","0.8","square","4","0"
"null","","1027426","SARL_v6uxzaglpt","msl000092","feedback","","","img/boo_L_a.png","null","","na","test","","","","","","","","","4","","74","0.2","0.8","","","","0.8","","4",""
"null","","1028232","SARL_v6uxzaglpt","msl000092","freq","","","img/orange_2bandit_a2.png","null","","70","test","0","","","square","circle","119","115","1","5","0.9565217391304348","","","","","","","","","",""
"null","","1028387","SARL_v6uxzaglpt","msl000092","fixation","","","img/fixation.png","null","","","test","","","","","","","","","","","","","","","","","","","",""
"547","","1028938","SARL_v6uxzaglpt","msl000092","freq","","","img/orange_2bandit_a2.png","70","","70","test","1","","","square","circle","120","116","2","5","0.9568965517241379","","","","","","","","","",""
"null","","1029197","SARL_v6uxzaglpt","msl000092","freq_resp","","","img/orange_2bandit_a.png","70","img/orange_2bandit_a.png","70","test","","","","","","","","","5","","","","","","","","","","",""
"null","","1029353","SARL_v6uxzaglpt","msl000092","fixation","","","img/fixation.png","null","","","test","","","","","","","","","","","","","","","","","","","",""
"404","","1029763","SARL_v6uxzaglpt","msl000092","infreq","","","img/green_2bandit_a2.png","68","","68","test","1","","","square","circle","121","117","3","5","0.9572649572649573","","","","","","","","","",""
"null","","1030165","SARL_v6uxzaglpt","msl000092","infreq_resp","","","img/green_2bandit_a.png","68","img/green_2bandit_a.png","68","test","","","","","","","","","5","","","","","","","","","","",""
"null","","1030320","SARL_v6uxzaglpt","msl000092","fixation","","","img/fixation.png","null","","","test","","","","","","","","","","","","","","","","","","","",""
"324","","1030649","SARL_v6uxzaglpt","msl000092","freq","","","img/orange_2bandit_a2.png","70","","70","test","1","","","square","circle","122","118","4","5","0.9576271186440678","","","","","","","","","",""
"null","","1031131","SARL_v6uxzaglpt","msl000092","freq_resp","","","img/orange_2bandit_a.png","70","img/orange_2bandit_a.png","70","test","","","","","","","","","5","","","","","","","","","","",""
"null","","1031288","SARL_v6uxzaglpt","msl000092","fixation","","","img/fixation.png","null","","","test","","","","","","","","","","","","","","","","","","","",""
"367","","1031659","SARL_v6uxzaglpt","msl000092","freq","","","img/orange_2bandit_a2.png","70","","70","test","1","","","square","circle","123","119","5","5","0.957983193277311","","","","","","","","","",""
"null","","1032098","SARL_v6uxzaglpt","msl000092","freq_resp","","","img/orange_2bandit_a.png","70","img/orange_2bandit_a.png","70","test","","","","","","","","","5","","","","","","","","","","",""
"null","","1032253","SARL_v6uxzaglpt","msl000092","fixation","","","img/fixation.png","null","","","test","","","","","","","","","","","","","","","","","","","",""
"347","","1032605","SARL_v6uxzaglpt","msl000092","freq","","","img/orange_2bandit_a2.png","70","","70","test","1","","","square","circle","124","120","6","5","0.9583333333333334","","","","","","","","","",""
"null","","1033064","SARL_v6uxzaglpt","msl000092","freq_resp","","","img/orange_2bandit_a.png","70","img/orange_2bandit_a.png","70","test","","","","","","","","","5","","","","","","","","","","",""
"null","","1033218","SARL_v6uxzaglpt","msl000092","fixation","","","img/fixation.png","null","","","test","","","","","","","","","","","","","","","","","","","",""
"406","","1033630","SARL_v6uxzaglpt","msl000092","freq","","","img/orange_2bandit_a2.png","70","","70","test","1","","","square","circle","125","121","7","5","0.9586776859504132","","","","","","","","","",""
"null","","1034030","SARL_v6uxzaglpt","msl000092","freq_resp","","","img/orange_2bandit_a.png","70","img/orange_2bandit_a.png","70","test","","","","","","","","","5","","","","","","","","","","",""
"null","","1034186","SARL_v6uxzaglpt","msl000092","fixation","","","img/fixation.png","null","","","test","","","","","","","","","","","","","","","","","","","",""
"510","","1034700","SARL_v6uxzaglpt","msl000092","freq","","","img/orange_2bandit_a2.png","70","","70","test","1","","","square","circle","126","122","8","5","0.9590163934426229","","","","","","","","","",""
"null","","1034996","SARL_v6uxzaglpt","msl000092","freq_resp","","","img/orange_2bandit_a.png","70","img/orange_2bandit_a.png","70","test","","","","","","","","","5","","","","","","","","","","",""
"null","","1035152","SARL_v6uxzaglpt","msl000092","fixation","","","img/fixation.png","null","","","test","","","","","","","","","","","","","","","","","","","",""
"580","","1035737","SARL_v6uxzaglpt","msl000092","infreq","","","img/green_2bandit_a2.png","68","","68","test","1","","","square","circle","127","123","9","5","0.959349593495935","","","","","","","","","",""
"null","","1035963","SARL_v6uxzaglpt","msl000092","infreq_resp","","","img/green_2bandit_a.png","68","img/green_2bandit_a.png","68","test","","","","","","","","","5","","","","","","","","","","",""
"null","","1036120","SARL_v6uxzaglpt","msl000092","fixation","","","img/fixation.png","null","","","test","","","","","","","","","","","","","","","","","","","",""
"591","","1036717","SARL_v6uxzaglpt","msl000092","freq","","","img/orange_2bandit_a2.png","70","","70","test","1","","","square","circle","128","124","10","5","0.9596774193548387","","","","","","","","","",""
"null","","1036932","SARL_v6uxzaglpt","msl000092","freq_resp","","","img/orange_2bandit_a.png","70","img/orange_2bandit_a.png","70","test","","","","","","","","","5","","","","","","","","","","",""
"null","","1037088","SARL_v6uxzaglpt","msl000092","fixation","","","img/fixation.png","null","","","test","","","","","","","","","","","","","","","","","","","",""
"564","","1037656","SARL_v6uxzaglpt","msl000092","freq","","","img/orange_2bandit_a2.png","70","","70","test","1","","","square","circle","129","125","11","5","0.96","","","","","","","","","",""
"null","","1037898","SARL_v6uxzaglpt","msl000092","freq_resp","","","img/orange_2bandit_a.png","70","img/orange_2bandit_a.png","70","test","","","","","","","","","5","","","","","","","","","","",""
"null","","1038054","SARL_v6uxzaglpt","msl000092","fixation","","","img/fixation.png","null","","","test","","","","","","","","","","","","","","","","","","","",""
"521","","1038580","SARL_v6uxzaglpt","msl000092","freq","","","img/orange_2bandit_a2.png","70","","70","test","1","","","square","circle","130","126","12","5","0.9603174603174603","","","","","","","","","",""
"null","","1038864","SARL_v6uxzaglpt","msl000092","freq_resp","","","img/orange_2bandit_a.png","70","img/orange_2bandit_a.png","70","test","","","","","","","","","5","","","","","","","","","","",""
"null","","1039019","SARL_v6uxzaglpt","msl000092","fixation","","","img/fixation.png","null","","","test","","","","","","","","","","","","","","","","","","","",""
"528","","1039552","SARL_v6uxzaglpt","msl000092","freq","","","img/orange_2bandit_a2.png","70","","70","test","1","","","square","circle","131","127","13","5","0.9606299212598425","","","","","","","","","",""
"null","","1039829","SARL_v6uxzaglpt","msl000092","freq_resp","","","img/orange_2bandit_a.png","70","img/orange_2bandit_a.png","70","test","","","","","","","","","5","","","","","","","","","","",""
"null","","1039984","SARL_v6uxzaglpt","msl000092","fixation","","","img/fixation.png","null","","","test","","","","","","","","","","","","","","","","","","","",""
"516","","1040506","SARL_v6uxzaglpt","msl000092","freq","","","img/orange_2bandit_a2.png","70","","70","test","1","","","square","circle","132","128","14","5","0.9609375","","","","","","","","","",""
"null","","1040795","SARL_v6uxzaglpt","msl000092","freq_resp","","","img/orange_2bandit_a.png","70","img/orange_2bandit_a.png","70","test","","","","","","","","","5","","","","","","","","","","",""
"null","","1040951","SARL_v6uxzaglpt","msl000092","fixation","","","img/fixation.png","null","","","test","","","","","","","","","","","","","","","","","","","",""
"464","","1041420","SARL_v6uxzaglpt","msl000092","freq","","","img/orange_2bandit_a2.png","70","","70","test","1","","","square","circle","133","129","15","5","0.9612403100775194","","","","","","","","","",""
"null","","1041761","SARL_v6uxzaglpt","msl000092","freq_resp","","","img/orange_2bandit_a.png","70","img/orange_2bandit_a.png","70","test","","","","","","","","","5","","","","","","","","","","",""
"null","","1041917","SARL_v6uxzaglpt","msl000092","fixation","","","img/fixation.png","null","","","test","","","","","","","","","","","","","","","","","","","",""
"446","","1042369","SARL_v6uxzaglpt","msl000092","freq","","","img/orange_2bandit_a2.png","70","","70","test","1","","","square","circle","134","130","16","5","0.9615384615384616","","","","","","","","","",""
"null","","1042728","SARL_v6uxzaglpt","msl000092","freq_resp","","","img/orange_2bandit_a.png","70","img/orange_2bandit_a.png","70","test","","","","","","","","","5","","","","","","","","","","",""
"null","","1042885","SARL_v6uxzaglpt","msl000092","fixation","","","img/fixation.png","null","","","test","","","","","","","","","","","","","","","","","","","",""
"422","","1043312","SARL_v6uxzaglpt","msl000092","freq","","","img/orange_2bandit_a2.png","70","","70","test","1","","","square","circle","135","131","17","5","0.9618320610687023","","","","","","","","","",""
"null","","1043695","SARL_v6uxzaglpt","msl000092","freq_resp","","","img/orange_2bandit_a.png","70","img/orange_2bandit_a.png","70","test","","","","","","","","","5","","","","","","","","","","",""
"null","","1043851","SARL_v6uxzaglpt","msl000092","fixation","","","img/fixation.png","null","","","test","","","","","","","","","","","","","","","","","","","",""
"413","","1044269","SARL_v6uxzaglpt","msl000092","infreq","","","img/green_2bandit_a2.png","68","","68","test","1","","","square","circle","136","132","18","5","0.9621212121212122","","","","","","","","","",""
"null","","1044663","SARL_v6uxzaglpt","msl000092","infreq_resp","","","img/green_2bandit_a.png","68","img/green_2bandit_a.png","68","test","","","","","","","","","5","","","","","","","","","","",""
"null","","1044817","SARL_v6uxzaglpt","msl000092","fixation","","","img/fixation.png","null","","","test","","","","","","","","","","","","","","","","","","","",""
"432","","1045254","SARL_v6uxzaglpt","msl000092","freq","","","img/orange_2bandit_a2.png","70","","70","test","1","","","square","circle","137","133","19","5","0.9624060150375939","","","","","","","","","",""
"null","","1045628","SARL_v6uxzaglpt","msl000092","freq_resp","","","img/orange_2bandit_a.png","70","img/orange_2bandit_a.png","70","test","","","","","","","","","5","","","","","","","","","","",""
"null","","1045783","SARL_v6uxzaglpt","msl000092","fixation","","","img/fixation.png","null","","","test","","","","","","","","","","","","","","","","","","","",""
"416","","1046203","SARL_v6uxzaglpt","msl000092","freq","","","img/orange_2bandit_a2.png","70","","70","test","1","","","square","circle","138","134","20","5","0.9626865671641791","","","","","","","","","",""
"null","","1046594","SARL_v6uxzaglpt","msl000092","freq_resp","","","img/orange_2bandit_a.png","70","img/orange_2bandit_a.png","70","test","","","","","","","","","5","","","","","","","","","","",""
"null","","1046750","SARL_v6uxzaglpt","msl000092","fixation","","","img/fixation.png","null","","","test","","","","","","","","","","","","","","","","","","","",""
"512","","1047268","SARL_v6uxzaglpt","msl000092","rl","","","img/black_2bandit_a2.png","74","","0","test","","","0","square","circle","139","","0","5","","74","0.2","0.8","0.9768436704865812","0.8","0.2","0.8","square","5","0"
"null","","1048022","SARL_v6uxzaglpt","msl000092","feedback","","","img/boo_L_a.png","null","","na","test","","","","","","","","","5","","74","0.2","0.8","","","","0.8","","5",""
"null","","1048828","SARL_v6uxzaglpt","msl000092","freq","","","img/orange_2bandit_a2.png","null","","70","test","0","","","square","circle","140","135","1","6","0.9555555555555556","","","","","","","","","",""
"null","","1048982","SARL_v6uxzaglpt","msl000092","fixation","","","img/fixation.png","null","","","test","","","","","","","","","","","","","","","","","","","",""
"702","","1049690","SARL_v6uxzaglpt","msl000092","freq","","","img/orange_2bandit_a2.png","70","","70","test","1","","","square","circle","141","136","2","6","0.9558823529411765","","","","","","","","","",""
"null","","1049794","SARL_v6uxzaglpt","msl000092","freq_resp","","","img/orange_2bandit_a.png","70","img/orange_2bandit_a.png","70","test","","","","","","","","","6","","","","","","","","","","",""
"null","","1049950","SARL_v6uxzaglpt","msl000092","fixation","","","img/fixation.png","null","","","test","","","","","","","","","","","","","","","","","","","",""
"558","","1050513","SARL_v6uxzaglpt","msl000092","freq","","","img/orange_2bandit_a2.png","68","","70","test","0","","","square","circle","142","137","3","6","0.948905109489051","","","","","","","","","",""
"null","","1050761","SARL_v6uxzaglpt","msl000092","freq_resp","","","img/orange_2bandit_a.png","68","img/orange_2bandit_a.png","70","test","","","","","","","","","6","","","","","","","","","","",""
"null","","1050917","SARL_v6uxzaglpt","msl000092","fixation","","","img/fixation.png","null","","","test","","","","","","","","","","","","","","","","","","","",""
"471","","1051392","SARL_v6uxzaglpt","msl000092","infreq","","","img/green_2bandit_a2.png","70","","68","test","0","","","square","circle","143","138","4","6","0.9420289855072463","","","","","","","","","",""
"null","","1051728","SARL_v6uxzaglpt","msl000092","infreq_resp","","","img/green_2bandit_a.png","70","img/green_2bandit_a.png","68","test","","","","","","","","","6","","","","","","","","","","",""
"null","","1051883","SARL_v6uxzaglpt","msl000092","fixation","","","img/fixation.png","null","","","test","","","","","","","","","","","","","","","","","","","",""
"516","","1052406","SARL_v6uxzaglpt","msl000092","freq","","","img/orange_2bandit_a2.png","70","","70","test","1","","","square","circle","144","139","5","6","0.9424460431654677","","","","","","","","","",""
"null","","1052695","SARL_v6uxzaglpt","msl000092","freq_resp","","","img/orange_2bandit_a.png","70","img/orange_2bandit_a.png","70","test","","","","","","","","","6","","","","","","","","","","",""
"null","","1052850","SARL_v6uxzaglpt","msl000092","fixation","","","img/fixation.png","null","","","test","","","","","","","","","","","","","","","","","","","",""
"519","","1053373","SARL_v6uxzaglpt","msl000092","freq","","","img/orange_2bandit_a2.png","70","","70","test","1","","","square","circle","145","140","6","6","0.9428571428571428","","","","","","","","","",""
"null","","1053660","SARL_v6uxzaglpt","msl000092","freq_resp","","","img/orange_2bandit_a.png","70","img/orange_2bandit_a.png","70","test","","","","","","","","","6","","","","","","","","","","",""
"null","","1053816","SARL_v6uxzaglpt","msl000092","fixation","","","img/fixation.png","null","","","test","","","","","","","","","","","","","","","","","","","",""
"572","","1054393","SARL_v6uxzaglpt","msl000092","freq","","","img/orange_2bandit_a2.png","70","","70","test","1","","","square","circle","146","141","7","6","0.9432624113475178","","","","","","","","","",""
"null","","1054627","SARL_v6uxzaglpt","msl000092","freq_resp","","","img/orange_2bandit_a.png","70","img/orange_2bandit_a.png","70","test","","","","","","","","","6","","","","","","","","","","",""
"null","","1054783","SARL_v6uxzaglpt","msl000092","fixation","","","img/fixation.png","null","","","test","","","","","","","","","","","","","","","","","","","",""
"589","","1055376","SARL_v6uxzaglpt","msl000092","freq","","","img/orange_2bandit_a2.png","70","","70","test","1","","","square","circle","147","142","8","6","0.9436619718309859","","","","","","","","","",""
"null","","1055592","SARL_v6uxzaglpt","msl000092","freq_resp","","","img/orange_2bandit_a.png","70","img/orange_2bandit_a.png","70","test","","","","","","","","","6","","","","","","","","","","",""
"null","","1055748","SARL_v6uxzaglpt","msl000092","fixation","","","img/fixation.png","null","","","test","","","","","","","","","","","","","","","","","","","",""
"561","","1056314","SARL_v6uxzaglpt","msl000092","freq","","","img/orange_2bandit_a2.png","70","","70","test","1","","","square","circle","148","143","9","6","0.9440559440559441","","","","","","","","","",""
"null","","1056559","SARL_v6uxzaglpt","msl000092","freq_resp","","","img/orange_2bandit_a.png","70","img/orange_2bandit_a.png","70","test","","","","","","","","","6","","","","","","","","","","",""
"null","","1056714","SARL_v6uxzaglpt","msl000092","fixation","","","img/fixation.png","null","","","test","","","","","","","","","","","","","","","","","","","",""
"489","","1057208","SARL_v6uxzaglpt","msl000092","freq","","","img/orange_2bandit_a2.png","70","","70","test","1","","","square","circle","149","144","10","6","0.9444444444444444","","","","","","","","","",""
