"rt","responses","time_elapsed","subject","demoID","trialType","rlType","attType","stimulus","key_press","stim","corrresp","phase","corr","pracCounter","reward","bandOne","bandTwo","trialNum","attentionNum","attentionRunNum","blockNum","performance","bandChosen","circleVal","squareVal","coin","bandOneVal","bandTwoVal","pReward","shapeChosen","rlNum","badFlag"
"378106","{""Q0"":""msl000056""}","378132","SARL_v6a4ndkf8v","msl000056","","","","","","","","","","","","","","","","","","","","","","","","","","","",""
"17192","","395332","SARL_v6a4ndkf8v","msl000056","","","","","","","","","","","","","","","","","","","","","","","","","","","",""
"","","398124","SARL_v6a4ndkf8v","msl000056","fullscreen","fullscreen","fullscreen","","","","","","","","","","","","","","","","","","","","","","","","",""
"79362","","477489","SARL_v6a4ndkf8v","msl000056","","","","","","","","","","","","","","","","","","","","","","","","","","","",""
"null","","478298","SARL_v6a4ndkf8v","msl000056","freqPrac","","","img/green_2bandit_a2.png","null","img/green_2bandit_a2.png","70","prac","0","1","","","","","","","","","","","","","","","","","",""
"null","","479303","SARL_v6a4ndkf8v","msl000056","feedback","","","img/tooSlow.png","null","","na","prac","","","","","","","","","","","","","","","","","","","",""
"null","","479458","SARL_v6a4ndkf8v","msl000056","fixation","","","img/fixation.png","null","","","prac","","","","","","","","","","","","","","","","","","","",""
"577","","480040","SARL_v6a4ndkf8v","msl000056","infreqPrac","","","img/orange_2bandit_a2.png","70","img/orange_2bandit_a2.png","68","prac","0","2","","","","","","","","","","","","","","","","","",""
"577","","480270","SARL_v6a4ndkf8v","msl000056","infreqPrac_resp","","","img/orange_2bandit_a.png","70","img/orange_2bandit_a.png","68","prac","","","","","","","","","","","","","","","","","","","",""
"null","","481276","SARL_v6a4ndkf8v","msl000056","feedback","","","img/wrongKey.png","null","","na","prac","","","","","","","","","","","","","","","","","","","",""
"null","","481433","SARL_v6a4ndkf8v","msl000056","fixation","","","img/fixation.png","null","","","prac","","","","","","","","","","","","","","","","","","","",""
"711","","482149","SARL_v6a4ndkf8v","msl000056","freqPrac","","","img/green_2bandit_a2.png","70","img/green_2bandit_a2.png","70","prac","1","2","","","","","","","","","","","","","","","","","",""
"711","","482243","SARL_v6a4ndkf8v","msl000056","freqPrac_resp","","","img/green_2bandit_a.png","70","img/green_2bandit_a.png","70","prac","","","","","","","","","","","","","","","","","","","",""
"null","","482400","SARL_v6a4ndkf8v","msl000056","fixation","","","img/fixation.png","null","","","prac","","","","","","","","","","","","","","","","","","","",""
"510","","482915","SARL_v6a4ndkf8v","msl000056","infreqPrac","","","img/orange_2bandit_a2.png","68","img/orange_2bandit_a2.png","68","prac","1","2","","","","","","","","","","","","","","","","","",""
"510","","483211","SARL_v6a4ndkf8v","msl000056","infreqPrac_resp","","","img/orange_2bandit_a.png","68","img/orange_2bandit_a.png","68","prac","","","","","","","","","","","","","","","","","","","",""
"null","","483367","SARL_v6a4ndkf8v","msl000056","fixation","","","img/fixation.png","null","","","prac","","","","","","","","","","","","","","","","","","","",""
"530","","483900","SARL_v6a4ndkf8v","msl000056","infreqPrac","","","img/orange_2bandit_a2.png","68","img/orange_2bandit_a2.png","68","prac","1","2","","","","","","","","","","","","","","","","","",""
"530","","484176","SARL_v6a4ndkf8v","msl000056","infreqPrac_resp","","","img/orange_2bandit_a.png","68","img/orange_2bandit_a.png","68","prac","","","","","","","","","","","","","","","","","","","",""
"null","","484333","SARL_v6a4ndkf8v","msl000056","fixation","","","img/fixation.png","null","","","prac","","","","","","","","","","","","","","","","","","","",""
"364","","484702","SARL_v6a4ndkf8v","msl000056","infreqPrac","","","img/orange_2bandit_a2.png","68","img/orange_2bandit_a2.png","68","prac","1","2","","","","","","","","","","","","","","","","","",""
"364","","485144","SARL_v6a4ndkf8v","msl000056","infreqPrac_resp","","","img/orange_2bandit_a.png","68","img/orange_2bandit_a.png","68","prac","","","","","","","","","","","","","","","","","","","",""
"null","","485299","SARL_v6a4ndkf8v","msl000056","fixation","","","img/fixation.png","null","","","prac","","","","","","","","","","","","","","","","","","","",""
"382","","485685","SARL_v6a4ndkf8v","msl000056","freqPrac","","","img/green_2bandit_a2.png","70","img/green_2bandit_a2.png","70","prac","1","2","","","","","","","","","","","","","","","","","",""
"382","","486109","SARL_v6a4ndkf8v","msl000056","freqPrac_resp","","","img/green_2bandit_a.png","70","img/green_2bandit_a.png","70","prac","","","","","","","","","","","","","","","","","","","",""
"null","","486265","SARL_v6a4ndkf8v","msl000056","fixation","","","img/fixation.png","null","","","prac","","","","","","","","","","","","","","","","","","","",""
"453","","486723","SARL_v6a4ndkf8v","msl000056","infreqPrac","","","img/orange_2bandit_a2.png","68","img/orange_2bandit_a2.png","68","prac","1","2","","","","","","","","","","","","","","","","","",""
"453","","487076","SARL_v6a4ndkf8v","msl000056","infreqPrac_resp","","","img/orange_2bandit_a.png","68","img/orange_2bandit_a.png","68","prac","","","","","","","","","","","","","","","","","","","",""
"null","","487231","SARL_v6a4ndkf8v","msl000056","fixation","","","img/fixation.png","null","","","prac","","","","","","","","","","","","","","","","","","","",""
"448","","487684","SARL_v6a4ndkf8v","msl000056","freqPrac","","","img/green_2bandit_a2.png","70","img/green_2bandit_a2.png","70","prac","1","2","","","","","","","","","","","","","","","","","",""
"448","","488043","SARL_v6a4ndkf8v","msl000056","freqPrac_resp","","","img/green_2bandit_a.png","70","img/green_2bandit_a.png","70","prac","","","","","","","","","","","","","","","","","","","",""
"null","","488198","SARL_v6a4ndkf8v","msl000056","fixation","","","img/fixation.png","null","","","prac","","","","","","","","","","","","","","","","","","","",""
"401","","488604","SARL_v6a4ndkf8v","msl000056","freqPrac","","","img/green_2bandit_a2.png","70","img/green_2bandit_a2.png","70","prac","1","2","","","","","","","","","","","","","","","","","",""
"401","","489009","SARL_v6a4ndkf8v","msl000056","freqPrac_resp","","","img/green_2bandit_a.png","70","img/green_2bandit_a.png","70","prac","","","","","","","","","","","","","","","","","","","",""
"null","","489164","SARL_v6a4ndkf8v","msl000056","fixation","","","img/fixation.png","null","","","prac","","","","","","","","","","","","","","","","","","","",""
"44923","","534093","SARL_v6a4ndkf8v","msl000056","","","","","","","","prac","","","","","","","","","","","","","","","","","","","",""
"903","","535001","SARL_v6a4ndkf8v","msl000056","rlPractice","","","img/black_2bandit_a2.png","74","img/black_2bandit_a2.png","","prac","","","75","","","","","","","","","","","","","","","","",""
"null","","535757","SARL_v6a4ndkf8v","msl000056","feedback","","","img/boo_L_a.png","null","","na","prac","","","","","","","","","","","","","","","","","","","",""
"null","","535913","SARL_v6a4ndkf8v","msl000056","fixation","","","img/fixation.png","null","","","prac","","","","","","","","","","","","","","","","","","","",""
"607","","536524","SARL_v6a4ndkf8v","msl000056","rlPractice","","","img/black_2bandit_a2.png","75","img/black_2bandit_a2.png","","prac","","","75","","","","","","","","","","","","","","","","",""
"null","","537281","SARL_v6a4ndkf8v","msl000056","feedback","","","img/yay_R_a.png","null","","na","prac","","","","","","","","","","","","","","","","","","","",""
"null","","537436","SARL_v6a4ndkf8v","msl000056","fixation","","","img/fixation.png","null","","","prac","","","","","","","","","","","","","","","","","","","",""
"553","","537993","SARL_v6a4ndkf8v","msl000056","rlPractice","","","img/black_2bandit_a2.png","75","img/black_2bandit_a2.png","","prac","","","75","","","","","","","","","","","","","","","","",""
"null","","538748","SARL_v6a4ndkf8v","msl000056","feedback","","","img/yay_R_a.png","null","","na","prac","","","","","","","","","","","","","","","","","","","",""
"null","","538904","SARL_v6a4ndkf8v","msl000056","fixation","","","img/fixation.png","null","","","prac","","","","","","","","","","","","","","","","","","","",""
"592","","539501","SARL_v6a4ndkf8v","msl000056","rlPractice","","","img/black_2bandit_a2.png","75","img/black_2bandit_a2.png","","prac","","","75","","","","","","","","","","","","","","","","",""
"null","","540257","SARL_v6a4ndkf8v","msl000056","feedback","","","img/yay_R_a.png","null","","na","prac","","","","","","","","","","","","","","","","","","","",""
"null","","540413","SARL_v6a4ndkf8v","msl000056","fixation","","","img/fixation.png","null","","","prac","","","","","","","","","","","","","","","","","","","",""
"469","","540886","SARL_v6a4ndkf8v","msl000056","rlPractice","","","img/black_2bandit_a2.png","75","img/black_2bandit_a2.png","","prac","","","75","","","","","","","","","","","","","","","","",""
"null","","541642","SARL_v6a4ndkf8v","msl000056","feedback","","","img/yay_R_a.png","null","","na","prac","","","","","","","","","","","","","","","","","","","",""
"null","","541799","SARL_v6a4ndkf8v","msl000056","fixation","","","img/fixation.png","null","","","prac","","","","","","","","","","","","","","","","","","","",""
"475","","542278","SARL_v6a4ndkf8v","msl000056","rlPractice","","","img/black_2bandit_a2.png","75","img/black_2bandit_a2.png","","prac","","","75","","","","","","","","","","","","","","","","",""
"null","","543034","SARL_v6a4ndkf8v","msl000056","feedback","","","img/yay_R_a.png","null","","na","prac","","","","","","","","","","","","","","","","","","","",""
"null","","543189","SARL_v6a4ndkf8v","msl000056","fixation","","","img/fixation.png","null","","","prac","","","","","","","","","","","","","","","","","","","",""
"447","","543643","SARL_v6a4ndkf8v","msl000056","rlPractice","","","img/black_2bandit_a2.png","75","img/black_2bandit_a2.png","","prac","","","75","","","","","","","","","","","","","","","","",""
"null","","544399","SARL_v6a4ndkf8v","msl000056","feedback","","","img/yay_R_a.png","null","","na","prac","","","","","","","","","","","","","","","","","","","",""
"null","","544555","SARL_v6a4ndkf8v","msl000056","fixation","","","img/fixation.png","null","","","prac","","","","","","","","","","","","","","","","","","","",""
"14307","","558866","SARL_v6a4ndkf8v","msl000056","","","","","","","","prac","","","","","","","","","","","","","","","","","","","",""
"673","","559544","SARL_v6a4ndkf8v","msl000056","mixAttFreqPrac","","","img/green_2bandit_a2.png","70","img/green_2bandit_a2.png","70","prac","","","","","","","","","","","","","","","","","","","",""
"673","","559676","SARL_v6a4ndkf8v","msl000056","freqPrac_resp","","","img/green_2bandit_a.png","70","img/green_2bandit_a.png","70","prac","","","","","","","","","","","","","","","","","","","",""
"null","","559832","SARL_v6a4ndkf8v","msl000056","fixation","","","img/fixation.png","null","","","prac","","","","","","","","","","","","","","","","","","","",""
"445","","560281","SARL_v6a4ndkf8v","msl000056","mixAttInfreqPrac","","","img/orange_2bandit_a2.png","68","img/orange_2bandit_a2.png","68","prac","","","","","","","","","","","","","","","","","","","",""
"445","","560643","SARL_v6a4ndkf8v","msl000056","infreqPrac_resp","","","img/orange_2bandit_a.png","68","img/green_2bandit_a.png","68","prac","","","","","","","","","","","","","","","","","","","",""
"null","","560799","SARL_v6a4ndkf8v","msl000056","fixation","","","img/fixation.png","null","","","prac","","","","","","","","","","","","","","","","","","","",""
"438","","561241","SARL_v6a4ndkf8v","msl000056","mixAttInfreqPrac","","","img/orange_2bandit_a2.png","68","img/orange_2bandit_a2.png","68","prac","","","","","","","","","","","","","","","","","","","",""
"438","","561610","SARL_v6a4ndkf8v","msl000056","infreqPrac_resp","","","img/orange_2bandit_a.png","68","img/green_2bandit_a.png","68","prac","","","","","","","","","","","","","","","","","","","",""
"null","","561766","SARL_v6a4ndkf8v","msl000056","fixation","","","img/fixation.png","null","","","prac","","","","","","","","","","","","","","","","","","","",""
"348","","562119","SARL_v6a4ndkf8v","msl000056","mixAttInfreqPrac","","","img/orange_2bandit_a2.png","68","img/orange_2bandit_a2.png","68","prac","","","","","","","","","","","","","","","","","","","",""
"348","","562578","SARL_v6a4ndkf8v","msl000056","infreqPrac_resp","","","img/orange_2bandit_a.png","68","img/green_2bandit_a.png","68","prac","","","","","","","","","","","","","","","","","","","",""
"null","","562733","SARL_v6a4ndkf8v","msl000056","fixation","","","img/fixation.png","null","","","prac","","","","","","","","","","","","","","","","","","","",""
"325","","563063","SARL_v6a4ndkf8v","msl000056","mixAttFreqPrac","","","img/green_2bandit_a2.png","68","img/green_2bandit_a2.png","70","prac","","","","","","","","","","","","","","","","","","","",""
"325","","563543","SARL_v6a4ndkf8v","msl000056","freqPrac_resp","","","img/green_2bandit_a.png","68","img/green_2bandit_a.png","70","prac","","","","","","","","","","","","","","","","","","","",""
"null","","563697","SARL_v6a4ndkf8v","msl000056","fixation","","","img/fixation.png","null","","","prac","","","","","","","","","","","","","","","","","","","",""
"1142","","564846","SARL_v6a4ndkf8v","msl000056","mixRLPractice","","","img/black_2bandit_a2.png","74","img/black_2bandit_a2.png","","prac","","","","","","","","","","","","","","","","","","","",""
"null","","565602","SARL_v6a4ndkf8v","msl000056","feedback","","","img/boo_L_a.png","null","","na","prac","","","","","","","","","","","","","","","","","","","",""
"null","","566407","SARL_v6a4ndkf8v","msl000056","mixAttFreqPrac","","","img/green_2bandit_a2.png","null","img/green_2bandit_a2.png","70","prac","","","","","","","","","","","","","","","","","","","",""
"null","","566561","SARL_v6a4ndkf8v","msl000056","fixation","","","img/fixation.png","null","","","prac","","","","","","","","","","","","","","","","","","","",""
"762","","567328","SARL_v6a4ndkf8v","msl000056","mixAttInfreqPrac","","","img/orange_2bandit_a2.png","68","img/orange_2bandit_a2.png","68","prac","","","","","","","","","","","","","","","","","","","",""
"762","","567372","SARL_v6a4ndkf8v","msl000056","infreqPrac_resp","","","img/orange_2bandit_a.png","68","img/green_2bandit_a.png","68","prac","","","","","","","","","","","","","","","","","","","",""
"null","","567527","SARL_v6a4ndkf8v","msl000056","fixation","","","img/fixation.png","null","","","prac","","","","","","","","","","","","","","","","","","","",""
"495","","568027","SARL_v6a4ndkf8v","msl000056","mixAttFreqPrac","","","img/green_2bandit_a2.png","70","img/green_2bandit_a2.png","70","prac","","","","","","","","","","","","","","","","","","","",""
"495","","568338","SARL_v6a4ndkf8v","msl000056","freqPrac_resp","","","img/green_2bandit_a.png","70","img/green_2bandit_a.png","70","prac","","","","","","","","","","","","","","","","","","","",""
"null","","568492","SARL_v6a4ndkf8v","msl000056","fixation","","","img/fixation.png","null","","","prac","","","","","","","","","","","","","","","","","","","",""
"427","","568923","SARL_v6a4ndkf8v","msl000056","mixAttFreqPrac","","","img/green_2bandit_a2.png","70","img/green_2bandit_a2.png","70","prac","","","","","","","","","","","","","","","","","","","",""
"427","","569302","SARL_v6a4ndkf8v","msl000056","freqPrac_resp","","","img/green_2bandit_a.png","70","img/green_2bandit_a.png","70","prac","","","","","","","","","","","","","","","","","","","",""
"null","","569457","SARL_v6a4ndkf8v","msl000056","fixation","","","img/fixation.png","null","","","prac","","","","","","","","","","","","","","","","","","","",""
"382","","569843","SARL_v6a4ndkf8v","msl000056","mixAttInfreqPrac","","","img/orange_2bandit_a2.png","68","img/orange_2bandit_a2.png","68","prac","","","","","","","","","","","","","","","","","","","",""
"382","","570267","SARL_v6a4ndkf8v","msl000056","infreqPrac_resp","","","img/orange_2bandit_a.png","68","img/green_2bandit_a.png","68","prac","","","","","","","","","","","","","","","","","","","",""
"null","","570422","SARL_v6a4ndkf8v","msl000056","fixation","","","img/fixation.png","null","","","prac","","","","","","","","","","","","","","","","","","","",""
"864","","571290","SARL_v6a4ndkf8v","msl000056","mixRLPractice","","","img/black_2bandit_a2.png","75","img/black_2bandit_a2.png","","prac","","","","","","","","","","","","","","","","","","","",""
"null","","572045","SARL_v6a4ndkf8v","msl000056","feedback","","","img/boo_R_a.png","null","","na","prac","","","","","","","","","","","","","","","","","","","",""
"44011","","616063","SARL_v6a4ndkf8v","msl000056","","","","","","","","prac","","","","","","","","","","","","","","","","","","","",""
"null","","616867","SARL_v6a4ndkf8v","msl000056","freq","","","img/green_2bandit_a2.png","null","","70","test","0","","","square","circle","1","1","1","1","0","","","","","","","","","",""
"null","","617023","SARL_v6a4ndkf8v","msl000056","fixation","","","img/fixation.png","null","","","test","","","","","","","","","","","","","","","","","","","",""
"511","","617538","SARL_v6a4ndkf8v","msl000056","freq","","","img/green_2bandit_a2.png","70","","70","test","1","","","square","circle","2","2","2","1","0.5","","","","","","","","","",""
"null","","617832","SARL_v6a4ndkf8v","msl000056","freq_resp","","","img/green_2bandit_a.png","70","img/green_2bandit_a.png","70","test","","","","","","","","","1","","","","","","","","","","",""
"null","","617989","SARL_v6a4ndkf8v","msl000056","fixation","","","img/fixation.png","null","","","test","","","","","","","","","","","","","","","","","","","",""
"362","","618356","SARL_v6a4ndkf8v","msl000056","freq","","","img/green_2bandit_a2.png","70","","70","test","1","","","square","circle","3","3","3","1","0.6666666666666666","","","","","","","","","",""
"null","","618799","SARL_v6a4ndkf8v","msl000056","freq_resp","","","img/green_2bandit_a.png","70","img/green_2bandit_a.png","70","test","","","","","","","","","1","","","","","","","","","","",""
"null","","618955","SARL_v6a4ndkf8v","msl000056","fixation","","","img/fixation.png","null","","","test","","","","","","","","","","","","","","","","","","","",""
"345","","619304","SARL_v6a4ndkf8v","msl000056","freq","","","img/green_2bandit_a2.png","70","","70","test","1","","","square","circle","4","4","4","1","0.75","","","","","","","","","",""
"null","","619765","SARL_v6a4ndkf8v","msl000056","freq_resp","","","img/green_2bandit_a.png","70","img/green_2bandit_a.png","70","test","","","","","","","","","1","","","","","","","","","","",""
"null","","619920","SARL_v6a4ndkf8v","msl000056","fixation","","","img/fixation.png","null","","","test","","","","","","","","","","","","","","","","","","","",""
"310","","620235","SARL_v6a4ndkf8v","msl000056","freq","","","img/green_2bandit_a2.png","70","","70","test","1","","","square","circle","5","5","5","1","0.8","","","","","","","","","",""
"null","","620731","SARL_v6a4ndkf8v","msl000056","freq_resp","","","img/green_2bandit_a.png","70","img/green_2bandit_a.png","70","test","","","","","","","","","1","","","","","","","","","","",""
"null","","620887","SARL_v6a4ndkf8v","msl000056","fixation","","","img/fixation.png","null","","","test","","","","","","","","","","","","","","","","","","","",""
"300","","621193","SARL_v6a4ndkf8v","msl000056","freq","","","img/green_2bandit_a2.png","70","","70","test","1","","","square","circle","6","6","6","1","0.8333333333333334","","","","","","","","","",""
"null","","621699","SARL_v6a4ndkf8v","msl000056","freq_resp","","","img/green_2bandit_a.png","70","img/green_2bandit_a.png","70","test","","","","","","","","","1","","","","","","","","","","",""
"null","","621856","SARL_v6a4ndkf8v","msl000056","fixation","","","img/fixation.png","null","","","test","","","","","","","","","","","","","","","","","","","",""
"285","","622145","SARL_v6a4ndkf8v","msl000056","infreq","","","img/orange_2bandit_a2.png","70","","68","test","0","","","square","circle","7","7","7","1","0.7142857142857143","","","","","","","","","",""
"null","","622667","SARL_v6a4ndkf8v","msl000056","infreq_resp","","","img/orange_2bandit_a.png","70","img/orange_2bandit_a.png","68","test","","","","","","","","","1","","","","","","","","","","",""
"null","","622823","SARL_v6a4ndkf8v","msl000056","fixation","","","img/fixation.png","null","","","test","","","","","","","","","","","","","","","","","","","",""
"325","","623154","SARL_v6a4ndkf8v","msl000056","freq","","","img/green_2bandit_a2.png","70","","70","test","1","","","square","circle","8","8","8","1","0.75","","","","","","","","","",""
"null","","623634","SARL_v6a4ndkf8v","msl000056","freq_resp","","","img/green_2bandit_a.png","70","img/green_2bandit_a.png","70","test","","","","","","","","","1","","","","","","","","","","",""
"null","","623790","SARL_v6a4ndkf8v","msl000056","fixation","","","img/fixation.png","null","","","test","","","","","","","","","","","","","","","","","","","",""
"349","","624144","SARL_v6a4ndkf8v","msl000056","freq","","","img/green_2bandit_a2.png","70","","70","test","1","","","square","circle","9","9","9","1","0.7777777777777778","","","","","","","","","",""
"null","","624600","SARL_v6a4ndkf8v","msl000056","freq_resp","","","img/green_2bandit_a.png","70","img/green_2bandit_a.png","70","test","","","","","","","","","1","","","","","","","","","","",""
"null","","624755","SARL_v6a4ndkf8v","msl000056","fixation","","","img/fixation.png","null","","","test","","","","","","","","","","","","","","","","","","","",""
"304","","625063","SARL_v6a4ndkf8v","msl000056","freq","","","img/green_2bandit_a2.png","70","","70","test","1","","","square","circle","10","10","10","1","0.8","","","","","","","","","",""
"null","","625566","SARL_v6a4ndkf8v","msl000056","freq_resp","","","img/green_2bandit_a.png","70","img/green_2bandit_a.png","70","test","","","","","","","","","1","","","","","","","","","","",""
"null","","625721","SARL_v6a4ndkf8v","msl000056","fixation","","","img/fixation.png","null","","","test","","","","","","","","","","","","","","","","","","","",""
"285","","626011","SARL_v6a4ndkf8v","msl000056","freq","","","img/green_2bandit_a2.png","70","","70","test","1","","","square","circle","11","11","11","1","0.8181818181818182","","","","","","","","","",""
"null","","626531","SARL_v6a4ndkf8v","msl000056","freq_resp","","","img/green_2bandit_a.png","70","img/green_2bandit_a.png","70","test","","","","","","","","","1","","","","","","","","","","",""
"null","","626687","SARL_v6a4ndkf8v","msl000056","fixation","","","img/fixation.png","null","","","test","","","","","","","","","","","","","","","","","","","",""
"273","","626964","SARL_v6a4ndkf8v","msl000056","freq","","","img/green_2bandit_a2.png","70","","70","test","1","","","square","circle","12","12","12","1","0.8333333333333334","","","","","","","","","",""
"null","","627497","SARL_v6a4ndkf8v","msl000056","freq_resp","","","img/green_2bandit_a.png","70","img/green_2bandit_a.png","70","test","","","","","","","","","1","","","","","","","","","","",""
"null","","627653","SARL_v6a4ndkf8v","msl000056","fixation","","","img/fixation.png","null","","","test","","","","","","","","","","","","","","","","","","","",""
"270","","627927","SARL_v6a4ndkf8v","msl000056","freq","","","img/green_2bandit_a2.png","70","","70","test","1","","","square","circle","13","13","13","1","0.8461538461538461","","","","","","","","","",""
"null","","628464","SARL_v6a4ndkf8v","msl000056","freq_resp","","","img/green_2bandit_a.png","70","img/green_2bandit_a.png","70","test","","","","","","","","","1","","","","","","","","","","",""
"null","","628620","SARL_v6a4ndkf8v","msl000056","fixation","","","img/fixation.png","null","","","test","","","","","","","","","","","","","","","","","","","",""
"315","","628938","SARL_v6a4ndkf8v","msl000056","freq","","","img/green_2bandit_a2.png","70","","70","test","1","","","square","circle","14","14","14","1","0.8571428571428571","","","","","","","","","",""
"null","","629428","SARL_v6a4ndkf8v","msl000056","freq_resp","","","img/green_2bandit_a.png","70","img/green_2bandit_a.png","70","test","","","","","","","","","1","","","","","","","","","","",""
"null","","629583","SARL_v6a4ndkf8v","msl000056","fixation","","","img/fixation.png","null","","","test","","","","","","","","","","","","","","","","","","","",""
"283","","629871","SARL_v6a4ndkf8v","msl000056","infreq","","","img/orange_2bandit_a2.png","70","","68","test","0","","","square","circle","15","15","15","1","0.8","","","","","","","","","",""
"null","","630393","SARL_v6a4ndkf8v","msl000056","infreq_resp","","","img/orange_2bandit_a.png","70","img/orange_2bandit_a.png","68","test","","","","","","","","","1","","","","","","","","","","",""
"null","","630549","SARL_v6a4ndkf8v","msl000056","fixation","","","img/fixation.png","null","","","test","","","","","","","","","","","","","","","","","","","",""
"247","","630801","SARL_v6a4ndkf8v","msl000056","freq","","","img/green_2bandit_a2.png","70","","70","test","1","","","square","circle","16","16","16","1","0.8125","","","","","","","","","",""
"null","","631359","SARL_v6a4ndkf8v","msl000056","freq_resp","","","img/green_2bandit_a.png","70","img/green_2bandit_a.png","70","test","","","","","","","","","1","","","","","","","","","","",""
"null","","631514","SARL_v6a4ndkf8v","msl000056","fixation","","","img/fixation.png","null","","","test","","","","","","","","","","","","","","","","","","","",""
"64","","631584","SARL_v6a4ndkf8v","msl000056","freq","","","img/green_2bandit_a2.png","70","","70","test","1","","","square","circle","17","17","17","1","0.8235294117647058","","","","","","","","","",""
"null","","632325","SARL_v6a4ndkf8v","msl000056","freq_resp","","","img/green_2bandit_a.png","70","img/green_2bandit_a.png","70","test","","","","","","","","","1","","","","","","","","","","",""
"null","","632480","SARL_v6a4ndkf8v","msl000056","fixation","","","img/fixation.png","null","","","test","","","","","","","","","","","","","","","","","","","",""
"0","","632483","SARL_v6a4ndkf8v","msl000056","freq","","","img/green_2bandit_a2.png","70","","70","test","1","","","square","circle","18","18","18","1","0.8333333333333334","","","","","","","","","",""
"null","","633289","SARL_v6a4ndkf8v","msl000056","freq_resp","","","img/green_2bandit_a.png","70","img/green_2bandit_a.png","70","test","","","","","","","","","1","","","","","","","","","","",""
"null","","633444","SARL_v6a4ndkf8v","msl000056","fixation","","","img/fixation.png","null","","","test","","","","","","","","","","","","","","","","","","","",""
"null","","634251","SARL_v6a4ndkf8v","msl000056","freq","","","img/green_2bandit_a2.png","null","","70","test","0","","","square","circle","19","19","19","1","0.7894736842105263","","","","","","","","","",""
"null","","634406","SARL_v6a4ndkf8v","msl000056","fixation","","","img/fixation.png","null","","","test","","","","","","","","","","","","","","","","","","","",""
"124","","634534","SARL_v6a4ndkf8v","msl000056","freq","","","img/green_2bandit_a2.png","70","","70","test","1","","","square","circle","20","20","20","1","0.8","","","","","","","","","",""
"null","","635216","SARL_v6a4ndkf8v","msl000056","freq_resp","","","img/green_2bandit_a.png","70","img/green_2bandit_a.png","70","test","","","","","","","","","1","","","","","","","","","","",""
"null","","635371","SARL_v6a4ndkf8v","msl000056","fixation","","","img/fixation.png","null","","","test","","","","","","","","","","","","","","","","","","","",""
"281","","635657","SARL_v6a4ndkf8v","msl000056","freq","","","img/green_2bandit_a2.png","70","","70","test","1","","","square","circle","21","21","21","1","0.8095238095238095","","","","","","","","","",""
"null","","636180","SARL_v6a4ndkf8v","msl000056","freq_resp","","","img/green_2bandit_a.png","70","img/green_2bandit_a.png","70","test","","","","","","","","","1","","","","","","","","","","",""
"null","","636335","SARL_v6a4ndkf8v","msl000056","fixation","","","img/fixation.png","null","","","test","","","","","","","","","","","","","","","","","","","",""
"135","","636475","SARL_v6a4ndkf8v","msl000056","freq","","","img/green_2bandit_a2.png","70","","70","test","1","","","square","circle","22","22","22","1","0.8181818181818182","","","","","","","","","",""
"null","","637146","SARL_v6a4ndkf8v","msl000056","freq_resp","","","img/green_2bandit_a.png","70","img/green_2bandit_a.png","70","test","","","","","","","","","1","","","","","","","","","","",""
"null","","637302","SARL_v6a4ndkf8v","msl000056","fixation","","","img/fixation.png","null","","","test","","","","","","","","","","","","","","","","","","","",""
"229","","637535","SARL_v6a4ndkf8v","msl000056","freq","","","img/green_2bandit_a2.png","70","","70","test","1","","","square","circle","23","23","23","1","0.8260869565217391","","","","","","","","","",""
"null","","638111","SARL_v6a4ndkf8v","msl000056","freq_resp","","","img/green_2bandit_a.png","70","img/green_2bandit_a.png","70","test","","","","","","","","","1","","","","","","","","","","",""
"null","","638267","SARL_v6a4ndkf8v","msl000056","fixation","","","img/fixation.png","null","","","test","","","","","","","","","","","","","","","","","","","",""
"643","","638915","SARL_v6a4ndkf8v","msl000056","rl","","","img/black_2bandit_a2.png","74","","0","test","","","1","square","circle","24","","0","1","","74","0.2","0.8","0.05707299892317119","0.8","0.2","0.8","square","1","0"
"null","","639671","SARL_v6a4ndkf8v","msl000056","feedback","","","img/yay_L_a.png","null","","na","test","","","","","","","","","1","","74","0.2","0.8","","","","0.8","","1",""
"684","","640360","SARL_v6a4ndkf8v","msl000056","freq","","","img/green_2bandit_a2.png","70","","70","test","1","","","square","circle","25","24","1","2","0.8333333333333334","","","","","","","","","",""
"null","","640482","SARL_v6a4ndkf8v","msl000056","freq_resp","","","img/green_2bandit_a.png","70","img/green_2bandit_a.png","70","test","","","","","","","","","2","","","","","","","","","","",""
"null","","640638","SARL_v6a4ndkf8v","msl000056","fixation","","","img/fixation.png","null","","","test","","","","","","","","","","","","","","","","","","","",""
"430","","641073","SARL_v6a4ndkf8v","msl000056","freq","","","img/green_2bandit_a2.png","70","","70","test","1","","","square","circle","26","25","2","2","0.84","","","","","","","","","",""
"null","","641448","SARL_v6a4ndkf8v","msl000056","freq_resp","","","img/green_2bandit_a.png","70","img/green_2bandit_a.png","70","test","","","","","","","","","2","","","","","","","","","","",""
"null","","641603","SARL_v6a4ndkf8v","msl000056","fixation","","","img/fixation.png","null","","","test","","","","","","","","","","","","","","","","","","","",""
"267","","641876","SARL_v6a4ndkf8v","msl000056","freq","","","img/green_2bandit_a2.png","70","","70","test","1","","","square","circle","27","26","3","2","0.8461538461538461","","","","","","","","","",""
"null","","642413","SARL_v6a4ndkf8v","msl000056","freq_resp","","","img/green_2bandit_a.png","70","img/green_2bandit_a.png","70","test","","","","","","","","","2","","","","","","","","","","",""
"null","","642568","SARL_v6a4ndkf8v","msl000056","fixation","","","img/fixation.png","null","","","test","","","","","","","","","","","","","","","","","","","",""
"312","","642886","SARL_v6a4ndkf8v","msl000056","freq","","","img/green_2bandit_a2.png","70","","70","test","1","","","square","circle","28","27","4","2","0.8518518518518519","","","","","","","","","",""
"null","","643380","SARL_v6a4ndkf8v","msl000056","freq_resp","","","img/green_2bandit_a.png","70","img/green_2bandit_a.png","70","test","","","","","","","","","2","","","","","","","","","","",""
"null","","643535","SARL_v6a4ndkf8v","msl000056","fixation","","","img/fixation.png","null","","","test","","","","","","","","","","","","","","","","","","","",""
"250","","643789","SARL_v6a4ndkf8v","msl000056","freq","","","img/green_2bandit_a2.png","70","","70","test","1","","","square","circle","29","28","5","2","0.8571428571428571","","","","","","","","","",""
"null","","644343","SARL_v6a4ndkf8v","msl000056","freq_resp","","","img/green_2bandit_a.png","70","img/green_2bandit_a.png","70","test","","","","","","","","","2","","","","","","","","","","",""
"null","","644498","SARL_v6a4ndkf8v","msl000056","fixation","","","img/fixation.png","null","","","test","","","","","","","","","","","","","","","","","","","",""
"198","","644702","SARL_v6a4ndkf8v","msl000056","freq","","","img/green_2bandit_a2.png","70","","70","test","1","","","square","circle","30","29","6","2","0.8620689655172413","","","","","","","","","",""
"null","","645310","SARL_v6a4ndkf8v","msl000056","freq_resp","","","img/green_2bandit_a.png","70","img/green_2bandit_a.png","70","test","","","","","","","","","2","","","","","","","","","","",""
"null","","645465","SARL_v6a4ndkf8v","msl000056","fixation","","","img/fixation.png","null","","","test","","","","","","","","","","","","","","","","","","","",""
"128","","645597","SARL_v6a4ndkf8v","msl000056","freq","","","img/green_2bandit_a2.png","70","","70","test","1","","","square","circle","31","30","7","2","0.8666666666666667","","","","","","","","","",""
"null","","646274","SARL_v6a4ndkf8v","msl000056","freq_resp","","","img/green_2bandit_a.png","70","img/green_2bandit_a.png","70","test","","","","","","","","","2","","","","","","","","","","",""
"null","","646431","SARL_v6a4ndkf8v","msl000056","fixation","","","img/fixation.png","null","","","test","","","","","","","","","","","","","","","","","","","",""
"306","","646742","SARL_v6a4ndkf8v","msl000056","freq","","","img/green_2bandit_a2.png","70","","70","test","1","","","square","circle","32","31","8","2","0.8709677419354839","","","","","","","","","",""
"null","","647242","SARL_v6a4ndkf8v","msl000056","freq_resp","","","img/green_2bandit_a.png","70","img/green_2bandit_a.png","70","test","","","","","","","","","2","","","","","","","","","","",""
"null","","647398","SARL_v6a4ndkf8v","msl000056","fixation","","","img/fixation.png","null","","","test","","","","","","","","","","","","","","","","","","","",""
"262","","647664","SARL_v6a4ndkf8v","msl000056","freq","","","img/green_2bandit_a2.png","70","","70","test","1","","","square","circle","33","32","9","2","0.875","","","","","","","","","",""
"null","","648207","SARL_v6a4ndkf8v","msl000056","freq_resp","","","img/green_2bandit_a.png","70","img/green_2bandit_a.png","70","test","","","","","","","","","2","","","","","","","","","","",""
"null","","648363","SARL_v6a4ndkf8v","msl000056","fixation","","","img/fixation.png","null","","","test","","","","","","","","","","","","","","","","","","","",""
"230","","648599","SARL_v6a4ndkf8v","msl000056","infreq","","","img/orange_2bandit_a2.png","70","","68","test","0","","","square","circle","34","33","10","2","0.8484848484848485","","","","","","","","","",""
"null","","649175","SARL_v6a4ndkf8v","msl000056","infreq_resp","","","img/orange_2bandit_a.png","70","img/orange_2bandit_a.png","68","test","","","","","","","","","2","","","","","","","","","","",""
"null","","649330","SARL_v6a4ndkf8v","msl000056","fixation","","","img/fixation.png","null","","","test","","","","","","","","","","","","","","","","","","","",""
"464","","649798","SARL_v6a4ndkf8v","msl000056","freq","","","img/green_2bandit_a2.png","70","","70","test","1","","","square","circle","35","34","11","2","0.8529411764705882","","","","","","","","","",""
"null","","650139","SARL_v6a4ndkf8v","msl000056","freq_resp","","","img/green_2bandit_a.png","70","img/green_2bandit_a.png","70","test","","","","","","","","","2","","","","","","","","","","",""
"null","","650296","SARL_v6a4ndkf8v","msl000056","fixation","","","img/fixation.png","null","","","test","","","","","","","","","","","","","","","","","","","",""
"498","","650798","SARL_v6a4ndkf8v","msl000056","infreq","","","img/orange_2bandit_a2.png","68","","68","test","1","","","square","circle","36","35","12","2","0.8571428571428571","","","","","","","","","",""
"null","","651105","SARL_v6a4ndkf8v","msl000056","infreq_resp","","","img/orange_2bandit_a.png","68","img/orange_2bandit_a.png","68","test","","","","","","","","","2","","","","","","","","","","",""
"null","","651260","SARL_v6a4ndkf8v","msl000056","fixation","","","img/fixation.png","null","","","test","","","","","","","","","","","","","","","","","","","",""
"419","","651684","SARL_v6a4ndkf8v","msl000056","freq","","","img/green_2bandit_a2.png","70","","70","test","1","","","square","circle","37","36","13","2","0.8611111111111112","","","","","","","","","",""
"null","","652071","SARL_v6a4ndkf8v","msl000056","freq_resp","","","img/green_2bandit_a.png","70","img/green_2bandit_a.png","70","test","","","","","","","","","2","","","","","","","","","","",""
"null","","652227","SARL_v6a4ndkf8v","msl000056","fixation","","","img/fixation.png","null","","","test","","","","","","","","","","","","","","","","","","","",""
"522","","652753","SARL_v6a4ndkf8v","msl000056","freq","","","img/green_2bandit_a2.png","70","","70","test","1","","","square","circle","38","37","14","2","0.8648648648648649","","","","","","","","","",""
"null","","653036","SARL_v6a4ndkf8v","msl000056","freq_resp","","","img/green_2bandit_a.png","70","img/green_2bandit_a.png","70","test","","","","","","","","","2","","","","","","","","","","",""
"null","","653192","SARL_v6a4ndkf8v","msl000056","fixation","","","img/fixation.png","null","","","test","","","","","","","","","","","","","","","","","","","",""
"394","","653592","SARL_v6a4ndkf8v","msl000056","freq","","","img/green_2bandit_a2.png","70","","70","test","1","","","square","circle","39","38","15","2","0.868421052631579","","","","","","","","","",""
"null","","654004","SARL_v6a4ndkf8v","msl000056","freq_resp","","","img/green_2bandit_a.png","70","img/green_2bandit_a.png","70","test","","","","","","","","","2","","","","","","","","","","",""
"null","","654160","SARL_v6a4ndkf8v","msl000056","fixation","","","img/fixation.png","null","","","test","","","","","","","","","","","","","","","","","","","",""
"331","","654495","SARL_v6a4ndkf8v","msl000056","freq","","","img/green_2bandit_a2.png","70","","70","test","1","","","square","circle","40","39","16","2","0.8717948717948718","","","","","","","","","",""
"null","","654970","SARL_v6a4ndkf8v","msl000056","freq_resp","","","img/green_2bandit_a.png","70","img/green_2bandit_a.png","70","test","","","","","","","","","2","","","","","","","","","","",""
"null","","655126","SARL_v6a4ndkf8v","msl000056","fixation","","","img/fixation.png","null","","","test","","","","","","","","","","","","","","","","","","","",""
"299","","655429","SARL_v6a4ndkf8v","msl000056","freq","","","img/green_2bandit_a2.png","70","","70","test","1","","","square","circle","41","40","17","2","0.875","","","","","","","","","",""
"null","","655937","SARL_v6a4ndkf8v","msl000056","freq_resp","","","img/green_2bandit_a.png","70","img/green_2bandit_a.png","70","test","","","","","","","","","2","","","","","","","","","","",""
"null","","656094","SARL_v6a4ndkf8v","msl000056","fixation","","","img/fixation.png","null","","","test","","","","","","","","","","","","","","","","","","","",""
"443","","656542","SARL_v6a4ndkf8v","msl000056","freq","","","img/green_2bandit_a2.png","70","","70","test","1","","","square","circle","42","41","18","2","0.8780487804878049","","","","","","","","","",""
"null","","656905","SARL_v6a4ndkf8v","msl000056","freq_resp","","","img/green_2bandit_a.png","70","img/green_2bandit_a.png","70","test","","","","","","","","","2","","","","","","","","","","",""
"null","","657061","SARL_v6a4ndkf8v","msl000056","fixation","","","img/fixation.png","null","","","test","","","","","","","","","","","","","","","","","","","",""
"285","","657352","SARL_v6a4ndkf8v","msl000056","freq","","","img/green_2bandit_a2.png","70","","70","test","1","","","square","circle","43","42","19","2","0.8809523809523809","","","","","","","","","",""
"null","","657873","SARL_v6a4ndkf8v","msl000056","freq_resp","","","img/green_2bandit_a.png","70","img/green_2bandit_a.png","70","test","","","","","","","","","2","","","","","","","","","","",""
"null","","658029","SARL_v6a4ndkf8v","msl000056","fixation","","","img/fixation.png","null","","","test","","","","","","","","","","","","","","","","","","","",""
"293","","658326","SARL_v6a4ndkf8v","msl000056","freq","","","img/green_2bandit_a2.png","70","","70","test","1","","","square","circle","44","43","20","2","0.8837209302325582","","","","","","","","","",""
"null","","658838","SARL_v6a4ndkf8v","msl000056","freq_resp","","","img/green_2bandit_a.png","70","img/green_2bandit_a.png","70","test","","","","","","","","","2","","","","","","","","","","",""
"null","","658994","SARL_v6a4ndkf8v","msl000056","fixation","","","img/fixation.png","null","","","test","","","","","","","","","","","","","","","","","","","",""
"253","","659253","SARL_v6a4ndkf8v","msl000056","infreq","","","img/orange_2bandit_a2.png","70","","68","test","0","","","square","circle","45","44","21","2","0.8636363636363636","","","","","","","","","",""
"null","","659805","SARL_v6a4ndkf8v","msl000056","infreq_resp","","","img/orange_2bandit_a.png","70","img/orange_2bandit_a.png","68","test","","","","","","","","","2","","","","","","","","","","",""
"null","","659960","SARL_v6a4ndkf8v","msl000056","fixation","","","img/fixation.png","null","","","test","","","","","","","","","","","","","","","","","","","",""
"383","","660348","SARL_v6a4ndkf8v","msl000056","freq","","","img/green_2bandit_a2.png","70","","70","test","1","","","square","circle","46","45","22","2","0.8666666666666667","","","","","","","","","",""
"null","","660771","SARL_v6a4ndkf8v","msl000056","freq_resp","","","img/green_2bandit_a.png","70","img/green_2bandit_a.png","70","test","","","","","","","","","2","","","","","","","","","","",""
"null","","660927","SARL_v6a4ndkf8v","msl000056","fixation","","","img/fixation.png","null","","","test","","","","","","","","","","","","","","","","","","","",""
"867","","661798","SARL_v6a4ndkf8v","msl000056","rl","","","img/black_2bandit_a2.png","74","","0","test","","","1","square","circle","47","","0","2","","74","0.2","0.8","0.4111733144633427","0.8","0.2","0.8","square","2","0"
"null","","662555","SARL_v6a4ndkf8v","msl000056","feedback","","","img/yay_L_a.png","null","","na","test","","","","","","","","","2","","74","0.2","0.8","","","","0.8","","2",""
"343","","662903","SARL_v6a4ndkf8v","msl000056","freq","","","img/green_2bandit_a2.png","70","","70","test","1","","","square","circle","48","46","1","3","0.8695652173913043","","","","","","","","","",""
"null","","663364","SARL_v6a4ndkf8v","msl000056","freq_resp","","","img/green_2bandit_a.png","70","img/green_2bandit_a.png","70","test","","","","","","","","","3","","","","","","","","","","",""
"null","","663521","SARL_v6a4ndkf8v","msl000056","fixation","","","img/fixation.png","null","","","test","","","","","","","","","","","","","","","","","","","",""
"336","","663861","SARL_v6a4ndkf8v","msl000056","freq","","","img/green_2bandit_a2.png","70","","70","test","1","","","square","circle","49","47","2","3","0.8723404255319149","","","","","","","","","",""
"null","","664331","SARL_v6a4ndkf8v","msl000056","freq_resp","","","img/green_2bandit_a.png","70","img/green_2bandit_a.png","70","test","","","","","","","","","3","","","","","","","","","","",""
"null","","664487","SARL_v6a4ndkf8v","msl000056","fixation","","","img/fixation.png","null","","","test","","","","","","","","","","","","","","","","","","","",""
"278","","664770","SARL_v6a4ndkf8v","msl000056","freq","","","img/green_2bandit_a2.png","70","","70","test","1","","","square","circle","50","48","3","3","0.875","","","","","","","","","",""
"null","","665297","SARL_v6a4ndkf8v","msl000056","freq_resp","","","img/green_2bandit_a.png","70","img/green_2bandit_a.png","70","test","","","","","","","","","3","","","","","","","","","","",""
"null","","665453","SARL_v6a4ndkf8v","msl000056","fixation","","","img/fixation.png","null","","","test","","","","","","","","","","","","","","","","","","","",""
"331","","665788","SARL_v6a4ndkf8v","msl000056","freq","","","img/green_2bandit_a2.png","70","","70","test","1","","","square","circle","51","49","4","3","0.8775510204081632","","","","","","","","","",""
"null","","666263","SARL_v6a4ndkf8v","msl000056","freq_resp","","","img/green_2bandit_a.png","70","img/green_2bandit_a.png","70","test","","","","","","","","","3","","","","","","","","","","",""
"null","","666419","SARL_v6a4ndkf8v","msl000056","fixation","","","img/fixation.png","null","","","test","","","","","","","","","","","","","","","","","","","",""
"291","","666714","SARL_v6a4ndkf8v","msl000056","freq","","","img/green_2bandit_a2.png","70","","70","test","1","","","square","circle","52","50","5","3","0.88","","","","","","","","","",""
"null","","667230","SARL_v6a4ndkf8v","msl000056","freq_resp","","","img/green_2bandit_a.png","70","img/green_2bandit_a.png","70","test","","","","","","","","","3","","","","","","","","","","",""
"null","","667385","SARL_v6a4ndkf8v","msl000056","fixation","","","img/fixation.png","null","","","test","","","","","","","","","","","","","","","","","","","",""
"282","","667671","SARL_v6a4ndkf8v","msl000056","freq","","","img/green_2bandit_a2.png","70","","70","test","1","","","square","circle","53","51","6","3","0.8823529411764706","","","","","","","","","",""
"null","","668195","SARL_v6a4ndkf8v","msl000056","freq_resp","","","img/green_2bandit_a.png","70","img/green_2bandit_a.png","70","test","","","","","","","","","3","","","","","","","","","","",""
"null","","668351","SARL_v6a4ndkf8v","msl000056","fixation","","","img/fixation.png","null","","","test","","","","","","","","","","","","","","","","","","","",""
"289","","668644","SARL_v6a4ndkf8v","msl000056","freq","","","img/green_2bandit_a2.png","70","","70","test","1","","","square","circle","54","52","7","3","0.8846153846153846","","","","","","","","","",""
"null","","669161","SARL_v6a4ndkf8v","msl000056","freq_resp","","","img/green_2bandit_a.png","70","img/green_2bandit_a.png","70","test","","","","","","","","","3","","","","","","","","","","",""
"null","","669315","SARL_v6a4ndkf8v","msl000056","fixation","","","img/fixation.png","null","","","test","","","","","","","","","","","","","","","","","","","",""
"303","","669623","SARL_v6a4ndkf8v","msl000056","freq","","","img/green_2bandit_a2.png","70","","70","test","1","","","square","circle","55","53","8","3","0.8867924528301887","","","","","","","","","",""
"null","","670126","SARL_v6a4ndkf8v","msl000056","freq_resp","","","img/green_2bandit_a.png","70","img/green_2bandit_a.png","70","test","","","","","","","","","3","","","","","","","","","","",""
"null","","670281","SARL_v6a4ndkf8v","msl000056","fixation","","","img/fixation.png","null","","","test","","","","","","","","","","","","","","","","","","","",""
"330","","670618","SARL_v6a4ndkf8v","msl000056","freq","","","img/green_2bandit_a2.png","70","","70","test","1","","","square","circle","56","54","9","3","0.8888888888888888","","","","","","","","","",""
"null","","671093","SARL_v6a4ndkf8v","msl000056","freq_resp","","","img/green_2bandit_a.png","70","img/green_2bandit_a.png","70","test","","","","","","","","","3","","","","","","","","","","",""
"null","","671248","SARL_v6a4ndkf8v","msl000056","fixation","","","img/fixation.png","null","","","test","","","","","","","","","","","","","","","","","","","",""
"328","","671581","SARL_v6a4ndkf8v","msl000056","freq","","","img/green_2bandit_a2.png","70","","70","test","1","","","square","circle","57","55","10","3","0.8909090909090909","","","","","","","","","",""
"null","","672058","SARL_v6a4ndkf8v","msl000056","freq_resp","","","img/green_2bandit_a.png","70","img/green_2bandit_a.png","70","test","","","","","","","","","3","","","","","","","","","","",""
"null","","672214","SARL_v6a4ndkf8v","msl000056","fixation","","","img/fixation.png","null","","","test","","","","","","","","","","","","","","","","","","","",""
"268","","672486","SARL_v6a4ndkf8v","msl000056","freq","","","img/green_2bandit_a2.png","70","","70","test","1","","","square","circle","58","56","11","3","0.8928571428571429","","","","","","","","","",""
"null","","673024","SARL_v6a4ndkf8v","msl000056","freq_resp","","","img/green_2bandit_a.png","70","img/green_2bandit_a.png","70","test","","","","","","","","","3","","","","","","","","","","",""
"null","","673180","SARL_v6a4ndkf8v","msl000056","fixation","","","img/fixation.png","null","","","test","","","","","","","","","","","","","","","","","","","",""
"254","","673438","SARL_v6a4ndkf8v","msl000056","freq","","","img/green_2bandit_a2.png","70","","70","test","1","","","square","circle","59","57","12","3","0.8947368421052632","","","","","","","","","",""
"null","","673990","SARL_v6a4ndkf8v","msl000056","freq_resp","","","img/green_2bandit_a.png","70","img/green_2bandit_a.png","70","test","","","","","","","","","3","","","","","","","","","","",""
"null","","674146","SARL_v6a4ndkf8v","msl000056","fixation","","","img/fixation.png","null","","","test","","","","","","","","","","","","","","","","","","","",""
"276","","674427","SARL_v6a4ndkf8v","msl000056","freq","","","img/green_2bandit_a2.png","70","","70","test","1","","","square","circle","60","58","13","3","0.896551724137931","","","","","","","","","",""
"null","","674957","SARL_v6a4ndkf8v","msl000056","freq_resp","","","img/green_2bandit_a.png","70","img/green_2bandit_a.png","70","test","","","","","","","","","3","","","","","","","","","","",""
"null","","675112","SARL_v6a4ndkf8v","msl000056","fixation","","","img/fixation.png","null","","","test","","","","","","","","","","","","","","","","","","","",""
"214","","675330","SARL_v6a4ndkf8v","msl000056","freq","","","img/green_2bandit_a2.png","70","","70","test","1","","","square","circle","61","59","14","3","0.8983050847457628","","","","","","","","","",""
"null","","675923","SARL_v6a4ndkf8v","msl000056","freq_resp","","","img/green_2bandit_a.png","70","img/green_2bandit_a.png","70","test","","","","","","","","","3","","","","","","","","","","",""
"null","","676078","SARL_v6a4ndkf8v","msl000056","fixation","","","img/fixation.png","null","","","test","","","","","","","","","","","","","","","","","","","",""
"270","","676354","SARL_v6a4ndkf8v","msl000056","infreq","","","img/orange_2bandit_a2.png","70","","68","test","0","","","square","circle","62","60","15","3","0.8833333333333333","","","","","","","","","",""
"null","","676889","SARL_v6a4ndkf8v","msl000056","infreq_resp","","","img/orange_2bandit_a.png","70","img/orange_2bandit_a.png","68","test","","","","","","","","","3","","","","","","","","","","",""
"null","","677045","SARL_v6a4ndkf8v","msl000056","fixation","","","img/fixation.png","null","","","test","","","","","","","","","","","","","","","","","","","",""
"27","","677078","SARL_v6a4ndkf8v","msl000056","freq","","","img/green_2bandit_a2.png","68","","70","test","0","","","square","circle","63","61","16","3","0.8688524590163934","","","","","","","","","",""
"null","","677857","SARL_v6a4ndkf8v","msl000056","freq_resp","","","img/green_2bandit_a.png","68","img/green_2bandit_a.png","70","test","","","","","","","","","3","","","","","","","","","","",""
"null","","678012","SARL_v6a4ndkf8v","msl000056","fixation","","","img/fixation.png","null","","","test","","","","","","","","","","","","","","","","","","","",""
"220","","678236","SARL_v6a4ndkf8v","msl000056","freq","","","img/green_2bandit_a2.png","70","","70","test","1","","","square","circle","64","62","17","3","0.8709677419354839","","","","","","","","","",""
"null","","678821","SARL_v6a4ndkf8v","msl000056","freq_resp","","","img/green_2bandit_a.png","70","img/green_2bandit_a.png","70","test","","","","","","","","","3","","","","","","","","","","",""
"null","","678978","SARL_v6a4ndkf8v","msl000056","fixation","","","img/fixation.png","null","","","test","","","","","","","","","","","","","","","","","","","",""
"272","","679253","SARL_v6a4ndkf8v","msl000056","infreq","","","img/orange_2bandit_a2.png","70","","68","test","0","","","square","circle","65","63","18","3","0.8571428571428571","","","","","","","","","",""
"null","","679787","SARL_v6a4ndkf8v","msl000056","infreq_resp","","","img/orange_2bandit_a.png","70","img/orange_2bandit_a.png","68","test","","","","","","","","","3","","","","","","","","","","",""
"null","","679942","SARL_v6a4ndkf8v","msl000056","fixation","","","img/fixation.png","null","","","test","","","","","","","","","","","","","","","","","","","",""
"384","","680330","SARL_v6a4ndkf8v","msl000056","freq","","","img/green_2bandit_a2.png","70","","70","test","1","","","square","circle","66","64","19","3","0.859375","","","","","","","","","",""
"null","","680752","SARL_v6a4ndkf8v","msl000056","freq_resp","","","img/green_2bandit_a.png","70","img/green_2bandit_a.png","70","test","","","","","","","","","3","","","","","","","","","","",""
"null","","680909","SARL_v6a4ndkf8v","msl000056","fixation","","","img/fixation.png","null","","","test","","","","","","","","","","","","","","","","","","","",""
"437","","681350","SARL_v6a4ndkf8v","msl000056","freq","","","img/green_2bandit_a2.png","70","","70","test","1","","","square","circle","67","65","20","3","0.8615384615384616","","","","","","","","","",""
"null","","681719","SARL_v6a4ndkf8v","msl000056","freq_resp","","","img/green_2bandit_a.png","70","img/green_2bandit_a.png","70","test","","","","","","","","","3","","","","","","","","","","",""
"null","","681876","SARL_v6a4ndkf8v","msl000056","fixation","","","img/fixation.png","null","","","test","","","","","","","","","","","","","","","","","","","",""
"318","","682197","SARL_v6a4ndkf8v","msl000056","freq","","","img/green_2bandit_a2.png","70","","70","test","1","","","square","circle","68","66","21","3","0.8636363636363636","","","","","","","","","",""
"null","","682685","SARL_v6a4ndkf8v","msl000056","freq_resp","","","img/green_2bandit_a.png","70","img/green_2bandit_a.png","70","test","","","","","","","","","3","","","","","","","","","","",""
"null","","682841","SARL_v6a4ndkf8v","msl000056","fixation","","","img/fixation.png","null","","","test","","","","","","","","","","","","","","","","","","","",""
"291","","683136","SARL_v6a4ndkf8v","msl000056","freq","","","img/green_2bandit_a2.png","70","","70","test","1","","","square","circle","69","67","22","3","0.8656716417910447","","","","","","","","","",""
"null","","683651","SARL_v6a4ndkf8v","msl000056","freq_resp","","","img/green_2bandit_a.png","70","img/green_2bandit_a.png","70","test","","","","","","","","","3","","","","","","","","","","",""
"null","","683806","SARL_v6a4ndkf8v","msl000056","fixation","","","img/fixation.png","null","","","test","","","","","","","","","","","","","","","","","","","",""
"318","","684129","SARL_v6a4ndkf8v","msl000056","freq","","","img/green_2bandit_a2.png","70","","70","test","1","","","square","circle","70","68","23","3","0.8676470588235294","","","","","","","","","",""
"null","","684617","SARL_v6a4ndkf8v","msl000056","freq_resp","","","img/green_2bandit_a.png","70","img/green_2bandit_a.png","70","test","","","","","","","","","3","","","","","","","","","","",""
"null","","684773","SARL_v6a4ndkf8v","msl000056","fixation","","","img/fixation.png","null","","","test","","","","","","","","","","","","","","","","","","","",""
"286","","685064","SARL_v6a4ndkf8v","msl000056","freq","","","img/green_2bandit_a2.png","70","","70","test","1","","","square","circle","71","69","24","3","0.8695652173913043","","","","","","","","","",""
"null","","685584","SARL_v6a4ndkf8v","msl000056","freq_resp","","","img/green_2bandit_a.png","70","img/green_2bandit_a.png","70","test","","","","","","","","","3","","","","","","","","","","",""
"null","","685740","SARL_v6a4ndkf8v","msl000056","fixation","","","img/fixation.png","null","","","test","","","","","","","","","","","","","","","","","","","",""
"171","","685916","SARL_v6a4ndkf8v","msl000056","freq","","","img/green_2bandit_a2.png","70","","70","test","1","","","square","circle","72","70","25","3","0.8714285714285714","","","","","","","","","",""
"null","","686551","SARL_v6a4ndkf8v","msl000056","freq_resp","","","img/green_2bandit_a.png","70","img/green_2bandit_a.png","70","test","","","","","","","","","3","","","","","","","","","","",""
"null","","686707","SARL_v6a4ndkf8v","msl000056","fixation","","","img/fixation.png","null","","","test","","","","","","","","","","","","","","","","","","","",""
"385","","687096","SARL_v6a4ndkf8v","msl000056","freq","","","img/green_2bandit_a2.png","70","","70","test","1","","","square","circle","73","71","26","3","0.8732394366197183","","","","","","","","","",""
"null","","687516","SARL_v6a4ndkf8v","msl000056","freq_resp","","","img/green_2bandit_a.png","70","img/green_2bandit_a.png","70","test","","","","","","","","","3","","","","","","","","","","",""
"null","","687671","SARL_v6a4ndkf8v","msl000056","fixation","","","img/fixation.png","null","","","test","","","","","","","","","","","","","","","","","","","",""
"334","","688010","SARL_v6a4ndkf8v","msl000056","freq","","","img/green_2bandit_a2.png","70","","70","test","1","","","square","circle","74","72","27","3","0.875","","","","","","","","","",""
"null","","688482","SARL_v6a4ndkf8v","msl000056","freq_resp","","","img/green_2bandit_a.png","70","img/green_2bandit_a.png","70","test","","","","","","","","","3","","","","","","","","","","",""
"null","","688638","SARL_v6a4ndkf8v","msl000056","fixation","","","img/fixation.png","null","","","test","","","","","","","","","","","","","","","","","","","",""
"297","","688940","SARL_v6a4ndkf8v","msl000056","freq","","","img/green_2bandit_a2.png","70","","70","test","1","","","square","circle","75","73","28","3","0.8767123287671232","","","","","","","","","",""
"null","","689449","SARL_v6a4ndkf8v","msl000056","freq_resp","","","img/green_2bandit_a.png","70","img/green_2bandit_a.png","70","test","","","","","","","","","3","","","","","","","","","","",""
"null","","689605","SARL_v6a4ndkf8v","msl000056","fixation","","","img/fixation.png","null","","","test","","","","","","","","","","","","","","","","","","","",""
"529","","690138","SARL_v6a4ndkf8v","msl000056","infreq","","","img/orange_2bandit_a2.png","68","","68","test","1","","","square","circle","76","74","29","3","0.8783783783783784","","","","","","","","","",""
"null","","690416","SARL_v6a4ndkf8v","msl000056","infreq_resp","","","img/orange_2bandit_a.png","68","img/orange_2bandit_a.png","68","test","","","","","","","","","3","","","","","","","","","","",""
"null","","690571","SARL_v6a4ndkf8v","msl000056","fixation","","","img/fixation.png","null","","","test","","","","","","","","","","","","","","","","","","","",""
"382","","690958","SARL_v6a4ndkf8v","msl000056","freq","","","img/green_2bandit_a2.png","70","","70","test","1","","","square","circle","77","75","30","3","0.88","","","","","","","","","",""
"null","","691380","SARL_v6a4ndkf8v","msl000056","freq_resp","","","img/green_2bandit_a.png","70","img/green_2bandit_a.png","70","test","","","","","","","","","3","","","","","","","","","","",""
"null","","691536","SARL_v6a4ndkf8v","msl000056","fixation","","","img/fixation.png","null","","","test","","","","","","","","","","","","","","","","","","","",""
"697","","692237","SARL_v6a4ndkf8v","msl000056","rl","","","img/black_2bandit_a2.png","75","","0","test","","","0","square","circle","78","","0","3","","75","0.2","0.8","0.36573675970672814","0.8","0.2","0.2","circle","3","0"
"null","","692993","SARL_v6a4ndkf8v","msl000056","feedback","","","img/boo_R_a.png","null","","na","test","","","","","","","","","3","","75","0.2","0.8","","","","0.2","","3",""
"343","","693340","SARL_v6a4ndkf8v","msl000056","freq","","","img/green_2bandit_a2.png","70","","70","test","1","","","square","circle","79","76","1","4","0.881578947368421","","","","","","","","","",""
"null","","693803","SARL_v6a4ndkf8v","msl000056","freq_resp","","","img/green_2bandit_a.png","70","img/green_2bandit_a.png","70","test","","","","","","","","","4","","","","","","","","","","",""
"null","","693958","SARL_v6a4ndkf8v","msl000056","fixation","","","img/fixation.png","null","","","test","","","","","","","","","","","","","","","","","","","",""
"336","","694298","SARL_v6a4ndkf8v","msl000056","freq","","","img/green_2bandit_a2.png","70","","70","test","1","","","square","circle","80","77","2","4","0.8831168831168831","","","","","","","","","",""
"null","","694768","SARL_v6a4ndkf8v","msl000056","freq_resp","","","img/green_2bandit_a.png","70","img/green_2bandit_a.png","70","test","","","","","","","","","4","","","","","","","","","","",""
"null","","694925","SARL_v6a4ndkf8v","msl000056","fixation","","","img/fixation.png","null","","","test","","","","","","","","","","","","","","","","","","","",""
"291","","695220","SARL_v6a4ndkf8v","msl000056","freq","","","img/green_2bandit_a2.png","70","","70","test","1","","","square","circle","81","78","3","4","0.8846153846153846","","","","","","","","","",""
"null","","695734","SARL_v6a4ndkf8v","msl000056","freq_resp","","","img/green_2bandit_a.png","70","img/green_2bandit_a.png","70","test","","","","","","","","","4","","","","","","","","","","",""
"null","","695889","SARL_v6a4ndkf8v","msl000056","fixation","","","img/fixation.png","null","","","test","","","","","","","","","","","","","","","","","","","",""
"289","","696183","SARL_v6a4ndkf8v","msl000056","freq","","","img/green_2bandit_a2.png","70","","70","test","1","","","square","circle","82","79","4","4","0.8860759493670886","","","","","","","","","",""
"null","","696700","SARL_v6a4ndkf8v","msl000056","freq_resp","","","img/green_2bandit_a.png","70","img/green_2bandit_a.png","70","test","","","","","","","","","4","","","","","","","","","","",""
"null","","696854","SARL_v6a4ndkf8v","msl000056","fixation","","","img/fixation.png","null","","","test","","","","","","","","","","","","","","","","","","","",""
"306","","697166","SARL_v6a4ndkf8v","msl000056","freq","","","img/green_2bandit_a2.png","70","","70","test","1","","","square","circle","83","80","5","4","0.8875","","","","","","","","","",""
"null","","697666","SARL_v6a4ndkf8v","msl000056","freq_resp","","","img/green_2bandit_a.png","70","img/green_2bandit_a.png","70","test","","","","","","","","","4","","","","","","","","","","",""
"null","","697822","SARL_v6a4ndkf8v","msl000056","fixation","","","img/fixation.png","null","","","test","","","","","","","","","","","","","","","","","","","",""
"293","","698120","SARL_v6a4ndkf8v","msl000056","freq","","","img/green_2bandit_a2.png","70","","70","test","1","","","square","circle","84","81","6","4","0.8888888888888888","","","","","","","","","",""
"null","","698633","SARL_v6a4ndkf8v","msl000056","freq_resp","","","img/green_2bandit_a.png","70","img/green_2bandit_a.png","70","test","","","","","","","","","4","","","","","","","","","","",""
"null","","698789","SARL_v6a4ndkf8v","msl000056","fixation","","","img/fixation.png","null","","","test","","","","","","","","","","","","","","","","","","","",""
"416","","699211","SARL_v6a4ndkf8v","msl000056","infreq","","","img/orange_2bandit_a2.png","68","","68","test","1","","","square","circle","85","82","7","4","0.8902439024390244","","","","","","","","","",""
"null","","699600","SARL_v6a4ndkf8v","msl000056","infreq_resp","","","img/orange_2bandit_a.png","68","img/orange_2bandit_a.png","68","test","","","","","","","","","4","","","","","","","","","","",""
"null","","699757","SARL_v6a4ndkf8v","msl000056","fixation","","","img/fixation.png","null","","","test","","","","","","","","","","","","","","","","","","","",""
"329","","700091","SARL_v6a4ndkf8v","msl000056","freq","","","img/green_2bandit_a2.png","70","","70","test","1","","","square","circle","86","83","8","4","0.891566265060241","","","","","","","","","",""
"null","","700567","SARL_v6a4ndkf8v","msl000056","freq_resp","","","img/green_2bandit_a.png","70","img/green_2bandit_a.png","70","test","","","","","","","","","4","","","","","","","","","","",""
"null","","700722","SARL_v6a4ndkf8v","msl000056","fixation","","","img/fixation.png","null","","","test","","","","","","","","","","","","","","","","","","","",""
"213","","700940","SARL_v6a4ndkf8v","msl000056","freq","","","img/green_2bandit_a2.png","70","","70","test","1","","","square","circle","87","84","9","4","0.8928571428571429","","","","","","","","","",""
"null","","701533","SARL_v6a4ndkf8v","msl000056","freq_resp","","","img/green_2bandit_a.png","70","img/green_2bandit_a.png","70","test","","","","","","","","","4","","","","","","","","","","",""
"null","","701688","SARL_v6a4ndkf8v","msl000056","fixation","","","img/fixation.png","null","","","test","","","","","","","","","","","","","","","","","","","",""
"120","","701813","SARL_v6a4ndkf8v","msl000056","freq","","","img/green_2bandit_a2.png","70","","70","test","1","","","square","circle","88","85","10","4","0.8941176470588236","","","","","","","","","",""
"null","","702499","SARL_v6a4ndkf8v","msl000056","freq_resp","","","img/green_2bandit_a.png","70","img/green_2bandit_a.png","70","test","","","","","","","","","4","","","","","","","","","","",""
"null","","702654","SARL_v6a4ndkf8v","msl000056","fixation","","","img/fixation.png","null","","","test","","","","","","","","","","","","","","","","","","","",""
"27","","702687","SARL_v6a4ndkf8v","msl000056","freq","","","img/green_2bandit_a2.png","70","","70","test","1","","","square","circle","89","86","11","4","0.8953488372093024","","","","","","","","","",""
"null","","703466","SARL_v6a4ndkf8v","msl000056","freq_resp","","","img/green_2bandit_a.png","70","img/green_2bandit_a.png","70","test","","","","","","","","","4","","","","","","","","","","",""
"null","","703623","SARL_v6a4ndkf8v","msl000056","fixation","","","img/fixation.png","null","","","test","","","","","","","","","","","","","","","","","","","",""
"44","","703671","SARL_v6a4ndkf8v","msl000056","freq","","","img/green_2bandit_a2.png","70","","70","test","1","","","square","circle","90","87","12","4","0.896551724137931","","","","","","","","","",""
"null","","704432","SARL_v6a4ndkf8v","msl000056","freq_resp","","","img/green_2bandit_a.png","70","img/green_2bandit_a.png","70","test","","","","","","","","","4","","","","","","","","","","",""
"null","","704588","SARL_v6a4ndkf8v","msl000056","fixation","","","img/fixation.png","null","","","test","","","","","","","","","","","","","","","","","","","",""
"76","","704669","SARL_v6a4ndkf8v","msl000056","freq","","","img/green_2bandit_a2.png","70","","70","test","1","","","square","circle","91","88","13","4","0.8977272727272727","","","","","","","","","",""
"null","","705399","SARL_v6a4ndkf8v","msl000056","freq_resp","","","img/green_2bandit_a.png","70","img/green_2bandit_a.png","70","test","","","","","","","","","4","","","","","","","","","","",""
"null","","705554","SARL_v6a4ndkf8v","msl000056","fixation","","","img/fixation.png","null","","","test","","","","","","","","","","","","","","","","","","","",""
"280","","705839","SARL_v6a4ndkf8v","msl000056","freq","","","img/green_2bandit_a2.png","70","","70","test","1","","","square","circle","92","89","14","4","0.898876404494382","","","","","","","","","",""
"null","","706364","SARL_v6a4ndkf8v","msl000056","freq_resp","","","img/green_2bandit_a.png","70","img/green_2bandit_a.png","70","test","","","","","","","","","4","","","","","","","","","","",""
"null","","706519","SARL_v6a4ndkf8v","msl000056","fixation","","","img/fixation.png","null","","","test","","","","","","","","","","","","","","","","","","","",""
"351","","706875","SARL_v6a4ndkf8v","msl000056","freq","","","img/green_2bandit_a2.png","70","","70","test","1","","","square","circle","93","90","15","4","0.9","","","","","","","","","",""
"null","","707329","SARL_v6a4ndkf8v","msl000056","freq_resp","","","img/green_2bandit_a.png","70","img/green_2bandit_a.png","70","test","","","","","","","","","4","","","","","","","","","","",""
"null","","707485","SARL_v6a4ndkf8v","msl000056","fixation","","","img/fixation.png","null","","","test","","","","","","","","","","","","","","","","","","","",""
"288","","707778","SARL_v6a4ndkf8v","msl000056","freq","","","img/green_2bandit_a2.png","70","","70","test","1","","","square","circle","94","91","16","4","0.9010989010989011","","","","","","","","","",""
"null","","708295","SARL_v6a4ndkf8v","msl000056","freq_resp","","","img/green_2bandit_a.png","70","img/green_2bandit_a.png","70","test","","","","","","","","","4","","","","","","","","","","",""
"null","","708450","SARL_v6a4ndkf8v","msl000056","fixation","","","img/fixation.png","null","","","test","","","","","","","","","","","","","","","","","","","",""
"296","","708751","SARL_v6a4ndkf8v","msl000056","freq","","","img/green_2bandit_a2.png","70","","70","test","1","","","square","circle","95","92","17","4","0.9021739130434783","","","","","","","","","",""
"null","","709260","SARL_v6a4ndkf8v","msl000056","freq_resp","","","img/green_2bandit_a.png","70","img/green_2bandit_a.png","70","test","","","","","","","","","4","","","","","","","","","","",""
"null","","709415","SARL_v6a4ndkf8v","msl000056","fixation","","","img/fixation.png","null","","","test","","","","","","","","","","","","","","","","","","","",""
"251","","709670","SARL_v6a4ndkf8v","msl000056","freq","","","img/green_2bandit_a2.png","70","","70","test","1","","","square","circle","96","93","18","4","0.9032258064516129","","","","","","","","","",""
"null","","710225","SARL_v6a4ndkf8v","msl000056","freq_resp","","","img/green_2bandit_a.png","70","img/green_2bandit_a.png","70","test","","","","","","","","","4","","","","","","","","","","",""
"null","","710381","SARL_v6a4ndkf8v","msl000056","fixation","","","img/fixation.png","null","","","test","","","","","","","","","","","","","","","","","","","",""
"284","","710670","SARL_v6a4ndkf8v","msl000056","freq","","","img/green_2bandit_a2.png","70","","70","test","1","","","square","circle","97","94","19","4","0.9042553191489362","","","","","","","","","",""
"null","","711192","SARL_v6a4ndkf8v","msl000056","freq_resp","","","img/green_2bandit_a.png","70","img/green_2bandit_a.png","70","test","","","","","","","","","4","","","","","","","","","","",""
"null","","711348","SARL_v6a4ndkf8v","msl000056","fixation","","","img/fixation.png","null","","","test","","","","","","","","","","","","","","","","","","","",""
"163","","711515","SARL_v6a4ndkf8v","msl000056","infreq","","","img/orange_2bandit_a2.png","70","","68","test","0","","","square","circle","98","95","20","4","0.8947368421052632","","","","","","","","","",""
"null","","712158","SARL_v6a4ndkf8v","msl000056","infreq_resp","","","img/orange_2bandit_a.png","70","img/orange_2bandit_a.png","68","test","","","","","","","","","4","","","","","","","","","","",""
"null","","712313","SARL_v6a4ndkf8v","msl000056","fixation","","","img/fixation.png","null","","","test","","","","","","","","","","","","","","","","","","","",""
"360","","712677","SARL_v6a4ndkf8v","msl000056","freq","","","img/green_2bandit_a2.png","70","","70","test","1","","","square","circle","99","96","21","4","0.8958333333333334","","","","","","","","","",""
"null","","713123","SARL_v6a4ndkf8v","msl000056","freq_resp","","","img/green_2bandit_a.png","70","img/green_2bandit_a.png","70","test","","","","","","","","","4","","","","","","","","","","",""
"null","","713278","SARL_v6a4ndkf8v","msl000056","fixation","","","img/fixation.png","null","","","test","","","","","","","","","","","","","","","","","","","",""
"712","","713995","SARL_v6a4ndkf8v","msl000056","rl","","","img/black_2bandit_a2.png","74","","0","test","","","1","square","circle","100","","0","4","","74","0.2","0.8","0.6906699898625824","0.8","0.2","0.8","square","4","0"
"null","","714750","SARL_v6a4ndkf8v","msl000056","feedback","","","img/yay_L_a.png","null","","na","test","","","","","","","","","4","","74","0.2","0.8","","","","0.8","","4",""
"506","","715261","SARL_v6a4ndkf8v","msl000056","freq","","","img/green_2bandit_a2.png","70","","70","test","1","","","square","circle","101","97","1","5","0.8969072164948454","","","","","","","","","",""
"null","","715560","SARL_v6a4ndkf8v","msl000056","freq_resp","","","img/green_2bandit_a.png","70","img/green_2bandit_a.png","70","test","","","","","","","","","5","","","","","","","","","","",""
"null","","715716","SARL_v6a4ndkf8v","msl000056","fixation","","","img/fixation.png","null","","","test","","","","","","","","","","","","","","","","","","","",""
"317","","716039","SARL_v6a4ndkf8v","msl000056","freq","","","img/green_2bandit_a2.png","70","","70","test","1","","","square","circle","102","98","2","5","0.8979591836734694","","","","","","","","","",""
"null","","716527","SARL_v6a4ndkf8v","msl000056","freq_resp","","","img/green_2bandit_a.png","70","img/green_2bandit_a.png","70","test","","","","","","","","","5","","","","","","","","","","",""
"null","","716683","SARL_v6a4ndkf8v","msl000056","fixation","","","img/fixation.png","null","","","test","","","","","","","","","","","","","","","","","","","",""
"259","","716948","SARL_v6a4ndkf8v","msl000056","freq","","","img/green_2bandit_a2.png","70","","70","test","1","","","square","circle","103","99","3","5","0.898989898989899","","","","","","","","","",""
"null","","717495","SARL_v6a4ndkf8v","msl000056","freq_resp","","","img/green_2bandit_a.png","70","img/green_2bandit_a.png","70","test","","","","","","","","","5","","","","","","","","","","",""
"null","","717651","SARL_v6a4ndkf8v","msl000056","fixation","","","img/fixation.png","null","","","test","","","","","","","","","","","","","","","","","","","",""
"279","","717936","SARL_v6a4ndkf8v","msl000056","infreq","","","img/orange_2bandit_a2.png","70","","68","test","0","","","square","circle","104","100","4","5","0.89","","","","","","","","","",""
"null","","718462","SARL_v6a4ndkf8v","msl000056","infreq_resp","","","img/orange_2bandit_a.png","70","img/orange_2bandit_a.png","68","test","","","","","","","","","5","","","","","","","","","","",""
"null","","718618","SARL_v6a4ndkf8v","msl000056","fixation","","","img/fixation.png","null","","","test","","","","","","","","","","","","","","","","","","","",""
"392","","719014","SARL_v6a4ndkf8v","msl000056","freq","","","img/green_2bandit_a2.png","70","","70","test","1","","","square","circle","105","101","5","5","0.8910891089108911","","","","","","","","","",""
"null","","719429","SARL_v6a4ndkf8v","msl000056","freq_resp","","","img/green_2bandit_a.png","70","img/green_2bandit_a.png","70","test","","","","","","","","","5","","","","","","","","","","",""
"null","","719584","SARL_v6a4ndkf8v","msl000056","fixation","","","img/fixation.png","null","","","test","","","","","","","","","","","","","","","","","","","",""
"280","","719869","SARL_v6a4ndkf8v","msl000056","freq","","","img/green_2bandit_a2.png","70","","70","test","1","","","square","circle","106","102","6","5","0.8921568627450981","","","","","","","","","",""
"null","","720394","SARL_v6a4ndkf8v","msl000056","freq_resp","","","img/green_2bandit_a.png","70","img/green_2bandit_a.png","70","test","","","","","","","","","5","","","","","","","","","","",""
"null","","720549","SARL_v6a4ndkf8v","msl000056","fixation","","","img/fixation.png","null","","","test","","","","","","","","","","","","","","","","","","","",""
"183","","720737","SARL_v6a4ndkf8v","msl000056","freq","","","img/green_2bandit_a2.png","70","","70","test","1","","","square","circle","107","103","7","5","0.8932038834951457","","","","","","","","","",""
"null","","721361","SARL_v6a4ndkf8v","msl000056","freq_resp","","","img/green_2bandit_a.png","70","img/green_2bandit_a.png","70","test","","","","","","","","","5","","","","","","","","","","",""
"null","","721516","SARL_v6a4ndkf8v","msl000056","fixation","","","img/fixation.png","null","","","test","","","","","","","","","","","","","","","","","","","",""
"130","","721650","SARL_v6a4ndkf8v","msl000056","freq","","","img/green_2bandit_a2.png","70","","70","test","1","","","square","circle","108","104","8","5","0.8942307692307693","","","","","","","","","",""
"null","","722327","SARL_v6a4ndkf8v","msl000056","freq_resp","","","img/green_2bandit_a.png","70","img/green_2bandit_a.png","70","test","","","","","","","","","5","","","","","","","","","","",""
"null","","722483","SARL_v6a4ndkf8v","msl000056","fixation","","","img/fixation.png","null","","","test","","","","","","","","","","","","","","","","","","","",""
"328","","722815","SARL_v6a4ndkf8v","msl000056","freq","","","img/green_2bandit_a2.png","70","","70","test","1","","","square","circle","109","105","9","5","0.8952380952380953","","","","","","","","","",""
"null","","723294","SARL_v6a4ndkf8v","msl000056","freq_resp","","","img/green_2bandit_a.png","70","img/green_2bandit_a.png","70","test","","","","","","","","","5","","","","","","","","","","",""
"null","","723450","SARL_v6a4ndkf8v","msl000056","fixation","","","img/fixation.png","null","","","test","","","","","","","","","","","","","","","","","","","",""
"350","","723805","SARL_v6a4ndkf8v","msl000056","freq","","","img/green_2bandit_a2.png","70","","70","test","1","","","square","circle","110","106","10","5","0.8962264150943396","","","","","","","","","",""
"null","","724262","SARL_v6a4ndkf8v","msl000056","freq_resp","","","img/green_2bandit_a.png","70","img/green_2bandit_a.png","70","test","","","","","","","","","5","","","","","","","","","","",""
"null","","724418","SARL_v6a4ndkf8v","msl000056","fixation","","","img/fixation.png","null","","","test","","","","","","","","","","","","","","","","","","","",""
"345","","724768","SARL_v6a4ndkf8v","msl000056","freq","","","img/green_2bandit_a2.png","70","","70","test","1","","","square","circle","111","107","11","5","0.897196261682243","","","","","","","","","",""
"null","","725229","SARL_v6a4ndkf8v","msl000056","freq_resp","","","img/green_2bandit_a.png","70","img/green_2bandit_a.png","70","test","","","","","","","","","5","","","","","","","","","","",""
"null","","725385","SARL_v6a4ndkf8v","msl000056","fixation","","","img/fixation.png","null","","","test","","","","","","","","","","","","","","","","","","","",""
"315","","725705","SARL_v6a4ndkf8v","msl000056","freq","","","img/green_2bandit_a2.png","70","","70","test","1","","","square","circle","112","108","12","5","0.8981481481481481","","","","","","","","","",""
"null","","726195","SARL_v6a4ndkf8v","msl000056","freq_resp","","","img/green_2bandit_a.png","70","img/green_2bandit_a.png","70","test","","","","","","","","","5","","","","","","","","","","",""
"null","","726351","SARL_v6a4ndkf8v","msl000056","fixation","","","img/fixation.png","null","","","test","","","","","","","","","","","","","","","","","","","",""
"325","","726680","SARL_v6a4ndkf8v","msl000056","freq","","","img/green_2bandit_a2.png","70","","70","test","1","","","square","circle","113","109","13","5","0.8990825688073395","","","","","","","","","",""
"null","","727160","SARL_v6a4ndkf8v","msl000056","freq_resp","","","img/green_2bandit_a.png","70","img/green_2bandit_a.png","70","test","","","","","","","","","5","","","","","","","","","","",""
"null","","727317","SARL_v6a4ndkf8v","msl000056","fixation","","","img/fixation.png","null","","","test","","","","","","","","","","","","","","","","","","","",""
"306","","727628","SARL_v6a4ndkf8v","msl000056","freq","","","img/green_2bandit_a2.png","70","","70","test","1","","","square","circle","114","110","14","5","0.9","","","","","","","","","",""
"null","","728127","SARL_v6a4ndkf8v","msl000056","freq_resp","","","img/green_2bandit_a.png","70","img/green_2bandit_a.png","70","test","","","","","","","","","5","","","","","","","","","","",""
"null","","728282","SARL_v6a4ndkf8v","msl000056","fixation","","","img/fixation.png","null","","","test","","","","","","","","","","","","","","","","","","","",""
"325","","728611","SARL_v6a4ndkf8v","msl000056","freq","","","img/green_2bandit_a2.png","70","","70","test","1","","","square","circle","115","111","15","5","0.9009009009009009","","","","","","","","","",""
"null","","729092","SARL_v6a4ndkf8v","msl000056","freq_resp","","","img/green_2bandit_a.png","70","img/green_2bandit_a.png","70","test","","","","","","","","","5","","","","","","","","","","",""
"null","","729247","SARL_v6a4ndkf8v","msl000056","fixation","","","img/fixation.png","null","","","test","","","","","","","","","","","","","","","","","","","",""
"313","","729566","SARL_v6a4ndkf8v","msl000056","freq","","","img/green_2bandit_a2.png","70","","70","test","1","","","square","circle","116","112","16","5","0.9017857142857143","","","","","","","","","",""
"null","","730059","SARL_v6a4ndkf8v","msl000056","freq_resp","","","img/green_2bandit_a.png","70","img/green_2bandit_a.png","70","test","","","","","","","","","5","","","","","","","","","","",""
"null","","730214","SARL_v6a4ndkf8v","msl000056","fixation","","","img/fixation.png","null","","","test","","","","","","","","","","","","","","","","","","","",""
"311","","730529","SARL_v6a4ndkf8v","msl000056","freq","","","img/green_2bandit_a2.png","70","","70","test","1","","","square","circle","117","113","17","5","0.9026548672566371","","","","","","","","","",""
"null","","731024","SARL_v6a4ndkf8v","msl000056","freq_resp","","","img/green_2bandit_a.png","70","img/green_2bandit_a.png","70","test","","","","","","","","","5","","","","","","","","","","",""
"null","","731179","SARL_v6a4ndkf8v","msl000056","fixation","","","img/fixation.png","null","","","test","","","","","","","","","","","","","","","","","","","",""
"299","","731483","SARL_v6a4ndkf8v","msl000056","infreq","","","img/orange_2bandit_a2.png","70","","68","test","0","","","square","circle","118","114","18","5","0.8947368421052632","","","","","","","","","",""
"null","","731990","SARL_v6a4ndkf8v","msl000056","infreq_resp","","","img/orange_2bandit_a.png","70","img/orange_2bandit_a.png","68","test","","","","","","","","","5","","","","","","","","","","",""
"null","","732146","SARL_v6a4ndkf8v","msl000056","fixation","","","img/fixation.png","null","","","test","","","","","","","","","","","","","","","","","","","",""
"397","","732547","SARL_v6a4ndkf8v","msl000056","freq","","","img/green_2bandit_a2.png","70","","70","test","1","","","square","circle","119","115","19","5","0.8956521739130435","","","","","","","","","",""
"null","","732955","SARL_v6a4ndkf8v","msl000056","freq_resp","","","img/green_2bandit_a.png","70","img/green_2bandit_a.png","70","test","","","","","","","","","5","","","","","","","","","","",""
"null","","733110","SARL_v6a4ndkf8v","msl000056","fixation","","","img/fixation.png","null","","","test","","","","","","","","","","","","","","","","","","","",""
"265","","733382","SARL_v6a4ndkf8v","msl000056","freq","","","img/green_2bandit_a2.png","70","","70","test","1","","","square","circle","120","116","20","5","0.896551724137931","","","","","","","","","",""
"null","","733922","SARL_v6a4ndkf8v","msl000056","freq_resp","","","img/green_2bandit_a.png","70","img/green_2bandit_a.png","70","test","","","","","","","","","5","","","","","","","","","","",""
"null","","734078","SARL_v6a4ndkf8v","msl000056","fixation","","","img/fixation.png","null","","","test","","","","","","","","","","","","","","","","","","","",""
"257","","734340","SARL_v6a4ndkf8v","msl000056","freq","","","img/green_2bandit_a2.png","70","","70","test","1","","","square","circle","121","117","21","5","0.8974358974358975","","","","","","","","","",""
"null","","734888","SARL_v6a4ndkf8v","msl000056","freq_resp","","","img/green_2bandit_a.png","70","img/green_2bandit_a.png","70","test","","","","","","","","","5","","","","","","","","","","",""
"null","","735044","SARL_v6a4ndkf8v","msl000056","fixation","","","img/fixation.png","null","","","test","","","","","","","","","","","","","","","","","","","",""
"330","","735379","SARL_v6a4ndkf8v","msl000056","freq","","","img/green_2bandit_a2.png","70","","70","test","1","","","square","circle","122","118","22","5","0.8983050847457628","","","","","","","","","",""
"null","","735855","SARL_v6a4ndkf8v","msl000056","freq_resp","","","img/green_2bandit_a.png","70","img/green_2bandit_a.png","70","test","","","","","","","","","5","","","","","","","","","","",""
"null","","736009","SARL_v6a4ndkf8v","msl000056","fixation","","","img/fixation.png","null","","","test","","","","","","","","","","","","","","","","","","","",""
"276","","736291","SARL_v6a4ndkf8v","msl000056","freq","","","img/green_2bandit_a2.png","70","","70","test","1","","","square","circle","123","119","23","5","0.8991596638655462","","","","","","","","","",""
"null","","736820","SARL_v6a4ndkf8v","msl000056","freq_resp","","","img/green_2bandit_a.png","70","img/green_2bandit_a.png","70","test","","","","","","","","","5","","","","","","","","","","",""
"null","","736974","SARL_v6a4ndkf8v","msl000056","fixation","","","img/fixation.png","null","","","test","","","","","","","","","","","","","","","","","","","",""
"305","","737285","SARL_v6a4ndkf8v","msl000056","freq","","","img/green_2bandit_a2.png","70","","70","test","1","","","square","circle","124","120","24","5","0.9","","","","","","","","","",""
"null","","737785","SARL_v6a4ndkf8v","msl000056","freq_resp","","","img/green_2bandit_a.png","70","img/green_2bandit_a.png","70","test","","","","","","","","","5","","","","","","","","","","",""
"null","","737939","SARL_v6a4ndkf8v","msl000056","fixation","","","img/fixation.png","null","","","test","","","","","","","","","","","","","","","","","","","",""
"315","","738258","SARL_v6a4ndkf8v","msl000056","freq","","","img/green_2bandit_a2.png","70","","70","test","1","","","square","circle","125","121","25","5","0.9008264462809917","","","","","","","","","",""
"null","","738749","SARL_v6a4ndkf8v","msl000056","freq_resp","","","img/green_2bandit_a.png","70","img/green_2bandit_a.png","70","test","","","","","","","","","5","","","","","","","","","","",""
"null","","738904","SARL_v6a4ndkf8v","msl000056","fixation","","","img/fixation.png","null","","","test","","","","","","","","","","","","","","","","","","","",""
"302","","739209","SARL_v6a4ndkf8v","msl000056","freq","","","img/green_2bandit_a2.png","70","","70","test","1","","","square","circle","126","122","26","5","0.9016393442622951","","","","","","","","","",""
"null","","739714","SARL_v6a4ndkf8v","msl000056","freq_resp","","","img/green_2bandit_a.png","70","img/green_2bandit_a.png","70","test","","","","","","","","","5","","","","","","","","","","",""
"null","","739869","SARL_v6a4ndkf8v","msl000056","fixation","","","img/fixation.png","null","","","test","","","","","","","","","","","","","","","","","","","",""
"319","","740193","SARL_v6a4ndkf8v","msl000056","freq","","","img/green_2bandit_a2.png","70","","70","test","1","","","square","circle","127","123","27","5","0.9024390243902439","","","","","","","","","",""
"null","","740680","SARL_v6a4ndkf8v","msl000056","freq_resp","","","img/green_2bandit_a.png","70","img/green_2bandit_a.png","70","test","","","","","","","","","5","","","","","","","","","","",""
"null","","740835","SARL_v6a4ndkf8v","msl000056","fixation","","","img/fixation.png","null","","","test","","","","","","","","","","","","","","","","","","","",""
"280","","741120","SARL_v6a4ndkf8v","msl000056","freq","","","img/green_2bandit_a2.png","70","","70","test","1","","","square","circle","128","124","28","5","0.9032258064516129","","","","","","","","","",""
"null","","741645","SARL_v6a4ndkf8v","msl000056","freq_resp","","","img/green_2bandit_a.png","70","img/green_2bandit_a.png","70","test","","","","","","","","","5","","","","","","","","","","",""
"null","","741801","SARL_v6a4ndkf8v","msl000056","fixation","","","img/fixation.png","null","","","test","","","","","","","","","","","","","","","","","","","",""
"1077","","742884","SARL_v6a4ndkf8v","msl000056","rl","","","img/black_2bandit_a2.png","74","","0","test","","","1","square","circle","129","","0","5","","74","0.2","0.8","0.628041634757167","0.8","0.2","0.8","square","5","0"
"null","","743639","SARL_v6a4ndkf8v","msl000056","feedback","","","img/yay_L_a.png","null","","na","test","","","","","","","","","5","","74","0.2","0.8","","","","0.8","","5",""
"459","","744102","SARL_v6a4ndkf8v","msl000056","freq","","","img/green_2bandit_a2.png","70","","70","test","1","","","square","circle","130","125","1","6","0.904","","","","","","","","","",""
"null","","744450","SARL_v6a4ndkf8v","msl000056","freq_resp","","","img/green_2bandit_a.png","70","img/green_2bandit_a.png","70","test","","","","","","","","","6","","","","","","","","","","",""
"null","","744605","SARL_v6a4ndkf8v","msl000056","fixation","","","img/fixation.png","null","","","test","","","","","","","","","","","","","","","","","","","",""
"347","","744957","SARL_v6a4ndkf8v","msl000056","freq","","","img/green_2bandit_a2.png","70","","70","test","1","","","square","circle","131","126","2","6","0.9047619047619048","","","","","","","","","",""
"null","","745415","SARL_v6a4ndkf8v","msl000056","freq_resp","","","img/green_2bandit_a.png","70","img/green_2bandit_a.png","70","test","","","","","","","","","6","","","","","","","","","","",""
"null","","745570","SARL_v6a4ndkf8v","msl000056","fixation","","","img/fixation.png","null","","","test","","","","","","","","","","","","","","","","","","","",""
"316","","745890","SARL_v6a4ndkf8v","msl000056","freq","","","img/green_2bandit_a2.png","70","","70","test","1","","","square","circle","132","127","3","6","0.905511811023622","","","","","","","","","",""
"null","","746380","SARL_v6a4ndkf8v","msl000056","freq_resp","","","img/green_2bandit_a.png","70","img/green_2bandit_a.png","70","test","","","","","","","","","6","","","","","","","","","","",""
"null","","746535","SARL_v6a4ndkf8v","msl000056","fixation","","","img/fixation.png","null","","","test","","","","","","","","","","","","","","","","","","","",""
"293","","746833","SARL_v6a4ndkf8v","msl000056","freq","","","img/green_2bandit_a2.png","70","","70","test","1","","","square","circle","133","128","4","6","0.90625","","","","","","","","","",""
"null","","747346","SARL_v6a4ndkf8v","msl000056","freq_resp","","","img/green_2bandit_a.png","70","img/green_2bandit_a.png","70","test","","","","","","","","","6","","","","","","","","","","",""
"null","","747501","SARL_v6a4ndkf8v","msl000056","fixation","","","img/fixation.png","null","","","test","","","","","","","","","","","","","","","","","","","",""
"327","","747833","SARL_v6a4ndkf8v","msl000056","freq","","","img/green_2bandit_a2.png","70","","70","test","1","","","square","circle","134","129","5","6","0.9069767441860465","","","","","","","","","",""
"null","","748311","SARL_v6a4ndkf8v","msl000056","freq_resp","","","img/green_2bandit_a.png","70","img/green_2bandit_a.png","70","test","","","","","","","","","6","","","","","","","","","","",""
"null","","748467","SARL_v6a4ndkf8v","msl000056","fixation","","","img/fixation.png","null","","","test","","","","","","","","","","","","","","","","","","","",""
"304","","748776","SARL_v6a4ndkf8v","msl000056","freq","","","img/green_2bandit_a2.png","70","","70","test","1","","","square","circle","135","130","6","6","0.9076923076923077","","","","","","","","","",""
"null","","749276","SARL_v6a4ndkf8v","msl000056","freq_resp","","","img/green_2bandit_a.png","70","img/green_2bandit_a.png","70","test","","","","","","","","","6","","","","","","","","","","",""
"null","","749433","SARL_v6a4ndkf8v","msl000056","fixation","","","img/fixation.png","null","","","test","","","","","","","","","","","","","","","","","","","",""
"283","","749720","SARL_v6a4ndkf8v","msl000056","infreq","","","img/orange_2bandit_a2.png","70","","68","test","0","","","square","circle","136","131","7","6","0.9007633587786259","","","","","","","","","",""
"null","","750243","SARL_v6a4ndkf8v","msl000056","infreq_resp","","","img/orange_2bandit_a.png","70","img/orange_2bandit_a.png","68","test","","","","","","","","","6","","","","","","","","","","",""
"null","","750398","SARL_v6a4ndkf8v","msl000056","fixation","","","img/fixation.png","null","","","test","","","","","","","","","","","","","","","","","","","",""
"752","","751154","SARL_v6a4ndkf8v","msl000056","freq","","","img/green_2bandit_a2.png","70","","70","test","1","","","square","circle","137","132","8","6","0.9015151515151515","","","","","","","","","",""
"null","","751208","SARL_v6a4ndkf8v","msl000056","freq_resp","","","img/green_2bandit_a.png","70","img/green_2bandit_a.png","70","test","","","","","","","","","6","","","","","","","","","","",""
"null","","751363","SARL_v6a4ndkf8v","msl000056","fixation","","","img/fixation.png","null","","","test","","","","","","","","","","","","","","","","","","","",""
"412","","751779","SARL_v6a4ndkf8v","msl000056","freq","","","img/green_2bandit_a2.png","70","","70","test","1","","","square","circle","138","133","9","6","0.9022556390977443","","","","","","","","","",""
"null","","752172","SARL_v6a4ndkf8v","msl000056","freq_resp","","","img/green_2bandit_a.png","70","img/green_2bandit_a.png","70","test","","","","","","","","","6","","","","","","","","","","",""
"null","","752327","SARL_v6a4ndkf8v","msl000056","fixation","","","img/fixation.png","null","","","test","","","","","","","","","","","","","","","","","","","",""
"289","","752622","SARL_v6a4ndkf8v","msl000056","freq","","","img/green_2bandit_a2.png","70","","70","test","1","","","square","circle","139","134","10","6","0.9029850746268657","","","","","","","","","",""
"null","","753139","SARL_v6a4ndkf8v","msl000056","freq_resp","","","img/green_2bandit_a.png","70","img/green_2bandit_a.png","70","test","","","","","","","","","6","","","","","","","","","","",""
"null","","753295","SARL_v6a4ndkf8v","msl000056","fixation","","","img/fixation.png","null","","","test","","","","","","","","","","","","","","","","","","","",""
"256","","753556","SARL_v6a4ndkf8v","msl000056","freq","","","img/green_2bandit_a2.png","70","","70","test","1","","","square","circle","140","135","11","6","0.9037037037037037","","","","","","","","","",""
"null","","754105","SARL_v6a4ndkf8v","msl000056","freq_resp","","","img/green_2bandit_a.png","70","img/green_2bandit_a.png","70","test","","","","","","","","","6","","","","","","","","","","",""
"null","","754261","SARL_v6a4ndkf8v","msl000056","fixation","","","img/fixation.png","null","","","test","","","","","","","","","","","","","","","","","","","",""
"409","","754675","SARL_v6a4ndkf8v","msl000056","freq","","","img/green_2bandit_a2.png","70","","70","test","1","","","square","circle","141","136","12","6","0.9044117647058824","","","","","","","","","",""
"null","","755072","SARL_v6a4ndkf8v","msl000056","freq_resp","","","img/green_2bandit_a.png","70","img/green_2bandit_a.png","70","test","","","","","","","","","6","","","","","","","","","","",""
"null","","755227","SARL_v6a4ndkf8v","msl000056","fixation","","","img/fixation.png","null","","","test","","","","","","","","","","","","","","","","","","","",""
"342","","755573","SARL_v6a4ndkf8v","msl000056","freq","","","img/green_2bandit_a2.png","70","","70","test","1","","","square","circle","142","137","13","6","0.9051094890510949","","","","","","","","","",""
"null","","756037","SARL_v6a4ndkf8v","msl000056","freq_resp","","","img/green_2bandit_a.png","70","img/green_2bandit_a.png","70","test","","","","","","","","","6","","","","","","","","","","",""
"null","","756192","SARL_v6a4ndkf8v","msl000056","fixation","","","img/fixation.png","null","","","test","","","","","","","","","","","","","","","","","","","",""
"393","","756592","SARL_v6a4ndkf8v","msl000056","freq","","","img/green_2bandit_a2.png","70","","70","test","1","","","square","circle","143","138","14","6","0.9057971014492754","","","","","","","","","",""
"null","","757004","SARL_v6a4ndkf8v","msl000056","freq_resp","","","img/green_2bandit_a.png","70","img/green_2bandit_a.png","70","test","","","","","","","","","6","","","","","","","","","","",""
"null","","757160","SARL_v6a4ndkf8v","msl000056","fixation","","","img/fixation.png","null","","","test","","","","","","","","","","","","","","","","","","","",""
"325","","757491","SARL_v6a4ndkf8v","msl000056","freq","","","img/green_2bandit_a2.png","70","","70","test","1","","","square","circle","144","139","15","6","0.9064748201438849","","","","","","","","","",""
"null","","757972","SARL_v6a4ndkf8v","msl000056","freq_resp","","","img/green_2bandit_a.png","70","img/green_2bandit_a.png","70","test","","","","","","","","","6","","","","","","","","","","",""
"null","","758127","SARL_v6a4ndkf8v","msl000056","fixation","","","img/fixation.png","null","","","test","","","","","","","","","","","","","","","","","","","",""
"311","","758443","SARL_v6a4ndkf8v","msl000056","freq","","","img/green_2bandit_a2.png","70","","70","test","1","","","square","circle","145","140","16","6","0.9071428571428571","","","","","","","","","",""
"null","","758937","SARL_v6a4ndkf8v","msl000056","freq_resp","","","img/green_2bandit_a.png","70","img/green_2bandit_a.png","70","test","","","","","","","","","6","","","","","","","","","","",""
"null","","759092","SARL_v6a4ndkf8v","msl000056","fixation","","","img/fixation.png","null","","","test","","","","","","","","","","","","","","","","","","","",""
"278","","759375","SARL_v6a4ndkf8v","msl000056","freq","","","img/green_2bandit_a2.png","70","","70","test","1","","","square","circle","146","141","17","6","0.9078014184397163","","","","","","","","","",""
"null","","759903","SARL_v6a4ndkf8v","msl000056","freq_resp","","","img/green_2bandit_a.png","70","img/green_2bandit_a.png","70","test","","","","","","","","","6","","","","","","","","","","",""
"null","","760057","SARL_v6a4ndkf8v","msl000056","fixation","","","img/fixation.png","null","","","test","","","","","","","","","","","","","","","","","","","",""
"363","","760427","SARL_v6a4ndkf8v","msl000056","freq","","","img/green_2bandit_a2.png","70","","70","test","1","","","square","circle","147","142","18","6","0.9084507042253521","","","","","","","","","",""
"null","","760869","SARL_v6a4ndkf8v","msl000056","freq_resp","","","img/green_2bandit_a.png","70","img/green_2bandit_a.png","70","test","","","","","","","","","6","","","","","","","","","","",""
"null","","761024","SARL_v6a4ndkf8v","msl000056","fixation","","","img/fixation.png","null","","","test","","","","","","","","","","","","","","","","","","","",""
"326","","761355","SARL_v6a4ndkf8v","msl000056","infreq","","","img/orange_2bandit_a2.png","70","","68","test","0","","","square","circle","148","143","19","6","0.9020979020979021","","","","","","","","","",""
"null","","761834","SARL_v6a4ndkf8v","msl000056","infreq_resp","","","img/orange_2bandit_a.png","70","img/orange_2bandit_a.png","68","test","","","","","","","","","6","","","","","","","","","","",""
"null","","761990","SARL_v6a4ndkf8v","msl000056","fixation","","","img/fixation.png","null","","","test","","","","","","","","","","","","","","","","","","","",""
"661","","762656","SARL_v6a4ndkf8v","msl000056","freq","","","img/green_2bandit_a2.png","70","","70","test","1","","","square","circle","149","144","20","6","0.9027777777777778","","","","","","","","","",""
