"rt","responses","time_elapsed","subject","demoID","trialType","rlType","attType","stimulus","key_press","stim","corrresp","phase","corr","pracCounter","reward","bandOne","bandTwo","trialNum","attentionNum","attentionRunNum","blockNum","performance","bandChosen","circleVal","squareVal","coin","bandOneVal","bandTwoVal","pReward","shapeChosen","rlNum","badFlag"
"15255","{""Q0"":""msl000051""}","15283","SARL_v6gnqw5ox5","msl000051","","","","","","","","","","","","","","","","","","","","","","","","","","","",""
"2395","","17684","SARL_v6gnqw5ox5","msl000051","","","","","","","","","","","","","","","","","","","","","","","","","","","",""
"","","23842","SARL_v6gnqw5ox5","msl000051","fullscreen","fullscreen","fullscreen","","","","","","","","","","","","","","","","","","","","","","","","",""
"105314","","129163","SARL_v6gnqw5ox5","msl000051","","","","","","","","","","","","","","","","","","","","","","","","","","","",""
"null","","129970","SARL_v6gnqw5ox5","msl000051","freqPrac","","","img/orange_2bandit_b2.png","null","img/orange_2bandit_b2.png","70","prac","0","1","","","","","","","","","","","","","","","","","",""
"null","","130977","SARL_v6gnqw5ox5","msl000051","feedback","","","img/tooSlow.png","null","","na","prac","","","","","","","","","","","","","","","","","","","",""
"null","","131134","SARL_v6gnqw5ox5","msl000051","fixation","","","img/fixation.png","null","","","prac","","","","","","","","","","","","","","","","","","","",""
"688","","131828","SARL_v6gnqw5ox5","msl000051","infreqPrac","","","img/green_2bandit_b2.png","68","img/green_2bandit_b2.png","68","prac","1","1","","","","","","","","","","","","","","","","","",""
"688","","131946","SARL_v6gnqw5ox5","msl000051","infreqPrac_resp","","","img/green_2bandit_b.png","68","img/green_2bandit_b.png","68","prac","","","","","","","","","","","","","","","","","","","",""
"null","","132102","SARL_v6gnqw5ox5","msl000051","fixation","","","img/fixation.png","null","","","prac","","","","","","","","","","","","","","","","","","","",""
"null","","132908","SARL_v6gnqw5ox5","msl000051","freqPrac","","","img/orange_2bandit_b2.png","null","img/orange_2bandit_b2.png","70","prac","0","2","","","","","","","","","","","","","","","","","",""
"null","","133915","SARL_v6gnqw5ox5","msl000051","feedback","","","img/tooSlow.png","null","","na","prac","","","","","","","","","","","","","","","","","","","",""
"null","","134070","SARL_v6gnqw5ox5","msl000051","fixation","","","img/fixation.png","null","","","prac","","","","","","","","","","","","","","","","","","","",""
"437","","134512","SARL_v6gnqw5ox5","msl000051","infreqPrac","","","img/green_2bandit_b2.png","68","img/green_2bandit_b2.png","68","prac","1","2","","","","","","","","","","","","","","","","","",""
"437","","134882","SARL_v6gnqw5ox5","msl000051","infreqPrac_resp","","","img/green_2bandit_b.png","68","img/green_2bandit_b.png","68","prac","","","","","","","","","","","","","","","","","","","",""
"null","","135037","SARL_v6gnqw5ox5","msl000051","fixation","","","img/fixation.png","null","","","prac","","","","","","","","","","","","","","","","","","","",""
"499","","135541","SARL_v6gnqw5ox5","msl000051","infreqPrac","","","img/green_2bandit_b2.png","68","img/green_2bandit_b2.png","68","prac","1","2","","","","","","","","","","","","","","","","","",""
"499","","135848","SARL_v6gnqw5ox5","msl000051","infreqPrac_resp","","","img/green_2bandit_b.png","68","img/green_2bandit_b.png","68","prac","","","","","","","","","","","","","","","","","","","",""
"null","","136003","SARL_v6gnqw5ox5","msl000051","fixation","","","img/fixation.png","null","","","prac","","","","","","","","","","","","","","","","","","","",""
"421","","136430","SARL_v6gnqw5ox5","msl000051","infreqPrac","","","img/green_2bandit_b2.png","68","img/green_2bandit_b2.png","68","prac","1","2","","","","","","","","","","","","","","","","","",""
"421","","136815","SARL_v6gnqw5ox5","msl000051","infreqPrac_resp","","","img/green_2bandit_b.png","68","img/green_2bandit_b.png","68","prac","","","","","","","","","","","","","","","","","","","",""
"null","","136970","SARL_v6gnqw5ox5","msl000051","fixation","","","img/fixation.png","null","","","prac","","","","","","","","","","","","","","","","","","","",""
"326","","137302","SARL_v6gnqw5ox5","msl000051","freqPrac","","","img/orange_2bandit_b2.png","70","img/orange_2bandit_b2.png","70","prac","1","2","","","","","","","","","","","","","","","","","",""
"326","","137781","SARL_v6gnqw5ox5","msl000051","freqPrac_resp","","","img/orange_2bandit_b.png","70","img/orange_2bandit_b.png","70","prac","","","","","","","","","","","","","","","","","","","",""
"null","","137937","SARL_v6gnqw5ox5","msl000051","fixation","","","img/fixation.png","null","","","prac","","","","","","","","","","","","","","","","","","","",""
"402","","138346","SARL_v6gnqw5ox5","msl000051","infreqPrac","","","img/green_2bandit_b2.png","68","img/green_2bandit_b2.png","68","prac","1","2","","","","","","","","","","","","","","","","","",""
"402","","138749","SARL_v6gnqw5ox5","msl000051","infreqPrac_resp","","","img/green_2bandit_b.png","68","img/green_2bandit_b.png","68","prac","","","","","","","","","","","","","","","","","","","",""
"null","","138904","SARL_v6gnqw5ox5","msl000051","fixation","","","img/fixation.png","null","","","prac","","","","","","","","","","","","","","","","","","","",""
"325","","139235","SARL_v6gnqw5ox5","msl000051","freqPrac","","","img/orange_2bandit_b2.png","70","img/orange_2bandit_b2.png","70","prac","1","2","","","","","","","","","","","","","","","","","",""
"325","","139716","SARL_v6gnqw5ox5","msl000051","freqPrac_resp","","","img/orange_2bandit_b.png","70","img/orange_2bandit_b.png","70","prac","","","","","","","","","","","","","","","","","","","",""
"null","","139872","SARL_v6gnqw5ox5","msl000051","fixation","","","img/fixation.png","null","","","prac","","","","","","","","","","","","","","","","","","","",""
"412","","140288","SARL_v6gnqw5ox5","msl000051","freqPrac","","","img/orange_2bandit_b2.png","70","img/orange_2bandit_b2.png","70","prac","1","2","","","","","","","","","","","","","","","","","",""
"412","","140682","SARL_v6gnqw5ox5","msl000051","freqPrac_resp","","","img/orange_2bandit_b.png","70","img/orange_2bandit_b.png","70","prac","","","","","","","","","","","","","","","","","","","",""
"null","","140838","SARL_v6gnqw5ox5","msl000051","fixation","","","img/fixation.png","null","","","prac","","","","","","","","","","","","","","","","","","","",""
"66574","","207415","SARL_v6gnqw5ox5","msl000051","","","","","","","","prac","","","","","","","","","","","","","","","","","","","",""
"1085","","208505","SARL_v6gnqw5ox5","msl000051","rlPractice","","","img/black_2bandit_b2.png","74","img/black_2bandit_b2.png","","prac","","","75","","","","","","","","","","","","","","","","",""
"null","","209262","SARL_v6gnqw5ox5","msl000051","feedback","","","img/boo_L_b.png","null","","na","prac","","","","","","","","","","","","","","","","","","","",""
"null","","209419","SARL_v6gnqw5ox5","msl000051","fixation","","","img/fixation.png","null","","","prac","","","","","","","","","","","","","","","","","","","",""
"1176","","210600","SARL_v6gnqw5ox5","msl000051","rlPractice","","","img/black_2bandit_b2.png","74","img/black_2bandit_b2.png","","prac","","","75","","","","","","","","","","","","","","","","",""
"null","","211356","SARL_v6gnqw5ox5","msl000051","feedback","","","img/boo_L_b.png","null","","na","prac","","","","","","","","","","","","","","","","","","","",""
"null","","211512","SARL_v6gnqw5ox5","msl000051","fixation","","","img/fixation.png","null","","","prac","","","","","","","","","","","","","","","","","","","",""
"531","","212048","SARL_v6gnqw5ox5","msl000051","rlPractice","","","img/black_2bandit_b2.png","75","img/black_2bandit_b2.png","","prac","","","75","","","","","","","","","","","","","","","","",""
"null","","212803","SARL_v6gnqw5ox5","msl000051","feedback","","","img/yay_R_b.png","null","","na","prac","","","","","","","","","","","","","","","","","","","",""
"null","","212959","SARL_v6gnqw5ox5","msl000051","fixation","","","img/fixation.png","null","","","prac","","","","","","","","","","","","","","","","","","","",""
"453","","213417","SARL_v6gnqw5ox5","msl000051","rlPractice","","","img/black_2bandit_b2.png","75","img/black_2bandit_b2.png","","prac","","","75","","","","","","","","","","","","","","","","",""
"null","","214172","SARL_v6gnqw5ox5","msl000051","feedback","","","img/yay_R_b.png","null","","na","prac","","","","","","","","","","","","","","","","","","","",""
"null","","214327","SARL_v6gnqw5ox5","msl000051","fixation","","","img/fixation.png","null","","","prac","","","","","","","","","","","","","","","","","","","",""
"317","","214649","SARL_v6gnqw5ox5","msl000051","rlPractice","","","img/black_2bandit_b2.png","75","img/black_2bandit_b2.png","","prac","","","75","","","","","","","","","","","","","","","","",""
"null","","215405","SARL_v6gnqw5ox5","msl000051","feedback","","","img/yay_R_b.png","null","","na","prac","","","","","","","","","","","","","","","","","","","",""
"null","","215562","SARL_v6gnqw5ox5","msl000051","fixation","","","img/fixation.png","null","","","prac","","","","","","","","","","","","","","","","","","","",""
"373","","215940","SARL_v6gnqw5ox5","msl000051","rlPractice","","","img/black_2bandit_b2.png","75","img/black_2bandit_b2.png","","prac","","","75","","","","","","","","","","","","","","","","",""
"null","","216696","SARL_v6gnqw5ox5","msl000051","feedback","","","img/yay_R_b.png","null","","na","prac","","","","","","","","","","","","","","","","","","","",""
"null","","216851","SARL_v6gnqw5ox5","msl000051","fixation","","","img/fixation.png","null","","","prac","","","","","","","","","","","","","","","","","","","",""
"348","","217204","SARL_v6gnqw5ox5","msl000051","rlPractice","","","img/black_2bandit_b2.png","75","img/black_2bandit_b2.png","","prac","","","75","","","","","","","","","","","","","","","","",""
"null","","217959","SARL_v6gnqw5ox5","msl000051","feedback","","","img/yay_R_b.png","null","","na","prac","","","","","","","","","","","","","","","","","","","",""
"null","","218114","SARL_v6gnqw5ox5","msl000051","fixation","","","img/fixation.png","null","","","prac","","","","","","","","","","","","","","","","","","","",""
"24072","","242191","SARL_v6gnqw5ox5","msl000051","","","","","","","","prac","","","","","","","","","","","","","","","","","","","",""
"null","","242996","SARL_v6gnqw5ox5","msl000051","mixAttFreqPrac","","","img/orange_2bandit_b2.png","null","img/orange_2bandit_b2.png","70","prac","","","","","","","","","","","","","","","","","","","",""
"null","","243153","SARL_v6gnqw5ox5","msl000051","fixation","","","img/fixation.png","null","","","prac","","","","","","","","","","","","","","","","","","","",""
"620","","243778","SARL_v6gnqw5ox5","msl000051","mixAttInfreqPrac","","","img/green_2bandit_b2.png","68","img/green_2bandit_b2.png","68","prac","","","","","","","","","","","","","","","","","","","",""
"620","","243964","SARL_v6gnqw5ox5","msl000051","infreqPrac_resp","","","img/green_2bandit_b.png","68","img/orange_2bandit_b.png","68","prac","","","","","","","","","","","","","","","","","","","",""
"null","","244120","SARL_v6gnqw5ox5","msl000051","fixation","","","img/fixation.png","null","","","prac","","","","","","","","","","","","","","","","","","","",""
"450","","244575","SARL_v6gnqw5ox5","msl000051","mixAttInfreqPrac","","","img/green_2bandit_b2.png","68","img/green_2bandit_b2.png","68","prac","","","","","","","","","","","","","","","","","","","",""
"450","","244930","SARL_v6gnqw5ox5","msl000051","infreqPrac_resp","","","img/green_2bandit_b.png","68","img/orange_2bandit_b.png","68","prac","","","","","","","","","","","","","","","","","","","",""
"null","","245085","SARL_v6gnqw5ox5","msl000051","fixation","","","img/fixation.png","null","","","prac","","","","","","","","","","","","","","","","","","","",""
"338","","245428","SARL_v6gnqw5ox5","msl000051","mixAttInfreqPrac","","","img/green_2bandit_b2.png","68","img/green_2bandit_b2.png","68","prac","","","","","","","","","","","","","","","","","","","",""
"338","","245896","SARL_v6gnqw5ox5","msl000051","infreqPrac_resp","","","img/green_2bandit_b.png","68","img/orange_2bandit_b.png","68","prac","","","","","","","","","","","","","","","","","","","",""
"null","","246052","SARL_v6gnqw5ox5","msl000051","fixation","","","img/fixation.png","null","","","prac","","","","","","","","","","","","","","","","","","","",""
"339","","246395","SARL_v6gnqw5ox5","msl000051","mixAttFreqPrac","","","img/orange_2bandit_b2.png","70","img/orange_2bandit_b2.png","70","prac","","","","","","","","","","","","","","","","","","","",""
"339","","246862","SARL_v6gnqw5ox5","msl000051","freqPrac_resp","","","img/orange_2bandit_b.png","70","img/orange_2bandit_b.png","70","prac","","","","","","","","","","","","","","","","","","","",""
"null","","247018","SARL_v6gnqw5ox5","msl000051","fixation","","","img/fixation.png","null","","","prac","","","","","","","","","","","","","","","","","","","",""
"737","","247759","SARL_v6gnqw5ox5","msl000051","mixRLPractice","","","img/black_2bandit_b2.png","74","img/black_2bandit_b2.png","","prac","","","","","","","","","","","","","","","","","","","",""
"null","","248514","SARL_v6gnqw5ox5","msl000051","feedback","","","img/yay_L_b.png","null","","na","prac","","","","","","","","","","","","","","","","","","","",""
"640","","249160","SARL_v6gnqw5ox5","msl000051","mixAttFreqPrac","","","img/orange_2bandit_b2.png","68","img/orange_2bandit_b2.png","70","prac","","","","","","","","","","","","","","","","","","","",""
"640","","249325","SARL_v6gnqw5ox5","msl000051","freqPrac_resp","","","img/orange_2bandit_b.png","68","img/orange_2bandit_b.png","70","prac","","","","","","","","","","","","","","","","","","","",""
"13","","249481","SARL_v6gnqw5ox5","msl000051","fixation","","","img/fixation.png","70","","","prac","","","","","","","","","","","","","","","","","","","",""
"null","","250286","SARL_v6gnqw5ox5","msl000051","mixAttInfreqPrac","","","img/green_2bandit_b2.png","null","img/green_2bandit_b2.png","68","prac","","","","","","","","","","","","","","","","","","","",""
"22","","250441","SARL_v6gnqw5ox5","msl000051","fixation","","","img/fixation.png","68","","","prac","","","","","","","","","","","","","","","","","","","",""
"451","","250897","SARL_v6gnqw5ox5","msl000051","mixAttFreqPrac","","","img/orange_2bandit_b2.png","70","img/orange_2bandit_b2.png","70","prac","","","","","","","","","","","","","","","","","","","",""
"451","","251252","SARL_v6gnqw5ox5","msl000051","freqPrac_resp","","","img/orange_2bandit_b.png","70","img/orange_2bandit_b.png","70","prac","","","","","","","","","","","","","","","","","","","",""
"null","","251408","SARL_v6gnqw5ox5","msl000051","fixation","","","img/fixation.png","null","","","prac","","","","","","","","","","","","","","","","","","","",""
"412","","251824","SARL_v6gnqw5ox5","msl000051","mixAttFreqPrac","","","img/orange_2bandit_b2.png","70","img/orange_2bandit_b2.png","70","prac","","","","","","","","","","","","","","","","","","","",""
"412","","252219","SARL_v6gnqw5ox5","msl000051","freqPrac_resp","","","img/orange_2bandit_b.png","70","img/orange_2bandit_b.png","70","prac","","","","","","","","","","","","","","","","","","","",""
"null","","252374","SARL_v6gnqw5ox5","msl000051","fixation","","","img/fixation.png","null","","","prac","","","","","","","","","","","","","","","","","","","",""
"374","","252752","SARL_v6gnqw5ox5","msl000051","mixAttInfreqPrac","","","img/green_2bandit_b2.png","68","img/green_2bandit_b2.png","68","prac","","","","","","","","","","","","","","","","","","","",""
"374","","253184","SARL_v6gnqw5ox5","msl000051","infreqPrac_resp","","","img/green_2bandit_b.png","68","img/orange_2bandit_b.png","68","prac","","","","","","","","","","","","","","","","","","","",""
"null","","253341","SARL_v6gnqw5ox5","msl000051","fixation","","","img/fixation.png","null","","","prac","","","","","","","","","","","","","","","","","","","",""
"837","","254181","SARL_v6gnqw5ox5","msl000051","mixRLPractice","","","img/black_2bandit_b2.png","74","img/black_2bandit_b2.png","","prac","","","","","","","","","","","","","","","","","","","",""
"null","","254936","SARL_v6gnqw5ox5","msl000051","feedback","","","img/yay_L_b.png","null","","na","prac","","","","","","","","","","","","","","","","","","","",""
"22398","","277339","SARL_v6gnqw5ox5","msl000051","","","","","","","","prac","","","","","","","","","","","","","","","","","","","",""
"666","","278010","SARL_v6gnqw5ox5","msl000051","freq","","","img/orange_2bandit_b2.png","70","","70","test","1","","","circle","square","1","1","1","1","1","","","","","","","","","",""
"null","","278150","SARL_v6gnqw5ox5","msl000051","freq_resp","","","img/orange_2bandit_b.png","70","img/orange_2bandit_b.png","70","test","","","","","","","","","1","","","","","","","","","","",""
"null","","278306","SARL_v6gnqw5ox5","msl000051","fixation","","","img/fixation.png","null","","","test","","","","","","","","","","","","","","","","","","","",""
"412","","278722","SARL_v6gnqw5ox5","msl000051","freq","","","img/orange_2bandit_b2.png","70","","70","test","1","","","circle","square","2","2","2","1","1","","","","","","","","","",""
"null","","279115","SARL_v6gnqw5ox5","msl000051","freq_resp","","","img/orange_2bandit_b.png","70","img/orange_2bandit_b.png","70","test","","","","","","","","","1","","","","","","","","","","",""
"null","","279271","SARL_v6gnqw5ox5","msl000051","fixation","","","img/fixation.png","null","","","test","","","","","","","","","","","","","","","","","","","",""
"344","","279620","SARL_v6gnqw5ox5","msl000051","infreq","","","img/green_2bandit_b2.png","68","","68","test","1","","","circle","square","3","3","3","1","1","","","","","","","","","",""
"null","","280083","SARL_v6gnqw5ox5","msl000051","infreq_resp","","","img/green_2bandit_b.png","68","img/green_2bandit_b.png","68","test","","","","","","","","","1","","","","","","","","","","",""
"null","","280238","SARL_v6gnqw5ox5","msl000051","fixation","","","img/fixation.png","null","","","test","","","","","","","","","","","","","","","","","","","",""
"347","","280590","SARL_v6gnqw5ox5","msl000051","freq","","","img/orange_2bandit_b2.png","70","","70","test","1","","","circle","square","4","4","4","1","1","","","","","","","","","",""
"null","","281049","SARL_v6gnqw5ox5","msl000051","freq_resp","","","img/orange_2bandit_b.png","70","img/orange_2bandit_b.png","70","test","","","","","","","","","1","","","","","","","","","","",""
"null","","281205","SARL_v6gnqw5ox5","msl000051","fixation","","","img/fixation.png","null","","","test","","","","","","","","","","","","","","","","","","","",""
"498","","281709","SARL_v6gnqw5ox5","msl000051","freq","","","img/orange_2bandit_b2.png","70","","70","test","1","","","circle","square","5","5","5","1","1","","","","","","","","","",""
"null","","282016","SARL_v6gnqw5ox5","msl000051","freq_resp","","","img/orange_2bandit_b.png","70","img/orange_2bandit_b.png","70","test","","","","","","","","","1","","","","","","","","","","",""
"null","","282171","SARL_v6gnqw5ox5","msl000051","fixation","","","img/fixation.png","null","","","test","","","","","","","","","","","","","","","","","","","",""
"410","","282586","SARL_v6gnqw5ox5","msl000051","freq","","","img/orange_2bandit_b2.png","70","","70","test","1","","","circle","square","6","6","6","1","1","","","","","","","","","",""
"null","","282982","SARL_v6gnqw5ox5","msl000051","freq_resp","","","img/orange_2bandit_b.png","70","img/orange_2bandit_b.png","70","test","","","","","","","","","1","","","","","","","","","","",""
"null","","283137","SARL_v6gnqw5ox5","msl000051","fixation","","","img/fixation.png","null","","","test","","","","","","","","","","","","","","","","","","","",""
"403","","283544","SARL_v6gnqw5ox5","msl000051","freq","","","img/orange_2bandit_b2.png","70","","70","test","1","","","circle","square","7","7","7","1","1","","","","","","","","","",""
"null","","283947","SARL_v6gnqw5ox5","msl000051","freq_resp","","","img/orange_2bandit_b.png","70","img/orange_2bandit_b.png","70","test","","","","","","","","","1","","","","","","","","","","",""
"null","","284103","SARL_v6gnqw5ox5","msl000051","fixation","","","img/fixation.png","null","","","test","","","","","","","","","","","","","","","","","","","",""
"359","","284469","SARL_v6gnqw5ox5","msl000051","freq","","","img/orange_2bandit_b2.png","70","","70","test","1","","","circle","square","8","8","8","1","1","","","","","","","","","",""
"null","","284915","SARL_v6gnqw5ox5","msl000051","freq_resp","","","img/orange_2bandit_b.png","70","img/orange_2bandit_b.png","70","test","","","","","","","","","1","","","","","","","","","","",""
"null","","285070","SARL_v6gnqw5ox5","msl000051","fixation","","","img/fixation.png","null","","","test","","","","","","","","","","","","","","","","","","","",""
"315","","285390","SARL_v6gnqw5ox5","msl000051","freq","","","img/orange_2bandit_b2.png","70","","70","test","1","","","circle","square","9","9","9","1","1","","","","","","","","","",""
"null","","285881","SARL_v6gnqw5ox5","msl000051","freq_resp","","","img/orange_2bandit_b.png","70","img/orange_2bandit_b.png","70","test","","","","","","","","","1","","","","","","","","","","",""
"null","","286036","SARL_v6gnqw5ox5","msl000051","fixation","","","img/fixation.png","null","","","test","","","","","","","","","","","","","","","","","","","",""
"365","","286406","SARL_v6gnqw5ox5","msl000051","freq","","","img/orange_2bandit_b2.png","70","","70","test","1","","","circle","square","10","10","10","1","1","","","","","","","","","",""
"null","","286846","SARL_v6gnqw5ox5","msl000051","freq_resp","","","img/orange_2bandit_b.png","70","img/orange_2bandit_b.png","70","test","","","","","","","","","1","","","","","","","","","","",""
"null","","287003","SARL_v6gnqw5ox5","msl000051","fixation","","","img/fixation.png","null","","","test","","","","","","","","","","","","","","","","","","","",""
"314","","287322","SARL_v6gnqw5ox5","msl000051","freq","","","img/orange_2bandit_b2.png","70","","70","test","1","","","circle","square","11","11","11","1","1","","","","","","","","","",""
"null","","287813","SARL_v6gnqw5ox5","msl000051","freq_resp","","","img/orange_2bandit_b.png","70","img/orange_2bandit_b.png","70","test","","","","","","","","","1","","","","","","","","","","",""
"null","","287969","SARL_v6gnqw5ox5","msl000051","fixation","","","img/fixation.png","null","","","test","","","","","","","","","","","","","","","","","","","",""
"307","","288281","SARL_v6gnqw5ox5","msl000051","freq","","","img/orange_2bandit_b2.png","70","","70","test","1","","","circle","square","12","12","12","1","1","","","","","","","","","",""
"null","","288779","SARL_v6gnqw5ox5","msl000051","freq_resp","","","img/orange_2bandit_b.png","70","img/orange_2bandit_b.png","70","test","","","","","","","","","1","","","","","","","","","","",""
"null","","288934","SARL_v6gnqw5ox5","msl000051","fixation","","","img/fixation.png","null","","","test","","","","","","","","","","","","","","","","","","","",""
"285","","289225","SARL_v6gnqw5ox5","msl000051","freq","","","img/orange_2bandit_b2.png","70","","70","test","1","","","circle","square","13","13","13","1","1","","","","","","","","","",""
"null","","289746","SARL_v6gnqw5ox5","msl000051","freq_resp","","","img/orange_2bandit_b.png","70","img/orange_2bandit_b.png","70","test","","","","","","","","","1","","","","","","","","","","",""
"null","","289902","SARL_v6gnqw5ox5","msl000051","fixation","","","img/fixation.png","null","","","test","","","","","","","","","","","","","","","","","","","",""
"205","","290113","SARL_v6gnqw5ox5","msl000051","freq","","","img/orange_2bandit_b2.png","70","","70","test","1","","","circle","square","14","14","14","1","1","","","","","","","","","",""
"null","","290713","SARL_v6gnqw5ox5","msl000051","freq_resp","","","img/orange_2bandit_b.png","70","img/orange_2bandit_b.png","70","test","","","","","","","","","1","","","","","","","","","","",""
"null","","290870","SARL_v6gnqw5ox5","msl000051","fixation","","","img/fixation.png","null","","","test","","","","","","","","","","","","","","","","","","","",""
"562","","291437","SARL_v6gnqw5ox5","msl000051","infreq","","","img/green_2bandit_b2.png","68","","68","test","1","","","circle","square","15","15","15","1","1","","","","","","","","","",""
"null","","291680","SARL_v6gnqw5ox5","msl000051","infreq_resp","","","img/green_2bandit_b.png","68","img/green_2bandit_b.png","68","test","","","","","","","","","1","","","","","","","","","","",""
"null","","291836","SARL_v6gnqw5ox5","msl000051","fixation","","","img/fixation.png","null","","","test","","","","","","","","","","","","","","","","","","","",""
"528","","292371","SARL_v6gnqw5ox5","msl000051","freq","","","img/orange_2bandit_b2.png","70","","70","test","1","","","circle","square","16","16","16","1","1","","","","","","","","","",""
"null","","292650","SARL_v6gnqw5ox5","msl000051","freq_resp","","","img/orange_2bandit_b.png","70","img/orange_2bandit_b.png","70","test","","","","","","","","","1","","","","","","","","","","",""
"null","","292805","SARL_v6gnqw5ox5","msl000051","fixation","","","img/fixation.png","null","","","test","","","","","","","","","","","","","","","","","","","",""
"354","","293163","SARL_v6gnqw5ox5","msl000051","freq","","","img/orange_2bandit_b2.png","70","","70","test","1","","","circle","square","17","17","17","1","1","","","","","","","","","",""
"null","","293616","SARL_v6gnqw5ox5","msl000051","freq_resp","","","img/orange_2bandit_b.png","70","img/orange_2bandit_b.png","70","test","","","","","","","","","1","","","","","","","","","","",""
"null","","293772","SARL_v6gnqw5ox5","msl000051","fixation","","","img/fixation.png","null","","","test","","","","","","","","","","","","","","","","","","","",""
"514","","294292","SARL_v6gnqw5ox5","msl000051","infreq","","","img/green_2bandit_b2.png","68","","68","test","1","","","circle","square","18","18","18","1","1","","","","","","","","","",""
"null","","294583","SARL_v6gnqw5ox5","msl000051","infreq_resp","","","img/green_2bandit_b.png","68","img/green_2bandit_b.png","68","test","","","","","","","","","1","","","","","","","","","","",""
"null","","294739","SARL_v6gnqw5ox5","msl000051","fixation","","","img/fixation.png","null","","","test","","","","","","","","","","","","","","","","","","","",""
"427","","295171","SARL_v6gnqw5ox5","msl000051","freq","","","img/orange_2bandit_b2.png","70","","70","test","1","","","circle","square","19","19","19","1","1","","","","","","","","","",""
"null","","295550","SARL_v6gnqw5ox5","msl000051","freq_resp","","","img/orange_2bandit_b.png","70","img/orange_2bandit_b.png","70","test","","","","","","","","","1","","","","","","","","","","",""
"null","","295706","SARL_v6gnqw5ox5","msl000051","fixation","","","img/fixation.png","null","","","test","","","","","","","","","","","","","","","","","","","",""
"378","","296090","SARL_v6gnqw5ox5","msl000051","freq","","","img/orange_2bandit_b2.png","70","","70","test","1","","","circle","square","20","20","20","1","1","","","","","","","","","",""
"null","","296517","SARL_v6gnqw5ox5","msl000051","freq_resp","","","img/orange_2bandit_b.png","70","img/orange_2bandit_b.png","70","test","","","","","","","","","1","","","","","","","","","","",""
"null","","296672","SARL_v6gnqw5ox5","msl000051","fixation","","","img/fixation.png","null","","","test","","","","","","","","","","","","","","","","","","","",""
"368","","297045","SARL_v6gnqw5ox5","msl000051","freq","","","img/orange_2bandit_b2.png","70","","70","test","1","","","circle","square","21","21","21","1","1","","","","","","","","","",""
"null","","297484","SARL_v6gnqw5ox5","msl000051","freq_resp","","","img/orange_2bandit_b.png","70","img/orange_2bandit_b.png","70","test","","","","","","","","","1","","","","","","","","","","",""
"null","","297641","SARL_v6gnqw5ox5","msl000051","fixation","","","img/fixation.png","null","","","test","","","","","","","","","","","","","","","","","","","",""
"295","","297941","SARL_v6gnqw5ox5","msl000051","freq","","","img/orange_2bandit_b2.png","70","","70","test","1","","","circle","square","22","22","22","1","1","","","","","","","","","",""
"null","","298452","SARL_v6gnqw5ox5","msl000051","freq_resp","","","img/orange_2bandit_b.png","70","img/orange_2bandit_b.png","70","test","","","","","","","","","1","","","","","","","","","","",""
"null","","298608","SARL_v6gnqw5ox5","msl000051","fixation","","","img/fixation.png","null","","","test","","","","","","","","","","","","","","","","","","","",""
"366","","298979","SARL_v6gnqw5ox5","msl000051","freq","","","img/orange_2bandit_b2.png","70","","70","test","1","","","circle","square","23","23","23","1","1","","","","","","","","","",""
"null","","299419","SARL_v6gnqw5ox5","msl000051","freq_resp","","","img/orange_2bandit_b.png","70","img/orange_2bandit_b.png","70","test","","","","","","","","","1","","","","","","","","","","",""
"null","","299576","SARL_v6gnqw5ox5","msl000051","fixation","","","img/fixation.png","null","","","test","","","","","","","","","","","","","","","","","","","",""
"413","","299993","SARL_v6gnqw5ox5","msl000051","freq","","","img/orange_2bandit_b2.png","70","","70","test","1","","","circle","square","24","24","24","1","1","","","","","","","","","",""
"null","","300385","SARL_v6gnqw5ox5","msl000051","freq_resp","","","img/orange_2bandit_b.png","70","img/orange_2bandit_b.png","70","test","","","","","","","","","1","","","","","","","","","","",""
"null","","300541","SARL_v6gnqw5ox5","msl000051","fixation","","","img/fixation.png","null","","","test","","","","","","","","","","","","","","","","","","","",""
"721","","301268","SARL_v6gnqw5ox5","msl000051","rl","","","img/black_2bandit_b2.png","74","","0","test","","","1","circle","square","25","","0","1","","74","0.8","0.2","0.1549338524340348","0.8","0.2","0.8","circle","1","0"
"null","","302023","SARL_v6gnqw5ox5","msl000051","feedback","","","img/yay_L_b.png","null","","na","test","","","","","","","","","1","","74","0.8","0.2","","","","0.8","","1",""
"486","","302516","SARL_v6gnqw5ox5","msl000051","freq","","","img/orange_2bandit_b2.png","70","","70","test","1","","","circle","square","26","25","1","2","1","","","","","","","","","",""
"null","","302837","SARL_v6gnqw5ox5","msl000051","freq_resp","","","img/orange_2bandit_b.png","70","img/orange_2bandit_b.png","70","test","","","","","","","","","2","","","","","","","","","","",""
"null","","302991","SARL_v6gnqw5ox5","msl000051","fixation","","","img/fixation.png","null","","","test","","","","","","","","","","","","","","","","","","","",""
"423","","303420","SARL_v6gnqw5ox5","msl000051","freq","","","img/orange_2bandit_b2.png","70","","70","test","1","","","circle","square","27","26","2","2","1","","","","","","","","","",""
"null","","303802","SARL_v6gnqw5ox5","msl000051","freq_resp","","","img/orange_2bandit_b.png","70","img/orange_2bandit_b.png","70","test","","","","","","","","","2","","","","","","","","","","",""
"null","","303957","SARL_v6gnqw5ox5","msl000051","fixation","","","img/fixation.png","null","","","test","","","","","","","","","","","","","","","","","","","",""
"424","","304386","SARL_v6gnqw5ox5","msl000051","freq","","","img/orange_2bandit_b2.png","70","","70","test","1","","","circle","square","28","27","3","2","1","","","","","","","","","",""
"null","","304767","SARL_v6gnqw5ox5","msl000051","freq_resp","","","img/orange_2bandit_b.png","70","img/orange_2bandit_b.png","70","test","","","","","","","","","2","","","","","","","","","","",""
"null","","304923","SARL_v6gnqw5ox5","msl000051","fixation","","","img/fixation.png","null","","","test","","","","","","","","","","","","","","","","","","","",""
"313","","305239","SARL_v6gnqw5ox5","msl000051","freq","","","img/orange_2bandit_b2.png","70","","70","test","1","","","circle","square","29","28","4","2","1","","","","","","","","","",""
"null","","305732","SARL_v6gnqw5ox5","msl000051","freq_resp","","","img/orange_2bandit_b.png","70","img/orange_2bandit_b.png","70","test","","","","","","","","","2","","","","","","","","","","",""
"null","","305887","SARL_v6gnqw5ox5","msl000051","fixation","","","img/fixation.png","null","","","test","","","","","","","","","","","","","","","","","","","",""
"427","","306318","SARL_v6gnqw5ox5","msl000051","freq","","","img/orange_2bandit_b2.png","70","","70","test","1","","","circle","square","30","29","5","2","1","","","","","","","","","",""
"null","","306696","SARL_v6gnqw5ox5","msl000051","freq_resp","","","img/orange_2bandit_b.png","70","img/orange_2bandit_b.png","70","test","","","","","","","","","2","","","","","","","","","","",""
"null","","306852","SARL_v6gnqw5ox5","msl000051","fixation","","","img/fixation.png","null","","","test","","","","","","","","","","","","","","","","","","","",""
"309","","307165","SARL_v6gnqw5ox5","msl000051","freq","","","img/orange_2bandit_b2.png","70","","70","test","1","","","circle","square","31","30","6","2","1","","","","","","","","","",""
"null","","307662","SARL_v6gnqw5ox5","msl000051","freq_resp","","","img/orange_2bandit_b.png","70","img/orange_2bandit_b.png","70","test","","","","","","","","","2","","","","","","","","","","",""
"null","","307817","SARL_v6gnqw5ox5","msl000051","fixation","","","img/fixation.png","null","","","test","","","","","","","","","","","","","","","","","","","",""
"276","","308099","SARL_v6gnqw5ox5","msl000051","freq","","","img/orange_2bandit_b2.png","70","","70","test","1","","","circle","square","32","31","7","2","1","","","","","","","","","",""
"null","","308628","SARL_v6gnqw5ox5","msl000051","freq_resp","","","img/orange_2bandit_b.png","70","img/orange_2bandit_b.png","70","test","","","","","","","","","2","","","","","","","","","","",""
"null","","308784","SARL_v6gnqw5ox5","msl000051","fixation","","","img/fixation.png","null","","","test","","","","","","","","","","","","","","","","","","","",""
"368","","309159","SARL_v6gnqw5ox5","msl000051","freq","","","img/orange_2bandit_b2.png","70","","70","test","1","","","circle","square","33","32","8","2","1","","","","","","","","","",""
"null","","309596","SARL_v6gnqw5ox5","msl000051","freq_resp","","","img/orange_2bandit_b.png","70","img/orange_2bandit_b.png","70","test","","","","","","","","","2","","","","","","","","","","",""
"null","","309751","SARL_v6gnqw5ox5","msl000051","fixation","","","img/fixation.png","null","","","test","","","","","","","","","","","","","","","","","","","",""
"328","","310083","SARL_v6gnqw5ox5","msl000051","freq","","","img/orange_2bandit_b2.png","70","","70","test","1","","","circle","square","34","33","9","2","1","","","","","","","","","",""
"null","","310560","SARL_v6gnqw5ox5","msl000051","freq_resp","","","img/orange_2bandit_b.png","70","img/orange_2bandit_b.png","70","test","","","","","","","","","2","","","","","","","","","","",""
"null","","310714","SARL_v6gnqw5ox5","msl000051","fixation","","","img/fixation.png","null","","","test","","","","","","","","","","","","","","","","","","","",""
"301","","311021","SARL_v6gnqw5ox5","msl000051","freq","","","img/orange_2bandit_b2.png","70","","70","test","1","","","circle","square","35","34","10","2","1","","","","","","","","","",""
"null","","311525","SARL_v6gnqw5ox5","msl000051","freq_resp","","","img/orange_2bandit_b.png","70","img/orange_2bandit_b.png","70","test","","","","","","","","","2","","","","","","","","","","",""
"null","","311681","SARL_v6gnqw5ox5","msl000051","fixation","","","img/fixation.png","null","","","test","","","","","","","","","","","","","","","","","","","",""
"316","","312004","SARL_v6gnqw5ox5","msl000051","freq","","","img/orange_2bandit_b2.png","70","","70","test","1","","","circle","square","36","35","11","2","1","","","","","","","","","",""
"null","","312494","SARL_v6gnqw5ox5","msl000051","freq_resp","","","img/orange_2bandit_b.png","70","img/orange_2bandit_b.png","70","test","","","","","","","","","2","","","","","","","","","","",""
"null","","312650","SARL_v6gnqw5ox5","msl000051","fixation","","","img/fixation.png","null","","","test","","","","","","","","","","","","","","","","","","","",""
"311","","312965","SARL_v6gnqw5ox5","msl000051","freq","","","img/orange_2bandit_b2.png","70","","70","test","1","","","circle","square","37","36","12","2","1","","","","","","","","","",""
"null","","313461","SARL_v6gnqw5ox5","msl000051","freq_resp","","","img/orange_2bandit_b.png","70","img/orange_2bandit_b.png","70","test","","","","","","","","","2","","","","","","","","","","",""
"null","","313618","SARL_v6gnqw5ox5","msl000051","fixation","","","img/fixation.png","null","","","test","","","","","","","","","","","","","","","","","","","",""
"377","","314000","SARL_v6gnqw5ox5","msl000051","freq","","","img/orange_2bandit_b2.png","70","","70","test","1","","","circle","square","38","37","13","2","1","","","","","","","","","",""
"null","","314429","SARL_v6gnqw5ox5","msl000051","freq_resp","","","img/orange_2bandit_b.png","70","img/orange_2bandit_b.png","70","test","","","","","","","","","2","","","","","","","","","","",""
"null","","314586","SARL_v6gnqw5ox5","msl000051","fixation","","","img/fixation.png","null","","","test","","","","","","","","","","","","","","","","","","","",""
"364","","314954","SARL_v6gnqw5ox5","msl000051","freq","","","img/orange_2bandit_b2.png","70","","70","test","1","","","circle","square","39","38","14","2","1","","","","","","","","","",""
"null","","315395","SARL_v6gnqw5ox5","msl000051","freq_resp","","","img/orange_2bandit_b.png","70","img/orange_2bandit_b.png","70","test","","","","","","","","","2","","","","","","","","","","",""
"null","","315551","SARL_v6gnqw5ox5","msl000051","fixation","","","img/fixation.png","null","","","test","","","","","","","","","","","","","","","","","","","",""
"395","","315951","SARL_v6gnqw5ox5","msl000051","freq","","","img/orange_2bandit_b2.png","70","","70","test","1","","","circle","square","40","39","15","2","1","","","","","","","","","",""
"null","","316361","SARL_v6gnqw5ox5","msl000051","freq_resp","","","img/orange_2bandit_b.png","70","img/orange_2bandit_b.png","70","test","","","","","","","","","2","","","","","","","","","","",""
"null","","316516","SARL_v6gnqw5ox5","msl000051","fixation","","","img/fixation.png","null","","","test","","","","","","","","","","","","","","","","","","","",""
"334","","316855","SARL_v6gnqw5ox5","msl000051","freq","","","img/orange_2bandit_b2.png","70","","70","test","1","","","circle","square","41","40","16","2","1","","","","","","","","","",""
"null","","317326","SARL_v6gnqw5ox5","msl000051","freq_resp","","","img/orange_2bandit_b.png","70","img/orange_2bandit_b.png","70","test","","","","","","","","","2","","","","","","","","","","",""
"null","","317482","SARL_v6gnqw5ox5","msl000051","fixation","","","img/fixation.png","null","","","test","","","","","","","","","","","","","","","","","","","",""
"316","","317803","SARL_v6gnqw5ox5","msl000051","freq","","","img/orange_2bandit_b2.png","70","","70","test","1","","","circle","square","42","41","17","2","1","","","","","","","","","",""
"null","","318292","SARL_v6gnqw5ox5","msl000051","freq_resp","","","img/orange_2bandit_b.png","70","img/orange_2bandit_b.png","70","test","","","","","","","","","2","","","","","","","","","","",""
"null","","318447","SARL_v6gnqw5ox5","msl000051","fixation","","","img/fixation.png","null","","","test","","","","","","","","","","","","","","","","","","","",""
"130","","318581","SARL_v6gnqw5ox5","msl000051","freq","","","img/orange_2bandit_b2.png","70","","70","test","1","","","circle","square","43","42","18","2","1","","","","","","","","","",""
"null","","319257","SARL_v6gnqw5ox5","msl000051","freq_resp","","","img/orange_2bandit_b.png","70","img/orange_2bandit_b.png","70","test","","","","","","","","","2","","","","","","","","","","",""
"null","","319413","SARL_v6gnqw5ox5","msl000051","fixation","","","img/fixation.png","null","","","test","","","","","","","","","","","","","","","","","","","",""
"524","","319942","SARL_v6gnqw5ox5","msl000051","infreq","","","img/green_2bandit_b2.png","68","","68","test","1","","","circle","square","44","43","19","2","1","","","","","","","","","",""
"null","","320223","SARL_v6gnqw5ox5","msl000051","infreq_resp","","","img/green_2bandit_b.png","68","img/green_2bandit_b.png","68","test","","","","","","","","","2","","","","","","","","","","",""
"null","","320379","SARL_v6gnqw5ox5","msl000051","fixation","","","img/fixation.png","null","","","test","","","","","","","","","","","","","","","","","","","",""
"490","","320874","SARL_v6gnqw5ox5","msl000051","freq","","","img/orange_2bandit_b2.png","70","","70","test","1","","","circle","square","45","44","20","2","1","","","","","","","","","",""
"null","","321190","SARL_v6gnqw5ox5","msl000051","freq_resp","","","img/orange_2bandit_b.png","70","img/orange_2bandit_b.png","70","test","","","","","","","","","2","","","","","","","","","","",""
"null","","321344","SARL_v6gnqw5ox5","msl000051","fixation","","","img/fixation.png","null","","","test","","","","","","","","","","","","","","","","","","","",""
"514","","321861","SARL_v6gnqw5ox5","msl000051","freq","","","img/orange_2bandit_b2.png","70","","70","test","1","","","circle","square","46","45","21","2","1","","","","","","","","","",""
"null","","322153","SARL_v6gnqw5ox5","msl000051","freq_resp","","","img/orange_2bandit_b.png","70","img/orange_2bandit_b.png","70","test","","","","","","","","","2","","","","","","","","","","",""
"null","","322310","SARL_v6gnqw5ox5","msl000051","fixation","","","img/fixation.png","null","","","test","","","","","","","","","","","","","","","","","","","",""
"345","","322660","SARL_v6gnqw5ox5","msl000051","freq","","","img/orange_2bandit_b2.png","70","","70","test","1","","","circle","square","47","46","22","2","1","","","","","","","","","",""
"null","","323119","SARL_v6gnqw5ox5","msl000051","freq_resp","","","img/orange_2bandit_b.png","70","img/orange_2bandit_b.png","70","test","","","","","","","","","2","","","","","","","","","","",""
"null","","323275","SARL_v6gnqw5ox5","msl000051","fixation","","","img/fixation.png","null","","","test","","","","","","","","","","","","","","","","","","","",""
"374","","323654","SARL_v6gnqw5ox5","msl000051","freq","","","img/orange_2bandit_b2.png","70","","70","test","1","","","circle","square","48","47","23","2","1","","","","","","","","","",""
"null","","324086","SARL_v6gnqw5ox5","msl000051","freq_resp","","","img/orange_2bandit_b.png","70","img/orange_2bandit_b.png","70","test","","","","","","","","","2","","","","","","","","","","",""
"null","","324241","SARL_v6gnqw5ox5","msl000051","fixation","","","img/fixation.png","null","","","test","","","","","","","","","","","","","","","","","","","",""
"301","","324546","SARL_v6gnqw5ox5","msl000051","infreq","","","img/green_2bandit_b2.png","70","","68","test","0","","","circle","square","49","48","24","2","0.9791666666666666","","","","","","","","","",""
"null","","325052","SARL_v6gnqw5ox5","msl000051","infreq_resp","","","img/green_2bandit_b.png","70","img/green_2bandit_b.png","68","test","","","","","","","","","2","","","","","","","","","","",""
"null","","325209","SARL_v6gnqw5ox5","msl000051","fixation","","","img/fixation.png","null","","","test","","","","","","","","","","","","","","","","","","","",""
"65","","325279","SARL_v6gnqw5ox5","msl000051","freq","","","img/orange_2bandit_b2.png","68","","70","test","0","","","circle","square","50","49","25","2","0.9591836734693877","","","","","","","","","",""
"null","","326020","SARL_v6gnqw5ox5","msl000051","freq_resp","","","img/orange_2bandit_b.png","68","img/orange_2bandit_b.png","70","test","","","","","","","","","2","","","","","","","","","","",""
"null","","326177","SARL_v6gnqw5ox5","msl000051","fixation","","","img/fixation.png","null","","","test","","","","","","","","","","","","","","","","","","","",""
"560","","326742","SARL_v6gnqw5ox5","msl000051","freq","","","img/orange_2bandit_b2.png","70","","70","test","1","","","circle","square","51","50","26","2","0.96","","","","","","","","","",""
"null","","326987","SARL_v6gnqw5ox5","msl000051","freq_resp","","","img/orange_2bandit_b.png","70","img/orange_2bandit_b.png","70","test","","","","","","","","","2","","","","","","","","","","",""
"null","","327144","SARL_v6gnqw5ox5","msl000051","fixation","","","img/fixation.png","null","","","test","","","","","","","","","","","","","","","","","","","",""
"685","","327834","SARL_v6gnqw5ox5","msl000051","rl","","","img/black_2bandit_b2.png","74","","0","test","","","1","circle","square","52","","0","2","","74","0.8","0.2","0.7991699727788012","0.8","0.2","0.8","circle","2","0"
"null","","328591","SARL_v6gnqw5ox5","msl000051","feedback","","","img/yay_L_b.png","null","","na","test","","","","","","","","","2","","74","0.8","0.2","","","","0.8","","2",""
"553","","329148","SARL_v6gnqw5ox5","msl000051","freq","","","img/orange_2bandit_b2.png","70","","70","test","1","","","circle","square","53","51","1","3","0.9607843137254902","","","","","","","","","",""
"null","","329402","SARL_v6gnqw5ox5","msl000051","freq_resp","","","img/orange_2bandit_b.png","70","img/orange_2bandit_b.png","70","test","","","","","","","","","3","","","","","","","","","","",""
"null","","329556","SARL_v6gnqw5ox5","msl000051","fixation","","","img/fixation.png","null","","","test","","","","","","","","","","","","","","","","","","","",""
"380","","329941","SARL_v6gnqw5ox5","msl000051","freq","","","img/orange_2bandit_b2.png","70","","70","test","1","","","circle","square","54","52","2","3","0.9615384615384616","","","","","","","","","",""
"null","","330366","SARL_v6gnqw5ox5","msl000051","freq_resp","","","img/orange_2bandit_b.png","70","img/orange_2bandit_b.png","70","test","","","","","","","","","3","","","","","","","","","","",""
"null","","330522","SARL_v6gnqw5ox5","msl000051","fixation","","","img/fixation.png","null","","","test","","","","","","","","","","","","","","","","","","","",""
"444","","330970","SARL_v6gnqw5ox5","msl000051","freq","","","img/orange_2bandit_b2.png","70","","70","test","1","","","circle","square","55","53","3","3","0.9622641509433962","","","","","","","","","",""
"null","","331332","SARL_v6gnqw5ox5","msl000051","freq_resp","","","img/orange_2bandit_b.png","70","img/orange_2bandit_b.png","70","test","","","","","","","","","3","","","","","","","","","","",""
"null","","331489","SARL_v6gnqw5ox5","msl000051","fixation","","","img/fixation.png","null","","","test","","","","","","","","","","","","","","","","","","","",""
"313","","331807","SARL_v6gnqw5ox5","msl000051","freq","","","img/orange_2bandit_b2.png","70","","70","test","1","","","circle","square","56","54","4","3","0.9629629629629629","","","","","","","","","",""
"null","","332300","SARL_v6gnqw5ox5","msl000051","freq_resp","","","img/orange_2bandit_b.png","70","img/orange_2bandit_b.png","70","test","","","","","","","","","3","","","","","","","","","","",""
"null","","332457","SARL_v6gnqw5ox5","msl000051","fixation","","","img/fixation.png","null","","","test","","","","","","","","","","","","","","","","","","","",""
"370","","332833","SARL_v6gnqw5ox5","msl000051","freq","","","img/orange_2bandit_b2.png","70","","70","test","1","","","circle","square","57","55","5","3","0.9636363636363636","","","","","","","","","",""
"null","","333268","SARL_v6gnqw5ox5","msl000051","freq_resp","","","img/orange_2bandit_b.png","70","img/orange_2bandit_b.png","70","test","","","","","","","","","3","","","","","","","","","","",""
"null","","333425","SARL_v6gnqw5ox5","msl000051","fixation","","","img/fixation.png","null","","","test","","","","","","","","","","","","","","","","","","","",""
"349","","333779","SARL_v6gnqw5ox5","msl000051","freq","","","img/orange_2bandit_b2.png","70","","70","test","1","","","circle","square","58","56","6","3","0.9642857142857143","","","","","","","","","",""
"null","","334236","SARL_v6gnqw5ox5","msl000051","freq_resp","","","img/orange_2bandit_b.png","70","img/orange_2bandit_b.png","70","test","","","","","","","","","3","","","","","","","","","","",""
"null","","334392","SARL_v6gnqw5ox5","msl000051","fixation","","","img/fixation.png","null","","","test","","","","","","","","","","","","","","","","","","","",""
"361","","334760","SARL_v6gnqw5ox5","msl000051","freq","","","img/orange_2bandit_b2.png","70","","70","test","1","","","circle","square","59","57","7","3","0.9649122807017544","","","","","","","","","",""
"null","","335204","SARL_v6gnqw5ox5","msl000051","freq_resp","","","img/orange_2bandit_b.png","70","img/orange_2bandit_b.png","70","test","","","","","","","","","3","","","","","","","","","","",""
"null","","335360","SARL_v6gnqw5ox5","msl000051","fixation","","","img/fixation.png","null","","","test","","","","","","","","","","","","","","","","","","","",""
"348","","335712","SARL_v6gnqw5ox5","msl000051","freq","","","img/orange_2bandit_b2.png","70","","70","test","1","","","circle","square","60","58","8","3","0.9655172413793104","","","","","","","","","",""
"null","","336170","SARL_v6gnqw5ox5","msl000051","freq_resp","","","img/orange_2bandit_b.png","70","img/orange_2bandit_b.png","70","test","","","","","","","","","3","","","","","","","","","","",""
"null","","336326","SARL_v6gnqw5ox5","msl000051","fixation","","","img/fixation.png","null","","","test","","","","","","","","","","","","","","","","","","","",""
"353","","336683","SARL_v6gnqw5ox5","msl000051","freq","","","img/orange_2bandit_b2.png","70","","70","test","1","","","circle","square","61","59","9","3","0.9661016949152542","","","","","","","","","",""
"null","","337136","SARL_v6gnqw5ox5","msl000051","freq_resp","","","img/orange_2bandit_b.png","70","img/orange_2bandit_b.png","70","test","","","","","","","","","3","","","","","","","","","","",""
"null","","337292","SARL_v6gnqw5ox5","msl000051","fixation","","","img/fixation.png","null","","","test","","","","","","","","","","","","","","","","","","","",""
"214","","337510","SARL_v6gnqw5ox5","msl000051","freq","","","img/orange_2bandit_b2.png","70","","70","test","1","","","circle","square","62","60","10","3","0.9666666666666667","","","","","","","","","",""
"null","","338101","SARL_v6gnqw5ox5","msl000051","freq_resp","","","img/orange_2bandit_b.png","70","img/orange_2bandit_b.png","70","test","","","","","","","","","3","","","","","","","","","","",""
"null","","338257","SARL_v6gnqw5ox5","msl000051","fixation","","","img/fixation.png","null","","","test","","","","","","","","","","","","","","","","","","","",""
"265","","338528","SARL_v6gnqw5ox5","msl000051","freq","","","img/orange_2bandit_b2.png","70","","70","test","1","","","circle","square","63","61","11","3","0.9672131147540983","","","","","","","","","",""
"null","","339069","SARL_v6gnqw5ox5","msl000051","freq_resp","","","img/orange_2bandit_b.png","70","img/orange_2bandit_b.png","70","test","","","","","","","","","3","","","","","","","","","","",""
"null","","339224","SARL_v6gnqw5ox5","msl000051","fixation","","","img/fixation.png","null","","","test","","","","","","","","","","","","","","","","","","","",""
"209","","339438","SARL_v6gnqw5ox5","msl000051","infreq","","","img/green_2bandit_b2.png","70","","68","test","0","","","circle","square","64","62","12","3","0.9516129032258065","","","","","","","","","",""
"null","","340035","SARL_v6gnqw5ox5","msl000051","infreq_resp","","","img/green_2bandit_b.png","70","img/green_2bandit_b.png","68","test","","","","","","","","","3","","","","","","","","","","",""
"null","","340191","SARL_v6gnqw5ox5","msl000051","fixation","","","img/fixation.png","null","","","test","","","","","","","","","","","","","","","","","","","",""
"421","","340618","SARL_v6gnqw5ox5","msl000051","freq","","","img/orange_2bandit_b2.png","70","","70","test","1","","","circle","square","65","63","13","3","0.9523809523809523","","","","","","","","","",""
"null","","341003","SARL_v6gnqw5ox5","msl000051","freq_resp","","","img/orange_2bandit_b.png","70","img/orange_2bandit_b.png","70","test","","","","","","","","","3","","","","","","","","","","",""
"null","","341158","SARL_v6gnqw5ox5","msl000051","fixation","","","img/fixation.png","null","","","test","","","","","","","","","","","","","","","","","","","",""
"363","","341528","SARL_v6gnqw5ox5","msl000051","freq","","","img/orange_2bandit_b2.png","70","","70","test","1","","","circle","square","66","64","14","3","0.953125","","","","","","","","","",""
"null","","341971","SARL_v6gnqw5ox5","msl000051","freq_resp","","","img/orange_2bandit_b.png","70","img/orange_2bandit_b.png","70","test","","","","","","","","","3","","","","","","","","","","",""
"null","","342126","SARL_v6gnqw5ox5","msl000051","fixation","","","img/fixation.png","null","","","test","","","","","","","","","","","","","","","","","","","",""
"298","","342428","SARL_v6gnqw5ox5","msl000051","freq","","","img/orange_2bandit_b2.png","70","","70","test","1","","","circle","square","67","65","15","3","0.9538461538461539","","","","","","","","","",""
"null","","342936","SARL_v6gnqw5ox5","msl000051","freq_resp","","","img/orange_2bandit_b.png","70","img/orange_2bandit_b.png","70","test","","","","","","","","","3","","","","","","","","","","",""
"null","","343091","SARL_v6gnqw5ox5","msl000051","fixation","","","img/fixation.png","null","","","test","","","","","","","","","","","","","","","","","","","",""
"328","","343423","SARL_v6gnqw5ox5","msl000051","freq","","","img/orange_2bandit_b2.png","70","","70","test","1","","","circle","square","68","66","16","3","0.9545454545454546","","","","","","","","","",""
"null","","343901","SARL_v6gnqw5ox5","msl000051","freq_resp","","","img/orange_2bandit_b.png","70","img/orange_2bandit_b.png","70","test","","","","","","","","","3","","","","","","","","","","",""
"null","","344055","SARL_v6gnqw5ox5","msl000051","fixation","","","img/fixation.png","null","","","test","","","","","","","","","","","","","","","","","","","",""
"292","","344352","SARL_v6gnqw5ox5","msl000051","freq","","","img/orange_2bandit_b2.png","70","","70","test","1","","","circle","square","69","67","17","3","0.9552238805970149","","","","","","","","","",""
"null","","344867","SARL_v6gnqw5ox5","msl000051","freq_resp","","","img/orange_2bandit_b.png","70","img/orange_2bandit_b.png","70","test","","","","","","","","","3","","","","","","","","","","",""
"null","","345021","SARL_v6gnqw5ox5","msl000051","fixation","","","img/fixation.png","null","","","test","","","","","","","","","","","","","","","","","","","",""
"298","","345324","SARL_v6gnqw5ox5","msl000051","infreq","","","img/green_2bandit_b2.png","70","","68","test","0","","","circle","square","70","68","18","3","0.9411764705882353","","","","","","","","","",""
"null","","345831","SARL_v6gnqw5ox5","msl000051","infreq_resp","","","img/green_2bandit_b.png","70","img/green_2bandit_b.png","68","test","","","","","","","","","3","","","","","","","","","","",""
"null","","345987","SARL_v6gnqw5ox5","msl000051","fixation","","","img/fixation.png","null","","","test","","","","","","","","","","","","","","","","","","","",""
"390","","346382","SARL_v6gnqw5ox5","msl000051","freq","","","img/orange_2bandit_b2.png","70","","70","test","1","","","circle","square","71","69","19","3","0.9420289855072463","","","","","","","","","",""
"null","","346798","SARL_v6gnqw5ox5","msl000051","freq_resp","","","img/orange_2bandit_b.png","70","img/orange_2bandit_b.png","70","test","","","","","","","","","3","","","","","","","","","","",""
"null","","346953","SARL_v6gnqw5ox5","msl000051","fixation","","","img/fixation.png","null","","","test","","","","","","","","","","","","","","","","","","","",""
"363","","347321","SARL_v6gnqw5ox5","msl000051","freq","","","img/orange_2bandit_b2.png","70","","70","test","1","","","circle","square","72","70","20","3","0.9428571428571428","","","","","","","","","",""
"null","","347764","SARL_v6gnqw5ox5","msl000051","freq_resp","","","img/orange_2bandit_b.png","70","img/orange_2bandit_b.png","70","test","","","","","","","","","3","","","","","","","","","","",""
"null","","347920","SARL_v6gnqw5ox5","msl000051","fixation","","","img/fixation.png","null","","","test","","","","","","","","","","","","","","","","","","","",""
"545","","348470","SARL_v6gnqw5ox5","msl000051","freq","","","img/orange_2bandit_b2.png","70","","70","test","1","","","circle","square","73","71","21","3","0.9436619718309859","","","","","","","","","",""
"null","","348731","SARL_v6gnqw5ox5","msl000051","freq_resp","","","img/orange_2bandit_b.png","70","img/orange_2bandit_b.png","70","test","","","","","","","","","3","","","","","","","","","","",""
"null","","348887","SARL_v6gnqw5ox5","msl000051","fixation","","","img/fixation.png","null","","","test","","","","","","","","","","","","","","","","","","","",""
"466","","349357","SARL_v6gnqw5ox5","msl000051","freq","","","img/orange_2bandit_b2.png","70","","70","test","1","","","circle","square","74","72","22","3","0.9444444444444444","","","","","","","","","",""
"null","","349697","SARL_v6gnqw5ox5","msl000051","freq_resp","","","img/orange_2bandit_b.png","70","img/orange_2bandit_b.png","70","test","","","","","","","","","3","","","","","","","","","","",""
"null","","349851","SARL_v6gnqw5ox5","msl000051","fixation","","","img/fixation.png","null","","","test","","","","","","","","","","","","","","","","","","","",""
"427","","350283","SARL_v6gnqw5ox5","msl000051","freq","","","img/orange_2bandit_b2.png","70","","70","test","1","","","circle","square","75","73","23","3","0.9452054794520548","","","","","","","","","",""
"null","","350663","SARL_v6gnqw5ox5","msl000051","freq_resp","","","img/orange_2bandit_b.png","70","img/orange_2bandit_b.png","70","test","","","","","","","","","3","","","","","","","","","","",""
"null","","350817","SARL_v6gnqw5ox5","msl000051","fixation","","","img/fixation.png","null","","","test","","","","","","","","","","","","","","","","","","","",""
"378","","351201","SARL_v6gnqw5ox5","msl000051","freq","","","img/orange_2bandit_b2.png","70","","70","test","1","","","circle","square","76","74","24","3","0.9459459459459459","","","","","","","","","",""
"null","","351629","SARL_v6gnqw5ox5","msl000051","freq_resp","","","img/orange_2bandit_b.png","70","img/orange_2bandit_b.png","70","test","","","","","","","","","3","","","","","","","","","","",""
"null","","351784","SARL_v6gnqw5ox5","msl000051","fixation","","","img/fixation.png","null","","","test","","","","","","","","","","","","","","","","","","","",""
"505","","352295","SARL_v6gnqw5ox5","msl000051","infreq","","","img/green_2bandit_b2.png","68","","68","test","1","","","circle","square","77","75","25","3","0.9466666666666667","","","","","","","","","",""
"null","","352597","SARL_v6gnqw5ox5","msl000051","infreq_resp","","","img/green_2bandit_b.png","68","img/green_2bandit_b.png","68","test","","","","","","","","","3","","","","","","","","","","",""
"null","","352753","SARL_v6gnqw5ox5","msl000051","fixation","","","img/fixation.png","null","","","test","","","","","","","","","","","","","","","","","","","",""
"524","","353282","SARL_v6gnqw5ox5","msl000051","freq","","","img/orange_2bandit_b2.png","70","","70","test","1","","","circle","square","78","76","26","3","0.9473684210526315","","","","","","","","","",""
"null","","353565","SARL_v6gnqw5ox5","msl000051","freq_resp","","","img/orange_2bandit_b.png","70","img/orange_2bandit_b.png","70","test","","","","","","","","","3","","","","","","","","","","",""
"null","","353721","SARL_v6gnqw5ox5","msl000051","fixation","","","img/fixation.png","null","","","test","","","","","","","","","","","","","","","","","","","",""
"355","","354081","SARL_v6gnqw5ox5","msl000051","freq","","","img/orange_2bandit_b2.png","70","","70","test","1","","","circle","square","79","77","27","3","0.948051948051948","","","","","","","","","",""
"null","","354532","SARL_v6gnqw5ox5","msl000051","freq_resp","","","img/orange_2bandit_b.png","70","img/orange_2bandit_b.png","70","test","","","","","","","","","3","","","","","","","","","","",""
"null","","354688","SARL_v6gnqw5ox5","msl000051","fixation","","","img/fixation.png","null","","","test","","","","","","","","","","","","","","","","","","","",""
"773","","355466","SARL_v6gnqw5ox5","msl000051","rl","","","img/black_2bandit_b2.png","74","","0","test","","","1","circle","square","80","","0","3","","74","0.8","0.2","0.7876306278918459","0.8","0.2","0.8","circle","3","0"
"null","","356223","SARL_v6gnqw5ox5","msl000051","feedback","","","img/yay_L_b.png","null","","na","test","","","","","","","","","3","","74","0.8","0.2","","","","0.8","","3",""
"568","","356795","SARL_v6gnqw5ox5","msl000051","freq","","","img/orange_2bandit_b2.png","70","","70","test","1","","","circle","square","81","78","1","4","0.9487179487179487","","","","","","","","","",""
"null","","357033","SARL_v6gnqw5ox5","msl000051","freq_resp","","","img/orange_2bandit_b.png","70","img/orange_2bandit_b.png","70","test","","","","","","","","","4","","","","","","","","","","",""
"null","","357188","SARL_v6gnqw5ox5","msl000051","fixation","","","img/fixation.png","null","","","test","","","","","","","","","","","","","","","","","","","",""
"406","","357600","SARL_v6gnqw5ox5","msl000051","freq","","","img/orange_2bandit_b2.png","70","","70","test","1","","","circle","square","82","79","2","4","0.9493670886075949","","","","","","","","","",""
"null","","357999","SARL_v6gnqw5ox5","msl000051","freq_resp","","","img/orange_2bandit_b.png","70","img/orange_2bandit_b.png","70","test","","","","","","","","","4","","","","","","","","","","",""
"null","","358155","SARL_v6gnqw5ox5","msl000051","fixation","","","img/fixation.png","null","","","test","","","","","","","","","","","","","","","","","","","",""
"362","","358521","SARL_v6gnqw5ox5","msl000051","freq","","","img/orange_2bandit_b2.png","70","","70","test","1","","","circle","square","83","80","3","4","0.95","","","","","","","","","",""
"null","","358965","SARL_v6gnqw5ox5","msl000051","freq_resp","","","img/orange_2bandit_b.png","70","img/orange_2bandit_b.png","70","test","","","","","","","","","4","","","","","","","","","","",""
"null","","359121","SARL_v6gnqw5ox5","msl000051","fixation","","","img/fixation.png","null","","","test","","","","","","","","","","","","","","","","","","","",""
"379","","359506","SARL_v6gnqw5ox5","msl000051","freq","","","img/orange_2bandit_b2.png","70","","70","test","1","","","circle","square","84","81","4","4","0.9506172839506173","","","","","","","","","",""
"null","","359933","SARL_v6gnqw5ox5","msl000051","freq_resp","","","img/orange_2bandit_b.png","70","img/orange_2bandit_b.png","70","test","","","","","","","","","4","","","","","","","","","","",""
"null","","360088","SARL_v6gnqw5ox5","msl000051","fixation","","","img/fixation.png","null","","","test","","","","","","","","","","","","","","","","","","","",""
"395","","360487","SARL_v6gnqw5ox5","msl000051","infreq","","","img/green_2bandit_b2.png","68","","68","test","1","","","circle","square","85","82","5","4","0.9512195121951219","","","","","","","","","",""
"null","","360899","SARL_v6gnqw5ox5","msl000051","infreq_resp","","","img/green_2bandit_b.png","68","img/green_2bandit_b.png","68","test","","","","","","","","","4","","","","","","","","","","",""
"null","","361054","SARL_v6gnqw5ox5","msl000051","fixation","","","img/fixation.png","null","","","test","","","","","","","","","","","","","","","","","","","",""
"352","","361411","SARL_v6gnqw5ox5","msl000051","freq","","","img/orange_2bandit_b2.png","70","","70","test","1","","","circle","square","86","83","6","4","0.9518072289156626","","","","","","","","","",""
"null","","361865","SARL_v6gnqw5ox5","msl000051","freq_resp","","","img/orange_2bandit_b.png","70","img/orange_2bandit_b.png","70","test","","","","","","","","","4","","","","","","","","","","",""
"null","","362021","SARL_v6gnqw5ox5","msl000051","fixation","","","img/fixation.png","null","","","test","","","","","","","","","","","","","","","","","","","",""
"349","","362374","SARL_v6gnqw5ox5","msl000051","freq","","","img/orange_2bandit_b2.png","70","","70","test","1","","","circle","square","87","84","7","4","0.9523809523809523","","","","","","","","","",""
"null","","362831","SARL_v6gnqw5ox5","msl000051","freq_resp","","","img/orange_2bandit_b.png","70","img/orange_2bandit_b.png","70","test","","","","","","","","","4","","","","","","","","","","",""
"null","","362988","SARL_v6gnqw5ox5","msl000051","fixation","","","img/fixation.png","null","","","test","","","","","","","","","","","","","","","","","","","",""
"266","","363259","SARL_v6gnqw5ox5","msl000051","freq","","","img/orange_2bandit_b2.png","70","","70","test","1","","","circle","square","88","85","8","4","0.9529411764705882","","","","","","","","","",""
"null","","363799","SARL_v6gnqw5ox5","msl000051","freq_resp","","","img/orange_2bandit_b.png","70","img/orange_2bandit_b.png","70","test","","","","","","","","","4","","","","","","","","","","",""
"null","","363954","SARL_v6gnqw5ox5","msl000051","fixation","","","img/fixation.png","null","","","test","","","","","","","","","","","","","","","","","","","",""
"317","","364277","SARL_v6gnqw5ox5","msl000051","freq","","","img/orange_2bandit_b2.png","70","","70","test","1","","","circle","square","89","86","9","4","0.9534883720930233","","","","","","","","","",""
"null","","364766","SARL_v6gnqw5ox5","msl000051","freq_resp","","","img/orange_2bandit_b.png","70","img/orange_2bandit_b.png","70","test","","","","","","","","","4","","","","","","","","","","",""
"null","","364921","SARL_v6gnqw5ox5","msl000051","fixation","","","img/fixation.png","null","","","test","","","","","","","","","","","","","","","","","","","",""
"400","","365326","SARL_v6gnqw5ox5","msl000051","freq","","","img/orange_2bandit_b2.png","70","","70","test","1","","","circle","square","90","87","10","4","0.9540229885057471","","","","","","","","","",""
"null","","365731","SARL_v6gnqw5ox5","msl000051","freq_resp","","","img/orange_2bandit_b.png","70","img/orange_2bandit_b.png","70","test","","","","","","","","","4","","","","","","","","","","",""
"null","","365886","SARL_v6gnqw5ox5","msl000051","fixation","","","img/fixation.png","null","","","test","","","","","","","","","","","","","","","","","","","",""
"402","","366293","SARL_v6gnqw5ox5","msl000051","freq","","","img/orange_2bandit_b2.png","70","","70","test","1","","","circle","square","91","88","11","4","0.9545454545454546","","","","","","","","","",""
"null","","366698","SARL_v6gnqw5ox5","msl000051","freq_resp","","","img/orange_2bandit_b.png","70","img/orange_2bandit_b.png","70","test","","","","","","","","","4","","","","","","","","","","",""
"null","","366853","SARL_v6gnqw5ox5","msl000051","fixation","","","img/fixation.png","null","","","test","","","","","","","","","","","","","","","","","","","",""
"349","","367207","SARL_v6gnqw5ox5","msl000051","freq","","","img/orange_2bandit_b2.png","70","","70","test","1","","","circle","square","92","89","12","4","0.9550561797752809","","","","","","","","","",""
"null","","367664","SARL_v6gnqw5ox5","msl000051","freq_resp","","","img/orange_2bandit_b.png","70","img/orange_2bandit_b.png","70","test","","","","","","","","","4","","","","","","","","","","",""
"null","","367819","SARL_v6gnqw5ox5","msl000051","fixation","","","img/fixation.png","null","","","test","","","","","","","","","","","","","","","","","","","",""
"385","","368210","SARL_v6gnqw5ox5","msl000051","freq","","","img/orange_2bandit_b2.png","70","","70","test","1","","","circle","square","93","90","13","4","0.9555555555555556","","","","","","","","","",""
"null","","368630","SARL_v6gnqw5ox5","msl000051","freq_resp","","","img/orange_2bandit_b.png","70","img/orange_2bandit_b.png","70","test","","","","","","","","","4","","","","","","","","","","",""
"null","","368785","SARL_v6gnqw5ox5","msl000051","fixation","","","img/fixation.png","null","","","test","","","","","","","","","","","","","","","","","","","",""
"339","","369128","SARL_v6gnqw5ox5","msl000051","freq","","","img/orange_2bandit_b2.png","70","","70","test","1","","","circle","square","94","91","14","4","0.9560439560439561","","","","","","","","","",""
"null","","369595","SARL_v6gnqw5ox5","msl000051","freq_resp","","","img/orange_2bandit_b.png","70","img/orange_2bandit_b.png","70","test","","","","","","","","","4","","","","","","","","","","",""
"null","","369750","SARL_v6gnqw5ox5","msl000051","fixation","","","img/fixation.png","null","","","test","","","","","","","","","","","","","","","","","","","",""
"468","","370223","SARL_v6gnqw5ox5","msl000051","infreq","","","img/green_2bandit_b2.png","68","","68","test","1","","","circle","square","95","92","15","4","0.9565217391304348","","","","","","","","","",""
"null","","370560","SARL_v6gnqw5ox5","msl000051","infreq_resp","","","img/green_2bandit_b.png","68","img/green_2bandit_b.png","68","test","","","","","","","","","4","","","","","","","","","","",""
"null","","370716","SARL_v6gnqw5ox5","msl000051","fixation","","","img/fixation.png","null","","","test","","","","","","","","","","","","","","","","","","","",""
"349","","371070","SARL_v6gnqw5ox5","msl000051","freq","","","img/orange_2bandit_b2.png","70","","70","test","1","","","circle","square","96","93","16","4","0.956989247311828","","","","","","","","","",""
"null","","371527","SARL_v6gnqw5ox5","msl000051","freq_resp","","","img/orange_2bandit_b.png","70","img/orange_2bandit_b.png","70","test","","","","","","","","","4","","","","","","","","","","",""
"null","","371683","SARL_v6gnqw5ox5","msl000051","fixation","","","img/fixation.png","null","","","test","","","","","","","","","","","","","","","","","","","",""
"331","","372019","SARL_v6gnqw5ox5","msl000051","freq","","","img/orange_2bandit_b2.png","70","","70","test","1","","","circle","square","97","94","17","4","0.9574468085106383","","","","","","","","","",""
"null","","372494","SARL_v6gnqw5ox5","msl000051","freq_resp","","","img/orange_2bandit_b.png","70","img/orange_2bandit_b.png","70","test","","","","","","","","","4","","","","","","","","","","",""
"null","","372650","SARL_v6gnqw5ox5","msl000051","fixation","","","img/fixation.png","null","","","test","","","","","","","","","","","","","","","","","","","",""
"343","","372998","SARL_v6gnqw5ox5","msl000051","freq","","","img/orange_2bandit_b2.png","70","","70","test","1","","","circle","square","98","95","18","4","0.9578947368421052","","","","","","","","","",""
"null","","373461","SARL_v6gnqw5ox5","msl000051","freq_resp","","","img/orange_2bandit_b.png","70","img/orange_2bandit_b.png","70","test","","","","","","","","","4","","","","","","","","","","",""
"null","","373617","SARL_v6gnqw5ox5","msl000051","fixation","","","img/fixation.png","null","","","test","","","","","","","","","","","","","","","","","","","",""
"325","","373946","SARL_v6gnqw5ox5","msl000051","freq","","","img/orange_2bandit_b2.png","70","","70","test","1","","","circle","square","99","96","19","4","0.9583333333333334","","","","","","","","","",""
"null","","374427","SARL_v6gnqw5ox5","msl000051","freq_resp","","","img/orange_2bandit_b.png","70","img/orange_2bandit_b.png","70","test","","","","","","","","","4","","","","","","","","","","",""
"null","","374584","SARL_v6gnqw5ox5","msl000051","fixation","","","img/fixation.png","null","","","test","","","","","","","","","","","","","","","","","","","",""
"387","","374976","SARL_v6gnqw5ox5","msl000051","freq","","","img/orange_2bandit_b2.png","70","","70","test","1","","","circle","square","100","97","20","4","0.9587628865979382","","","","","","","","","",""
"null","","375394","SARL_v6gnqw5ox5","msl000051","freq_resp","","","img/orange_2bandit_b.png","70","img/orange_2bandit_b.png","70","test","","","","","","","","","4","","","","","","","","","","",""
"null","","375551","SARL_v6gnqw5ox5","msl000051","fixation","","","img/fixation.png","null","","","test","","","","","","","","","","","","","","","","","","","",""
"323","","375880","SARL_v6gnqw5ox5","msl000051","freq","","","img/orange_2bandit_b2.png","70","","70","test","1","","","circle","square","101","98","21","4","0.9591836734693877","","","","","","","","","",""
"null","","376361","SARL_v6gnqw5ox5","msl000051","freq_resp","","","img/orange_2bandit_b.png","70","img/orange_2bandit_b.png","70","test","","","","","","","","","4","","","","","","","","","","",""
"null","","376518","SARL_v6gnqw5ox5","msl000051","fixation","","","img/fixation.png","null","","","test","","","","","","","","","","","","","","","","","","","",""
"306","","376829","SARL_v6gnqw5ox5","msl000051","freq","","","img/orange_2bandit_b2.png","70","","70","test","1","","","circle","square","102","99","22","4","0.9595959595959596","","","","","","","","","",""
"null","","377327","SARL_v6gnqw5ox5","msl000051","freq_resp","","","img/orange_2bandit_b.png","70","img/orange_2bandit_b.png","70","test","","","","","","","","","4","","","","","","","","","","",""
"null","","377483","SARL_v6gnqw5ox5","msl000051","fixation","","","img/fixation.png","null","","","test","","","","","","","","","","","","","","","","","","","",""
"382","","377869","SARL_v6gnqw5ox5","msl000051","freq","","","img/orange_2bandit_b2.png","70","","70","test","1","","","circle","square","103","100","23","4","0.96","","","","","","","","","",""
"null","","378293","SARL_v6gnqw5ox5","msl000051","freq_resp","","","img/orange_2bandit_b.png","70","img/orange_2bandit_b.png","70","test","","","","","","","","","4","","","","","","","","","","",""
"null","","378450","SARL_v6gnqw5ox5","msl000051","fixation","","","img/fixation.png","null","","","test","","","","","","","","","","","","","","","","","","","",""
"344","","378798","SARL_v6gnqw5ox5","msl000051","freq","","","img/orange_2bandit_b2.png","70","","70","test","1","","","circle","square","104","101","24","4","0.9603960396039604","","","","","","","","","",""
"null","","379260","SARL_v6gnqw5ox5","msl000051","freq_resp","","","img/orange_2bandit_b.png","70","img/orange_2bandit_b.png","70","test","","","","","","","","","4","","","","","","","","","","",""
"null","","379416","SARL_v6gnqw5ox5","msl000051","fixation","","","img/fixation.png","null","","","test","","","","","","","","","","","","","","","","","","","",""
"316","","379737","SARL_v6gnqw5ox5","msl000051","freq","","","img/orange_2bandit_b2.png","70","","70","test","1","","","circle","square","105","102","25","4","0.9607843137254902","","","","","","","","","",""
"null","","380228","SARL_v6gnqw5ox5","msl000051","freq_resp","","","img/orange_2bandit_b.png","70","img/orange_2bandit_b.png","70","test","","","","","","","","","4","","","","","","","","","","",""
"null","","380383","SARL_v6gnqw5ox5","msl000051","fixation","","","img/fixation.png","null","","","test","","","","","","","","","","","","","","","","","","","",""
"413","","380801","SARL_v6gnqw5ox5","msl000051","freq","","","img/orange_2bandit_b2.png","70","","70","test","1","","","circle","square","106","103","26","4","0.9611650485436893","","","","","","","","","",""
"null","","381194","SARL_v6gnqw5ox5","msl000051","freq_resp","","","img/orange_2bandit_b.png","70","img/orange_2bandit_b.png","70","test","","","","","","","","","4","","","","","","","","","","",""
"null","","381350","SARL_v6gnqw5ox5","msl000051","fixation","","","img/fixation.png","null","","","test","","","","","","","","","","","","","","","","","","","",""
"423","","381779","SARL_v6gnqw5ox5","msl000051","freq","","","img/orange_2bandit_b2.png","70","","70","test","1","","","circle","square","107","104","27","4","0.9615384615384616","","","","","","","","","",""
"null","","382163","SARL_v6gnqw5ox5","msl000051","freq_resp","","","img/orange_2bandit_b.png","70","img/orange_2bandit_b.png","70","test","","","","","","","","","4","","","","","","","","","","",""
"null","","382318","SARL_v6gnqw5ox5","msl000051","fixation","","","img/fixation.png","null","","","test","","","","","","","","","","","","","","","","","","","",""
"352","","382674","SARL_v6gnqw5ox5","msl000051","freq","","","img/orange_2bandit_b2.png","70","","70","test","1","","","circle","square","108","105","28","4","0.9619047619047619","","","","","","","","","",""
"null","","383129","SARL_v6gnqw5ox5","msl000051","freq_resp","","","img/orange_2bandit_b.png","70","img/orange_2bandit_b.png","70","test","","","","","","","","","4","","","","","","","","","","",""
"null","","383284","SARL_v6gnqw5ox5","msl000051","fixation","","","img/fixation.png","null","","","test","","","","","","","","","","","","","","","","","","","",""
"342","","383631","SARL_v6gnqw5ox5","msl000051","freq","","","img/orange_2bandit_b2.png","70","","70","test","1","","","circle","square","109","106","29","4","0.9622641509433962","","","","","","","","","",""
"null","","384095","SARL_v6gnqw5ox5","msl000051","freq_resp","","","img/orange_2bandit_b.png","70","img/orange_2bandit_b.png","70","test","","","","","","","","","4","","","","","","","","","","",""
"null","","384251","SARL_v6gnqw5ox5","msl000051","fixation","","","img/fixation.png","null","","","test","","","","","","","","","","","","","","","","","","","",""
"640","","384895","SARL_v6gnqw5ox5","msl000051","rl","","","img/black_2bandit_b2.png","74","","0","test","","","1","circle","square","110","","0","4","","74","0.8","0.2","0.3570946921671797","0.8","0.2","0.8","circle","4","0"
"null","","385651","SARL_v6gnqw5ox5","msl000051","feedback","","","img/yay_L_b.png","null","","na","test","","","","","","","","","4","","74","0.8","0.2","","","","0.8","","4",""
"395","","386051","SARL_v6gnqw5ox5","msl000051","freq","","","img/orange_2bandit_b2.png","70","","70","test","1","","","circle","square","111","107","1","5","0.9626168224299065","","","","","","","","","",""
"null","","386462","SARL_v6gnqw5ox5","msl000051","freq_resp","","","img/orange_2bandit_b.png","70","img/orange_2bandit_b.png","70","test","","","","","","","","","5","","","","","","","","","","",""
"null","","386618","SARL_v6gnqw5ox5","msl000051","fixation","","","img/fixation.png","null","","","test","","","","","","","","","","","","","","","","","","","",""
"275","","386898","SARL_v6gnqw5ox5","msl000051","infreq","","","img/green_2bandit_b2.png","70","","68","test","0","","","circle","square","112","108","2","5","0.9537037037037037","","","","","","","","","",""
"null","","387428","SARL_v6gnqw5ox5","msl000051","infreq_resp","","","img/green_2bandit_b.png","70","img/green_2bandit_b.png","68","test","","","","","","","","","5","","","","","","","","","","",""
"null","","387584","SARL_v6gnqw5ox5","msl000051","fixation","","","img/fixation.png","null","","","test","","","","","","","","","","","","","","","","","","","",""
"379","","387967","SARL_v6gnqw5ox5","msl000051","freq","","","img/orange_2bandit_b2.png","70","","70","test","1","","","circle","square","113","109","3","5","0.9541284403669725","","","","","","","","","",""
"null","","388392","SARL_v6gnqw5ox5","msl000051","freq_resp","","","img/orange_2bandit_b.png","70","img/orange_2bandit_b.png","70","test","","","","","","","","","5","","","","","","","","","","",""
"null","","388548","SARL_v6gnqw5ox5","msl000051","fixation","","","img/fixation.png","null","","","test","","","","","","","","","","","","","","","","","","","",""
"328","","388881","SARL_v6gnqw5ox5","msl000051","freq","","","img/orange_2bandit_b2.png","70","","70","test","1","","","circle","square","114","110","4","5","0.9545454545454546","","","","","","","","","",""
"null","","389359","SARL_v6gnqw5ox5","msl000051","freq_resp","","","img/orange_2bandit_b.png","70","img/orange_2bandit_b.png","70","test","","","","","","","","","5","","","","","","","","","","",""
"null","","389514","SARL_v6gnqw5ox5","msl000051","fixation","","","img/fixation.png","null","","","test","","","","","","","","","","","","","","","","","","","",""
"329","","389848","SARL_v6gnqw5ox5","msl000051","freq","","","img/orange_2bandit_b2.png","70","","70","test","1","","","circle","square","115","111","5","5","0.954954954954955","","","","","","","","","",""
"null","","390325","SARL_v6gnqw5ox5","msl000051","freq_resp","","","img/orange_2bandit_b.png","70","img/orange_2bandit_b.png","70","test","","","","","","","","","5","","","","","","","","","","",""
"null","","390480","SARL_v6gnqw5ox5","msl000051","fixation","","","img/fixation.png","null","","","test","","","","","","","","","","","","","","","","","","","",""
"316","","390802","SARL_v6gnqw5ox5","msl000051","freq","","","img/orange_2bandit_b2.png","70","","70","test","1","","","circle","square","116","112","6","5","0.9553571428571429","","","","","","","","","",""
"null","","391293","SARL_v6gnqw5ox5","msl000051","freq_resp","","","img/orange_2bandit_b.png","70","img/orange_2bandit_b.png","70","test","","","","","","","","","5","","","","","","","","","","",""
"null","","391448","SARL_v6gnqw5ox5","msl000051","fixation","","","img/fixation.png","null","","","test","","","","","","","","","","","","","","","","","","","",""
"288","","391739","SARL_v6gnqw5ox5","msl000051","freq","","","img/orange_2bandit_b2.png","70","","70","test","1","","","circle","square","117","113","7","5","0.9557522123893806","","","","","","","","","",""
"null","","392257","SARL_v6gnqw5ox5","msl000051","freq_resp","","","img/orange_2bandit_b.png","70","img/orange_2bandit_b.png","70","test","","","","","","","","","5","","","","","","","","","","",""
"null","","392413","SARL_v6gnqw5ox5","msl000051","fixation","","","img/fixation.png","null","","","test","","","","","","","","","","","","","","","","","","","",""
"341","","392759","SARL_v6gnqw5ox5","msl000051","freq","","","img/orange_2bandit_b2.png","70","","70","test","1","","","circle","square","118","114","8","5","0.956140350877193","","","","","","","","","",""
"null","","393223","SARL_v6gnqw5ox5","msl000051","freq_resp","","","img/orange_2bandit_b.png","70","img/orange_2bandit_b.png","70","test","","","","","","","","","5","","","","","","","","","","",""
"null","","393379","SARL_v6gnqw5ox5","msl000051","fixation","","","img/fixation.png","null","","","test","","","","","","","","","","","","","","","","","","","",""
"372","","393757","SARL_v6gnqw5ox5","msl000051","freq","","","img/orange_2bandit_b2.png","70","","70","test","1","","","circle","square","119","115","9","5","0.9565217391304348","","","","","","","","","",""
"null","","394191","SARL_v6gnqw5ox5","msl000051","freq_resp","","","img/orange_2bandit_b.png","70","img/orange_2bandit_b.png","70","test","","","","","","","","","5","","","","","","","","","","",""
"null","","394346","SARL_v6gnqw5ox5","msl000051","fixation","","","img/fixation.png","null","","","test","","","","","","","","","","","","","","","","","","","",""
"516","","394867","SARL_v6gnqw5ox5","msl000051","freq","","","img/orange_2bandit_b2.png","70","","70","test","1","","","circle","square","120","116","10","5","0.9568965517241379","","","","","","","","","",""
"null","","395156","SARL_v6gnqw5ox5","msl000051","freq_resp","","","img/orange_2bandit_b.png","70","img/orange_2bandit_b.png","70","test","","","","","","","","","5","","","","","","","","","","",""
"null","","395312","SARL_v6gnqw5ox5","msl000051","fixation","","","img/fixation.png","null","","","test","","","","","","","","","","","","","","","","","","","",""
"384","","395700","SARL_v6gnqw5ox5","msl000051","freq","","","img/orange_2bandit_b2.png","70","","70","test","1","","","circle","square","121","117","11","5","0.9572649572649573","","","","","","","","","",""
"null","","396121","SARL_v6gnqw5ox5","msl000051","freq_resp","","","img/orange_2bandit_b.png","70","img/orange_2bandit_b.png","70","test","","","","","","","","","5","","","","","","","","","","",""
"null","","396278","SARL_v6gnqw5ox5","msl000051","fixation","","","img/fixation.png","null","","","test","","","","","","","","","","","","","","","","","","","",""
"386","","396669","SARL_v6gnqw5ox5","msl000051","infreq","","","img/green_2bandit_b2.png","68","","68","test","1","","","circle","square","122","118","12","5","0.9576271186440678","","","","","","","","","",""
"null","","397087","SARL_v6gnqw5ox5","msl000051","infreq_resp","","","img/green_2bandit_b.png","68","img/green_2bandit_b.png","68","test","","","","","","","","","5","","","","","","","","","","",""
"null","","397243","SARL_v6gnqw5ox5","msl000051","fixation","","","img/fixation.png","null","","","test","","","","","","","","","","","","","","","","","","","",""
"385","","397632","SARL_v6gnqw5ox5","msl000051","freq","","","img/orange_2bandit_b2.png","70","","70","test","1","","","circle","square","123","119","13","5","0.957983193277311","","","","","","","","","",""
"null","","398055","SARL_v6gnqw5ox5","msl000051","freq_resp","","","img/orange_2bandit_b.png","70","img/orange_2bandit_b.png","70","test","","","","","","","","","5","","","","","","","","","","",""
"null","","398209","SARL_v6gnqw5ox5","msl000051","fixation","","","img/fixation.png","null","","","test","","","","","","","","","","","","","","","","","","","",""
"185","","398399","SARL_v6gnqw5ox5","msl000051","infreq","","","img/green_2bandit_b2.png","70","","68","test","0","","","circle","square","124","120","14","5","0.95","","","","","","","","","",""
"null","","399020","SARL_v6gnqw5ox5","msl000051","infreq_resp","","","img/green_2bandit_b.png","70","img/green_2bandit_b.png","68","test","","","","","","","","","5","","","","","","","","","","",""
"null","","399176","SARL_v6gnqw5ox5","msl000051","fixation","","","img/fixation.png","null","","","test","","","","","","","","","","","","","","","","","","","",""
"490","","399670","SARL_v6gnqw5ox5","msl000051","freq","","","img/orange_2bandit_b2.png","70","","70","test","1","","","circle","square","125","121","15","5","0.9504132231404959","","","","","","","","","",""
"null","","399987","SARL_v6gnqw5ox5","msl000051","freq_resp","","","img/orange_2bandit_b.png","70","img/orange_2bandit_b.png","70","test","","","","","","","","","5","","","","","","","","","","",""
"null","","400142","SARL_v6gnqw5ox5","msl000051","fixation","","","img/fixation.png","null","","","test","","","","","","","","","","","","","","","","","","","",""
"399","","400546","SARL_v6gnqw5ox5","msl000051","freq","","","img/orange_2bandit_b2.png","70","","70","test","1","","","circle","square","126","122","16","5","0.9508196721311475","","","","","","","","","",""
"null","","400954","SARL_v6gnqw5ox5","msl000051","freq_resp","","","img/orange_2bandit_b.png","70","img/orange_2bandit_b.png","70","test","","","","","","","","","5","","","","","","","","","","",""
"null","","401110","SARL_v6gnqw5ox5","msl000051","fixation","","","img/fixation.png","null","","","test","","","","","","","","","","","","","","","","","","","",""
"377","","401490","SARL_v6gnqw5ox5","msl000051","freq","","","img/orange_2bandit_b2.png","70","","70","test","1","","","circle","square","127","123","17","5","0.9512195121951219","","","","","","","","","",""
"null","","401921","SARL_v6gnqw5ox5","msl000051","freq_resp","","","img/orange_2bandit_b.png","70","img/orange_2bandit_b.png","70","test","","","","","","","","","5","","","","","","","","","","",""
"null","","402076","SARL_v6gnqw5ox5","msl000051","fixation","","","img/fixation.png","null","","","test","","","","","","","","","","","","","","","","","","","",""
"349","","402429","SARL_v6gnqw5ox5","msl000051","freq","","","img/orange_2bandit_b2.png","70","","70","test","1","","","circle","square","128","124","18","5","0.9516129032258065","","","","","","","","","",""
"null","","402885","SARL_v6gnqw5ox5","msl000051","freq_resp","","","img/orange_2bandit_b.png","70","img/orange_2bandit_b.png","70","test","","","","","","","","","5","","","","","","","","","","",""
"null","","403041","SARL_v6gnqw5ox5","msl000051","fixation","","","img/fixation.png","null","","","test","","","","","","","","","","","","","","","","","","","",""
"347","","403393","SARL_v6gnqw5ox5","msl000051","freq","","","img/orange_2bandit_b2.png","70","","70","test","1","","","circle","square","129","125","19","5","0.952","","","","","","","","","",""
"null","","403851","SARL_v6gnqw5ox5","msl000051","freq_resp","","","img/orange_2bandit_b.png","70","img/orange_2bandit_b.png","70","test","","","","","","","","","5","","","","","","","","","","",""
"null","","404007","SARL_v6gnqw5ox5","msl000051","fixation","","","img/fixation.png","null","","","test","","","","","","","","","","","","","","","","","","","",""
"335","","404347","SARL_v6gnqw5ox5","msl000051","freq","","","img/orange_2bandit_b2.png","70","","70","test","1","","","circle","square","130","126","20","5","0.9523809523809523","","","","","","","","","",""
"null","","404818","SARL_v6gnqw5ox5","msl000051","freq_resp","","","img/orange_2bandit_b.png","70","img/orange_2bandit_b.png","70","test","","","","","","","","","5","","","","","","","","","","",""
"null","","404975","SARL_v6gnqw5ox5","msl000051","fixation","","","img/fixation.png","null","","","test","","","","","","","","","","","","","","","","","","","",""
"391","","405370","SARL_v6gnqw5ox5","msl000051","freq","","","img/orange_2bandit_b2.png","70","","70","test","1","","","circle","square","131","127","21","5","0.952755905511811","","","","","","","","","",""
"null","","405785","SARL_v6gnqw5ox5","msl000051","freq_resp","","","img/orange_2bandit_b.png","70","img/orange_2bandit_b.png","70","test","","","","","","","","","5","","","","","","","","","","",""
"null","","405942","SARL_v6gnqw5ox5","msl000051","fixation","","","img/fixation.png","null","","","test","","","","","","","","","","","","","","","","","","","",""
"697","","406645","SARL_v6gnqw5ox5","msl000051","rl","","","img/black_2bandit_b2.png","74","","0","test","","","1","circle","square","132","","0","5","","74","0.8","0.2","0.15917474531184694","0.8","0.2","0.8","circle","5","0"
"null","","407400","SARL_v6gnqw5ox5","msl000051","feedback","","","img/yay_L_b.png","null","","na","test","","","","","","","","","5","","74","0.8","0.2","","","","0.8","","5",""
"null","","408206","SARL_v6gnqw5ox5","msl000051","freq","","","img/orange_2bandit_b2.png","null","","70","test","0","","","circle","square","133","128","1","6","0.9453125","","","","","","","","","",""
"null","","408363","SARL_v6gnqw5ox5","msl000051","fixation","","","img/fixation.png","null","","","test","","","","","","","","","","","","","","","","","","","",""
"475","","408841","SARL_v6gnqw5ox5","msl000051","freq","","","img/orange_2bandit_b2.png","70","","70","test","1","","","circle","square","134","129","2","6","0.9457364341085271","","","","","","","","","",""
"null","","409171","SARL_v6gnqw5ox5","msl000051","freq_resp","","","img/orange_2bandit_b.png","70","img/orange_2bandit_b.png","70","test","","","","","","","","","6","","","","","","","","","","",""
"null","","409327","SARL_v6gnqw5ox5","msl000051","fixation","","","img/fixation.png","null","","","test","","","","","","","","","","","","","","","","","","","",""
"325","","409656","SARL_v6gnqw5ox5","msl000051","freq","","","img/orange_2bandit_b2.png","70","","70","test","1","","","circle","square","135","130","3","6","0.9461538461538461","","","","","","","","","",""
"null","","410137","SARL_v6gnqw5ox5","msl000051","freq_resp","","","img/orange_2bandit_b.png","70","img/orange_2bandit_b.png","70","test","","","","","","","","","6","","","","","","","","","","",""
"null","","410293","SARL_v6gnqw5ox5","msl000051","fixation","","","img/fixation.png","null","","","test","","","","","","","","","","","","","","","","","","","",""
"365","","410663","SARL_v6gnqw5ox5","msl000051","freq","","","img/orange_2bandit_b2.png","70","","70","test","1","","","circle","square","136","131","4","6","0.9465648854961832","","","","","","","","","",""
"null","","411103","SARL_v6gnqw5ox5","msl000051","freq_resp","","","img/orange_2bandit_b.png","70","img/orange_2bandit_b.png","70","test","","","","","","","","","6","","","","","","","","","","",""
"null","","411259","SARL_v6gnqw5ox5","msl000051","fixation","","","img/fixation.png","null","","","test","","","","","","","","","","","","","","","","","","","",""
"604","","411867","SARL_v6gnqw5ox5","msl000051","infreq","","","img/green_2bandit_b2.png","68","","68","test","1","","","circle","square","137","132","5","6","0.946969696969697","","","","","","","","","",""
"null","","412069","SARL_v6gnqw5ox5","msl000051","infreq_resp","","","img/green_2bandit_b.png","68","img/green_2bandit_b.png","68","test","","","","","","","","","6","","","","","","","","","","",""
"null","","412225","SARL_v6gnqw5ox5","msl000051","fixation","","","img/fixation.png","null","","","test","","","","","","","","","","","","","","","","","","","",""
"430","","412660","SARL_v6gnqw5ox5","msl000051","freq","","","img/orange_2bandit_b2.png","70","","70","test","1","","","circle","square","138","133","6","6","0.9473684210526315","","","","","","","","","",""
"null","","413035","SARL_v6gnqw5ox5","msl000051","freq_resp","","","img/orange_2bandit_b.png","70","img/orange_2bandit_b.png","70","test","","","","","","","","","6","","","","","","","","","","",""
"null","","413192","SARL_v6gnqw5ox5","msl000051","fixation","","","img/fixation.png","null","","","test","","","","","","","","","","","","","","","","","","","",""
"391","","413588","SARL_v6gnqw5ox5","msl000051","freq","","","img/orange_2bandit_b2.png","70","","70","test","1","","","circle","square","139","134","7","6","0.9477611940298507","","","","","","","","","",""
"null","","414002","SARL_v6gnqw5ox5","msl000051","freq_resp","","","img/orange_2bandit_b.png","70","img/orange_2bandit_b.png","70","test","","","","","","","","","6","","","","","","","","","","",""
"null","","414158","SARL_v6gnqw5ox5","msl000051","fixation","","","img/fixation.png","null","","","test","","","","","","","","","","","","","","","","","","","",""
"494","","414658","SARL_v6gnqw5ox5","msl000051","infreq","","","img/green_2bandit_b2.png","68","","68","test","1","","","circle","square","140","135","8","6","0.9481481481481482","","","","","","","","","",""
"null","","414969","SARL_v6gnqw5ox5","msl000051","infreq_resp","","","img/green_2bandit_b.png","68","img/green_2bandit_b.png","68","test","","","","","","","","","6","","","","","","","","","","",""
"null","","415125","SARL_v6gnqw5ox5","msl000051","fixation","","","img/fixation.png","null","","","test","","","","","","","","","","","","","","","","","","","",""
"408","","415537","SARL_v6gnqw5ox5","msl000051","freq","","","img/orange_2bandit_b2.png","70","","70","test","1","","","circle","square","141","136","9","6","0.9485294117647058","","","","","","","","","",""
"null","","415935","SARL_v6gnqw5ox5","msl000051","freq_resp","","","img/orange_2bandit_b.png","70","img/orange_2bandit_b.png","70","test","","","","","","","","","6","","","","","","","","","","",""
"null","","416091","SARL_v6gnqw5ox5","msl000051","fixation","","","img/fixation.png","null","","","test","","","","","","","","","","","","","","","","","","","",""
"488","","416584","SARL_v6gnqw5ox5","msl000051","freq","","","img/orange_2bandit_b2.png","70","","70","test","1","","","circle","square","142","137","10","6","0.948905109489051","","","","","","","","","",""
"null","","416901","SARL_v6gnqw5ox5","msl000051","freq_resp","","","img/orange_2bandit_b.png","70","img/orange_2bandit_b.png","70","test","","","","","","","","","6","","","","","","","","","","",""
"null","","417057","SARL_v6gnqw5ox5","msl000051","fixation","","","img/fixation.png","null","","","test","","","","","","","","","","","","","","","","","","","",""
"477","","417539","SARL_v6gnqw5ox5","msl000051","freq","","","img/orange_2bandit_b2.png","70","","70","test","1","","","circle","square","143","138","11","6","0.9492753623188406","","","","","","","","","",""
"null","","417868","SARL_v6gnqw5ox5","msl000051","freq_resp","","","img/orange_2bandit_b.png","70","img/orange_2bandit_b.png","70","test","","","","","","","","","6","","","","","","","","","","",""
"null","","418023","SARL_v6gnqw5ox5","msl000051","fixation","","","img/fixation.png","null","","","test","","","","","","","","","","","","","","","","","","","",""
"369","","418397","SARL_v6gnqw5ox5","msl000051","freq","","","img/orange_2bandit_b2.png","70","","70","test","1","","","circle","square","144","139","12","6","0.9496402877697842","","","","","","","","","",""
"null","","418834","SARL_v6gnqw5ox5","msl000051","freq_resp","","","img/orange_2bandit_b.png","70","img/orange_2bandit_b.png","70","test","","","","","","","","","6","","","","","","","","","","",""
"null","","418989","SARL_v6gnqw5ox5","msl000051","fixation","","","img/fixation.png","null","","","test","","","","","","","","","","","","","","","","","","","",""
"470","","419465","SARL_v6gnqw5ox5","msl000051","infreq","","","img/green_2bandit_b2.png","68","","68","test","1","","","circle","square","145","140","13","6","0.95","","","","","","","","","",""
"null","","419800","SARL_v6gnqw5ox5","msl000051","infreq_resp","","","img/green_2bandit_b.png","68","img/green_2bandit_b.png","68","test","","","","","","","","","6","","","","","","","","","","",""
"null","","419957","SARL_v6gnqw5ox5","msl000051","fixation","","","img/fixation.png","null","","","test","","","","","","","","","","","","","","","","","","","",""
"564","","420526","SARL_v6gnqw5ox5","msl000051","freq","","","img/orange_2bandit_b2.png","70","","70","test","1","","","circle","square","146","141","14","6","0.950354609929078","","","","","","","","","",""
"null","","420767","SARL_v6gnqw5ox5","msl000051","freq_resp","","","img/orange_2bandit_b.png","70","img/orange_2bandit_b.png","70","test","","","","","","","","","6","","","","","","","","","","",""
"null","","420924","SARL_v6gnqw5ox5","msl000051","fixation","","","img/fixation.png","null","","","test","","","","","","","","","","","","","","","","","","","",""
"369","","421298","SARL_v6gnqw5ox5","msl000051","freq","","","img/orange_2bandit_b2.png","70","","70","test","1","","","circle","square","147","142","15","6","0.9507042253521126","","","","","","","","","",""
"null","","421734","SARL_v6gnqw5ox5","msl000051","freq_resp","","","img/orange_2bandit_b.png","70","img/orange_2bandit_b.png","70","test","","","","","","","","","6","","","","","","","","","","",""
"null","","421890","SARL_v6gnqw5ox5","msl000051","fixation","","","img/fixation.png","null","","","test","","","","","","","","","","","","","","","","","","","",""
"359","","422253","SARL_v6gnqw5ox5","msl000051","freq","","","img/orange_2bandit_b2.png","70","","70","test","1","","","circle","square","148","143","16","6","0.951048951048951","","","","","","","","","",""
"null","","422700","SARL_v6gnqw5ox5","msl000051","freq_resp","","","img/orange_2bandit_b.png","70","img/orange_2bandit_b.png","70","test","","","","","","","","","6","","","","","","","","","","",""
"null","","422855","SARL_v6gnqw5ox5","msl000051","fixation","","","img/fixation.png","null","","","test","","","","","","","","","","","","","","","","","","","",""
"368","","423227","SARL_v6gnqw5ox5","msl000051","freq","","","img/orange_2bandit_b2.png","70","","70","test","1","","","circle","square","149","144","17","6","0.9513888888888888","","","","","","","","","",""
"null","","423666","SARL_v6gnqw5ox5","msl000051","freq_resp","","","img/orange_2bandit_b.png","70","img/orange_2bandit_b.png","70","test","","","","","","","","","6","","","","","","","","","","",""
"null","","423821","SARL_v6gnqw5ox5","msl000051","fixation","","","img/fixation.png","null","","","test","","","","","","","","","","","","","","","","","","","",""
