"rt","responses","time_elapsed","subject","demoID","trialType","rlType","attType","stimulus","key_press","stim","corrresp","phase","corr","pracCounter","reward","bandOne","bandTwo","trialNum","attentionNum","attentionRunNum","blockNum","performance","bandChosen","circleVal","squareVal","coin","bandOneVal","bandTwoVal","pReward","shapeChosen","rlNum","badFlag"
"992983","{""Q0"":""msl000097""}","993017","SARL_v6aj88rev9","msl000097","","","","","","","","","","","","","","","","","","","","","","","","","","","",""
"17031","","1010055","SARL_v6aj88rev9","msl000097","","","","","","","","","","","","","","","","","","","","","","","","","","","",""
"","","1012358","SARL_v6aj88rev9","msl000097","fullscreen","fullscreen","fullscreen","","","","","","","","","","","","","","","","","","","","","","","","",""
"84649","","1097013","SARL_v6aj88rev9","msl000097","","","","","","","","","","","","","","","","","","","","","","","","","","","",""
"null","","1097818","SARL_v6aj88rev9","msl000097","freqPrac","","","img/green_2bandit_b2.png","null","img/green_2bandit_b2.png","70","prac","0","1","","","","","","","","","","","","","","","","","",""
"null","","1098825","SARL_v6aj88rev9","msl000097","feedback","","","img/tooSlow.png","null","","na","prac","","","","","","","","","","","","","","","","","","","",""
"null","","1098981","SARL_v6aj88rev9","msl000097","fixation","","","img/fixation.png","null","","","prac","","","","","","","","","","","","","","","","","","","",""
"347","","1099332","SARL_v6aj88rev9","msl000097","infreqPrac","","","img/orange_2bandit_b2.png","70","img/orange_2bandit_b2.png","68","prac","0","2","","","","","","","","","","","","","","","","","",""
"347","","1099790","SARL_v6aj88rev9","msl000097","infreqPrac_resp","","","img/orange_2bandit_b.png","70","img/orange_2bandit_b.png","68","prac","","","","","","","","","","","","","","","","","","","",""
"null","","1100796","SARL_v6aj88rev9","msl000097","feedback","","","img/wrongKey.png","null","","na","prac","","","","","","","","","","","","","","","","","","","",""
"null","","1100952","SARL_v6aj88rev9","msl000097","fixation","","","img/fixation.png","null","","","prac","","","","","","","","","","","","","","","","","","","",""
"760","","1101716","SARL_v6aj88rev9","msl000097","freqPrac","","","img/green_2bandit_b2.png","70","img/green_2bandit_b2.png","70","prac","1","2","","","","","","","","","","","","","","","","","",""
"760","","1101762","SARL_v6aj88rev9","msl000097","freqPrac_resp","","","img/green_2bandit_b.png","70","img/green_2bandit_b.png","70","prac","","","","","","","","","","","","","","","","","","","",""
"null","","1101918","SARL_v6aj88rev9","msl000097","fixation","","","img/fixation.png","null","","","prac","","","","","","","","","","","","","","","","","","","",""
"752","","1102676","SARL_v6aj88rev9","msl000097","infreqPrac","","","img/orange_2bandit_b2.png","68","img/orange_2bandit_b2.png","68","prac","1","2","","","","","","","","","","","","","","","","","",""
"752","","1102729","SARL_v6aj88rev9","msl000097","infreqPrac_resp","","","img/orange_2bandit_b.png","68","img/orange_2bandit_b.png","68","prac","","","","","","","","","","","","","","","","","","","",""
"null","","1102885","SARL_v6aj88rev9","msl000097","fixation","","","img/fixation.png","null","","","prac","","","","","","","","","","","","","","","","","","","",""
"410","","1103300","SARL_v6aj88rev9","msl000097","infreqPrac","","","img/orange_2bandit_b2.png","68","img/orange_2bandit_b2.png","68","prac","1","2","","","","","","","","","","","","","","","","","",""
"410","","1103697","SARL_v6aj88rev9","msl000097","infreqPrac_resp","","","img/orange_2bandit_b.png","68","img/orange_2bandit_b.png","68","prac","","","","","","","","","","","","","","","","","","","",""
"null","","1103852","SARL_v6aj88rev9","msl000097","fixation","","","img/fixation.png","null","","","prac","","","","","","","","","","","","","","","","","","","",""
"371","","1104228","SARL_v6aj88rev9","msl000097","infreqPrac","","","img/orange_2bandit_b2.png","68","img/orange_2bandit_b2.png","68","prac","1","2","","","","","","","","","","","","","","","","","",""
"371","","1104663","SARL_v6aj88rev9","msl000097","infreqPrac_resp","","","img/orange_2bandit_b.png","68","img/orange_2bandit_b.png","68","prac","","","","","","","","","","","","","","","","","","","",""
"null","","1104820","SARL_v6aj88rev9","msl000097","fixation","","","img/fixation.png","null","","","prac","","","","","","","","","","","","","","","","","","","",""
"452","","1105277","SARL_v6aj88rev9","msl000097","freqPrac","","","img/green_2bandit_b2.png","70","img/green_2bandit_b2.png","70","prac","1","2","","","","","","","","","","","","","","","","","",""
"452","","1105630","SARL_v6aj88rev9","msl000097","freqPrac_resp","","","img/green_2bandit_b.png","70","img/green_2bandit_b.png","70","prac","","","","","","","","","","","","","","","","","","","",""
"null","","1105787","SARL_v6aj88rev9","msl000097","fixation","","","img/fixation.png","null","","","prac","","","","","","","","","","","","","","","","","","","",""
"454","","1106246","SARL_v6aj88rev9","msl000097","infreqPrac","","","img/orange_2bandit_b2.png","68","img/orange_2bandit_b2.png","68","prac","1","2","","","","","","","","","","","","","","","","","",""
"454","","1106598","SARL_v6aj88rev9","msl000097","infreqPrac_resp","","","img/orange_2bandit_b.png","68","img/orange_2bandit_b.png","68","prac","","","","","","","","","","","","","","","","","","","",""
"null","","1106753","SARL_v6aj88rev9","msl000097","fixation","","","img/fixation.png","null","","","prac","","","","","","","","","","","","","","","","","","","",""
"465","","1107224","SARL_v6aj88rev9","msl000097","freqPrac","","","img/green_2bandit_b2.png","70","img/green_2bandit_b2.png","70","prac","1","2","","","","","","","","","","","","","","","","","",""
"465","","1107563","SARL_v6aj88rev9","msl000097","freqPrac_resp","","","img/green_2bandit_b.png","70","img/green_2bandit_b.png","70","prac","","","","","","","","","","","","","","","","","","","",""
"null","","1107719","SARL_v6aj88rev9","msl000097","fixation","","","img/fixation.png","null","","","prac","","","","","","","","","","","","","","","","","","","",""
"599","","1108323","SARL_v6aj88rev9","msl000097","freqPrac","","","img/green_2bandit_b2.png","70","img/green_2bandit_b2.png","70","prac","1","2","","","","","","","","","","","","","","","","","",""
"599","","1108530","SARL_v6aj88rev9","msl000097","freqPrac_resp","","","img/green_2bandit_b.png","70","img/green_2bandit_b.png","70","prac","","","","","","","","","","","","","","","","","","","",""
"null","","1108686","SARL_v6aj88rev9","msl000097","fixation","","","img/fixation.png","null","","","prac","","","","","","","","","","","","","","","","","","","",""
"30909","","1139599","SARL_v6aj88rev9","msl000097","","","","","","","","prac","","","","","","","","","","","","","","","","","","","",""
"523","","1140126","SARL_v6aj88rev9","msl000097","rlPractice","","","img/black_2bandit_b2.png","74","img/black_2bandit_b2.png","","prac","","","75","","","","","","","","","","","","","","","","",""
"null","","1140881","SARL_v6aj88rev9","msl000097","feedback","","","img/boo_L_b.png","null","","na","prac","","","","","","","","","","","","","","","","","","","",""
"null","","1141037","SARL_v6aj88rev9","msl000097","fixation","","","img/fixation.png","null","","","prac","","","","","","","","","","","","","","","","","","","",""
"1241","","1142283","SARL_v6aj88rev9","msl000097","rlPractice","","","img/black_2bandit_b2.png","75","img/black_2bandit_b2.png","","prac","","","75","","","","","","","","","","","","","","","","",""
"null","","1143039","SARL_v6aj88rev9","msl000097","feedback","","","img/yay_R_b.png","null","","na","prac","","","","","","","","","","","","","","","","","","","",""
"null","","1143195","SARL_v6aj88rev9","msl000097","fixation","","","img/fixation.png","null","","","prac","","","","","","","","","","","","","","","","","","","",""
"480","","1143678","SARL_v6aj88rev9","msl000097","rlPractice","","","img/black_2bandit_b2.png","75","img/black_2bandit_b2.png","","prac","","","75","","","","","","","","","","","","","","","","",""
"null","","1144435","SARL_v6aj88rev9","msl000097","feedback","","","img/yay_R_b.png","null","","na","prac","","","","","","","","","","","","","","","","","","","",""
"null","","1144590","SARL_v6aj88rev9","msl000097","fixation","","","img/fixation.png","null","","","prac","","","","","","","","","","","","","","","","","","","",""
"357","","1144951","SARL_v6aj88rev9","msl000097","rlPractice","","","img/black_2bandit_b2.png","75","img/black_2bandit_b2.png","","prac","","","75","","","","","","","","","","","","","","","","",""
"null","","1145706","SARL_v6aj88rev9","msl000097","feedback","","","img/yay_R_b.png","null","","na","prac","","","","","","","","","","","","","","","","","","","",""
"null","","1145860","SARL_v6aj88rev9","msl000097","fixation","","","img/fixation.png","null","","","prac","","","","","","","","","","","","","","","","","","","",""
"305","","1146170","SARL_v6aj88rev9","msl000097","rlPractice","","","img/black_2bandit_b2.png","75","img/black_2bandit_b2.png","","prac","","","75","","","","","","","","","","","","","","","","",""
"null","","1146926","SARL_v6aj88rev9","msl000097","feedback","","","img/yay_R_b.png","null","","na","prac","","","","","","","","","","","","","","","","","","","",""
"null","","1147081","SARL_v6aj88rev9","msl000097","fixation","","","img/fixation.png","null","","","prac","","","","","","","","","","","","","","","","","","","",""
"310","","1147396","SARL_v6aj88rev9","msl000097","rlPractice","","","img/black_2bandit_b2.png","75","img/black_2bandit_b2.png","","prac","","","75","","","","","","","","","","","","","","","","",""
"null","","1148151","SARL_v6aj88rev9","msl000097","feedback","","","img/yay_R_b.png","null","","na","prac","","","","","","","","","","","","","","","","","","","",""
"null","","1148307","SARL_v6aj88rev9","msl000097","fixation","","","img/fixation.png","null","","","prac","","","","","","","","","","","","","","","","","","","",""
"430","","1148741","SARL_v6aj88rev9","msl000097","rlPractice","","","img/black_2bandit_b2.png","75","img/black_2bandit_b2.png","","prac","","","75","","","","","","","","","","","","","","","","",""
"null","","1149496","SARL_v6aj88rev9","msl000097","feedback","","","img/yay_R_b.png","null","","na","prac","","","","","","","","","","","","","","","","","","","",""
"null","","1149653","SARL_v6aj88rev9","msl000097","fixation","","","img/fixation.png","null","","","prac","","","","","","","","","","","","","","","","","","","",""
"6396","","1156053","SARL_v6aj88rev9","msl000097","","","","","","","","prac","","","","","","","","","","","","","","","","","","","",""
"551","","1156609","SARL_v6aj88rev9","msl000097","mixAttFreqPrac","","","img/green_2bandit_b2.png","70","img/green_2bandit_b2.png","70","prac","","","","","","","","","","","","","","","","","","","",""
"551","","1156863","SARL_v6aj88rev9","msl000097","freqPrac_resp","","","img/green_2bandit_b.png","70","img/green_2bandit_b.png","70","prac","","","","","","","","","","","","","","","","","","","",""
"null","","1157019","SARL_v6aj88rev9","msl000097","fixation","","","img/fixation.png","null","","","prac","","","","","","","","","","","","","","","","","","","",""
"402","","1157426","SARL_v6aj88rev9","msl000097","mixAttInfreqPrac","","","img/orange_2bandit_b2.png","68","img/orange_2bandit_b2.png","68","prac","","","","","","","","","","","","","","","","","","","",""
"402","","1157831","SARL_v6aj88rev9","msl000097","infreqPrac_resp","","","img/orange_2bandit_b.png","68","img/green_2bandit_b.png","68","prac","","","","","","","","","","","","","","","","","","","",""
"null","","1157987","SARL_v6aj88rev9","msl000097","fixation","","","img/fixation.png","null","","","prac","","","","","","","","","","","","","","","","","","","",""
"369","","1158362","SARL_v6aj88rev9","msl000097","mixAttInfreqPrac","","","img/orange_2bandit_b2.png","68","img/orange_2bandit_b2.png","68","prac","","","","","","","","","","","","","","","","","","","",""
"369","","1158798","SARL_v6aj88rev9","msl000097","infreqPrac_resp","","","img/orange_2bandit_b.png","68","img/green_2bandit_b.png","68","prac","","","","","","","","","","","","","","","","","","","",""
"null","","1158954","SARL_v6aj88rev9","msl000097","fixation","","","img/fixation.png","null","","","prac","","","","","","","","","","","","","","","","","","","",""
"299","","1159258","SARL_v6aj88rev9","msl000097","mixAttInfreqPrac","","","img/orange_2bandit_b2.png","68","img/orange_2bandit_b2.png","68","prac","","","","","","","","","","","","","","","","","","","",""
"299","","1159764","SARL_v6aj88rev9","msl000097","infreqPrac_resp","","","img/orange_2bandit_b.png","68","img/green_2bandit_b.png","68","prac","","","","","","","","","","","","","","","","","","","",""
"null","","1159920","SARL_v6aj88rev9","msl000097","fixation","","","img/fixation.png","null","","","prac","","","","","","","","","","","","","","","","","","","",""
"351","","1160276","SARL_v6aj88rev9","msl000097","mixAttFreqPrac","","","img/green_2bandit_b2.png","70","img/green_2bandit_b2.png","70","prac","","","","","","","","","","","","","","","","","","","",""
"351","","1160729","SARL_v6aj88rev9","msl000097","freqPrac_resp","","","img/green_2bandit_b.png","70","img/green_2bandit_b.png","70","prac","","","","","","","","","","","","","","","","","","","",""
"null","","1160884","SARL_v6aj88rev9","msl000097","fixation","","","img/fixation.png","null","","","prac","","","","","","","","","","","","","","","","","","","",""
"557","","1161446","SARL_v6aj88rev9","msl000097","mixRLPractice","","","img/black_2bandit_b2.png","75","img/black_2bandit_b2.png","","prac","","","","","","","","","","","","","","","","","","","",""
"null","","1162202","SARL_v6aj88rev9","msl000097","feedback","","","img/boo_R_b.png","null","","na","prac","","","","","","","","","","","","","","","","","","","",""
"null","","1163007","SARL_v6aj88rev9","msl000097","mixAttFreqPrac","","","img/green_2bandit_b2.png","null","img/green_2bandit_b2.png","70","prac","","","","","","","","","","","","","","","","","","","",""
"null","","1163163","SARL_v6aj88rev9","msl000097","fixation","","","img/fixation.png","null","","","prac","","","","","","","","","","","","","","","","","","","",""
"92","","1163259","SARL_v6aj88rev9","msl000097","mixAttInfreqPrac","","","img/orange_2bandit_b2.png","68","img/orange_2bandit_b2.png","68","prac","","","","","","","","","","","","","","","","","","","",""
"92","","1163973","SARL_v6aj88rev9","msl000097","infreqPrac_resp","","","img/orange_2bandit_b.png","68","img/green_2bandit_b.png","68","prac","","","","","","","","","","","","","","","","","","","",""
"null","","1164128","SARL_v6aj88rev9","msl000097","fixation","","","img/fixation.png","null","","","prac","","","","","","","","","","","","","","","","","","","",""
"541","","1164673","SARL_v6aj88rev9","msl000097","mixAttFreqPrac","","","img/green_2bandit_b2.png","70","img/green_2bandit_b2.png","70","prac","","","","","","","","","","","","","","","","","","","",""
"541","","1164939","SARL_v6aj88rev9","msl000097","freqPrac_resp","","","img/green_2bandit_b.png","70","img/green_2bandit_b.png","70","prac","","","","","","","","","","","","","","","","","","","",""
"null","","1165094","SARL_v6aj88rev9","msl000097","fixation","","","img/fixation.png","null","","","prac","","","","","","","","","","","","","","","","","","","",""
"374","","1165474","SARL_v6aj88rev9","msl000097","mixAttFreqPrac","","","img/green_2bandit_b2.png","70","img/green_2bandit_b2.png","70","prac","","","","","","","","","","","","","","","","","","","",""
"374","","1165905","SARL_v6aj88rev9","msl000097","freqPrac_resp","","","img/green_2bandit_b.png","70","img/green_2bandit_b.png","70","prac","","","","","","","","","","","","","","","","","","","",""
"null","","1166061","SARL_v6aj88rev9","msl000097","fixation","","","img/fixation.png","null","","","prac","","","","","","","","","","","","","","","","","","","",""
"454","","1166519","SARL_v6aj88rev9","msl000097","mixAttInfreqPrac","","","img/orange_2bandit_b2.png","68","img/orange_2bandit_b2.png","68","prac","","","","","","","","","","","","","","","","","","","",""
"454","","1166871","SARL_v6aj88rev9","msl000097","infreqPrac_resp","","","img/orange_2bandit_b.png","68","img/green_2bandit_b.png","68","prac","","","","","","","","","","","","","","","","","","","",""
"null","","1167026","SARL_v6aj88rev9","msl000097","fixation","","","img/fixation.png","null","","","prac","","","","","","","","","","","","","","","","","","","",""
"792","","1167824","SARL_v6aj88rev9","msl000097","mixRLPractice","","","img/black_2bandit_b2.png","75","img/black_2bandit_b2.png","","prac","","","","","","","","","","","","","","","","","","","",""
"null","","1168579","SARL_v6aj88rev9","msl000097","feedback","","","img/yay_R_b.png","null","","na","prac","","","","","","","","","","","","","","","","","","","",""
"16655","","1185237","SARL_v6aj88rev9","msl000097","","","","","","","","prac","","","","","","","","","","","","","","","","","","","",""
"493","","1185735","SARL_v6aj88rev9","msl000097","freq","","","img/green_2bandit_b2.png","70","","70","test","1","","","circle","square","1","1","1","1","1","","","","","","","","","",""
"null","","1186047","SARL_v6aj88rev9","msl000097","freq_resp","","","img/green_2bandit_b.png","70","img/green_2bandit_b.png","70","test","","","","","","","","","1","","","","","","","","","","",""
"null","","1186203","SARL_v6aj88rev9","msl000097","fixation","","","img/fixation.png","null","","","test","","","","","","","","","","","","","","","","","","","",""
"343","","1186552","SARL_v6aj88rev9","msl000097","freq","","","img/green_2bandit_b2.png","70","","70","test","1","","","circle","square","2","2","2","1","1","","","","","","","","","",""
"null","","1187015","SARL_v6aj88rev9","msl000097","freq_resp","","","img/green_2bandit_b.png","70","img/green_2bandit_b.png","70","test","","","","","","","","","1","","","","","","","","","","",""
"null","","1187171","SARL_v6aj88rev9","msl000097","fixation","","","img/fixation.png","null","","","test","","","","","","","","","","","","","","","","","","","",""
"319","","1187495","SARL_v6aj88rev9","msl000097","freq","","","img/green_2bandit_b2.png","70","","70","test","1","","","circle","square","3","3","3","1","1","","","","","","","","","",""
"null","","1187982","SARL_v6aj88rev9","msl000097","freq_resp","","","img/green_2bandit_b.png","70","img/green_2bandit_b.png","70","test","","","","","","","","","1","","","","","","","","","","",""
"null","","1188139","SARL_v6aj88rev9","msl000097","fixation","","","img/fixation.png","null","","","test","","","","","","","","","","","","","","","","","","","",""
"260","","1188404","SARL_v6aj88rev9","msl000097","freq","","","img/green_2bandit_b2.png","70","","70","test","1","","","circle","square","4","4","4","1","1","","","","","","","","","",""
"null","","1188950","SARL_v6aj88rev9","msl000097","freq_resp","","","img/green_2bandit_b.png","70","img/green_2bandit_b.png","70","test","","","","","","","","","1","","","","","","","","","","",""
"null","","1189106","SARL_v6aj88rev9","msl000097","fixation","","","img/fixation.png","null","","","test","","","","","","","","","","","","","","","","","","","",""
"259","","1189370","SARL_v6aj88rev9","msl000097","freq","","","img/green_2bandit_b2.png","70","","70","test","1","","","circle","square","5","5","5","1","1","","","","","","","","","",""
"null","","1189916","SARL_v6aj88rev9","msl000097","freq_resp","","","img/green_2bandit_b.png","70","img/green_2bandit_b.png","70","test","","","","","","","","","1","","","","","","","","","","",""
"null","","1190071","SARL_v6aj88rev9","msl000097","fixation","","","img/fixation.png","null","","","test","","","","","","","","","","","","","","","","","","","",""
"395","","1190471","SARL_v6aj88rev9","msl000097","infreq","","","img/orange_2bandit_b2.png","68","","68","test","1","","","circle","square","6","6","6","1","1","","","","","","","","","",""
"null","","1190882","SARL_v6aj88rev9","msl000097","infreq_resp","","","img/orange_2bandit_b.png","68","img/orange_2bandit_b.png","68","test","","","","","","","","","1","","","","","","","","","","",""
"null","","1191037","SARL_v6aj88rev9","msl000097","fixation","","","img/fixation.png","null","","","test","","","","","","","","","","","","","","","","","","","",""
"335","","1191376","SARL_v6aj88rev9","msl000097","freq","","","img/green_2bandit_b2.png","68","","70","test","0","","","circle","square","7","7","7","1","0.8571428571428571","","","","","","","","","",""
"null","","1191848","SARL_v6aj88rev9","msl000097","freq_resp","","","img/green_2bandit_b.png","68","img/green_2bandit_b.png","70","test","","","","","","","","","1","","","","","","","","","","",""
"null","","1192002","SARL_v6aj88rev9","msl000097","fixation","","","img/fixation.png","null","","","test","","","","","","","","","","","","","","","","","","","",""
"null","","1192808","SARL_v6aj88rev9","msl000097","freq","","","img/green_2bandit_b2.png","null","","70","test","0","","","circle","square","8","8","8","1","0.75","","","","","","","","","",""
"null","","1192964","SARL_v6aj88rev9","msl000097","fixation","","","img/fixation.png","null","","","test","","","","","","","","","","","","","","","","","","","",""
"445","","1193414","SARL_v6aj88rev9","msl000097","infreq","","","img/orange_2bandit_b2.png","68","","68","test","1","","","circle","square","9","9","9","1","0.7777777777777778","","","","","","","","","",""
"null","","1193774","SARL_v6aj88rev9","msl000097","infreq_resp","","","img/orange_2bandit_b.png","68","img/orange_2bandit_b.png","68","test","","","","","","","","","1","","","","","","","","","","",""
"null","","1193928","SARL_v6aj88rev9","msl000097","fixation","","","img/fixation.png","null","","","test","","","","","","","","","","","","","","","","","","","",""
"423","","1194356","SARL_v6aj88rev9","msl000097","freq","","","img/green_2bandit_b2.png","70","","70","test","1","","","circle","square","10","10","10","1","0.8","","","","","","","","","",""
"null","","1194739","SARL_v6aj88rev9","msl000097","freq_resp","","","img/green_2bandit_b.png","70","img/green_2bandit_b.png","70","test","","","","","","","","","1","","","","","","","","","","",""
"null","","1194895","SARL_v6aj88rev9","msl000097","fixation","","","img/fixation.png","null","","","test","","","","","","","","","","","","","","","","","","","",""
"322","","1195223","SARL_v6aj88rev9","msl000097","freq","","","img/green_2bandit_b2.png","70","","70","test","1","","","circle","square","11","11","11","1","0.8181818181818182","","","","","","","","","",""
"null","","1195705","SARL_v6aj88rev9","msl000097","freq_resp","","","img/green_2bandit_b.png","70","img/green_2bandit_b.png","70","test","","","","","","","","","1","","","","","","","","","","",""
"null","","1195861","SARL_v6aj88rev9","msl000097","fixation","","","img/fixation.png","null","","","test","","","","","","","","","","","","","","","","","","","",""
"258","","1196123","SARL_v6aj88rev9","msl000097","freq","","","img/green_2bandit_b2.png","70","","70","test","1","","","circle","square","12","12","12","1","0.8333333333333334","","","","","","","","","",""
"null","","1196671","SARL_v6aj88rev9","msl000097","freq_resp","","","img/green_2bandit_b.png","70","img/green_2bandit_b.png","70","test","","","","","","","","","1","","","","","","","","","","",""
"null","","1196827","SARL_v6aj88rev9","msl000097","fixation","","","img/fixation.png","null","","","test","","","","","","","","","","","","","","","","","","","",""
"257","","1197089","SARL_v6aj88rev9","msl000097","infreq","","","img/orange_2bandit_b2.png","70","","68","test","0","","","circle","square","13","13","13","1","0.7692307692307693","","","","","","","","","",""
"null","","1197638","SARL_v6aj88rev9","msl000097","infreq_resp","","","img/orange_2bandit_b.png","70","img/orange_2bandit_b.png","68","test","","","","","","","","","1","","","","","","","","","","",""
"null","","1197793","SARL_v6aj88rev9","msl000097","fixation","","","img/fixation.png","null","","","test","","","","","","","","","","","","","","","","","","","",""
"401","","1198199","SARL_v6aj88rev9","msl000097","freq","","","img/green_2bandit_b2.png","70","","70","test","1","","","circle","square","14","14","14","1","0.7857142857142857","","","","","","","","","",""
"null","","1198605","SARL_v6aj88rev9","msl000097","freq_resp","","","img/green_2bandit_b.png","70","img/green_2bandit_b.png","70","test","","","","","","","","","1","","","","","","","","","","",""
"null","","1198761","SARL_v6aj88rev9","msl000097","fixation","","","img/fixation.png","null","","","test","","","","","","","","","","","","","","","","","","","",""
"290","","1199057","SARL_v6aj88rev9","msl000097","freq","","","img/green_2bandit_b2.png","70","","70","test","1","","","circle","square","15","15","15","1","0.8","","","","","","","","","",""
"null","","1199573","SARL_v6aj88rev9","msl000097","freq_resp","","","img/green_2bandit_b.png","70","img/green_2bandit_b.png","70","test","","","","","","","","","1","","","","","","","","","","",""
"null","","1199729","SARL_v6aj88rev9","msl000097","fixation","","","img/fixation.png","null","","","test","","","","","","","","","","","","","","","","","","","",""
"65","","1199800","SARL_v6aj88rev9","msl000097","freq","","","img/green_2bandit_b2.png","70","","70","test","1","","","circle","square","16","16","16","1","0.8125","","","","","","","","","",""
"null","","1200541","SARL_v6aj88rev9","msl000097","freq_resp","","","img/green_2bandit_b.png","70","img/green_2bandit_b.png","70","test","","","","","","","","","1","","","","","","","","","","",""
"null","","1200697","SARL_v6aj88rev9","msl000097","fixation","","","img/fixation.png","null","","","test","","","","","","","","","","","","","","","","","","","",""
"572","","1201275","SARL_v6aj88rev9","msl000097","freq","","","img/green_2bandit_b2.png","70","","70","test","1","","","circle","square","17","17","17","1","0.8235294117647058","","","","","","","","","",""
"null","","1201509","SARL_v6aj88rev9","msl000097","freq_resp","","","img/green_2bandit_b.png","70","img/green_2bandit_b.png","70","test","","","","","","","","","1","","","","","","","","","","",""
"null","","1201664","SARL_v6aj88rev9","msl000097","fixation","","","img/fixation.png","null","","","test","","","","","","","","","","","","","","","","","","","",""
"298","","1201967","SARL_v6aj88rev9","msl000097","freq","","","img/green_2bandit_b2.png","70","","70","test","1","","","circle","square","18","18","18","1","0.8333333333333334","","","","","","","","","",""
"null","","1202475","SARL_v6aj88rev9","msl000097","freq_resp","","","img/green_2bandit_b.png","70","img/green_2bandit_b.png","70","test","","","","","","","","","1","","","","","","","","","","",""
"null","","1202632","SARL_v6aj88rev9","msl000097","fixation","","","img/fixation.png","null","","","test","","","","","","","","","","","","","","","","","","","",""
"319","","1202955","SARL_v6aj88rev9","msl000097","freq","","","img/green_2bandit_b2.png","70","","70","test","1","","","circle","square","19","19","19","1","0.8421052631578947","","","","","","","","","",""
"null","","1203442","SARL_v6aj88rev9","msl000097","freq_resp","","","img/green_2bandit_b.png","70","img/green_2bandit_b.png","70","test","","","","","","","","","1","","","","","","","","","","",""
"null","","1203597","SARL_v6aj88rev9","msl000097","fixation","","","img/fixation.png","null","","","test","","","","","","","","","","","","","","","","","","","",""
"261","","1203863","SARL_v6aj88rev9","msl000097","freq","","","img/green_2bandit_b2.png","70","","70","test","1","","","circle","square","20","20","20","1","0.85","","","","","","","","","",""
"null","","1204408","SARL_v6aj88rev9","msl000097","freq_resp","","","img/green_2bandit_b.png","70","img/green_2bandit_b.png","70","test","","","","","","","","","1","","","","","","","","","","",""
"null","","1204563","SARL_v6aj88rev9","msl000097","fixation","","","img/fixation.png","null","","","test","","","","","","","","","","","","","","","","","","","",""
"267","","1204834","SARL_v6aj88rev9","msl000097","freq","","","img/green_2bandit_b2.png","70","","70","test","1","","","circle","square","21","21","21","1","0.8571428571428571","","","","","","","","","",""
"null","","1205372","SARL_v6aj88rev9","msl000097","freq_resp","","","img/green_2bandit_b.png","70","img/green_2bandit_b.png","70","test","","","","","","","","","1","","","","","","","","","","",""
"null","","1205529","SARL_v6aj88rev9","msl000097","fixation","","","img/fixation.png","null","","","test","","","","","","","","","","","","","","","","","","","",""
"129","","1205663","SARL_v6aj88rev9","msl000097","freq","","","img/green_2bandit_b2.png","70","","70","test","1","","","circle","square","22","22","22","1","0.8636363636363636","","","","","","","","","",""
"null","","1206339","SARL_v6aj88rev9","msl000097","freq_resp","","","img/green_2bandit_b.png","70","img/green_2bandit_b.png","70","test","","","","","","","","","1","","","","","","","","","","",""
"null","","1206494","SARL_v6aj88rev9","msl000097","fixation","","","img/fixation.png","null","","","test","","","","","","","","","","","","","","","","","","","",""
"285","","1206784","SARL_v6aj88rev9","msl000097","freq","","","img/green_2bandit_b2.png","70","","70","test","1","","","circle","square","23","23","23","1","0.8695652173913043","","","","","","","","","",""
"null","","1207306","SARL_v6aj88rev9","msl000097","freq_resp","","","img/green_2bandit_b.png","70","img/green_2bandit_b.png","70","test","","","","","","","","","1","","","","","","","","","","",""
"null","","1207461","SARL_v6aj88rev9","msl000097","fixation","","","img/fixation.png","null","","","test","","","","","","","","","","","","","","","","","","","",""
"162","","1207629","SARL_v6aj88rev9","msl000097","freq","","","img/green_2bandit_b2.png","70","","70","test","1","","","circle","square","24","24","24","1","0.875","","","","","","","","","",""
"null","","1208272","SARL_v6aj88rev9","msl000097","freq_resp","","","img/green_2bandit_b.png","70","img/green_2bandit_b.png","70","test","","","","","","","","","1","","","","","","","","","","",""
"null","","1208429","SARL_v6aj88rev9","msl000097","fixation","","","img/fixation.png","null","","","test","","","","","","","","","","","","","","","","","","","",""
"249","","1208682","SARL_v6aj88rev9","msl000097","freq","","","img/green_2bandit_b2.png","70","","70","test","1","","","circle","square","25","25","25","1","0.88","","","","","","","","","",""
"null","","1209238","SARL_v6aj88rev9","msl000097","freq_resp","","","img/green_2bandit_b.png","70","img/green_2bandit_b.png","70","test","","","","","","","","","1","","","","","","","","","","",""
"null","","1209394","SARL_v6aj88rev9","msl000097","fixation","","","img/fixation.png","null","","","test","","","","","","","","","","","","","","","","","","","",""
"889","","1210288","SARL_v6aj88rev9","msl000097","rl","","","img/black_2bandit_b2.png","75","","0","test","","","0","circle","square","26","","0","1","","75","0.8","0.2","0.2383858620984245","0.8","0.2","0.2","square","1","0"
"null","","1211044","SARL_v6aj88rev9","msl000097","feedback","","","img/boo_R_b.png","null","","na","test","","","","","","","","","1","","75","0.8","0.2","","","","0.2","","1",""
"null","","1211851","SARL_v6aj88rev9","msl000097","freq","","","img/green_2bandit_b2.png","null","","70","test","0","","","circle","square","27","26","1","2","0.8461538461538461","","","","","","","","","",""
"null","","1212006","SARL_v6aj88rev9","msl000097","fixation","","","img/fixation.png","null","","","test","","","","","","","","","","","","","","","","","","","",""
"null","","1212812","SARL_v6aj88rev9","msl000097","infreq","","","img/orange_2bandit_b2.png","null","","68","test","0","","","circle","square","28","27","2","2","0.8148148148148148","","","","","","","","","",""
"null","","1212967","SARL_v6aj88rev9","msl000097","fixation","","","img/fixation.png","null","","","test","","","","","","","","","","","","","","","","","","","",""
"537","","1213509","SARL_v6aj88rev9","msl000097","freq","","","img/green_2bandit_b2.png","70","","70","test","1","","","circle","square","29","28","3","2","0.8214285714285714","","","","","","","","","",""
"null","","1213778","SARL_v6aj88rev9","msl000097","freq_resp","","","img/green_2bandit_b.png","70","img/green_2bandit_b.png","70","test","","","","","","","","","2","","","","","","","","","","",""
"null","","1213934","SARL_v6aj88rev9","msl000097","fixation","","","img/fixation.png","null","","","test","","","","","","","","","","","","","","","","","","","",""
"274","","1214212","SARL_v6aj88rev9","msl000097","freq","","","img/green_2bandit_b2.png","68","","70","test","0","","","circle","square","30","29","4","2","0.7931034482758621","","","","","","","","","",""
"null","","1214744","SARL_v6aj88rev9","msl000097","freq_resp","","","img/green_2bandit_b.png","68","img/green_2bandit_b.png","70","test","","","","","","","","","2","","","","","","","","","","",""
"null","","1214899","SARL_v6aj88rev9","msl000097","fixation","","","img/fixation.png","null","","","test","","","","","","","","","","","","","","","","","","","",""
"451","","1215355","SARL_v6aj88rev9","msl000097","freq","","","img/green_2bandit_b2.png","68","","70","test","0","","","circle","square","31","30","5","2","0.7666666666666667","","","","","","","","","",""
"null","","1215710","SARL_v6aj88rev9","msl000097","freq_resp","","","img/green_2bandit_b.png","68","img/green_2bandit_b.png","70","test","","","","","","","","","2","","","","","","","","","","",""
"null","","1215865","SARL_v6aj88rev9","msl000097","fixation","","","img/fixation.png","null","","","test","","","","","","","","","","","","","","","","","","","",""
"null","","1216671","SARL_v6aj88rev9","msl000097","freq","","","img/green_2bandit_b2.png","null","","70","test","0","","","circle","square","32","31","6","2","0.7419354838709677","","","","","","","","","",""
"null","","1216826","SARL_v6aj88rev9","msl000097","fixation","","","img/fixation.png","null","","","test","","","","","","","","","","","","","","","","","","","",""
"466","","1217298","SARL_v6aj88rev9","msl000097","freq","","","img/green_2bandit_b2.png","70","","70","test","1","","","circle","square","33","32","7","2","0.75","","","","","","","","","",""
"null","","1217638","SARL_v6aj88rev9","msl000097","freq_resp","","","img/green_2bandit_b.png","70","img/green_2bandit_b.png","70","test","","","","","","","","","2","","","","","","","","","","",""
"null","","1217794","SARL_v6aj88rev9","msl000097","fixation","","","img/fixation.png","null","","","test","","","","","","","","","","","","","","","","","","","",""
"154","","1217951","SARL_v6aj88rev9","msl000097","freq","","","img/green_2bandit_b2.png","70","","70","test","1","","","circle","square","34","33","8","2","0.7575757575757576","","","","","","","","","",""
"null","","1218603","SARL_v6aj88rev9","msl000097","freq_resp","","","img/green_2bandit_b.png","70","img/green_2bandit_b.png","70","test","","","","","","","","","2","","","","","","","","","","",""
"null","","1218760","SARL_v6aj88rev9","msl000097","fixation","","","img/fixation.png","null","","","test","","","","","","","","","","","","","","","","","","","",""
"104","","1218868","SARL_v6aj88rev9","msl000097","freq","","","img/green_2bandit_b2.png","70","","70","test","1","","","circle","square","35","34","9","2","0.7647058823529411","","","","","","","","","",""
"null","","1219569","SARL_v6aj88rev9","msl000097","freq_resp","","","img/green_2bandit_b.png","70","img/green_2bandit_b.png","70","test","","","","","","","","","2","","","","","","","","","","",""
"null","","1219724","SARL_v6aj88rev9","msl000097","fixation","","","img/fixation.png","null","","","test","","","","","","","","","","","","","","","","","","","",""
"67","","1219796","SARL_v6aj88rev9","msl000097","freq","","","img/green_2bandit_b2.png","70","","70","test","1","","","circle","square","36","35","10","2","0.7714285714285715","","","","","","","","","",""
"null","","1220536","SARL_v6aj88rev9","msl000097","freq_resp","","","img/green_2bandit_b.png","70","img/green_2bandit_b.png","70","test","","","","","","","","","2","","","","","","","","","","",""
"null","","1220690","SARL_v6aj88rev9","msl000097","fixation","","","img/fixation.png","null","","","test","","","","","","","","","","","","","","","","","","","",""
"26","","1220722","SARL_v6aj88rev9","msl000097","freq","","","img/green_2bandit_b2.png","70","","70","test","1","","","circle","square","37","36","11","2","0.7777777777777778","","","","","","","","","",""
"null","","1221502","SARL_v6aj88rev9","msl000097","freq_resp","","","img/green_2bandit_b.png","70","img/green_2bandit_b.png","70","test","","","","","","","","","2","","","","","","","","","","",""
"null","","1221658","SARL_v6aj88rev9","msl000097","fixation","","","img/fixation.png","null","","","test","","","","","","","","","","","","","","","","","","","",""
"20","","1221684","SARL_v6aj88rev9","msl000097","freq","","","img/green_2bandit_b2.png","70","","70","test","1","","","circle","square","38","37","12","2","0.7837837837837838","","","","","","","","","",""
"null","","1222469","SARL_v6aj88rev9","msl000097","freq_resp","","","img/green_2bandit_b.png","70","img/green_2bandit_b.png","70","test","","","","","","","","","2","","","","","","","","","","",""
"null","","1222625","SARL_v6aj88rev9","msl000097","fixation","","","img/fixation.png","null","","","test","","","","","","","","","","","","","","","","","","","",""
"38","","1222668","SARL_v6aj88rev9","msl000097","freq","","","img/green_2bandit_b2.png","70","","70","test","1","","","circle","square","39","38","13","2","0.7894736842105263","","","","","","","","","",""
"null","","1223437","SARL_v6aj88rev9","msl000097","freq_resp","","","img/green_2bandit_b.png","70","img/green_2bandit_b.png","70","test","","","","","","","","","2","","","","","","","","","","",""
"null","","1223593","SARL_v6aj88rev9","msl000097","fixation","","","img/fixation.png","null","","","test","","","","","","","","","","","","","","","","","","","",""
"48","","1223645","SARL_v6aj88rev9","msl000097","freq","","","img/green_2bandit_b2.png","70","","70","test","1","","","circle","square","40","39","14","2","0.7948717948717948","","","","","","","","","",""
"null","","1224404","SARL_v6aj88rev9","msl000097","freq_resp","","","img/green_2bandit_b.png","70","img/green_2bandit_b.png","70","test","","","","","","","","","2","","","","","","","","","","",""
"null","","1224558","SARL_v6aj88rev9","msl000097","fixation","","","img/fixation.png","null","","","test","","","","","","","","","","","","","","","","","","","",""
"355","","1224919","SARL_v6aj88rev9","msl000097","freq","","","img/green_2bandit_b2.png","70","","70","test","1","","","circle","square","41","40","15","2","0.8","","","","","","","","","",""
"null","","1225368","SARL_v6aj88rev9","msl000097","freq_resp","","","img/green_2bandit_b.png","70","img/green_2bandit_b.png","70","test","","","","","","","","","2","","","","","","","","","","",""
"null","","1225523","SARL_v6aj88rev9","msl000097","fixation","","","img/fixation.png","null","","","test","","","","","","","","","","","","","","","","","","","",""
"196","","1225723","SARL_v6aj88rev9","msl000097","freq","","","img/green_2bandit_b2.png","70","","70","test","1","","","circle","square","42","41","16","2","0.8048780487804879","","","","","","","","","",""
"null","","1226333","SARL_v6aj88rev9","msl000097","freq_resp","","","img/green_2bandit_b.png","70","img/green_2bandit_b.png","70","test","","","","","","","","","2","","","","","","","","","","",""
"null","","1226488","SARL_v6aj88rev9","msl000097","fixation","","","img/fixation.png","null","","","test","","","","","","","","","","","","","","","","","","","",""
"138","","1226631","SARL_v6aj88rev9","msl000097","infreq","","","img/orange_2bandit_b2.png","70","","68","test","0","","","circle","square","43","42","17","2","0.7857142857142857","","","","","","","","","",""
"null","","1227299","SARL_v6aj88rev9","msl000097","infreq_resp","","","img/orange_2bandit_b.png","70","img/orange_2bandit_b.png","68","test","","","","","","","","","2","","","","","","","","","","",""
"null","","1227455","SARL_v6aj88rev9","msl000097","fixation","","","img/fixation.png","null","","","test","","","","","","","","","","","","","","","","","","","",""
"371","","1227830","SARL_v6aj88rev9","msl000097","freq","","","img/green_2bandit_b2.png","70","","70","test","1","","","circle","square","44","43","18","2","0.7906976744186046","","","","","","","","","",""
"null","","1228265","SARL_v6aj88rev9","msl000097","freq_resp","","","img/green_2bandit_b.png","70","img/green_2bandit_b.png","70","test","","","","","","","","","2","","","","","","","","","","",""
"null","","1228421","SARL_v6aj88rev9","msl000097","fixation","","","img/fixation.png","null","","","test","","","","","","","","","","","","","","","","","","","",""
"340","","1228766","SARL_v6aj88rev9","msl000097","freq","","","img/green_2bandit_b2.png","70","","70","test","1","","","circle","square","45","44","19","2","0.7954545454545454","","","","","","","","","",""
"null","","1229230","SARL_v6aj88rev9","msl000097","freq_resp","","","img/green_2bandit_b.png","70","img/green_2bandit_b.png","70","test","","","","","","","","","2","","","","","","","","","","",""
"null","","1229386","SARL_v6aj88rev9","msl000097","fixation","","","img/fixation.png","null","","","test","","","","","","","","","","","","","","","","","","","",""
"559","","1229949","SARL_v6aj88rev9","msl000097","rl","","","img/black_2bandit_b2.png","75","","0","test","","","0","circle","square","46","","0","2","","75","0.8","0.2","0.35072212168055716","0.8","0.2","0.2","square","2","0"
"null","","1230705","SARL_v6aj88rev9","msl000097","feedback","","","img/boo_R_b.png","null","","na","test","","","","","","","","","2","","75","0.8","0.2","","","","0.2","","2",""
"755","","1231466","SARL_v6aj88rev9","msl000097","freq","","","img/green_2bandit_b2.png","70","","70","test","1","","","circle","square","47","45","1","3","0.8","","","","","","","","","",""
"null","","1231516","SARL_v6aj88rev9","msl000097","freq_resp","","","img/green_2bandit_b.png","70","img/green_2bandit_b.png","70","test","","","","","","","","","3","","","","","","","","","","",""
"null","","1231671","SARL_v6aj88rev9","msl000097","fixation","","","img/fixation.png","null","","","test","","","","","","","","","","","","","","","","","","","",""
"null","","1232476","SARL_v6aj88rev9","msl000097","freq","","","img/green_2bandit_b2.png","null","","70","test","0","","","circle","square","48","46","2","3","0.782608695652174","","","","","","","","","",""
"null","","1232633","SARL_v6aj88rev9","msl000097","fixation","","","img/fixation.png","null","","","test","","","","","","","","","","","","","","","","","","","",""
"454","","1233092","SARL_v6aj88rev9","msl000097","freq","","","img/green_2bandit_b2.png","70","","70","test","1","","","circle","square","49","47","3","3","0.7872340425531915","","","","","","","","","",""
"null","","1233443","SARL_v6aj88rev9","msl000097","freq_resp","","","img/green_2bandit_b.png","70","img/green_2bandit_b.png","70","test","","","","","","","","","3","","","","","","","","","","",""
"null","","1233598","SARL_v6aj88rev9","msl000097","fixation","","","img/fixation.png","null","","","test","","","","","","","","","","","","","","","","","","","",""
"204","","1233807","SARL_v6aj88rev9","msl000097","freq","","","img/green_2bandit_b2.png","70","","70","test","1","","","circle","square","50","48","4","3","0.7916666666666666","","","","","","","","","",""
"null","","1234409","SARL_v6aj88rev9","msl000097","freq_resp","","","img/green_2bandit_b.png","70","img/green_2bandit_b.png","70","test","","","","","","","","","3","","","","","","","","","","",""
"null","","1234565","SARL_v6aj88rev9","msl000097","fixation","","","img/fixation.png","null","","","test","","","","","","","","","","","","","","","","","","","",""
"77","","1234648","SARL_v6aj88rev9","msl000097","freq","","","img/green_2bandit_b2.png","70","","70","test","1","","","circle","square","51","49","5","3","0.7959183673469388","","","","","","","","","",""
"null","","1235376","SARL_v6aj88rev9","msl000097","freq_resp","","","img/green_2bandit_b.png","70","img/green_2bandit_b.png","70","test","","","","","","","","","3","","","","","","","","","","",""
"null","","1235532","SARL_v6aj88rev9","msl000097","fixation","","","img/fixation.png","null","","","test","","","","","","","","","","","","","","","","","","","",""
"118","","1235654","SARL_v6aj88rev9","msl000097","freq","","","img/green_2bandit_b2.png","70","","70","test","1","","","circle","square","52","50","6","3","0.8","","","","","","","","","",""
"null","","1236342","SARL_v6aj88rev9","msl000097","freq_resp","","","img/green_2bandit_b.png","70","img/green_2bandit_b.png","70","test","","","","","","","","","3","","","","","","","","","","",""
"null","","1236498","SARL_v6aj88rev9","msl000097","fixation","","","img/fixation.png","null","","","test","","","","","","","","","","","","","","","","","","","",""
"126","","1236628","SARL_v6aj88rev9","msl000097","infreq","","","img/orange_2bandit_b2.png","70","","68","test","0","","","circle","square","53","51","7","3","0.7843137254901961","","","","","","","","","",""
"null","","1237307","SARL_v6aj88rev9","msl000097","infreq_resp","","","img/orange_2bandit_b.png","70","img/orange_2bandit_b.png","68","test","","","","","","","","","3","","","","","","","","","","",""
"null","","1237463","SARL_v6aj88rev9","msl000097","fixation","","","img/fixation.png","null","","","test","","","","","","","","","","","","","","","","","","","",""
"259","","1237726","SARL_v6aj88rev9","msl000097","freq","","","img/green_2bandit_b2.png","70","","70","test","1","","","circle","square","54","52","8","3","0.7884615384615384","","","","","","","","","",""
"null","","1238273","SARL_v6aj88rev9","msl000097","freq_resp","","","img/green_2bandit_b.png","70","img/green_2bandit_b.png","70","test","","","","","","","","","3","","","","","","","","","","",""
"null","","1238429","SARL_v6aj88rev9","msl000097","fixation","","","img/fixation.png","null","","","test","","","","","","","","","","","","","","","","","","","",""
"208","","1238642","SARL_v6aj88rev9","msl000097","freq","","","img/green_2bandit_b2.png","70","","70","test","1","","","circle","square","55","53","9","3","0.7924528301886793","","","","","","","","","",""
"null","","1239239","SARL_v6aj88rev9","msl000097","freq_resp","","","img/green_2bandit_b.png","70","img/green_2bandit_b.png","70","test","","","","","","","","","3","","","","","","","","","","",""
"null","","1239394","SARL_v6aj88rev9","msl000097","fixation","","","img/fixation.png","null","","","test","","","","","","","","","","","","","","","","","","","",""
"99","","1239499","SARL_v6aj88rev9","msl000097","freq","","","img/green_2bandit_b2.png","70","","70","test","1","","","circle","square","56","54","10","3","0.7962962962962963","","","","","","","","","",""
"null","","1240206","SARL_v6aj88rev9","msl000097","freq_resp","","","img/green_2bandit_b.png","70","img/green_2bandit_b.png","70","test","","","","","","","","","3","","","","","","","","","","",""
"null","","1240362","SARL_v6aj88rev9","msl000097","fixation","","","img/fixation.png","null","","","test","","","","","","","","","","","","","","","","","","","",""
"506","","1240873","SARL_v6aj88rev9","msl000097","freq","","","img/green_2bandit_b2.png","70","","70","test","1","","","circle","square","57","55","11","3","0.8","","","","","","","","","",""
"null","","1241174","SARL_v6aj88rev9","msl000097","freq_resp","","","img/green_2bandit_b.png","70","img/green_2bandit_b.png","70","test","","","","","","","","","3","","","","","","","","","","",""
"null","","1241330","SARL_v6aj88rev9","msl000097","fixation","","","img/fixation.png","null","","","test","","","","","","","","","","","","","","","","","","","",""
"347","","1241681","SARL_v6aj88rev9","msl000097","freq","","","img/green_2bandit_b2.png","70","","70","test","1","","","circle","square","58","56","12","3","0.8035714285714286","","","","","","","","","",""
"null","","1242139","SARL_v6aj88rev9","msl000097","freq_resp","","","img/green_2bandit_b.png","70","img/green_2bandit_b.png","70","test","","","","","","","","","3","","","","","","","","","","",""
"null","","1242294","SARL_v6aj88rev9","msl000097","fixation","","","img/fixation.png","null","","","test","","","","","","","","","","","","","","","","","","","",""
"315","","1242613","SARL_v6aj88rev9","msl000097","freq","","","img/green_2bandit_b2.png","70","","70","test","1","","","circle","square","59","57","13","3","0.8070175438596491","","","","","","","","","",""
"null","","1243103","SARL_v6aj88rev9","msl000097","freq_resp","","","img/green_2bandit_b.png","70","img/green_2bandit_b.png","70","test","","","","","","","","","3","","","","","","","","","","",""
"null","","1243258","SARL_v6aj88rev9","msl000097","fixation","","","img/fixation.png","null","","","test","","","","","","","","","","","","","","","","","","","",""
"325","","1243588","SARL_v6aj88rev9","msl000097","freq","","","img/green_2bandit_b2.png","70","","70","test","1","","","circle","square","60","58","14","3","0.8103448275862069","","","","","","","","","",""
"null","","1244069","SARL_v6aj88rev9","msl000097","freq_resp","","","img/green_2bandit_b.png","70","img/green_2bandit_b.png","70","test","","","","","","","","","3","","","","","","","","","","",""
"null","","1244225","SARL_v6aj88rev9","msl000097","fixation","","","img/fixation.png","null","","","test","","","","","","","","","","","","","","","","","","","",""
"310","","1244541","SARL_v6aj88rev9","msl000097","freq","","","img/green_2bandit_b2.png","70","","70","test","1","","","circle","square","61","59","15","3","0.8135593220338984","","","","","","","","","",""
"null","","1245038","SARL_v6aj88rev9","msl000097","freq_resp","","","img/green_2bandit_b.png","70","img/green_2bandit_b.png","70","test","","","","","","","","","3","","","","","","","","","","",""
"null","","1245194","SARL_v6aj88rev9","msl000097","fixation","","","img/fixation.png","null","","","test","","","","","","","","","","","","","","","","","","","",""
"300","","1245500","SARL_v6aj88rev9","msl000097","freq","","","img/green_2bandit_b2.png","70","","70","test","1","","","circle","square","62","60","16","3","0.8166666666666667","","","","","","","","","",""
"null","","1246006","SARL_v6aj88rev9","msl000097","freq_resp","","","img/green_2bandit_b.png","70","img/green_2bandit_b.png","70","test","","","","","","","","","3","","","","","","","","","","",""
"null","","1246163","SARL_v6aj88rev9","msl000097","fixation","","","img/fixation.png","null","","","test","","","","","","","","","","","","","","","","","","","",""
"397","","1246565","SARL_v6aj88rev9","msl000097","freq","","","img/green_2bandit_b2.png","70","","70","test","1","","","circle","square","63","61","17","3","0.819672131147541","","","","","","","","","",""
"null","","1246975","SARL_v6aj88rev9","msl000097","freq_resp","","","img/green_2bandit_b.png","70","img/green_2bandit_b.png","70","test","","","","","","","","","3","","","","","","","","","","",""
"null","","1247130","SARL_v6aj88rev9","msl000097","fixation","","","img/fixation.png","null","","","test","","","","","","","","","","","","","","","","","","","",""
"406","","1247541","SARL_v6aj88rev9","msl000097","infreq","","","img/orange_2bandit_b2.png","68","","68","test","1","","","circle","square","64","62","18","3","0.8225806451612904","","","","","","","","","",""
"null","","1247940","SARL_v6aj88rev9","msl000097","infreq_resp","","","img/orange_2bandit_b.png","68","img/orange_2bandit_b.png","68","test","","","","","","","","","3","","","","","","","","","","",""
"null","","1248096","SARL_v6aj88rev9","msl000097","fixation","","","img/fixation.png","null","","","test","","","","","","","","","","","","","","","","","","","",""
"452","","1248551","SARL_v6aj88rev9","msl000097","freq","","","img/green_2bandit_b2.png","70","","70","test","1","","","circle","square","65","63","19","3","0.8253968253968254","","","","","","","","","",""
"null","","1248905","SARL_v6aj88rev9","msl000097","freq_resp","","","img/green_2bandit_b.png","70","img/green_2bandit_b.png","70","test","","","","","","","","","3","","","","","","","","","","",""
"null","","1249060","SARL_v6aj88rev9","msl000097","fixation","","","img/fixation.png","null","","","test","","","","","","","","","","","","","","","","","","","",""
"282","","1249348","SARL_v6aj88rev9","msl000097","freq","","","img/green_2bandit_b2.png","70","","70","test","1","","","circle","square","66","64","20","3","0.828125","","","","","","","","","",""
"null","","1249873","SARL_v6aj88rev9","msl000097","freq_resp","","","img/green_2bandit_b.png","70","img/green_2bandit_b.png","70","test","","","","","","","","","3","","","","","","","","","","",""
"null","","1250029","SARL_v6aj88rev9","msl000097","fixation","","","img/fixation.png","null","","","test","","","","","","","","","","","","","","","","","","","",""
"237","","1250272","SARL_v6aj88rev9","msl000097","infreq","","","img/orange_2bandit_b2.png","70","","68","test","0","","","circle","square","67","65","21","3","0.8153846153846154","","","","","","","","","",""
"null","","1250840","SARL_v6aj88rev9","msl000097","infreq_resp","","","img/orange_2bandit_b.png","70","img/orange_2bandit_b.png","68","test","","","","","","","","","3","","","","","","","","","","",""
"null","","1250997","SARL_v6aj88rev9","msl000097","fixation","","","img/fixation.png","null","","","test","","","","","","","","","","","","","","","","","","","",""
"260","","1251261","SARL_v6aj88rev9","msl000097","freq","","","img/green_2bandit_b2.png","70","","70","test","1","","","circle","square","68","66","22","3","0.8181818181818182","","","","","","","","","",""
"null","","1251807","SARL_v6aj88rev9","msl000097","freq_resp","","","img/green_2bandit_b.png","70","img/green_2bandit_b.png","70","test","","","","","","","","","3","","","","","","","","","","",""
"null","","1251963","SARL_v6aj88rev9","msl000097","fixation","","","img/fixation.png","null","","","test","","","","","","","","","","","","","","","","","","","",""
"260","","1252229","SARL_v6aj88rev9","msl000097","freq","","","img/green_2bandit_b2.png","70","","70","test","1","","","circle","square","69","67","23","3","0.8208955223880597","","","","","","","","","",""
"null","","1252774","SARL_v6aj88rev9","msl000097","freq_resp","","","img/green_2bandit_b.png","70","img/green_2bandit_b.png","70","test","","","","","","","","","3","","","","","","","","","","",""
"null","","1252931","SARL_v6aj88rev9","msl000097","fixation","","","img/fixation.png","null","","","test","","","","","","","","","","","","","","","","","","","",""
"313","","1253249","SARL_v6aj88rev9","msl000097","freq","","","img/green_2bandit_b2.png","70","","70","test","1","","","circle","square","70","68","24","3","0.8235294117647058","","","","","","","","","",""
"null","","1253741","SARL_v6aj88rev9","msl000097","freq_resp","","","img/green_2bandit_b.png","70","img/green_2bandit_b.png","70","test","","","","","","","","","3","","","","","","","","","","",""
"null","","1253896","SARL_v6aj88rev9","msl000097","fixation","","","img/fixation.png","null","","","test","","","","","","","","","","","","","","","","","","","",""
"315","","1254215","SARL_v6aj88rev9","msl000097","freq","","","img/green_2bandit_b2.png","70","","70","test","1","","","circle","square","71","69","25","3","0.8260869565217391","","","","","","","","","",""
"null","","1254706","SARL_v6aj88rev9","msl000097","freq_resp","","","img/green_2bandit_b.png","70","img/green_2bandit_b.png","70","test","","","","","","","","","3","","","","","","","","","","",""
"null","","1254861","SARL_v6aj88rev9","msl000097","fixation","","","img/fixation.png","null","","","test","","","","","","","","","","","","","","","","","","","",""
"330","","1255197","SARL_v6aj88rev9","msl000097","freq","","","img/green_2bandit_b2.png","70","","70","test","1","","","circle","square","72","70","26","3","0.8285714285714286","","","","","","","","","",""
"null","","1255673","SARL_v6aj88rev9","msl000097","freq_resp","","","img/green_2bandit_b.png","70","img/green_2bandit_b.png","70","test","","","","","","","","","3","","","","","","","","","","",""
"null","","1255829","SARL_v6aj88rev9","msl000097","fixation","","","img/fixation.png","null","","","test","","","","","","","","","","","","","","","","","","","",""
"326","","1256159","SARL_v6aj88rev9","msl000097","freq","","","img/green_2bandit_b2.png","70","","70","test","1","","","circle","square","73","71","27","3","0.8309859154929577","","","","","","","","","",""
"null","","1256639","SARL_v6aj88rev9","msl000097","freq_resp","","","img/green_2bandit_b.png","70","img/green_2bandit_b.png","70","test","","","","","","","","","3","","","","","","","","","","",""
"null","","1256795","SARL_v6aj88rev9","msl000097","fixation","","","img/fixation.png","null","","","test","","","","","","","","","","","","","","","","","","","",""
"353","","1257153","SARL_v6aj88rev9","msl000097","freq","","","img/green_2bandit_b2.png","70","","70","test","1","","","circle","square","74","72","28","3","0.8333333333333334","","","","","","","","","",""
"null","","1257607","SARL_v6aj88rev9","msl000097","freq_resp","","","img/green_2bandit_b.png","70","img/green_2bandit_b.png","70","test","","","","","","","","","3","","","","","","","","","","",""
"null","","1257763","SARL_v6aj88rev9","msl000097","fixation","","","img/fixation.png","null","","","test","","","","","","","","","","","","","","","","","","","",""
"1095","","1258863","SARL_v6aj88rev9","msl000097","rl","","","img/black_2bandit_b2.png","74","","0","test","","","1","circle","square","75","","0","3","","74","0.8","0.2","0.5368152137068616","0.8","0.2","0.8","circle","3","0"
"null","","1259618","SARL_v6aj88rev9","msl000097","feedback","","","img/yay_L_b.png","null","","na","test","","","","","","","","","3","","74","0.8","0.2","","","","0.8","","3",""
"606","","1260230","SARL_v6aj88rev9","msl000097","freq","","","img/green_2bandit_b2.png","70","","70","test","1","","","circle","square","76","73","1","4","0.8356164383561644","","","","","","","","","",""
"null","","1260430","SARL_v6aj88rev9","msl000097","freq_resp","","","img/green_2bandit_b.png","70","img/green_2bandit_b.png","70","test","","","","","","","","","4","","","","","","","","","","",""
"null","","1260585","SARL_v6aj88rev9","msl000097","fixation","","","img/fixation.png","null","","","test","","","","","","","","","","","","","","","","","","","",""
"361","","1260951","SARL_v6aj88rev9","msl000097","freq","","","img/green_2bandit_b2.png","70","","70","test","1","","","circle","square","77","74","2","4","0.8378378378378378","","","","","","","","","",""
"null","","1261396","SARL_v6aj88rev9","msl000097","freq_resp","","","img/green_2bandit_b.png","70","img/green_2bandit_b.png","70","test","","","","","","","","","4","","","","","","","","","","",""
"null","","1261552","SARL_v6aj88rev9","msl000097","fixation","","","img/fixation.png","null","","","test","","","","","","","","","","","","","","","","","","","",""
"224","","1261781","SARL_v6aj88rev9","msl000097","freq","","","img/green_2bandit_b2.png","70","","70","test","1","","","circle","square","78","75","3","4","0.84","","","","","","","","","",""
"null","","1262364","SARL_v6aj88rev9","msl000097","freq_resp","","","img/green_2bandit_b.png","70","img/green_2bandit_b.png","70","test","","","","","","","","","4","","","","","","","","","","",""
"null","","1262520","SARL_v6aj88rev9","msl000097","fixation","","","img/fixation.png","null","","","test","","","","","","","","","","","","","","","","","","","",""
"159","","1262683","SARL_v6aj88rev9","msl000097","freq","","","img/green_2bandit_b2.png","70","","70","test","1","","","circle","square","79","76","4","4","0.8421052631578947","","","","","","","","","",""
"null","","1263330","SARL_v6aj88rev9","msl000097","freq_resp","","","img/green_2bandit_b.png","70","img/green_2bandit_b.png","70","test","","","","","","","","","4","","","","","","","","","","",""
"null","","1263485","SARL_v6aj88rev9","msl000097","fixation","","","img/fixation.png","null","","","test","","","","","","","","","","","","","","","","","","","",""
"85","","1263575","SARL_v6aj88rev9","msl000097","freq","","","img/green_2bandit_b2.png","70","","70","test","1","","","circle","square","80","77","5","4","0.8441558441558441","","","","","","","","","",""
"null","","1264296","SARL_v6aj88rev9","msl000097","freq_resp","","","img/green_2bandit_b.png","70","img/green_2bandit_b.png","70","test","","","","","","","","","4","","","","","","","","","","",""
"null","","1264451","SARL_v6aj88rev9","msl000097","fixation","","","img/fixation.png","null","","","test","","","","","","","","","","","","","","","","","","","",""
"60","","1264515","SARL_v6aj88rev9","msl000097","freq","","","img/green_2bandit_b2.png","70","","70","test","1","","","circle","square","81","78","6","4","0.8461538461538461","","","","","","","","","",""
"null","","1265261","SARL_v6aj88rev9","msl000097","freq_resp","","","img/green_2bandit_b.png","70","img/green_2bandit_b.png","70","test","","","","","","","","","4","","","","","","","","","","",""
"null","","1265418","SARL_v6aj88rev9","msl000097","fixation","","","img/fixation.png","null","","","test","","","","","","","","","","","","","","","","","","","",""
"86","","1265507","SARL_v6aj88rev9","msl000097","infreq","","","img/orange_2bandit_b2.png","70","","68","test","0","","","circle","square","82","79","7","4","0.8354430379746836","","","","","","","","","",""
"null","","1266228","SARL_v6aj88rev9","msl000097","infreq_resp","","","img/orange_2bandit_b.png","70","img/orange_2bandit_b.png","68","test","","","","","","","","","4","","","","","","","","","","",""
"null","","1266384","SARL_v6aj88rev9","msl000097","fixation","","","img/fixation.png","null","","","test","","","","","","","","","","","","","","","","","","","",""
"295","","1266683","SARL_v6aj88rev9","msl000097","freq","","","img/green_2bandit_b2.png","70","","70","test","1","","","circle","square","83","80","8","4","0.8375","","","","","","","","","",""
"null","","1267194","SARL_v6aj88rev9","msl000097","freq_resp","","","img/green_2bandit_b.png","70","img/green_2bandit_b.png","70","test","","","","","","","","","4","","","","","","","","","","",""
"null","","1267350","SARL_v6aj88rev9","msl000097","fixation","","","img/fixation.png","null","","","test","","","","","","","","","","","","","","","","","","","",""
"247","","1267600","SARL_v6aj88rev9","msl000097","freq","","","img/green_2bandit_b2.png","70","","70","test","1","","","circle","square","84","81","9","4","0.8395061728395061","","","","","","","","","",""
"null","","1268159","SARL_v6aj88rev9","msl000097","freq_resp","","","img/green_2bandit_b.png","70","img/green_2bandit_b.png","70","test","","","","","","","","","4","","","","","","","","","","",""
"null","","1268315","SARL_v6aj88rev9","msl000097","fixation","","","img/fixation.png","null","","","test","","","","","","","","","","","","","","","","","","","",""
"84","","1268403","SARL_v6aj88rev9","msl000097","freq","","","img/green_2bandit_b2.png","70","","70","test","1","","","circle","square","85","82","10","4","0.8414634146341463","","","","","","","","","",""
"null","","1269124","SARL_v6aj88rev9","msl000097","freq_resp","","","img/green_2bandit_b.png","70","img/green_2bandit_b.png","70","test","","","","","","","","","4","","","","","","","","","","",""
"null","","1269280","SARL_v6aj88rev9","msl000097","fixation","","","img/fixation.png","null","","","test","","","","","","","","","","","","","","","","","","","",""
"92","","1269376","SARL_v6aj88rev9","msl000097","freq","","","img/green_2bandit_b2.png","70","","70","test","1","","","circle","square","86","83","11","4","0.8433734939759037","","","","","","","","","",""
"null","","1270090","SARL_v6aj88rev9","msl000097","freq_resp","","","img/green_2bandit_b.png","70","img/green_2bandit_b.png","70","test","","","","","","","","","4","","","","","","","","","","",""
"null","","1270245","SARL_v6aj88rev9","msl000097","fixation","","","img/fixation.png","null","","","test","","","","","","","","","","","","","","","","","","","",""
"355","","1270605","SARL_v6aj88rev9","msl000097","freq","","","img/green_2bandit_b2.png","70","","70","test","1","","","circle","square","87","84","12","4","0.8452380952380952","","","","","","","","","",""
"null","","1271056","SARL_v6aj88rev9","msl000097","freq_resp","","","img/green_2bandit_b.png","70","img/green_2bandit_b.png","70","test","","","","","","","","","4","","","","","","","","","","",""
"null","","1271212","SARL_v6aj88rev9","msl000097","fixation","","","img/fixation.png","null","","","test","","","","","","","","","","","","","","","","","","","",""
"142","","1271359","SARL_v6aj88rev9","msl000097","infreq","","","img/orange_2bandit_b2.png","70","","68","test","0","","","circle","square","88","85","13","4","0.8352941176470589","","","","","","","","","",""
"null","","1272021","SARL_v6aj88rev9","msl000097","infreq_resp","","","img/orange_2bandit_b.png","70","img/orange_2bandit_b.png","68","test","","","","","","","","","4","","","","","","","","","","",""
"null","","1272177","SARL_v6aj88rev9","msl000097","fixation","","","img/fixation.png","null","","","test","","","","","","","","","","","","","","","","","","","",""
"86","","1272269","SARL_v6aj88rev9","msl000097","freq","","","img/green_2bandit_b2.png","70","","70","test","1","","","circle","square","89","86","14","4","0.8372093023255814","","","","","","","","","",""
"null","","1272988","SARL_v6aj88rev9","msl000097","freq_resp","","","img/green_2bandit_b.png","70","img/green_2bandit_b.png","70","test","","","","","","","","","4","","","","","","","","","","",""
"null","","1273145","SARL_v6aj88rev9","msl000097","fixation","","","img/fixation.png","null","","","test","","","","","","","","","","","","","","","","","","","",""
"51","","1273201","SARL_v6aj88rev9","msl000097","freq","","","img/green_2bandit_b2.png","70","","70","test","1","","","circle","square","90","87","15","4","0.8390804597701149","","","","","","","","","",""
"null","","1273956","SARL_v6aj88rev9","msl000097","freq_resp","","","img/green_2bandit_b.png","70","img/green_2bandit_b.png","70","test","","","","","","","","","4","","","","","","","","","","",""
"null","","1274112","SARL_v6aj88rev9","msl000097","fixation","","","img/fixation.png","null","","","test","","","","","","","","","","","","","","","","","","","",""
"36","","1274153","SARL_v6aj88rev9","msl000097","freq","","","img/green_2bandit_b2.png","70","","70","test","1","","","circle","square","91","88","16","4","0.8409090909090909","","","","","","","","","",""
"null","","1274923","SARL_v6aj88rev9","msl000097","freq_resp","","","img/green_2bandit_b.png","70","img/green_2bandit_b.png","70","test","","","","","","","","","4","","","","","","","","","","",""
"null","","1275079","SARL_v6aj88rev9","msl000097","fixation","","","img/fixation.png","null","","","test","","","","","","","","","","","","","","","","","","","",""
"17","","1275102","SARL_v6aj88rev9","msl000097","freq","","","img/green_2bandit_b2.png","70","","70","test","1","","","circle","square","92","89","17","4","0.8426966292134831","","","","","","","","","",""
"null","","1275891","SARL_v6aj88rev9","msl000097","freq_resp","","","img/green_2bandit_b.png","70","img/green_2bandit_b.png","70","test","","","","","","","","","4","","","","","","","","","","",""
"null","","1276047","SARL_v6aj88rev9","msl000097","fixation","","","img/fixation.png","null","","","test","","","","","","","","","","","","","","","","","","","",""
"637","","1276689","SARL_v6aj88rev9","msl000097","freq","","","img/green_2bandit_b2.png","70","","70","test","1","","","circle","square","93","90","18","4","0.8444444444444444","","","","","","","","","",""
"null","","1276858","SARL_v6aj88rev9","msl000097","freq_resp","","","img/green_2bandit_b.png","70","img/green_2bandit_b.png","70","test","","","","","","","","","4","","","","","","","","","","",""
"null","","1277013","SARL_v6aj88rev9","msl000097","fixation","","","img/fixation.png","null","","","test","","","","","","","","","","","","","","","","","","","",""
"328","","1277346","SARL_v6aj88rev9","msl000097","freq","","","img/green_2bandit_b2.png","70","","70","test","1","","","circle","square","94","91","19","4","0.8461538461538461","","","","","","","","","",""
"null","","1277824","SARL_v6aj88rev9","msl000097","freq_resp","","","img/green_2bandit_b.png","70","img/green_2bandit_b.png","70","test","","","","","","","","","4","","","","","","","","","","",""
"null","","1277980","SARL_v6aj88rev9","msl000097","fixation","","","img/fixation.png","null","","","test","","","","","","","","","","","","","","","","","","","",""
"426","","1278411","SARL_v6aj88rev9","msl000097","freq","","","img/green_2bandit_b2.png","70","","70","test","1","","","circle","square","95","92","20","4","0.8478260869565217","","","","","","","","","",""
"null","","1278790","SARL_v6aj88rev9","msl000097","freq_resp","","","img/green_2bandit_b.png","70","img/green_2bandit_b.png","70","test","","","","","","","","","4","","","","","","","","","","",""
"null","","1278946","SARL_v6aj88rev9","msl000097","fixation","","","img/fixation.png","null","","","test","","","","","","","","","","","","","","","","","","","",""
"292","","1279243","SARL_v6aj88rev9","msl000097","freq","","","img/green_2bandit_b2.png","70","","70","test","1","","","circle","square","96","93","21","4","0.8494623655913979","","","","","","","","","",""
"null","","1279756","SARL_v6aj88rev9","msl000097","freq_resp","","","img/green_2bandit_b.png","70","img/green_2bandit_b.png","70","test","","","","","","","","","4","","","","","","","","","","",""
"null","","1279911","SARL_v6aj88rev9","msl000097","fixation","","","img/fixation.png","null","","","test","","","","","","","","","","","","","","","","","","","",""
"419","","1280335","SARL_v6aj88rev9","msl000097","infreq","","","img/orange_2bandit_b2.png","68","","68","test","1","","","circle","square","97","94","22","4","0.851063829787234","","","","","","","","","",""
"null","","1280722","SARL_v6aj88rev9","msl000097","infreq_resp","","","img/orange_2bandit_b.png","68","img/orange_2bandit_b.png","68","test","","","","","","","","","4","","","","","","","","","","",""
"null","","1280878","SARL_v6aj88rev9","msl000097","fixation","","","img/fixation.png","null","","","test","","","","","","","","","","","","","","","","","","","",""
"281","","1281163","SARL_v6aj88rev9","msl000097","freq","","","img/green_2bandit_b2.png","70","","70","test","1","","","circle","square","98","95","23","4","0.8526315789473684","","","","","","","","","",""
"null","","1281688","SARL_v6aj88rev9","msl000097","freq_resp","","","img/green_2bandit_b.png","70","img/green_2bandit_b.png","70","test","","","","","","","","","4","","","","","","","","","","",""
"null","","1281844","SARL_v6aj88rev9","msl000097","fixation","","","img/fixation.png","null","","","test","","","","","","","","","","","","","","","","","","","",""
"265","","1282114","SARL_v6aj88rev9","msl000097","freq","","","img/green_2bandit_b2.png","70","","70","test","1","","","circle","square","99","96","24","4","0.8541666666666666","","","","","","","","","",""
"null","","1282654","SARL_v6aj88rev9","msl000097","freq_resp","","","img/green_2bandit_b.png","70","img/green_2bandit_b.png","70","test","","","","","","","","","4","","","","","","","","","","",""
"null","","1282810","SARL_v6aj88rev9","msl000097","fixation","","","img/fixation.png","null","","","test","","","","","","","","","","","","","","","","","","","",""
"874","","1283688","SARL_v6aj88rev9","msl000097","rl","","","img/black_2bandit_b2.png","75","","0","test","","","1","circle","square","100","","0","4","","75","0.8","0.2","0.09899863996132041","0.8","0.2","0.2","square","4","0"
"null","","1284444","SARL_v6aj88rev9","msl000097","feedback","","","img/yay_R_b.png","null","","na","test","","","","","","","","","4","","75","0.8","0.2","","","","0.2","","4",""
"489","","1284938","SARL_v6aj88rev9","msl000097","freq","","","img/green_2bandit_b2.png","70","","70","test","1","","","circle","square","101","97","1","5","0.8556701030927835","","","","","","","","","",""
"null","","1285255","SARL_v6aj88rev9","msl000097","freq_resp","","","img/green_2bandit_b.png","70","img/green_2bandit_b.png","70","test","","","","","","","","","5","","","","","","","","","","",""
"null","","1285411","SARL_v6aj88rev9","msl000097","fixation","","","img/fixation.png","null","","","test","","","","","","","","","","","","","","","","","","","",""
"316","","1285732","SARL_v6aj88rev9","msl000097","freq","","","img/green_2bandit_b2.png","70","","70","test","1","","","circle","square","102","98","2","5","0.8571428571428571","","","","","","","","","",""
"null","","1286222","SARL_v6aj88rev9","msl000097","freq_resp","","","img/green_2bandit_b.png","70","img/green_2bandit_b.png","70","test","","","","","","","","","5","","","","","","","","","","",""
"null","","1286377","SARL_v6aj88rev9","msl000097","fixation","","","img/fixation.png","null","","","test","","","","","","","","","","","","","","","","","","","",""
"127","","1286509","SARL_v6aj88rev9","msl000097","freq","","","img/green_2bandit_b2.png","70","","70","test","1","","","circle","square","103","99","3","5","0.8585858585858586","","","","","","","","","",""
"null","","1287188","SARL_v6aj88rev9","msl000097","freq_resp","","","img/green_2bandit_b.png","70","img/green_2bandit_b.png","70","test","","","","","","","","","5","","","","","","","","","","",""
"null","","1287345","SARL_v6aj88rev9","msl000097","fixation","","","img/fixation.png","null","","","test","","","","","","","","","","","","","","","","","","","",""
"109","","1287457","SARL_v6aj88rev9","msl000097","freq","","","img/green_2bandit_b2.png","70","","70","test","1","","","circle","square","104","100","4","5","0.86","","","","","","","","","",""
"null","","1288153","SARL_v6aj88rev9","msl000097","freq_resp","","","img/green_2bandit_b.png","70","img/green_2bandit_b.png","70","test","","","","","","","","","5","","","","","","","","","","",""
"null","","1288308","SARL_v6aj88rev9","msl000097","fixation","","","img/fixation.png","null","","","test","","","","","","","","","","","","","","","","","","","",""
"89","","1288403","SARL_v6aj88rev9","msl000097","freq","","","img/green_2bandit_b2.png","70","","70","test","1","","","circle","square","105","101","5","5","0.8613861386138614","","","","","","","","","",""
"null","","1289119","SARL_v6aj88rev9","msl000097","freq_resp","","","img/green_2bandit_b.png","70","img/green_2bandit_b.png","70","test","","","","","","","","","5","","","","","","","","","","",""
"null","","1289274","SARL_v6aj88rev9","msl000097","fixation","","","img/fixation.png","null","","","test","","","","","","","","","","","","","","","","","","","",""
"170","","1289449","SARL_v6aj88rev9","msl000097","freq","","","img/green_2bandit_b2.png","70","","70","test","1","","","circle","square","106","102","6","5","0.8627450980392157","","","","","","","","","",""
"null","","1290085","SARL_v6aj88rev9","msl000097","freq_resp","","","img/green_2bandit_b.png","70","img/green_2bandit_b.png","70","test","","","","","","","","","5","","","","","","","","","","",""
"null","","1290241","SARL_v6aj88rev9","msl000097","fixation","","","img/fixation.png","null","","","test","","","","","","","","","","","","","","","","","","","",""
"209","","1290454","SARL_v6aj88rev9","msl000097","freq","","","img/green_2bandit_b2.png","70","","70","test","1","","","circle","square","107","103","7","5","0.8640776699029126","","","","","","","","","",""
"null","","1291051","SARL_v6aj88rev9","msl000097","freq_resp","","","img/green_2bandit_b.png","70","img/green_2bandit_b.png","70","test","","","","","","","","","5","","","","","","","","","","",""
"null","","1291208","SARL_v6aj88rev9","msl000097","fixation","","","img/fixation.png","null","","","test","","","","","","","","","","","","","","","","","","","",""
"155","","1291367","SARL_v6aj88rev9","msl000097","infreq","","","img/orange_2bandit_b2.png","70","","68","test","0","","","circle","square","108","104","8","5","0.8557692307692307","","","","","","","","","",""
"null","","1292019","SARL_v6aj88rev9","msl000097","infreq_resp","","","img/orange_2bandit_b.png","70","img/orange_2bandit_b.png","68","test","","","","","","","","","5","","","","","","","","","","",""
"null","","1292175","SARL_v6aj88rev9","msl000097","fixation","","","img/fixation.png","null","","","test","","","","","","","","","","","","","","","","","","","",""
"97","","1292276","SARL_v6aj88rev9","msl000097","freq","","","img/green_2bandit_b2.png","70","","70","test","1","","","circle","square","109","105","9","5","0.8571428571428571","","","","","","","","","",""
"null","","1292985","SARL_v6aj88rev9","msl000097","freq_resp","","","img/green_2bandit_b.png","70","img/green_2bandit_b.png","70","test","","","","","","","","","5","","","","","","","","","","",""
"null","","1293141","SARL_v6aj88rev9","msl000097","fixation","","","img/fixation.png","null","","","test","","","","","","","","","","","","","","","","","","","",""
"57","","1293204","SARL_v6aj88rev9","msl000097","infreq","","","img/orange_2bandit_b2.png","70","","68","test","0","","","circle","square","110","106","10","5","0.8490566037735849","","","","","","","","","",""
"null","","1293951","SARL_v6aj88rev9","msl000097","infreq_resp","","","img/orange_2bandit_b.png","70","img/orange_2bandit_b.png","68","test","","","","","","","","","5","","","","","","","","","","",""
"null","","1294107","SARL_v6aj88rev9","msl000097","fixation","","","img/fixation.png","null","","","test","","","","","","","","","","","","","","","","","","","",""
"65","","1294176","SARL_v6aj88rev9","msl000097","freq","","","img/green_2bandit_b2.png","70","","70","test","1","","","circle","square","111","107","11","5","0.8504672897196262","","","","","","","","","",""
"null","","1294918","SARL_v6aj88rev9","msl000097","freq_resp","","","img/green_2bandit_b.png","70","img/green_2bandit_b.png","70","test","","","","","","","","","5","","","","","","","","","","",""
"null","","1295074","SARL_v6aj88rev9","msl000097","fixation","","","img/fixation.png","null","","","test","","","","","","","","","","","","","","","","","","","",""
"219","","1295298","SARL_v6aj88rev9","msl000097","freq","","","img/green_2bandit_b2.png","70","","70","test","1","","","circle","square","112","108","12","5","0.8518518518518519","","","","","","","","","",""
"null","","1295885","SARL_v6aj88rev9","msl000097","freq_resp","","","img/green_2bandit_b.png","70","img/green_2bandit_b.png","70","test","","","","","","","","","5","","","","","","","","","","",""
"null","","1296040","SARL_v6aj88rev9","msl000097","fixation","","","img/fixation.png","null","","","test","","","","","","","","","","","","","","","","","","","",""
"255","","1296300","SARL_v6aj88rev9","msl000097","freq","","","img/green_2bandit_b2.png","70","","70","test","1","","","circle","square","113","109","13","5","0.8532110091743119","","","","","","","","","",""
"null","","1296849","SARL_v6aj88rev9","msl000097","freq_resp","","","img/green_2bandit_b.png","70","img/green_2bandit_b.png","70","test","","","","","","","","","5","","","","","","","","","","",""
"null","","1297006","SARL_v6aj88rev9","msl000097","fixation","","","img/fixation.png","null","","","test","","","","","","","","","","","","","","","","","","","",""
"261","","1297272","SARL_v6aj88rev9","msl000097","freq","","","img/green_2bandit_b2.png","70","","70","test","1","","","circle","square","114","110","14","5","0.8545454545454545","","","","","","","","","",""
"null","","1297817","SARL_v6aj88rev9","msl000097","freq_resp","","","img/green_2bandit_b.png","70","img/green_2bandit_b.png","70","test","","","","","","","","","5","","","","","","","","","","",""
"null","","1297974","SARL_v6aj88rev9","msl000097","fixation","","","img/fixation.png","null","","","test","","","","","","","","","","","","","","","","","","","",""
"279","","1298257","SARL_v6aj88rev9","msl000097","freq","","","img/green_2bandit_b2.png","70","","70","test","1","","","circle","square","115","111","15","5","0.8558558558558559","","","","","","","","","",""
"null","","1298783","SARL_v6aj88rev9","msl000097","freq_resp","","","img/green_2bandit_b.png","70","img/green_2bandit_b.png","70","test","","","","","","","","","5","","","","","","","","","","",""
"null","","1298937","SARL_v6aj88rev9","msl000097","fixation","","","img/fixation.png","null","","","test","","","","","","","","","","","","","","","","","","","",""
"259","","1299202","SARL_v6aj88rev9","msl000097","freq","","","img/green_2bandit_b2.png","70","","70","test","1","","","circle","square","116","112","16","5","0.8571428571428571","","","","","","","","","",""
"null","","1299748","SARL_v6aj88rev9","msl000097","freq_resp","","","img/green_2bandit_b.png","70","img/green_2bandit_b.png","70","test","","","","","","","","","5","","","","","","","","","","",""
"null","","1299904","SARL_v6aj88rev9","msl000097","fixation","","","img/fixation.png","null","","","test","","","","","","","","","","","","","","","","","","","",""
"249","","1300158","SARL_v6aj88rev9","msl000097","freq","","","img/green_2bandit_b2.png","70","","70","test","1","","","circle","square","117","113","17","5","0.8584070796460177","","","","","","","","","",""
"null","","1300715","SARL_v6aj88rev9","msl000097","freq_resp","","","img/green_2bandit_b.png","70","img/green_2bandit_b.png","70","test","","","","","","","","","5","","","","","","","","","","",""
"null","","1300872","SARL_v6aj88rev9","msl000097","fixation","","","img/fixation.png","null","","","test","","","","","","","","","","","","","","","","","","","",""
"99","","1300975","SARL_v6aj88rev9","msl000097","freq","","","img/green_2bandit_b2.png","70","","70","test","1","","","circle","square","118","114","18","5","0.8596491228070176","","","","","","","","","",""
"null","","1301682","SARL_v6aj88rev9","msl000097","freq_resp","","","img/green_2bandit_b.png","70","img/green_2bandit_b.png","70","test","","","","","","","","","5","","","","","","","","","","",""
"null","","1301836","SARL_v6aj88rev9","msl000097","fixation","","","img/fixation.png","null","","","test","","","","","","","","","","","","","","","","","","","",""
"79","","1301920","SARL_v6aj88rev9","msl000097","freq","","","img/green_2bandit_b2.png","70","","70","test","1","","","circle","square","119","115","19","5","0.8608695652173913","","","","","","","","","",""
"null","","1302647","SARL_v6aj88rev9","msl000097","freq_resp","","","img/green_2bandit_b.png","70","img/green_2bandit_b.png","70","test","","","","","","","","","5","","","","","","","","","","",""
"null","","1302802","SARL_v6aj88rev9","msl000097","fixation","","","img/fixation.png","null","","","test","","","","","","","","","","","","","","","","","","","",""
"123","","1302929","SARL_v6aj88rev9","msl000097","freq","","","img/green_2bandit_b2.png","70","","70","test","1","","","circle","square","120","116","20","5","0.8620689655172413","","","","","","","","","",""
"null","","1303612","SARL_v6aj88rev9","msl000097","freq_resp","","","img/green_2bandit_b.png","70","img/green_2bandit_b.png","70","test","","","","","","","","","5","","","","","","","","","","",""
"null","","1303767","SARL_v6aj88rev9","msl000097","fixation","","","img/fixation.png","null","","","test","","","","","","","","","","","","","","","","","","","",""
"512","","1304284","SARL_v6aj88rev9","msl000097","infreq","","","img/orange_2bandit_b2.png","68","","68","test","1","","","circle","square","121","117","21","5","0.8632478632478633","","","","","","","","","",""
"null","","1304578","SARL_v6aj88rev9","msl000097","infreq_resp","","","img/orange_2bandit_b.png","68","img/orange_2bandit_b.png","68","test","","","","","","","","","5","","","","","","","","","","",""
"null","","1304732","SARL_v6aj88rev9","msl000097","fixation","","","img/fixation.png","null","","","test","","","","","","","","","","","","","","","","","","","",""
"410","","1305147","SARL_v6aj88rev9","msl000097","freq","","","img/green_2bandit_b2.png","70","","70","test","1","","","circle","square","122","118","22","5","0.864406779661017","","","","","","","","","",""
"null","","1305544","SARL_v6aj88rev9","msl000097","freq_resp","","","img/green_2bandit_b.png","70","img/green_2bandit_b.png","70","test","","","","","","","","","5","","","","","","","","","","",""
"null","","1305699","SARL_v6aj88rev9","msl000097","fixation","","","img/fixation.png","null","","","test","","","","","","","","","","","","","","","","","","","",""
"353","","1306056","SARL_v6aj88rev9","msl000097","freq","","","img/green_2bandit_b2.png","70","","70","test","1","","","circle","square","123","119","23","5","0.865546218487395","","","","","","","","","",""
"null","","1306508","SARL_v6aj88rev9","msl000097","freq_resp","","","img/green_2bandit_b.png","70","img/green_2bandit_b.png","70","test","","","","","","","","","5","","","","","","","","","","",""
"null","","1306663","SARL_v6aj88rev9","msl000097","fixation","","","img/fixation.png","null","","","test","","","","","","","","","","","","","","","","","","","",""
"233","","1306900","SARL_v6aj88rev9","msl000097","freq","","","img/green_2bandit_b2.png","70","","70","test","1","","","circle","square","124","120","24","5","0.8666666666666667","","","","","","","","","",""
"null","","1307473","SARL_v6aj88rev9","msl000097","freq_resp","","","img/green_2bandit_b.png","70","img/green_2bandit_b.png","70","test","","","","","","","","","5","","","","","","","","","","",""
"null","","1307629","SARL_v6aj88rev9","msl000097","fixation","","","img/fixation.png","null","","","test","","","","","","","","","","","","","","","","","","","",""
"152","","1307787","SARL_v6aj88rev9","msl000097","freq","","","img/green_2bandit_b2.png","70","","70","test","1","","","circle","square","125","121","25","5","0.8677685950413223","","","","","","","","","",""
"null","","1308441","SARL_v6aj88rev9","msl000097","freq_resp","","","img/green_2bandit_b.png","70","img/green_2bandit_b.png","70","test","","","","","","","","","5","","","","","","","","","","",""
"null","","1308596","SARL_v6aj88rev9","msl000097","fixation","","","img/fixation.png","null","","","test","","","","","","","","","","","","","","","","","","","",""
"868","","1309470","SARL_v6aj88rev9","msl000097","rl","","","img/black_2bandit_b2.png","75","","0","test","","","0","circle","square","126","","0","5","","75","0.8","0.2","0.3554700301836975","0.8","0.2","0.2","square","5","0"
"null","","1310226","SARL_v6aj88rev9","msl000097","feedback","","","img/boo_R_b.png","null","","na","test","","","","","","","","","5","","75","0.8","0.2","","","","0.2","","5",""
"575","","1310806","SARL_v6aj88rev9","msl000097","freq","","","img/green_2bandit_b2.png","70","","70","test","1","","","circle","square","127","122","1","6","0.8688524590163934","","","","","","","","","",""
"null","","1311038","SARL_v6aj88rev9","msl000097","freq_resp","","","img/green_2bandit_b.png","70","img/green_2bandit_b.png","70","test","","","","","","","","","6","","","","","","","","","","",""
"null","","1311193","SARL_v6aj88rev9","msl000097","fixation","","","img/fixation.png","null","","","test","","","","","","","","","","","","","","","","","","","",""
"333","","1311532","SARL_v6aj88rev9","msl000097","freq","","","img/green_2bandit_b2.png","70","","70","test","1","","","circle","square","128","123","2","6","0.8699186991869918","","","","","","","","","",""
"null","","1312003","SARL_v6aj88rev9","msl000097","freq_resp","","","img/green_2bandit_b.png","70","img/green_2bandit_b.png","70","test","","","","","","","","","6","","","","","","","","","","",""
"null","","1312159","SARL_v6aj88rev9","msl000097","fixation","","","img/fixation.png","null","","","test","","","","","","","","","","","","","","","","","","","",""
"156","","1312320","SARL_v6aj88rev9","msl000097","freq","","","img/green_2bandit_b2.png","70","","70","test","1","","","circle","square","129","124","3","6","0.8709677419354839","","","","","","","","","",""
"null","","1312970","SARL_v6aj88rev9","msl000097","freq_resp","","","img/green_2bandit_b.png","70","img/green_2bandit_b.png","70","test","","","","","","","","","6","","","","","","","","","","",""
"null","","1313126","SARL_v6aj88rev9","msl000097","fixation","","","img/fixation.png","null","","","test","","","","","","","","","","","","","","","","","","","",""
"66","","1313197","SARL_v6aj88rev9","msl000097","infreq","","","img/orange_2bandit_b2.png","70","","68","test","0","","","circle","square","130","125","4","6","0.864","","","","","","","","","",""
"null","","1313938","SARL_v6aj88rev9","msl000097","infreq_resp","","","img/orange_2bandit_b.png","70","img/orange_2bandit_b.png","68","test","","","","","","","","","6","","","","","","","","","","",""
"null","","1314092","SARL_v6aj88rev9","msl000097","fixation","","","img/fixation.png","null","","","test","","","","","","","","","","","","","","","","","","","",""
"134","","1314231","SARL_v6aj88rev9","msl000097","freq","","","img/green_2bandit_b2.png","70","","70","test","1","","","circle","square","131","126","5","6","0.8650793650793651","","","","","","","","","",""
"null","","1314902","SARL_v6aj88rev9","msl000097","freq_resp","","","img/green_2bandit_b.png","70","img/green_2bandit_b.png","70","test","","","","","","","","","6","","","","","","","","","","",""
"null","","1315058","SARL_v6aj88rev9","msl000097","fixation","","","img/fixation.png","null","","","test","","","","","","","","","","","","","","","","","","","",""
"417","","1315480","SARL_v6aj88rev9","msl000097","freq","","","img/green_2bandit_b2.png","70","","70","test","1","","","circle","square","132","127","6","6","0.8661417322834646","","","","","","","","","",""
"null","","1315870","SARL_v6aj88rev9","msl000097","freq_resp","","","img/green_2bandit_b.png","70","img/green_2bandit_b.png","70","test","","","","","","","","","6","","","","","","","","","","",""
"null","","1316026","SARL_v6aj88rev9","msl000097","fixation","","","img/fixation.png","null","","","test","","","","","","","","","","","","","","","","","","","",""
"283","","1316314","SARL_v6aj88rev9","msl000097","freq","","","img/green_2bandit_b2.png","70","","70","test","1","","","circle","square","133","128","7","6","0.8671875","","","","","","","","","",""
"null","","1316837","SARL_v6aj88rev9","msl000097","freq_resp","","","img/green_2bandit_b.png","70","img/green_2bandit_b.png","70","test","","","","","","","","","6","","","","","","","","","","",""
"null","","1316992","SARL_v6aj88rev9","msl000097","fixation","","","img/fixation.png","null","","","test","","","","","","","","","","","","","","","","","","","",""
"149","","1317146","SARL_v6aj88rev9","msl000097","freq","","","img/green_2bandit_b2.png","70","","70","test","1","","","circle","square","134","129","8","6","0.8682170542635659","","","","","","","","","",""
"null","","1317803","SARL_v6aj88rev9","msl000097","freq_resp","","","img/green_2bandit_b.png","70","img/green_2bandit_b.png","70","test","","","","","","","","","6","","","","","","","","","","",""
"null","","1317958","SARL_v6aj88rev9","msl000097","fixation","","","img/fixation.png","null","","","test","","","","","","","","","","","","","","","","","","","",""
"243","","1318205","SARL_v6aj88rev9","msl000097","freq","","","img/green_2bandit_b2.png","70","","70","test","1","","","circle","square","135","130","9","6","0.8692307692307693","","","","","","","","","",""
"null","","1318768","SARL_v6aj88rev9","msl000097","freq_resp","","","img/green_2bandit_b.png","70","img/green_2bandit_b.png","70","test","","","","","","","","","6","","","","","","","","","","",""
"null","","1318923","SARL_v6aj88rev9","msl000097","fixation","","","img/fixation.png","null","","","test","","","","","","","","","","","","","","","","","","","",""
"207","","1319136","SARL_v6aj88rev9","msl000097","freq","","","img/green_2bandit_b2.png","70","","70","test","1","","","circle","square","136","131","10","6","0.8702290076335878","","","","","","","","","",""
"null","","1319734","SARL_v6aj88rev9","msl000097","freq_resp","","","img/green_2bandit_b.png","70","img/green_2bandit_b.png","70","test","","","","","","","","","6","","","","","","","","","","",""
"null","","1319890","SARL_v6aj88rev9","msl000097","fixation","","","img/fixation.png","null","","","test","","","","","","","","","","","","","","","","","","","",""
"373","","1320268","SARL_v6aj88rev9","msl000097","freq","","","img/green_2bandit_b2.png","70","","70","test","1","","","circle","square","137","132","11","6","0.8712121212121212","","","","","","","","","",""
"null","","1320701","SARL_v6aj88rev9","msl000097","freq_resp","","","img/green_2bandit_b.png","70","img/green_2bandit_b.png","70","test","","","","","","","","","6","","","","","","","","","","",""
"null","","1320855","SARL_v6aj88rev9","msl000097","fixation","","","img/fixation.png","null","","","test","","","","","","","","","","","","","","","","","","","",""
"160","","1321020","SARL_v6aj88rev9","msl000097","freq","","","img/green_2bandit_b2.png","70","","70","test","1","","","circle","square","138","133","12","6","0.8721804511278195","","","","","","","","","",""
"null","","1321667","SARL_v6aj88rev9","msl000097","freq_resp","","","img/green_2bandit_b.png","70","img/green_2bandit_b.png","70","test","","","","","","","","","6","","","","","","","","","","",""
"null","","1321821","SARL_v6aj88rev9","msl000097","fixation","","","img/fixation.png","null","","","test","","","","","","","","","","","","","","","","","","","",""
"134","","1321960","SARL_v6aj88rev9","msl000097","freq","","","img/green_2bandit_b2.png","70","","70","test","1","","","circle","square","139","134","13","6","0.8731343283582089","","","","","","","","","",""
"null","","1322632","SARL_v6aj88rev9","msl000097","freq_resp","","","img/green_2bandit_b.png","70","img/green_2bandit_b.png","70","test","","","","","","","","","6","","","","","","","","","","",""
"null","","1322788","SARL_v6aj88rev9","msl000097","fixation","","","img/fixation.png","null","","","test","","","","","","","","","","","","","","","","","","","",""
"85","","1322877","SARL_v6aj88rev9","msl000097","freq","","","img/green_2bandit_b2.png","70","","70","test","1","","","circle","square","140","135","14","6","0.8740740740740741","","","","","","","","","",""
"null","","1323598","SARL_v6aj88rev9","msl000097","freq_resp","","","img/green_2bandit_b.png","70","img/green_2bandit_b.png","70","test","","","","","","","","","6","","","","","","","","","","",""
"null","","1323754","SARL_v6aj88rev9","msl000097","fixation","","","img/fixation.png","null","","","test","","","","","","","","","","","","","","","","","","","",""
"261","","1324021","SARL_v6aj88rev9","msl000097","freq","","","img/green_2bandit_b2.png","70","","70","test","1","","","circle","square","141","136","15","6","0.875","","","","","","","","","",""
"null","","1324566","SARL_v6aj88rev9","msl000097","freq_resp","","","img/green_2bandit_b.png","70","img/green_2bandit_b.png","70","test","","","","","","","","","6","","","","","","","","","","",""
"null","","1324721","SARL_v6aj88rev9","msl000097","fixation","","","img/fixation.png","null","","","test","","","","","","","","","","","","","","","","","","","",""
"158","","1324885","SARL_v6aj88rev9","msl000097","freq","","","img/green_2bandit_b2.png","70","","70","test","1","","","circle","square","142","137","16","6","0.8759124087591241","","","","","","","","","",""
"null","","1325533","SARL_v6aj88rev9","msl000097","freq_resp","","","img/green_2bandit_b.png","70","img/green_2bandit_b.png","70","test","","","","","","","","","6","","","","","","","","","","",""
"null","","1325689","SARL_v6aj88rev9","msl000097","fixation","","","img/fixation.png","null","","","test","","","","","","","","","","","","","","","","","","","",""
"78","","1325773","SARL_v6aj88rev9","msl000097","infreq","","","img/orange_2bandit_b2.png","70","","68","test","0","","","circle","square","143","138","17","6","0.8695652173913043","","","","","","","","","",""
"null","","1326501","SARL_v6aj88rev9","msl000097","infreq_resp","","","img/orange_2bandit_b.png","70","img/orange_2bandit_b.png","68","test","","","","","","","","","6","","","","","","","","","","",""
"null","","1326656","SARL_v6aj88rev9","msl000097","fixation","","","img/fixation.png","null","","","test","","","","","","","","","","","","","","","","","","","",""
"356","","1327018","SARL_v6aj88rev9","msl000097","freq","","","img/green_2bandit_b2.png","70","","70","test","1","","","circle","square","144","139","18","6","0.8705035971223022","","","","","","","","","",""
"null","","1327467","SARL_v6aj88rev9","msl000097","freq_resp","","","img/green_2bandit_b.png","70","img/green_2bandit_b.png","70","test","","","","","","","","","6","","","","","","","","","","",""
"null","","1327623","SARL_v6aj88rev9","msl000097","fixation","","","img/fixation.png","null","","","test","","","","","","","","","","","","","","","","","","","",""
"327","","1327955","SARL_v6aj88rev9","msl000097","freq","","","img/green_2bandit_b2.png","70","","70","test","1","","","circle","square","145","140","19","6","0.8714285714285714","","","","","","","","","",""
"null","","1328433","SARL_v6aj88rev9","msl000097","freq_resp","","","img/green_2bandit_b.png","70","img/green_2bandit_b.png","70","test","","","","","","","","","6","","","","","","","","","","",""
"null","","1328590","SARL_v6aj88rev9","msl000097","fixation","","","img/fixation.png","null","","","test","","","","","","","","","","","","","","","","","","","",""
"121","","1328715","SARL_v6aj88rev9","msl000097","freq","","","img/green_2bandit_b2.png","70","","70","test","1","","","circle","square","146","141","20","6","0.8723404255319149","","","","","","","","","",""
"null","","1329399","SARL_v6aj88rev9","msl000097","freq_resp","","","img/green_2bandit_b.png","70","img/green_2bandit_b.png","70","test","","","","","","","","","6","","","","","","","","","","",""
"null","","1329556","SARL_v6aj88rev9","msl000097","fixation","","","img/fixation.png","null","","","test","","","","","","","","","","","","","","","","","","","",""
"108","","1329667","SARL_v6aj88rev9","msl000097","infreq","","","img/orange_2bandit_b2.png","70","","68","test","0","","","circle","square","147","142","21","6","0.8661971830985915","","","","","","","","","",""
"null","","1330365","SARL_v6aj88rev9","msl000097","infreq_resp","","","img/orange_2bandit_b.png","70","img/orange_2bandit_b.png","68","test","","","","","","","","","6","","","","","","","","","","",""
"null","","1330521","SARL_v6aj88rev9","msl000097","fixation","","","img/fixation.png","null","","","test","","","","","","","","","","","","","","","","","","","",""
"99","","1330625","SARL_v6aj88rev9","msl000097","freq","","","img/green_2bandit_b2.png","70","","70","test","1","","","circle","square","148","143","22","6","0.8671328671328671","","","","","","","","","",""
"null","","1331332","SARL_v6aj88rev9","msl000097","freq_resp","","","img/green_2bandit_b.png","70","img/green_2bandit_b.png","70","test","","","","","","","","","6","","","","","","","","","","",""
"null","","1331488","SARL_v6aj88rev9","msl000097","fixation","","","img/fixation.png","null","","","test","","","","","","","","","","","","","","","","","","","",""
"177","","1331669","SARL_v6aj88rev9","msl000097","freq","","","img/green_2bandit_b2.png","70","","70","test","1","","","circle","square","149","144","23","6","0.8680555555555556","","","","","","","","","",""
