"rt","responses","time_elapsed","subject","demoID","trialType","rlType","attType","stimulus","key_press","stim","corrresp","phase","corr","pracCounter","reward","bandOne","bandTwo","trialNum","attentionNum","attentionRunNum","blockNum","performance","bandChosen","circleVal","squareVal","coin","bandOneVal","bandTwoVal","pReward","shapeChosen","rlNum","badFlag"
"93100","{""Q0"":""msl000095""}","93124","SARL_v60h4k6xm9","msl000095","","","","","","","","","","","","","","","","","","","","","","","","","","","",""
"25572","","118703","SARL_v60h4k6xm9","msl000095","","","","","","","","","","","","","","","","","","","","","","","","","","","",""
"","","123715","SARL_v60h4k6xm9","msl000095","fullscreen","fullscreen","fullscreen","","","","","","","","","","","","","","","","","","","","","","","","",""
"75368","","199087","SARL_v60h4k6xm9","msl000095","","","","","","","","","","","","","","","","","","","","","","","","","","","",""
"null","","199895","SARL_v60h4k6xm9","msl000095","freqPrac","","","img/green_2bandit_b2.png","null","img/green_2bandit_b2.png","70","prac","0","1","","","","","","","","","","","","","","","","","",""
"null","","200901","SARL_v60h4k6xm9","msl000095","feedback","","","img/tooSlow.png","null","","na","prac","","","","","","","","","","","","","","","","","","","",""
"null","","201058","SARL_v60h4k6xm9","msl000095","fixation","","","img/fixation.png","null","","","prac","","","","","","","","","","","","","","","","","","","",""
"405","","201469","SARL_v60h4k6xm9","msl000095","infreqPrac","","","img/orange_2bandit_b2.png","70","img/orange_2bandit_b2.png","68","prac","0","2","","","","","","","","","","","","","","","","","",""
"405","","201870","SARL_v60h4k6xm9","msl000095","infreqPrac_resp","","","img/orange_2bandit_b.png","70","img/orange_2bandit_b.png","68","prac","","","","","","","","","","","","","","","","","","","",""
"null","","202875","SARL_v60h4k6xm9","msl000095","feedback","","","img/wrongKey.png","null","","na","prac","","","","","","","","","","","","","","","","","","","",""
"null","","203033","SARL_v60h4k6xm9","msl000095","fixation","","","img/fixation.png","null","","","prac","","","","","","","","","","","","","","","","","","","",""
"537","","203576","SARL_v60h4k6xm9","msl000095","freqPrac","","","img/green_2bandit_b2.png","68","img/green_2bandit_b2.png","70","prac","0","3","","","","","","","","","","","","","","","","","",""
"537","","203844","SARL_v60h4k6xm9","msl000095","freqPrac_resp","","","img/green_2bandit_b.png","68","img/green_2bandit_b.png","70","prac","","","","","","","","","","","","","","","","","","","",""
"null","","204849","SARL_v60h4k6xm9","msl000095","feedback","","","img/wrongKey.png","null","","na","prac","","","","","","","","","","","","","","","","","","","",""
"null","","205005","SARL_v60h4k6xm9","msl000095","fixation","","","img/fixation.png","null","","","prac","","","","","","","","","","","","","","","","","","","",""
"337","","205347","SARL_v60h4k6xm9","msl000095","infreqPrac","","","img/orange_2bandit_b2.png","68","img/orange_2bandit_b2.png","68","prac","1","3","","","","","","","","","","","","","","","","","",""
"337","","205815","SARL_v60h4k6xm9","msl000095","infreqPrac_resp","","","img/orange_2bandit_b.png","68","img/orange_2bandit_b.png","68","prac","","","","","","","","","","","","","","","","","","","",""
"null","","205971","SARL_v60h4k6xm9","msl000095","fixation","","","img/fixation.png","null","","","prac","","","","","","","","","","","","","","","","","","","",""
"427","","206402","SARL_v60h4k6xm9","msl000095","infreqPrac","","","img/orange_2bandit_b2.png","68","img/orange_2bandit_b2.png","68","prac","1","3","","","","","","","","","","","","","","","","","",""
"427","","206781","SARL_v60h4k6xm9","msl000095","infreqPrac_resp","","","img/orange_2bandit_b.png","68","img/orange_2bandit_b.png","68","prac","","","","","","","","","","","","","","","","","","","",""
"null","","206938","SARL_v60h4k6xm9","msl000095","fixation","","","img/fixation.png","null","","","prac","","","","","","","","","","","","","","","","","","","",""
"367","","207309","SARL_v60h4k6xm9","msl000095","infreqPrac","","","img/orange_2bandit_b2.png","68","img/orange_2bandit_b2.png","68","prac","1","3","","","","","","","","","","","","","","","","","",""
"367","","207746","SARL_v60h4k6xm9","msl000095","infreqPrac_resp","","","img/orange_2bandit_b.png","68","img/orange_2bandit_b.png","68","prac","","","","","","","","","","","","","","","","","","","",""
"null","","207902","SARL_v60h4k6xm9","msl000095","fixation","","","img/fixation.png","null","","","prac","","","","","","","","","","","","","","","","","","","",""
"428","","208336","SARL_v60h4k6xm9","msl000095","freqPrac","","","img/green_2bandit_b2.png","70","img/green_2bandit_b2.png","70","prac","1","3","","","","","","","","","","","","","","","","","",""
"428","","208715","SARL_v60h4k6xm9","msl000095","freqPrac_resp","","","img/green_2bandit_b.png","70","img/green_2bandit_b.png","70","prac","","","","","","","","","","","","","","","","","","","",""
"null","","208870","SARL_v60h4k6xm9","msl000095","fixation","","","img/fixation.png","null","","","prac","","","","","","","","","","","","","","","","","","","",""
"342","","209216","SARL_v60h4k6xm9","msl000095","infreqPrac","","","img/orange_2bandit_b2.png","68","img/orange_2bandit_b2.png","68","prac","1","3","","","","","","","","","","","","","","","","","",""
"342","","209680","SARL_v60h4k6xm9","msl000095","infreqPrac_resp","","","img/orange_2bandit_b.png","68","img/orange_2bandit_b.png","68","prac","","","","","","","","","","","","","","","","","","","",""
"null","","209834","SARL_v60h4k6xm9","msl000095","fixation","","","img/fixation.png","null","","","prac","","","","","","","","","","","","","","","","","","","",""
"268","","210107","SARL_v60h4k6xm9","msl000095","freqPrac","","","img/green_2bandit_b2.png","70","img/green_2bandit_b2.png","70","prac","1","3","","","","","","","","","","","","","","","","","",""
"268","","210644","SARL_v60h4k6xm9","msl000095","freqPrac_resp","","","img/green_2bandit_b.png","70","img/green_2bandit_b.png","70","prac","","","","","","","","","","","","","","","","","","","",""
"null","","210801","SARL_v60h4k6xm9","msl000095","fixation","","","img/fixation.png","null","","","prac","","","","","","","","","","","","","","","","","","","",""
"512","","211317","SARL_v60h4k6xm9","msl000095","freqPrac","","","img/green_2bandit_b2.png","70","img/green_2bandit_b2.png","70","prac","1","3","","","","","","","","","","","","","","","","","",""
"512","","211611","SARL_v60h4k6xm9","msl000095","freqPrac_resp","","","img/green_2bandit_b.png","70","img/green_2bandit_b.png","70","prac","","","","","","","","","","","","","","","","","","","",""
"null","","211768","SARL_v60h4k6xm9","msl000095","fixation","","","img/fixation.png","null","","","prac","","","","","","","","","","","","","","","","","","","",""
"31253","","243025","SARL_v60h4k6xm9","msl000095","","","","","","","","prac","","","","","","","","","","","","","","","","","","","",""
"621","","243652","SARL_v60h4k6xm9","msl000095","rlPractice","","","img/black_2bandit_b2.png","74","img/black_2bandit_b2.png","","prac","","","75","","","","","","","","","","","","","","","","",""
"null","","244409","SARL_v60h4k6xm9","msl000095","feedback","","","img/boo_L_b.png","null","","na","prac","","","","","","","","","","","","","","","","","","","",""
"null","","244565","SARL_v60h4k6xm9","msl000095","fixation","","","img/fixation.png","null","","","prac","","","","","","","","","","","","","","","","","","","",""
"558","","245127","SARL_v60h4k6xm9","msl000095","rlPractice","","","img/black_2bandit_b2.png","74","img/black_2bandit_b2.png","","prac","","","75","","","","","","","","","","","","","","","","",""
"null","","245883","SARL_v60h4k6xm9","msl000095","feedback","","","img/boo_L_b.png","null","","na","prac","","","","","","","","","","","","","","","","","","","",""
"null","","246039","SARL_v60h4k6xm9","msl000095","fixation","","","img/fixation.png","null","","","prac","","","","","","","","","","","","","","","","","","","",""
"340","","246382","SARL_v60h4k6xm9","msl000095","rlPractice","","","img/black_2bandit_b2.png","75","img/black_2bandit_b2.png","","prac","","","75","","","","","","","","","","","","","","","","",""
"null","","247139","SARL_v60h4k6xm9","msl000095","feedback","","","img/yay_R_b.png","null","","na","prac","","","","","","","","","","","","","","","","","","","",""
"null","","247294","SARL_v60h4k6xm9","msl000095","fixation","","","img/fixation.png","null","","","prac","","","","","","","","","","","","","","","","","","","",""
"328","","247626","SARL_v60h4k6xm9","msl000095","rlPractice","","","img/black_2bandit_b2.png","75","img/black_2bandit_b2.png","","prac","","","75","","","","","","","","","","","","","","","","",""
"null","","248382","SARL_v60h4k6xm9","msl000095","feedback","","","img/yay_R_b.png","null","","na","prac","","","","","","","","","","","","","","","","","","","",""
"null","","248537","SARL_v60h4k6xm9","msl000095","fixation","","","img/fixation.png","null","","","prac","","","","","","","","","","","","","","","","","","","",""
"249","","248790","SARL_v60h4k6xm9","msl000095","rlPractice","","","img/black_2bandit_b2.png","75","img/black_2bandit_b2.png","","prac","","","75","","","","","","","","","","","","","","","","",""
"null","","249546","SARL_v60h4k6xm9","msl000095","feedback","","","img/yay_R_b.png","null","","na","prac","","","","","","","","","","","","","","","","","","","",""
"null","","249703","SARL_v60h4k6xm9","msl000095","fixation","","","img/fixation.png","null","","","prac","","","","","","","","","","","","","","","","","","","",""
"47","","249755","SARL_v60h4k6xm9","msl000095","rlPractice","","","img/black_2bandit_b2.png","74","img/black_2bandit_b2.png","","prac","","","75","","","","","","","","","","","","","","","","",""
"null","","250511","SARL_v60h4k6xm9","msl000095","feedback","","","img/boo_L_b.png","null","","na","prac","","","","","","","","","","","","","","","","","","","",""
"null","","250666","SARL_v60h4k6xm9","msl000095","fixation","","","img/fixation.png","null","","","prac","","","","","","","","","","","","","","","","","","","",""
"62","","250732","SARL_v60h4k6xm9","msl000095","rlPractice","","","img/black_2bandit_b2.png","75","img/black_2bandit_b2.png","","prac","","","75","","","","","","","","","","","","","","","","",""
"null","","251488","SARL_v60h4k6xm9","msl000095","feedback","","","img/yay_R_b.png","null","","na","prac","","","","","","","","","","","","","","","","","","","",""
"null","","251644","SARL_v60h4k6xm9","msl000095","fixation","","","img/fixation.png","null","","","prac","","","","","","","","","","","","","","","","","","","",""
"33290","","284938","SARL_v60h4k6xm9","msl000095","","","","","","","","prac","","","","","","","","","","","","","","","","","","","",""
"null","","285745","SARL_v60h4k6xm9","msl000095","mixAttFreqPrac","","","img/green_2bandit_b2.png","null","img/green_2bandit_b2.png","70","prac","","","","","","","","","","","","","","","","","","","",""
"1","","285900","SARL_v60h4k6xm9","msl000095","fixation","","","img/fixation.png","70","","","prac","","","","","","","","","","","","","","","","","","","",""
"795","","286699","SARL_v60h4k6xm9","msl000095","mixAttInfreqPrac","","","img/orange_2bandit_b2.png","68","img/orange_2bandit_b2.png","68","prac","","","","","","","","","","","","","","","","","","","",""
"795","","286708","SARL_v60h4k6xm9","msl000095","infreqPrac_resp","","","img/orange_2bandit_b.png","68","img/green_2bandit_b.png","68","prac","","","","","","","","","","","","","","","","","","","",""
"null","","286865","SARL_v60h4k6xm9","msl000095","fixation","","","img/fixation.png","null","","","prac","","","","","","","","","","","","","","","","","","","",""
"691","","287560","SARL_v60h4k6xm9","msl000095","mixAttInfreqPrac","","","img/orange_2bandit_b2.png","68","img/orange_2bandit_b2.png","68","prac","","","","","","","","","","","","","","","","","","","",""
"691","","287676","SARL_v60h4k6xm9","msl000095","infreqPrac_resp","","","img/orange_2bandit_b.png","68","img/green_2bandit_b.png","68","prac","","","","","","","","","","","","","","","","","","","",""
"null","","287832","SARL_v60h4k6xm9","msl000095","fixation","","","img/fixation.png","null","","","prac","","","","","","","","","","","","","","","","","","","",""
"331","","288168","SARL_v60h4k6xm9","msl000095","mixAttInfreqPrac","","","img/orange_2bandit_b2.png","68","img/orange_2bandit_b2.png","68","prac","","","","","","","","","","","","","","","","","","","",""
"331","","288642","SARL_v60h4k6xm9","msl000095","infreqPrac_resp","","","img/orange_2bandit_b.png","68","img/green_2bandit_b.png","68","prac","","","","","","","","","","","","","","","","","","","",""
"null","","288797","SARL_v60h4k6xm9","msl000095","fixation","","","img/fixation.png","null","","","prac","","","","","","","","","","","","","","","","","","","",""
"564","","289367","SARL_v60h4k6xm9","msl000095","mixAttFreqPrac","","","img/green_2bandit_b2.png","70","img/green_2bandit_b2.png","70","prac","","","","","","","","","","","","","","","","","","","",""
"564","","289607","SARL_v60h4k6xm9","msl000095","freqPrac_resp","","","img/green_2bandit_b.png","70","img/green_2bandit_b.png","70","prac","","","","","","","","","","","","","","","","","","","",""
"null","","289763","SARL_v60h4k6xm9","msl000095","fixation","","","img/fixation.png","null","","","prac","","","","","","","","","","","","","","","","","","","",""
"603","","290371","SARL_v60h4k6xm9","msl000095","mixRLPractice","","","img/black_2bandit_b2.png","75","img/black_2bandit_b2.png","","prac","","","","","","","","","","","","","","","","","","","",""
"null","","291128","SARL_v60h4k6xm9","msl000095","feedback","","","img/yay_R_b.png","null","","na","prac","","","","","","","","","","","","","","","","","","","",""
"658","","291791","SARL_v60h4k6xm9","msl000095","mixAttFreqPrac","","","img/green_2bandit_b2.png","70","img/green_2bandit_b2.png","70","prac","","","","","","","","","","","","","","","","","","","",""
"658","","291938","SARL_v60h4k6xm9","msl000095","freqPrac_resp","","","img/green_2bandit_b.png","70","img/green_2bandit_b.png","70","prac","","","","","","","","","","","","","","","","","","","",""
"null","","292093","SARL_v60h4k6xm9","msl000095","fixation","","","img/fixation.png","null","","","prac","","","","","","","","","","","","","","","","","","","",""
"517","","292615","SARL_v60h4k6xm9","msl000095","mixAttInfreqPrac","","","img/orange_2bandit_b2.png","68","img/orange_2bandit_b2.png","68","prac","","","","","","","","","","","","","","","","","","","",""
"517","","292903","SARL_v60h4k6xm9","msl000095","infreqPrac_resp","","","img/orange_2bandit_b.png","68","img/green_2bandit_b.png","68","prac","","","","","","","","","","","","","","","","","","","",""
"null","","293058","SARL_v60h4k6xm9","msl000095","fixation","","","img/fixation.png","null","","","prac","","","","","","","","","","","","","","","","","","","",""
"315","","293378","SARL_v60h4k6xm9","msl000095","mixAttFreqPrac","","","img/green_2bandit_b2.png","70","img/green_2bandit_b2.png","70","prac","","","","","","","","","","","","","","","","","","","",""
"315","","293870","SARL_v60h4k6xm9","msl000095","freqPrac_resp","","","img/green_2bandit_b.png","70","img/green_2bandit_b.png","70","prac","","","","","","","","","","","","","","","","","","","",""
"null","","294024","SARL_v60h4k6xm9","msl000095","fixation","","","img/fixation.png","null","","","prac","","","","","","","","","","","","","","","","","","","",""
"456","","294486","SARL_v60h4k6xm9","msl000095","mixAttFreqPrac","","","img/green_2bandit_b2.png","70","img/green_2bandit_b2.png","70","prac","","","","","","","","","","","","","","","","","","","",""
"456","","294836","SARL_v60h4k6xm9","msl000095","freqPrac_resp","","","img/green_2bandit_b.png","70","img/green_2bandit_b.png","70","prac","","","","","","","","","","","","","","","","","","","",""
"null","","294992","SARL_v60h4k6xm9","msl000095","fixation","","","img/fixation.png","null","","","prac","","","","","","","","","","","","","","","","","","","",""
"363","","295360","SARL_v60h4k6xm9","msl000095","mixAttInfreqPrac","","","img/orange_2bandit_b2.png","68","img/orange_2bandit_b2.png","68","prac","","","","","","","","","","","","","","","","","","","",""
"363","","295804","SARL_v60h4k6xm9","msl000095","infreqPrac_resp","","","img/orange_2bandit_b.png","68","img/green_2bandit_b.png","68","prac","","","","","","","","","","","","","","","","","","","",""
"null","","295959","SARL_v60h4k6xm9","msl000095","fixation","","","img/fixation.png","null","","","prac","","","","","","","","","","","","","","","","","","","",""
"570","","296534","SARL_v60h4k6xm9","msl000095","mixRLPractice","","","img/black_2bandit_b2.png","76","img/black_2bandit_b2.png","","prac","","","","","","","","","","","","","","","","","","","",""
"null","","297290","SARL_v60h4k6xm9","msl000095","feedback","","","","null","","na","prac","","","","","","","","","","","","","","","","","","","",""
"38251","","335545","SARL_v60h4k6xm9","msl000095","","","","","","","","prac","","","","","","","","","","","","","","","","","","","",""
"653","","336203","SARL_v60h4k6xm9","msl000095","freq","","","img/green_2bandit_b2.png","70","","70","test","1","","","circle","square","1","1","1","1","1","","","","","","","","","",""
"null","","336357","SARL_v60h4k6xm9","msl000095","freq_resp","","","img/green_2bandit_b.png","70","img/green_2bandit_b.png","70","test","","","","","","","","","1","","","","","","","","","","",""
"null","","336513","SARL_v60h4k6xm9","msl000095","fixation","","","img/fixation.png","null","","","test","","","","","","","","","","","","","","","","","","","",""
"341","","336860","SARL_v60h4k6xm9","msl000095","freq","","","img/green_2bandit_b2.png","70","","70","test","1","","","circle","square","2","2","2","1","1","","","","","","","","","",""
"null","","337325","SARL_v60h4k6xm9","msl000095","freq_resp","","","img/green_2bandit_b.png","70","img/green_2bandit_b.png","70","test","","","","","","","","","1","","","","","","","","","","",""
"null","","337480","SARL_v60h4k6xm9","msl000095","fixation","","","img/fixation.png","null","","","test","","","","","","","","","","","","","","","","","","","",""
"317","","337802","SARL_v60h4k6xm9","msl000095","freq","","","img/green_2bandit_b2.png","70","","70","test","1","","","circle","square","3","3","3","1","1","","","","","","","","","",""
"null","","338291","SARL_v60h4k6xm9","msl000095","freq_resp","","","img/green_2bandit_b.png","70","img/green_2bandit_b.png","70","test","","","","","","","","","1","","","","","","","","","","",""
"null","","338447","SARL_v60h4k6xm9","msl000095","fixation","","","img/fixation.png","null","","","test","","","","","","","","","","","","","","","","","","","",""
"320","","338771","SARL_v60h4k6xm9","msl000095","freq","","","img/green_2bandit_b2.png","70","","70","test","1","","","circle","square","4","4","4","1","1","","","","","","","","","",""
"null","","339257","SARL_v60h4k6xm9","msl000095","freq_resp","","","img/green_2bandit_b.png","70","img/green_2bandit_b.png","70","test","","","","","","","","","1","","","","","","","","","","",""
"null","","339413","SARL_v60h4k6xm9","msl000095","fixation","","","img/fixation.png","null","","","test","","","","","","","","","","","","","","","","","","","",""
"267","","339684","SARL_v60h4k6xm9","msl000095","freq","","","img/green_2bandit_b2.png","70","","70","test","1","","","circle","square","5","5","5","1","1","","","","","","","","","",""
"null","","340223","SARL_v60h4k6xm9","msl000095","freq_resp","","","img/green_2bandit_b.png","70","img/green_2bandit_b.png","70","test","","","","","","","","","1","","","","","","","","","","",""
"null","","340380","SARL_v60h4k6xm9","msl000095","fixation","","","img/fixation.png","null","","","test","","","","","","","","","","","","","","","","","","","",""
"268","","340652","SARL_v60h4k6xm9","msl000095","freq","","","img/green_2bandit_b2.png","70","","70","test","1","","","circle","square","6","6","6","1","1","","","","","","","","","",""
"null","","341189","SARL_v60h4k6xm9","msl000095","freq_resp","","","img/green_2bandit_b.png","70","img/green_2bandit_b.png","70","test","","","","","","","","","1","","","","","","","","","","",""
"null","","341346","SARL_v60h4k6xm9","msl000095","fixation","","","img/fixation.png","null","","","test","","","","","","","","","","","","","","","","","","","",""
"181","","341531","SARL_v60h4k6xm9","msl000095","infreq","","","img/orange_2bandit_b2.png","70","","68","test","0","","","circle","square","7","7","7","1","0.8571428571428571","","","","","","","","","",""
"null","","342156","SARL_v60h4k6xm9","msl000095","infreq_resp","","","img/orange_2bandit_b.png","70","img/orange_2bandit_b.png","68","test","","","","","","","","","1","","","","","","","","","","",""
"null","","342312","SARL_v60h4k6xm9","msl000095","fixation","","","img/fixation.png","null","","","test","","","","","","","","","","","","","","","","","","","",""
"349","","342665","SARL_v60h4k6xm9","msl000095","freq","","","img/green_2bandit_b2.png","70","","70","test","1","","","circle","square","8","8","8","1","0.875","","","","","","","","","",""
"null","","343123","SARL_v60h4k6xm9","msl000095","freq_resp","","","img/green_2bandit_b.png","70","img/green_2bandit_b.png","70","test","","","","","","","","","1","","","","","","","","","","",""
"null","","343278","SARL_v60h4k6xm9","msl000095","fixation","","","img/fixation.png","null","","","test","","","","","","","","","","","","","","","","","","","",""
"444","","343727","SARL_v60h4k6xm9","msl000095","freq","","","img/green_2bandit_b2.png","70","","70","test","1","","","circle","square","9","9","9","1","0.8888888888888888","","","","","","","","","",""
"null","","344088","SARL_v60h4k6xm9","msl000095","freq_resp","","","img/green_2bandit_b.png","70","img/green_2bandit_b.png","70","test","","","","","","","","","1","","","","","","","","","","",""
"null","","344243","SARL_v60h4k6xm9","msl000095","fixation","","","img/fixation.png","null","","","test","","","","","","","","","","","","","","","","","","","",""
"368","","344616","SARL_v60h4k6xm9","msl000095","freq","","","img/green_2bandit_b2.png","70","","70","test","1","","","circle","square","10","10","10","1","0.9","","","","","","","","","",""
"null","","345055","SARL_v60h4k6xm9","msl000095","freq_resp","","","img/green_2bandit_b.png","70","img/green_2bandit_b.png","70","test","","","","","","","","","1","","","","","","","","","","",""
"null","","345210","SARL_v60h4k6xm9","msl000095","fixation","","","img/fixation.png","null","","","test","","","","","","","","","","","","","","","","","","","",""
"381","","345597","SARL_v60h4k6xm9","msl000095","freq","","","img/green_2bandit_b2.png","70","","70","test","1","","","circle","square","11","11","11","1","0.9090909090909091","","","","","","","","","",""
"null","","346022","SARL_v60h4k6xm9","msl000095","freq_resp","","","img/green_2bandit_b.png","70","img/green_2bandit_b.png","70","test","","","","","","","","","1","","","","","","","","","","",""
"null","","346178","SARL_v60h4k6xm9","msl000095","fixation","","","img/fixation.png","null","","","test","","","","","","","","","","","","","","","","","","","",""
"330","","346513","SARL_v60h4k6xm9","msl000095","freq","","","img/green_2bandit_b2.png","70","","70","test","1","","","circle","square","12","12","12","1","0.9166666666666666","","","","","","","","","",""
"null","","346988","SARL_v60h4k6xm9","msl000095","freq_resp","","","img/green_2bandit_b.png","70","img/green_2bandit_b.png","70","test","","","","","","","","","1","","","","","","","","","","",""
"null","","347143","SARL_v60h4k6xm9","msl000095","fixation","","","img/fixation.png","null","","","test","","","","","","","","","","","","","","","","","","","",""
"308","","347457","SARL_v60h4k6xm9","msl000095","freq","","","img/green_2bandit_b2.png","70","","70","test","1","","","circle","square","13","13","13","1","0.9230769230769231","","","","","","","","","",""
"null","","347954","SARL_v60h4k6xm9","msl000095","freq_resp","","","img/green_2bandit_b.png","70","img/green_2bandit_b.png","70","test","","","","","","","","","1","","","","","","","","","","",""
"null","","348110","SARL_v60h4k6xm9","msl000095","fixation","","","img/fixation.png","null","","","test","","","","","","","","","","","","","","","","","","","",""
"295","","348410","SARL_v60h4k6xm9","msl000095","freq","","","img/green_2bandit_b2.png","70","","70","test","1","","","circle","square","14","14","14","1","0.9285714285714286","","","","","","","","","",""
"null","","348921","SARL_v60h4k6xm9","msl000095","freq_resp","","","img/green_2bandit_b.png","70","img/green_2bandit_b.png","70","test","","","","","","","","","1","","","","","","","","","","",""
"null","","349076","SARL_v60h4k6xm9","msl000095","fixation","","","img/fixation.png","null","","","test","","","","","","","","","","","","","","","","","","","",""
"423","","349503","SARL_v60h4k6xm9","msl000095","infreq","","","img/orange_2bandit_b2.png","68","","68","test","1","","","circle","square","15","15","15","1","0.9333333333333333","","","","","","","","","",""
"null","","349887","SARL_v60h4k6xm9","msl000095","infreq_resp","","","img/orange_2bandit_b.png","68","img/orange_2bandit_b.png","68","test","","","","","","","","","1","","","","","","","","","","",""
"null","","350042","SARL_v60h4k6xm9","msl000095","fixation","","","img/fixation.png","null","","","test","","","","","","","","","","","","","","","","","","","",""
"171","","350217","SARL_v60h4k6xm9","msl000095","freq","","","img/green_2bandit_b2.png","68","","70","test","0","","","circle","square","16","16","16","1","0.875","","","","","","","","","",""
"null","","350851","SARL_v60h4k6xm9","msl000095","freq_resp","","","img/green_2bandit_b.png","68","img/green_2bandit_b.png","70","test","","","","","","","","","1","","","","","","","","","","",""
"null","","351007","SARL_v60h4k6xm9","msl000095","fixation","","","img/fixation.png","null","","","test","","","","","","","","","","","","","","","","","","","",""
"394","","351406","SARL_v60h4k6xm9","msl000095","freq","","","img/green_2bandit_b2.png","70","","70","test","1","","","circle","square","17","17","17","1","0.8823529411764706","","","","","","","","","",""
"null","","351818","SARL_v60h4k6xm9","msl000095","freq_resp","","","img/green_2bandit_b.png","70","img/green_2bandit_b.png","70","test","","","","","","","","","1","","","","","","","","","","",""
"null","","351973","SARL_v60h4k6xm9","msl000095","fixation","","","img/fixation.png","null","","","test","","","","","","","","","","","","","","","","","","","",""
"322","","352300","SARL_v60h4k6xm9","msl000095","freq","","","img/green_2bandit_b2.png","70","","70","test","1","","","circle","square","18","18","18","1","0.8888888888888888","","","","","","","","","",""
"null","","352784","SARL_v60h4k6xm9","msl000095","freq_resp","","","img/green_2bandit_b.png","70","img/green_2bandit_b.png","70","test","","","","","","","","","1","","","","","","","","","","",""
"null","","352939","SARL_v60h4k6xm9","msl000095","fixation","","","img/fixation.png","null","","","test","","","","","","","","","","","","","","","","","","","",""
"318","","353262","SARL_v60h4k6xm9","msl000095","freq","","","img/green_2bandit_b2.png","70","","70","test","1","","","circle","square","19","19","19","1","0.8947368421052632","","","","","","","","","",""
"null","","353750","SARL_v60h4k6xm9","msl000095","freq_resp","","","img/green_2bandit_b.png","70","img/green_2bandit_b.png","70","test","","","","","","","","","1","","","","","","","","","","",""
"null","","353906","SARL_v60h4k6xm9","msl000095","fixation","","","img/fixation.png","null","","","test","","","","","","","","","","","","","","","","","","","",""
"316","","354226","SARL_v60h4k6xm9","msl000095","freq","","","img/green_2bandit_b2.png","70","","70","test","1","","","circle","square","20","20","20","1","0.9","","","","","","","","","",""
"null","","354717","SARL_v60h4k6xm9","msl000095","freq_resp","","","img/green_2bandit_b.png","70","img/green_2bandit_b.png","70","test","","","","","","","","","1","","","","","","","","","","",""
"null","","354872","SARL_v60h4k6xm9","msl000095","fixation","","","img/fixation.png","null","","","test","","","","","","","","","","","","","","","","","","","",""
"318","","355194","SARL_v60h4k6xm9","msl000095","freq","","","img/green_2bandit_b2.png","70","","70","test","1","","","circle","square","21","21","21","1","0.9047619047619048","","","","","","","","","",""
"null","","355682","SARL_v60h4k6xm9","msl000095","freq_resp","","","img/green_2bandit_b.png","70","img/green_2bandit_b.png","70","test","","","","","","","","","1","","","","","","","","","","",""
"null","","355837","SARL_v60h4k6xm9","msl000095","fixation","","","img/fixation.png","null","","","test","","","","","","","","","","","","","","","","","","","",""
"297","","356138","SARL_v60h4k6xm9","msl000095","freq","","","img/green_2bandit_b2.png","70","","70","test","1","","","circle","square","22","22","22","1","0.9090909090909091","","","","","","","","","",""
"null","","356646","SARL_v60h4k6xm9","msl000095","freq_resp","","","img/green_2bandit_b.png","70","img/green_2bandit_b.png","70","test","","","","","","","","","1","","","","","","","","","","",""
"null","","356802","SARL_v60h4k6xm9","msl000095","fixation","","","img/fixation.png","null","","","test","","","","","","","","","","","","","","","","","","","",""
"425","","357233","SARL_v60h4k6xm9","msl000095","freq","","","img/green_2bandit_b2.png","70","","70","test","1","","","circle","square","23","23","23","1","0.9130434782608695","","","","","","","","","",""
"null","","357613","SARL_v60h4k6xm9","msl000095","freq_resp","","","img/green_2bandit_b.png","70","img/green_2bandit_b.png","70","test","","","","","","","","","1","","","","","","","","","","",""
"null","","357771","SARL_v60h4k6xm9","msl000095","fixation","","","img/fixation.png","null","","","test","","","","","","","","","","","","","","","","","","","",""
"null","","359275","SARL_v60h4k6xm9","msl000095","rl","","","img/black_2bandit_b2.png","null","","0","test","","","0","circle","square","24","","0","1","","null","0.2","0.8","0.34708778860176637","0.2","0.8","0","too slow","1","0"
"null","","360031","SARL_v60h4k6xm9","msl000095","feedback","","","img/boo.png","null","","na","test","","","","","","","","","1","","null","0.2","0.8","","","","0","","1",""
"null","","360837","SARL_v60h4k6xm9","msl000095","freq","","","img/green_2bandit_b2.png","null","","70","test","0","","","circle","square","25","24","1","2","0.875","","","","","","","","","",""
"null","","360993","SARL_v60h4k6xm9","msl000095","fixation","","","img/fixation.png","null","","","test","","","","","","","","","","","","","","","","","","","",""
"59","","361056","SARL_v60h4k6xm9","msl000095","freq","","","img/green_2bandit_b2.png","68","","70","test","0","","","circle","square","26","25","2","2","0.84","","","","","","","","","",""
"null","","361803","SARL_v60h4k6xm9","msl000095","freq_resp","","","img/green_2bandit_b.png","68","img/green_2bandit_b.png","70","test","","","","","","","","","2","","","","","","","","","","",""
"null","","361959","SARL_v60h4k6xm9","msl000095","fixation","","","img/fixation.png","null","","","test","","","","","","","","","","","","","","","","","","","",""
"332","","362296","SARL_v60h4k6xm9","msl000095","freq","","","img/green_2bandit_b2.png","68","","70","test","0","","","circle","square","27","26","3","2","0.8076923076923077","","","","","","","","","",""
"null","","362770","SARL_v60h4k6xm9","msl000095","freq_resp","","","img/green_2bandit_b.png","68","img/green_2bandit_b.png","70","test","","","","","","","","","2","","","","","","","","","","",""
"null","","362925","SARL_v60h4k6xm9","msl000095","fixation","","","img/fixation.png","null","","","test","","","","","","","","","","","","","","","","","","","",""
"231","","363161","SARL_v60h4k6xm9","msl000095","freq","","","img/green_2bandit_b2.png","68","","70","test","0","","","circle","square","28","27","4","2","0.7777777777777778","","","","","","","","","",""
"null","","363736","SARL_v60h4k6xm9","msl000095","freq_resp","","","img/green_2bandit_b.png","68","img/green_2bandit_b.png","70","test","","","","","","","","","2","","","","","","","","","","",""
"null","","363891","SARL_v60h4k6xm9","msl000095","fixation","","","img/fixation.png","null","","","test","","","","","","","","","","","","","","","","","","","",""
"255","","364152","SARL_v60h4k6xm9","msl000095","freq","","","img/green_2bandit_b2.png","68","","70","test","0","","","circle","square","29","28","5","2","0.75","","","","","","","","","",""
"null","","364702","SARL_v60h4k6xm9","msl000095","freq_resp","","","img/green_2bandit_b.png","68","img/green_2bandit_b.png","70","test","","","","","","","","","2","","","","","","","","","","",""
"null","","364858","SARL_v60h4k6xm9","msl000095","fixation","","","img/fixation.png","null","","","test","","","","","","","","","","","","","","","","","","","",""
"249","","365112","SARL_v60h4k6xm9","msl000095","freq","","","img/green_2bandit_b2.png","70","","70","test","1","","","circle","square","30","29","6","2","0.7586206896551724","","","","","","","","","",""
"null","","365668","SARL_v60h4k6xm9","msl000095","freq_resp","","","img/green_2bandit_b.png","70","img/green_2bandit_b.png","70","test","","","","","","","","","2","","","","","","","","","","",""
"null","","365824","SARL_v60h4k6xm9","msl000095","fixation","","","img/fixation.png","null","","","test","","","","","","","","","","","","","","","","","","","",""
"256","","366086","SARL_v60h4k6xm9","msl000095","freq","","","img/green_2bandit_b2.png","70","","70","test","1","","","circle","square","31","30","7","2","0.7666666666666667","","","","","","","","","",""
"null","","366634","SARL_v60h4k6xm9","msl000095","freq_resp","","","img/green_2bandit_b.png","70","img/green_2bandit_b.png","70","test","","","","","","","","","2","","","","","","","","","","",""
"null","","366790","SARL_v60h4k6xm9","msl000095","fixation","","","img/fixation.png","null","","","test","","","","","","","","","","","","","","","","","","","",""
"284","","367078","SARL_v60h4k6xm9","msl000095","freq","","","img/green_2bandit_b2.png","70","","70","test","1","","","circle","square","32","31","8","2","0.7741935483870968","","","","","","","","","",""
"null","","367600","SARL_v60h4k6xm9","msl000095","freq_resp","","","img/green_2bandit_b.png","70","img/green_2bandit_b.png","70","test","","","","","","","","","2","","","","","","","","","","",""
"null","","367755","SARL_v60h4k6xm9","msl000095","fixation","","","img/fixation.png","null","","","test","","","","","","","","","","","","","","","","","","","",""
"222","","367981","SARL_v60h4k6xm9","msl000095","freq","","","img/green_2bandit_b2.png","70","","70","test","1","","","circle","square","33","32","9","2","0.78125","","","","","","","","","",""
"null","","368565","SARL_v60h4k6xm9","msl000095","freq_resp","","","img/green_2bandit_b.png","70","img/green_2bandit_b.png","70","test","","","","","","","","","2","","","","","","","","","","",""
"null","","368721","SARL_v60h4k6xm9","msl000095","fixation","","","img/fixation.png","null","","","test","","","","","","","","","","","","","","","","","","","",""
"486","","369211","SARL_v60h4k6xm9","msl000095","infreq","","","img/orange_2bandit_b2.png","68","","68","test","1","","","circle","square","34","33","10","2","0.7878787878787878","","","","","","","","","",""
"null","","369531","SARL_v60h4k6xm9","msl000095","infreq_resp","","","img/orange_2bandit_b.png","68","img/orange_2bandit_b.png","68","test","","","","","","","","","2","","","","","","","","","","",""
"null","","369688","SARL_v60h4k6xm9","msl000095","fixation","","","img/fixation.png","null","","","test","","","","","","","","","","","","","","","","","","","",""
"277","","369969","SARL_v60h4k6xm9","msl000095","freq","","","img/green_2bandit_b2.png","70","","70","test","1","","","circle","square","35","34","11","2","0.7941176470588235","","","","","","","","","",""
"null","","370498","SARL_v60h4k6xm9","msl000095","freq_resp","","","img/green_2bandit_b.png","70","img/green_2bandit_b.png","70","test","","","","","","","","","2","","","","","","","","","","",""
"null","","370654","SARL_v60h4k6xm9","msl000095","fixation","","","img/fixation.png","null","","","test","","","","","","","","","","","","","","","","","","","",""
"272","","370931","SARL_v60h4k6xm9","msl000095","infreq","","","img/orange_2bandit_b2.png","70","","68","test","0","","","circle","square","36","35","12","2","0.7714285714285715","","","","","","","","","",""
"null","","371465","SARL_v60h4k6xm9","msl000095","infreq_resp","","","img/orange_2bandit_b.png","70","img/orange_2bandit_b.png","68","test","","","","","","","","","2","","","","","","","","","","",""
"null","","371620","SARL_v60h4k6xm9","msl000095","fixation","","","img/fixation.png","null","","","test","","","","","","","","","","","","","","","","","","","",""
"427","","372053","SARL_v60h4k6xm9","msl000095","freq","","","img/green_2bandit_b2.png","70","","70","test","1","","","circle","square","37","36","13","2","0.7777777777777778","","","","","","","","","",""
"null","","372430","SARL_v60h4k6xm9","msl000095","freq_resp","","","img/green_2bandit_b.png","70","img/green_2bandit_b.png","70","test","","","","","","","","","2","","","","","","","","","","",""
"null","","372587","SARL_v60h4k6xm9","msl000095","fixation","","","img/fixation.png","null","","","test","","","","","","","","","","","","","","","","","","","",""
"355","","372945","SARL_v60h4k6xm9","msl000095","freq","","","img/green_2bandit_b2.png","70","","70","test","1","","","circle","square","38","37","14","2","0.7837837837837838","","","","","","","","","",""
"null","","373396","SARL_v60h4k6xm9","msl000095","freq_resp","","","img/green_2bandit_b.png","70","img/green_2bandit_b.png","70","test","","","","","","","","","2","","","","","","","","","","",""
"null","","373552","SARL_v60h4k6xm9","msl000095","fixation","","","img/fixation.png","null","","","test","","","","","","","","","","","","","","","","","","","",""
"357","","373913","SARL_v60h4k6xm9","msl000095","freq","","","img/green_2bandit_b2.png","70","","70","test","1","","","circle","square","39","38","15","2","0.7894736842105263","","","","","","","","","",""
"null","","374362","SARL_v60h4k6xm9","msl000095","freq_resp","","","img/green_2bandit_b.png","70","img/green_2bandit_b.png","70","test","","","","","","","","","2","","","","","","","","","","",""
"null","","374517","SARL_v60h4k6xm9","msl000095","fixation","","","img/fixation.png","null","","","test","","","","","","","","","","","","","","","","","","","",""
"245","","374767","SARL_v60h4k6xm9","msl000095","freq","","","img/green_2bandit_b2.png","70","","70","test","1","","","circle","square","40","39","16","2","0.7948717948717948","","","","","","","","","",""
"null","","375328","SARL_v60h4k6xm9","msl000095","freq_resp","","","img/green_2bandit_b.png","70","img/green_2bandit_b.png","70","test","","","","","","","","","2","","","","","","","","","","",""
"null","","375485","SARL_v60h4k6xm9","msl000095","fixation","","","img/fixation.png","null","","","test","","","","","","","","","","","","","","","","","","","",""
"318","","375807","SARL_v60h4k6xm9","msl000095","freq","","","img/green_2bandit_b2.png","70","","70","test","1","","","circle","square","41","40","17","2","0.8","","","","","","","","","",""
"null","","376295","SARL_v60h4k6xm9","msl000095","freq_resp","","","img/green_2bandit_b.png","70","img/green_2bandit_b.png","70","test","","","","","","","","","2","","","","","","","","","","",""
"null","","376450","SARL_v60h4k6xm9","msl000095","fixation","","","img/fixation.png","null","","","test","","","","","","","","","","","","","","","","","","","",""
"501","","376955","SARL_v60h4k6xm9","msl000095","freq","","","img/green_2bandit_b2.png","70","","70","test","1","","","circle","square","42","41","18","2","0.8048780487804879","","","","","","","","","",""
"null","","377260","SARL_v60h4k6xm9","msl000095","freq_resp","","","img/green_2bandit_b.png","70","img/green_2bandit_b.png","70","test","","","","","","","","","2","","","","","","","","","","",""
"null","","377416","SARL_v60h4k6xm9","msl000095","fixation","","","img/fixation.png","null","","","test","","","","","","","","","","","","","","","","","","","",""
"367","","377788","SARL_v60h4k6xm9","msl000095","freq","","","img/green_2bandit_b2.png","70","","70","test","1","","","circle","square","43","42","19","2","0.8095238095238095","","","","","","","","","",""
"null","","378226","SARL_v60h4k6xm9","msl000095","freq_resp","","","img/green_2bandit_b.png","70","img/green_2bandit_b.png","70","test","","","","","","","","","2","","","","","","","","","","",""
"null","","378383","SARL_v60h4k6xm9","msl000095","fixation","","","img/fixation.png","null","","","test","","","","","","","","","","","","","","","","","","","",""
"273","","378661","SARL_v60h4k6xm9","msl000095","freq","","","img/green_2bandit_b2.png","70","","70","test","1","","","circle","square","44","43","20","2","0.813953488372093","","","","","","","","","",""
"null","","379193","SARL_v60h4k6xm9","msl000095","freq_resp","","","img/green_2bandit_b.png","70","img/green_2bandit_b.png","70","test","","","","","","","","","2","","","","","","","","","","",""
"null","","379349","SARL_v60h4k6xm9","msl000095","fixation","","","img/fixation.png","null","","","test","","","","","","","","","","","","","","","","","","","",""
"270","","379624","SARL_v60h4k6xm9","msl000095","infreq","","","img/orange_2bandit_b2.png","70","","68","test","0","","","circle","square","45","44","21","2","0.7954545454545454","","","","","","","","","",""
"null","","380159","SARL_v60h4k6xm9","msl000095","infreq_resp","","","img/orange_2bandit_b.png","70","img/orange_2bandit_b.png","68","test","","","","","","","","","2","","","","","","","","","","",""
"null","","380315","SARL_v60h4k6xm9","msl000095","fixation","","","img/fixation.png","null","","","test","","","","","","","","","","","","","","","","","","","",""
"233","","380554","SARL_v60h4k6xm9","msl000095","freq","","","img/green_2bandit_b2.png","70","","70","test","1","","","circle","square","46","45","22","2","0.8","","","","","","","","","",""
"null","","381126","SARL_v60h4k6xm9","msl000095","freq_resp","","","img/green_2bandit_b.png","70","img/green_2bandit_b.png","70","test","","","","","","","","","2","","","","","","","","","","",""
"null","","381282","SARL_v60h4k6xm9","msl000095","fixation","","","img/fixation.png","null","","","test","","","","","","","","","","","","","","","","","","","",""
"null","","382788","SARL_v60h4k6xm9","msl000095","rl","","","img/black_2bandit_b2.png","null","","0","test","","","0","circle","square","47","","0","2","","null","0.2","0.8","0.48081121471408883","0.2","0.8","0","too slow","2","0"
"null","","383543","SARL_v60h4k6xm9","msl000095","feedback","","","img/boo.png","null","","na","test","","","","","","","","","2","","null","0.2","0.8","","","","0","","2",""
"654","","384201","SARL_v60h4k6xm9","msl000095","freq","","","img/green_2bandit_b2.png","70","","70","test","1","","","circle","square","48","46","1","3","0.8043478260869565","","","","","","","","","",""
"null","","384353","SARL_v60h4k6xm9","msl000095","freq_resp","","","img/green_2bandit_b.png","70","img/green_2bandit_b.png","70","test","","","","","","","","","3","","","","","","","","","","",""
"null","","384510","SARL_v60h4k6xm9","msl000095","fixation","","","img/fixation.png","null","","","test","","","","","","","","","","","","","","","","","","","",""
"309","","384822","SARL_v60h4k6xm9","msl000095","freq","","","img/green_2bandit_b2.png","70","","70","test","1","","","circle","square","49","47","2","3","0.8085106382978723","","","","","","","","","",""
"null","","385319","SARL_v60h4k6xm9","msl000095","freq_resp","","","img/green_2bandit_b.png","70","img/green_2bandit_b.png","70","test","","","","","","","","","3","","","","","","","","","","",""
"null","","385476","SARL_v60h4k6xm9","msl000095","fixation","","","img/fixation.png","null","","","test","","","","","","","","","","","","","","","","","","","",""
"316","","385797","SARL_v60h4k6xm9","msl000095","freq","","","img/green_2bandit_b2.png","70","","70","test","1","","","circle","square","50","48","3","3","0.8125","","","","","","","","","",""
"null","","386285","SARL_v60h4k6xm9","msl000095","freq_resp","","","img/green_2bandit_b.png","70","img/green_2bandit_b.png","70","test","","","","","","","","","3","","","","","","","","","","",""
"null","","386441","SARL_v60h4k6xm9","msl000095","fixation","","","img/fixation.png","null","","","test","","","","","","","","","","","","","","","","","","","",""
"309","","386754","SARL_v60h4k6xm9","msl000095","freq","","","img/green_2bandit_b2.png","70","","70","test","1","","","circle","square","51","49","4","3","0.8163265306122449","","","","","","","","","",""
"null","","387251","SARL_v60h4k6xm9","msl000095","freq_resp","","","img/green_2bandit_b.png","70","img/green_2bandit_b.png","70","test","","","","","","","","","3","","","","","","","","","","",""
"null","","387407","SARL_v60h4k6xm9","msl000095","fixation","","","img/fixation.png","null","","","test","","","","","","","","","","","","","","","","","","","",""
"579","","387991","SARL_v60h4k6xm9","msl000095","freq","","","img/green_2bandit_b2.png","70","","70","test","1","","","circle","square","52","50","5","3","0.82","","","","","","","","","",""
"null","","388217","SARL_v60h4k6xm9","msl000095","freq_resp","","","img/green_2bandit_b.png","70","img/green_2bandit_b.png","70","test","","","","","","","","","3","","","","","","","","","","",""
"null","","388373","SARL_v60h4k6xm9","msl000095","fixation","","","img/fixation.png","null","","","test","","","","","","","","","","","","","","","","","","","",""
"280","","388658","SARL_v60h4k6xm9","msl000095","freq","","","img/green_2bandit_b2.png","70","","70","test","1","","","circle","square","53","51","6","3","0.8235294117647058","","","","","","","","","",""
"null","","389184","SARL_v60h4k6xm9","msl000095","freq_resp","","","img/green_2bandit_b.png","70","img/green_2bandit_b.png","70","test","","","","","","","","","3","","","","","","","","","","",""
"null","","389339","SARL_v60h4k6xm9","msl000095","fixation","","","img/fixation.png","null","","","test","","","","","","","","","","","","","","","","","","","",""
"572","","389916","SARL_v60h4k6xm9","msl000095","freq","","","img/green_2bandit_b2.png","70","","70","test","1","","","circle","square","54","52","7","3","0.8269230769230769","","","","","","","","","",""
"null","","390151","SARL_v60h4k6xm9","msl000095","freq_resp","","","img/green_2bandit_b.png","70","img/green_2bandit_b.png","70","test","","","","","","","","","3","","","","","","","","","","",""
"null","","390305","SARL_v60h4k6xm9","msl000095","fixation","","","img/fixation.png","null","","","test","","","","","","","","","","","","","","","","","","","",""
"335","","390645","SARL_v60h4k6xm9","msl000095","freq","","","img/green_2bandit_b2.png","70","","70","test","1","","","circle","square","55","53","8","3","0.8301886792452831","","","","","","","","","",""
"null","","391117","SARL_v60h4k6xm9","msl000095","freq_resp","","","img/green_2bandit_b.png","70","img/green_2bandit_b.png","70","test","","","","","","","","","3","","","","","","","","","","",""
"null","","391272","SARL_v60h4k6xm9","msl000095","fixation","","","img/fixation.png","null","","","test","","","","","","","","","","","","","","","","","","","",""
"422","","391698","SARL_v60h4k6xm9","msl000095","freq","","","img/green_2bandit_b2.png","70","","70","test","1","","","circle","square","56","54","9","3","0.8333333333333334","","","","","","","","","",""
"null","","392083","SARL_v60h4k6xm9","msl000095","freq_resp","","","img/green_2bandit_b.png","70","img/green_2bandit_b.png","70","test","","","","","","","","","3","","","","","","","","","","",""
"null","","392239","SARL_v60h4k6xm9","msl000095","fixation","","","img/fixation.png","null","","","test","","","","","","","","","","","","","","","","","","","",""
"278","","392522","SARL_v60h4k6xm9","msl000095","freq","","","img/green_2bandit_b2.png","70","","70","test","1","","","circle","square","57","55","10","3","0.8363636363636363","","","","","","","","","",""
"null","","393049","SARL_v60h4k6xm9","msl000095","freq_resp","","","img/green_2bandit_b.png","70","img/green_2bandit_b.png","70","test","","","","","","","","","3","","","","","","","","","","",""
"null","","393205","SARL_v60h4k6xm9","msl000095","fixation","","","img/fixation.png","null","","","test","","","","","","","","","","","","","","","","","","","",""
"215","","393425","SARL_v60h4k6xm9","msl000095","freq","","","img/green_2bandit_b2.png","70","","70","test","1","","","circle","square","58","56","11","3","0.8392857142857143","","","","","","","","","",""
"null","","394015","SARL_v60h4k6xm9","msl000095","freq_resp","","","img/green_2bandit_b.png","70","img/green_2bandit_b.png","70","test","","","","","","","","","3","","","","","","","","","","",""
"null","","394171","SARL_v60h4k6xm9","msl000095","fixation","","","img/fixation.png","null","","","test","","","","","","","","","","","","","","","","","","","",""
"91","","394266","SARL_v60h4k6xm9","msl000095","freq","","","img/green_2bandit_b2.png","70","","70","test","1","","","circle","square","59","57","12","3","0.8421052631578947","","","","","","","","","",""
"null","","394980","SARL_v60h4k6xm9","msl000095","freq_resp","","","img/green_2bandit_b.png","70","img/green_2bandit_b.png","70","test","","","","","","","","","3","","","","","","","","","","",""
"null","","395137","SARL_v60h4k6xm9","msl000095","fixation","","","img/fixation.png","null","","","test","","","","","","","","","","","","","","","","","","","",""
"84","","395226","SARL_v60h4k6xm9","msl000095","freq","","","img/green_2bandit_b2.png","70","","70","test","1","","","circle","square","60","58","13","3","0.8448275862068966","","","","","","","","","",""
"null","","395947","SARL_v60h4k6xm9","msl000095","freq_resp","","","img/green_2bandit_b.png","70","img/green_2bandit_b.png","70","test","","","","","","","","","3","","","","","","","","","","",""
"null","","396103","SARL_v60h4k6xm9","msl000095","fixation","","","img/fixation.png","null","","","test","","","","","","","","","","","","","","","","","","","",""
"91","","396199","SARL_v60h4k6xm9","msl000095","freq","","","img/green_2bandit_b2.png","70","","70","test","1","","","circle","square","61","59","14","3","0.847457627118644","","","","","","","","","",""
"null","","396913","SARL_v60h4k6xm9","msl000095","freq_resp","","","img/green_2bandit_b.png","70","img/green_2bandit_b.png","70","test","","","","","","","","","3","","","","","","","","","","",""
"null","","397070","SARL_v60h4k6xm9","msl000095","fixation","","","img/fixation.png","null","","","test","","","","","","","","","","","","","","","","","","","",""
"150","","397225","SARL_v60h4k6xm9","msl000095","infreq","","","img/orange_2bandit_b2.png","70","","68","test","0","","","circle","square","62","60","15","3","0.8333333333333334","","","","","","","","","",""
"null","","397880","SARL_v60h4k6xm9","msl000095","infreq_resp","","","img/orange_2bandit_b.png","70","img/orange_2bandit_b.png","68","test","","","","","","","","","3","","","","","","","","","","",""
"null","","398037","SARL_v60h4k6xm9","msl000095","fixation","","","img/fixation.png","null","","","test","","","","","","","","","","","","","","","","","","","",""
"79","","398120","SARL_v60h4k6xm9","msl000095","freq","","","img/green_2bandit_b2.png","70","","70","test","1","","","circle","square","63","61","16","3","0.8360655737704918","","","","","","","","","",""
"null","","398846","SARL_v60h4k6xm9","msl000095","freq_resp","","","img/green_2bandit_b.png","70","img/green_2bandit_b.png","70","test","","","","","","","","","3","","","","","","","","","","",""
"null","","399003","SARL_v60h4k6xm9","msl000095","fixation","","","img/fixation.png","null","","","test","","","","","","","","","","","","","","","","","","","",""
"51","","399058","SARL_v60h4k6xm9","msl000095","freq","","","img/green_2bandit_b2.png","70","","70","test","1","","","circle","square","64","62","17","3","0.8387096774193549","","","","","","","","","",""
"null","","399812","SARL_v60h4k6xm9","msl000095","freq_resp","","","img/green_2bandit_b.png","70","img/green_2bandit_b.png","70","test","","","","","","","","","3","","","","","","","","","","",""
"null","","399968","SARL_v60h4k6xm9","msl000095","fixation","","","img/fixation.png","null","","","test","","","","","","","","","","","","","","","","","","","",""
"54","","400027","SARL_v60h4k6xm9","msl000095","infreq","","","img/orange_2bandit_b2.png","70","","68","test","0","","","circle","square","65","63","18","3","0.8253968253968254","","","","","","","","","",""
"null","","400779","SARL_v60h4k6xm9","msl000095","infreq_resp","","","img/orange_2bandit_b.png","70","img/orange_2bandit_b.png","68","test","","","","","","","","","3","","","","","","","","","","",""
"null","","400934","SARL_v60h4k6xm9","msl000095","fixation","","","img/fixation.png","null","","","test","","","","","","","","","","","","","","","","","","","",""
"114","","401052","SARL_v60h4k6xm9","msl000095","freq","","","img/green_2bandit_b2.png","70","","70","test","1","","","circle","square","66","64","19","3","0.828125","","","","","","","","","",""
"null","","401745","SARL_v60h4k6xm9","msl000095","freq_resp","","","img/green_2bandit_b.png","70","img/green_2bandit_b.png","70","test","","","","","","","","","3","","","","","","","","","","",""
"null","","401900","SARL_v60h4k6xm9","msl000095","fixation","","","img/fixation.png","null","","","test","","","","","","","","","","","","","","","","","","","",""
"105","","402010","SARL_v60h4k6xm9","msl000095","freq","","","img/green_2bandit_b2.png","70","","70","test","1","","","circle","square","67","65","20","3","0.8307692307692308","","","","","","","","","",""
"null","","402711","SARL_v60h4k6xm9","msl000095","freq_resp","","","img/green_2bandit_b.png","70","img/green_2bandit_b.png","70","test","","","","","","","","","3","","","","","","","","","","",""
"null","","402866","SARL_v60h4k6xm9","msl000095","fixation","","","img/fixation.png","null","","","test","","","","","","","","","","","","","","","","","","","",""
"67","","402938","SARL_v60h4k6xm9","msl000095","freq","","","img/green_2bandit_b2.png","70","","70","test","1","","","circle","square","68","66","21","3","0.8333333333333334","","","","","","","","","",""
"null","","403676","SARL_v60h4k6xm9","msl000095","freq_resp","","","img/green_2bandit_b.png","70","img/green_2bandit_b.png","70","test","","","","","","","","","3","","","","","","","","","","",""
"null","","403832","SARL_v60h4k6xm9","msl000095","fixation","","","img/fixation.png","null","","","test","","","","","","","","","","","","","","","","","","","",""
"111","","403949","SARL_v60h4k6xm9","msl000095","freq","","","img/green_2bandit_b2.png","70","","70","test","1","","","circle","square","69","67","22","3","0.835820895522388","","","","","","","","","",""
"null","","404644","SARL_v60h4k6xm9","msl000095","freq_resp","","","img/green_2bandit_b.png","70","img/green_2bandit_b.png","70","test","","","","","","","","","3","","","","","","","","","","",""
"null","","404799","SARL_v60h4k6xm9","msl000095","fixation","","","img/fixation.png","null","","","test","","","","","","","","","","","","","","","","","","","",""
"192","","404995","SARL_v60h4k6xm9","msl000095","freq","","","img/green_2bandit_b2.png","70","","70","test","1","","","circle","square","70","68","23","3","0.8382352941176471","","","","","","","","","",""
"null","","405609","SARL_v60h4k6xm9","msl000095","freq_resp","","","img/green_2bandit_b.png","70","img/green_2bandit_b.png","70","test","","","","","","","","","3","","","","","","","","","","",""
"null","","405766","SARL_v60h4k6xm9","msl000095","fixation","","","img/fixation.png","null","","","test","","","","","","","","","","","","","","","","","","","",""
"145","","405915","SARL_v60h4k6xm9","msl000095","freq","","","img/green_2bandit_b2.png","70","","70","test","1","","","circle","square","71","69","24","3","0.8405797101449275","","","","","","","","","",""
"null","","406577","SARL_v60h4k6xm9","msl000095","freq_resp","","","img/green_2bandit_b.png","70","img/green_2bandit_b.png","70","test","","","","","","","","","3","","","","","","","","","","",""
"null","","406732","SARL_v60h4k6xm9","msl000095","fixation","","","img/fixation.png","null","","","test","","","","","","","","","","","","","","","","","","","",""
"132","","406868","SARL_v60h4k6xm9","msl000095","freq","","","img/green_2bandit_b2.png","70","","70","test","1","","","circle","square","72","70","25","3","0.8428571428571429","","","","","","","","","",""
"null","","407543","SARL_v60h4k6xm9","msl000095","freq_resp","","","img/green_2bandit_b.png","70","img/green_2bandit_b.png","70","test","","","","","","","","","3","","","","","","","","","","",""
"null","","407698","SARL_v60h4k6xm9","msl000095","fixation","","","img/fixation.png","null","","","test","","","","","","","","","","","","","","","","","","","",""
"102","","407805","SARL_v60h4k6xm9","msl000095","freq","","","img/green_2bandit_b2.png","70","","70","test","1","","","circle","square","73","71","26","3","0.8450704225352113","","","","","","","","","",""
"null","","408509","SARL_v60h4k6xm9","msl000095","freq_resp","","","img/green_2bandit_b.png","70","img/green_2bandit_b.png","70","test","","","","","","","","","3","","","","","","","","","","",""
"null","","408665","SARL_v60h4k6xm9","msl000095","fixation","","","img/fixation.png","null","","","test","","","","","","","","","","","","","","","","","","","",""
"91","","408760","SARL_v60h4k6xm9","msl000095","freq","","","img/green_2bandit_b2.png","70","","70","test","1","","","circle","square","74","72","27","3","0.8472222222222222","","","","","","","","","",""
"null","","409474","SARL_v60h4k6xm9","msl000095","freq_resp","","","img/green_2bandit_b.png","70","img/green_2bandit_b.png","70","test","","","","","","","","","3","","","","","","","","","","",""
"null","","409629","SARL_v60h4k6xm9","msl000095","fixation","","","img/fixation.png","null","","","test","","","","","","","","","","","","","","","","","","","",""
"64","","409697","SARL_v60h4k6xm9","msl000095","freq","","","img/green_2bandit_b2.png","70","","70","test","1","","","circle","square","75","73","28","3","0.8493150684931506","","","","","","","","","",""
"null","","410439","SARL_v60h4k6xm9","msl000095","freq_resp","","","img/green_2bandit_b.png","70","img/green_2bandit_b.png","70","test","","","","","","","","","3","","","","","","","","","","",""
"null","","410595","SARL_v60h4k6xm9","msl000095","fixation","","","img/fixation.png","null","","","test","","","","","","","","","","","","","","","","","","","",""
"88","","410687","SARL_v60h4k6xm9","msl000095","infreq","","","img/orange_2bandit_b2.png","70","","68","test","0","","","circle","square","76","74","29","3","0.8378378378378378","","","","","","","","","",""
"null","","411404","SARL_v60h4k6xm9","msl000095","infreq_resp","","","img/orange_2bandit_b.png","70","img/orange_2bandit_b.png","68","test","","","","","","","","","3","","","","","","","","","","",""
"null","","411558","SARL_v60h4k6xm9","msl000095","fixation","","","img/fixation.png","null","","","test","","","","","","","","","","","","","","","","","","","",""
"51","","411614","SARL_v60h4k6xm9","msl000095","freq","","","img/green_2bandit_b2.png","70","","70","test","1","","","circle","square","77","75","30","3","0.84","","","","","","","","","",""
"null","","412369","SARL_v60h4k6xm9","msl000095","freq_resp","","","img/green_2bandit_b.png","70","img/green_2bandit_b.png","70","test","","","","","","","","","3","","","","","","","","","","",""
"null","","412524","SARL_v60h4k6xm9","msl000095","fixation","","","img/fixation.png","null","","","test","","","","","","","","","","","","","","","","","","","",""
"843","","413372","SARL_v60h4k6xm9","msl000095","rl","","","img/black_2bandit_b2.png","75","","0","test","","","1","circle","square","78","","0","3","","75","0.2","0.8","0.779820641948721","0.2","0.8","0.8","square","3","0"
"null","","414127","SARL_v60h4k6xm9","msl000095","feedback","","","img/yay_R_b.png","null","","na","test","","","","","","","","","3","","75","0.2","0.8","","","","0.8","","3",""
"665","","414796","SARL_v60h4k6xm9","msl000095","freq","","","img/green_2bandit_b2.png","70","","70","test","1","","","circle","square","79","76","1","4","0.8421052631578947","","","","","","","","","",""
"null","","414937","SARL_v60h4k6xm9","msl000095","freq_resp","","","img/green_2bandit_b.png","70","img/green_2bandit_b.png","70","test","","","","","","","","","4","","","","","","","","","","",""
"null","","415093","SARL_v60h4k6xm9","msl000095","fixation","","","img/fixation.png","null","","","test","","","","","","","","","","","","","","","","","","","",""
"352","","415451","SARL_v60h4k6xm9","msl000095","freq","","","img/green_2bandit_b2.png","70","","70","test","1","","","circle","square","80","77","2","4","0.8441558441558441","","","","","","","","","",""
"null","","415904","SARL_v60h4k6xm9","msl000095","freq_resp","","","img/green_2bandit_b.png","70","img/green_2bandit_b.png","70","test","","","","","","","","","4","","","","","","","","","","",""
"null","","416059","SARL_v60h4k6xm9","msl000095","fixation","","","img/fixation.png","null","","","test","","","","","","","","","","","","","","","","","","","",""
"259","","416323","SARL_v60h4k6xm9","msl000095","freq","","","img/green_2bandit_b2.png","70","","70","test","1","","","circle","square","81","78","3","4","0.8461538461538461","","","","","","","","","",""
"null","","416870","SARL_v60h4k6xm9","msl000095","freq_resp","","","img/green_2bandit_b.png","70","img/green_2bandit_b.png","70","test","","","","","","","","","4","","","","","","","","","","",""
"null","","417026","SARL_v60h4k6xm9","msl000095","fixation","","","img/fixation.png","null","","","test","","","","","","","","","","","","","","","","","","","",""
"115","","417145","SARL_v60h4k6xm9","msl000095","freq","","","img/green_2bandit_b2.png","70","","70","test","1","","","circle","square","82","79","4","4","0.8481012658227848","","","","","","","","","",""
"null","","417836","SARL_v60h4k6xm9","msl000095","freq_resp","","","img/green_2bandit_b.png","70","img/green_2bandit_b.png","70","test","","","","","","","","","4","","","","","","","","","","",""
"null","","417992","SARL_v60h4k6xm9","msl000095","fixation","","","img/fixation.png","null","","","test","","","","","","","","","","","","","","","","","","","",""
"96","","418093","SARL_v60h4k6xm9","msl000095","freq","","","img/green_2bandit_b2.png","70","","70","test","1","","","circle","square","83","80","5","4","0.85","","","","","","","","","",""
"null","","418803","SARL_v60h4k6xm9","msl000095","freq_resp","","","img/green_2bandit_b.png","70","img/green_2bandit_b.png","70","test","","","","","","","","","4","","","","","","","","","","",""
"null","","418959","SARL_v60h4k6xm9","msl000095","fixation","","","img/fixation.png","null","","","test","","","","","","","","","","","","","","","","","","","",""
"134","","419097","SARL_v60h4k6xm9","msl000095","freq","","","img/green_2bandit_b2.png","70","","70","test","1","","","circle","square","84","81","6","4","0.8518518518518519","","","","","","","","","",""
"null","","419769","SARL_v60h4k6xm9","msl000095","freq_resp","","","img/green_2bandit_b.png","70","img/green_2bandit_b.png","70","test","","","","","","","","","4","","","","","","","","","","",""
"null","","419924","SARL_v60h4k6xm9","msl000095","fixation","","","img/fixation.png","null","","","test","","","","","","","","","","","","","","","","","","","",""
"172","","420101","SARL_v60h4k6xm9","msl000095","infreq","","","img/orange_2bandit_b2.png","70","","68","test","0","","","circle","square","85","82","7","4","0.8414634146341463","","","","","","","","","",""
"null","","420735","SARL_v60h4k6xm9","msl000095","infreq_resp","","","img/orange_2bandit_b.png","70","img/orange_2bandit_b.png","68","test","","","","","","","","","4","","","","","","","","","","",""
"null","","420890","SARL_v60h4k6xm9","msl000095","fixation","","","img/fixation.png","null","","","test","","","","","","","","","","","","","","","","","","","",""
"616","","421511","SARL_v60h4k6xm9","msl000095","freq","","","img/green_2bandit_b2.png","70","","70","test","1","","","circle","square","86","83","8","4","0.8433734939759037","","","","","","","","","",""
"null","","421701","SARL_v60h4k6xm9","msl000095","freq_resp","","","img/green_2bandit_b.png","70","img/green_2bandit_b.png","70","test","","","","","","","","","4","","","","","","","","","","",""
"null","","421858","SARL_v60h4k6xm9","msl000095","fixation","","","img/fixation.png","null","","","test","","","","","","","","","","","","","","","","","","","",""
"700","","422561","SARL_v60h4k6xm9","msl000095","freq","","","img/green_2bandit_b2.png","70","","70","test","1","","","circle","square","87","84","9","4","0.8452380952380952","","","","","","","","","",""
"null","","422667","SARL_v60h4k6xm9","msl000095","freq_resp","","","img/green_2bandit_b.png","70","img/green_2bandit_b.png","70","test","","","","","","","","","4","","","","","","","","","","",""
"null","","422822","SARL_v60h4k6xm9","msl000095","fixation","","","img/fixation.png","null","","","test","","","","","","","","","","","","","","","","","","","",""
"626","","423452","SARL_v60h4k6xm9","msl000095","freq","","","img/green_2bandit_b2.png","70","","70","test","1","","","circle","square","88","85","10","4","0.8470588235294118","","","","","","","","","",""
"null","","423633","SARL_v60h4k6xm9","msl000095","freq_resp","","","img/green_2bandit_b.png","70","img/green_2bandit_b.png","70","test","","","","","","","","","4","","","","","","","","","","",""
"null","","423788","SARL_v60h4k6xm9","msl000095","fixation","","","img/fixation.png","null","","","test","","","","","","","","","","","","","","","","","","","",""
"445","","424238","SARL_v60h4k6xm9","msl000095","freq","","","img/green_2bandit_b2.png","70","","70","test","1","","","circle","square","89","86","11","4","0.8488372093023255","","","","","","","","","",""
"null","","424599","SARL_v60h4k6xm9","msl000095","freq_resp","","","img/green_2bandit_b.png","70","img/green_2bandit_b.png","70","test","","","","","","","","","4","","","","","","","","","","",""
"null","","424755","SARL_v60h4k6xm9","msl000095","fixation","","","img/fixation.png","null","","","test","","","","","","","","","","","","","","","","","","","",""
"266","","425026","SARL_v60h4k6xm9","msl000095","freq","","","img/green_2bandit_b2.png","70","","70","test","1","","","circle","square","90","87","12","4","0.8505747126436781","","","","","","","","","",""
"null","","425565","SARL_v60h4k6xm9","msl000095","freq_resp","","","img/green_2bandit_b.png","70","img/green_2bandit_b.png","70","test","","","","","","","","","4","","","","","","","","","","",""
"null","","425720","SARL_v60h4k6xm9","msl000095","fixation","","","img/fixation.png","null","","","test","","","","","","","","","","","","","","","","","","","",""
"399","","426125","SARL_v60h4k6xm9","msl000095","freq","","","img/green_2bandit_b2.png","70","","70","test","1","","","circle","square","91","88","13","4","0.8522727272727273","","","","","","","","","",""
"null","","426531","SARL_v60h4k6xm9","msl000095","freq_resp","","","img/green_2bandit_b.png","70","img/green_2bandit_b.png","70","test","","","","","","","","","4","","","","","","","","","","",""
"null","","426686","SARL_v60h4k6xm9","msl000095","fixation","","","img/fixation.png","null","","","test","","","","","","","","","","","","","","","","","","","",""
"275","","426966","SARL_v60h4k6xm9","msl000095","freq","","","img/green_2bandit_b2.png","70","","70","test","1","","","circle","square","92","89","14","4","0.8539325842696629","","","","","","","","","",""
"null","","427497","SARL_v60h4k6xm9","msl000095","freq_resp","","","img/green_2bandit_b.png","70","img/green_2bandit_b.png","70","test","","","","","","","","","4","","","","","","","","","","",""
"null","","427653","SARL_v60h4k6xm9","msl000095","fixation","","","img/fixation.png","null","","","test","","","","","","","","","","","","","","","","","","","",""
"181","","427839","SARL_v60h4k6xm9","msl000095","freq","","","img/green_2bandit_b2.png","70","","70","test","1","","","circle","square","93","90","15","4","0.8555555555555555","","","","","","","","","",""
"null","","428463","SARL_v60h4k6xm9","msl000095","freq_resp","","","img/green_2bandit_b.png","70","img/green_2bandit_b.png","70","test","","","","","","","","","4","","","","","","","","","","",""
"null","","428618","SARL_v60h4k6xm9","msl000095","fixation","","","img/fixation.png","null","","","test","","","","","","","","","","","","","","","","","","","",""
"79","","428702","SARL_v60h4k6xm9","msl000095","freq","","","img/green_2bandit_b2.png","70","","70","test","1","","","circle","square","94","91","16","4","0.8571428571428571","","","","","","","","","",""
"null","","429429","SARL_v60h4k6xm9","msl000095","freq_resp","","","img/green_2bandit_b.png","70","img/green_2bandit_b.png","70","test","","","","","","","","","4","","","","","","","","","","",""
"null","","429584","SARL_v60h4k6xm9","msl000095","fixation","","","img/fixation.png","null","","","test","","","","","","","","","","","","","","","","","","","",""
"null","","430390","SARL_v60h4k6xm9","msl000095","freq","","","img/green_2bandit_b2.png","null","","70","test","0","","","circle","square","95","92","17","4","0.8478260869565217","","","","","","","","","",""
"null","","430545","SARL_v60h4k6xm9","msl000095","fixation","","","img/fixation.png","null","","","test","","","","","","","","","","","","","","","","","","","",""
"null","","431350","SARL_v60h4k6xm9","msl000095","freq","","","img/green_2bandit_b2.png","null","","70","test","0","","","circle","square","96","93","18","4","0.8387096774193549","","","","","","","","","",""
"null","","431506","SARL_v60h4k6xm9","msl000095","fixation","","","img/fixation.png","null","","","test","","","","","","","","","","","","","","","","","","","",""
"null","","432311","SARL_v60h4k6xm9","msl000095","freq","","","img/green_2bandit_b2.png","null","","70","test","0","","","circle","square","97","94","19","4","0.8297872340425532","","","","","","","","","",""
"null","","432466","SARL_v60h4k6xm9","msl000095","fixation","","","img/fixation.png","null","","","test","","","","","","","","","","","","","","","","","","","",""
"528","","432999","SARL_v60h4k6xm9","msl000095","infreq","","","img/orange_2bandit_b2.png","68","","68","test","1","","","circle","square","98","95","20","4","0.8315789473684211","","","","","","","","","",""
"null","","433277","SARL_v60h4k6xm9","msl000095","infreq_resp","","","img/orange_2bandit_b.png","68","img/orange_2bandit_b.png","68","test","","","","","","","","","4","","","","","","","","","","",""
"null","","433433","SARL_v60h4k6xm9","msl000095","fixation","","","img/fixation.png","null","","","test","","","","","","","","","","","","","","","","","","","",""
"379","","433818","SARL_v60h4k6xm9","msl000095","freq","","","img/green_2bandit_b2.png","70","","70","test","1","","","circle","square","99","96","21","4","0.8333333333333334","","","","","","","","","",""
"null","","434245","SARL_v60h4k6xm9","msl000095","freq_resp","","","img/green_2bandit_b.png","70","img/green_2bandit_b.png","70","test","","","","","","","","","4","","","","","","","","","","",""
"null","","434401","SARL_v60h4k6xm9","msl000095","fixation","","","img/fixation.png","null","","","test","","","","","","","","","","","","","","","","","","","",""
"null","","435906","SARL_v60h4k6xm9","msl000095","rl","","","img/black_2bandit_b2.png","null","","0","test","","","0","circle","square","100","","0","4","","null","0.2","0.8","0.0012866641571674942","0.2","0.8","0","too slow","4","0"
"null","","436662","SARL_v60h4k6xm9","msl000095","feedback","","","img/boo.png","null","","na","test","","","","","","","","","4","","null","0.2","0.8","","","","0","","4",""
"null","","437468","SARL_v60h4k6xm9","msl000095","freq","","","img/green_2bandit_b2.png","null","","70","test","0","","","circle","square","101","97","1","5","0.8247422680412371","","","","","","","","","",""
"null","","437624","SARL_v60h4k6xm9","msl000095","fixation","","","img/fixation.png","null","","","test","","","","","","","","","","","","","","","","","","","",""
"429","","438057","SARL_v60h4k6xm9","msl000095","freq","","","img/green_2bandit_b2.png","70","","70","test","1","","","circle","square","102","98","2","5","0.826530612244898","","","","","","","","","",""
"null","","438433","SARL_v60h4k6xm9","msl000095","freq_resp","","","img/green_2bandit_b.png","70","img/green_2bandit_b.png","70","test","","","","","","","","","5","","","","","","","","","","",""
"null","","438589","SARL_v60h4k6xm9","msl000095","fixation","","","img/fixation.png","null","","","test","","","","","","","","","","","","","","","","","","","",""
"null","","439394","SARL_v60h4k6xm9","msl000095","freq","","","img/green_2bandit_b2.png","null","","70","test","0","","","circle","square","103","99","3","5","0.8181818181818182","","","","","","","","","",""
"null","","439549","SARL_v60h4k6xm9","msl000095","fixation","","","img/fixation.png","null","","","test","","","","","","","","","","","","","","","","","","","",""
"512","","440065","SARL_v60h4k6xm9","msl000095","infreq","","","img/orange_2bandit_b2.png","68","","68","test","1","","","circle","square","104","100","4","5","0.82","","","","","","","","","",""
"null","","440360","SARL_v60h4k6xm9","msl000095","infreq_resp","","","img/orange_2bandit_b.png","68","img/orange_2bandit_b.png","68","test","","","","","","","","","5","","","","","","","","","","",""
"null","","440516","SARL_v60h4k6xm9","msl000095","fixation","","","img/fixation.png","null","","","test","","","","","","","","","","","","","","","","","","","",""
"344","","440865","SARL_v60h4k6xm9","msl000095","freq","","","img/green_2bandit_b2.png","70","","70","test","1","","","circle","square","105","101","5","5","0.8217821782178217","","","","","","","","","",""
"null","","441326","SARL_v60h4k6xm9","msl000095","freq_resp","","","img/green_2bandit_b.png","70","img/green_2bandit_b.png","70","test","","","","","","","","","5","","","","","","","","","","",""
"null","","441481","SARL_v60h4k6xm9","msl000095","fixation","","","img/fixation.png","null","","","test","","","","","","","","","","","","","","","","","","","",""
"296","","441781","SARL_v60h4k6xm9","msl000095","freq","","","img/green_2bandit_b2.png","70","","70","test","1","","","circle","square","106","102","6","5","0.8235294117647058","","","","","","","","","",""
"null","","442292","SARL_v60h4k6xm9","msl000095","freq_resp","","","img/green_2bandit_b.png","70","img/green_2bandit_b.png","70","test","","","","","","","","","5","","","","","","","","","","",""
"null","","442448","SARL_v60h4k6xm9","msl000095","fixation","","","img/fixation.png","null","","","test","","","","","","","","","","","","","","","","","","","",""
"313","","442765","SARL_v60h4k6xm9","msl000095","freq","","","img/green_2bandit_b2.png","70","","70","test","1","","","circle","square","107","103","7","5","0.8252427184466019","","","","","","","","","",""
"null","","443259","SARL_v60h4k6xm9","msl000095","freq_resp","","","img/green_2bandit_b.png","70","img/green_2bandit_b.png","70","test","","","","","","","","","5","","","","","","","","","","",""
"null","","443415","SARL_v60h4k6xm9","msl000095","fixation","","","img/fixation.png","null","","","test","","","","","","","","","","","","","","","","","","","",""
"204","","443624","SARL_v60h4k6xm9","msl000095","freq","","","img/green_2bandit_b2.png","70","","70","test","1","","","circle","square","108","104","8","5","0.8269230769230769","","","","","","","","","",""
"null","","444227","SARL_v60h4k6xm9","msl000095","freq_resp","","","img/green_2bandit_b.png","70","img/green_2bandit_b.png","70","test","","","","","","","","","5","","","","","","","","","","",""
"null","","444382","SARL_v60h4k6xm9","msl000095","fixation","","","img/fixation.png","null","","","test","","","","","","","","","","","","","","","","","","","",""
"218","","444605","SARL_v60h4k6xm9","msl000095","freq","","","img/green_2bandit_b2.png","70","","70","test","1","","","circle","square","109","105","9","5","0.8285714285714286","","","","","","","","","",""
"null","","445193","SARL_v60h4k6xm9","msl000095","freq_resp","","","img/green_2bandit_b.png","70","img/green_2bandit_b.png","70","test","","","","","","","","","5","","","","","","","","","","",""
"null","","445348","SARL_v60h4k6xm9","msl000095","fixation","","","img/fixation.png","null","","","test","","","","","","","","","","","","","","","","","","","",""
"87","","445440","SARL_v60h4k6xm9","msl000095","freq","","","img/green_2bandit_b2.png","70","","70","test","1","","","circle","square","110","106","10","5","0.8301886792452831","","","","","","","","","",""
"null","","446159","SARL_v60h4k6xm9","msl000095","freq_resp","","","img/green_2bandit_b.png","70","img/green_2bandit_b.png","70","test","","","","","","","","","5","","","","","","","","","","",""
"null","","446315","SARL_v60h4k6xm9","msl000095","fixation","","","img/fixation.png","null","","","test","","","","","","","","","","","","","","","","","","","",""
"455","","446774","SARL_v60h4k6xm9","msl000095","freq","","","img/green_2bandit_b2.png","70","","70","test","1","","","circle","square","111","107","11","5","0.8317757009345794","","","","","","","","","",""
"null","","447125","SARL_v60h4k6xm9","msl000095","freq_resp","","","img/green_2bandit_b.png","70","img/green_2bandit_b.png","70","test","","","","","","","","","5","","","","","","","","","","",""
"null","","447281","SARL_v60h4k6xm9","msl000095","fixation","","","img/fixation.png","null","","","test","","","","","","","","","","","","","","","","","","","",""
"381","","447667","SARL_v60h4k6xm9","msl000095","freq","","","img/green_2bandit_b2.png","70","","70","test","1","","","circle","square","112","108","12","5","0.8333333333333334","","","","","","","","","",""
"null","","448091","SARL_v60h4k6xm9","msl000095","freq_resp","","","img/green_2bandit_b.png","70","img/green_2bandit_b.png","70","test","","","","","","","","","5","","","","","","","","","","",""
"null","","448246","SARL_v60h4k6xm9","msl000095","fixation","","","img/fixation.png","null","","","test","","","","","","","","","","","","","","","","","","","",""
"194","","448445","SARL_v60h4k6xm9","msl000095","freq","","","img/green_2bandit_b2.png","70","","70","test","1","","","circle","square","113","109","13","5","0.8348623853211009","","","","","","","","","",""
"null","","449057","SARL_v60h4k6xm9","msl000095","freq_resp","","","img/green_2bandit_b.png","70","img/green_2bandit_b.png","70","test","","","","","","","","","5","","","","","","","","","","",""
"null","","449213","SARL_v60h4k6xm9","msl000095","fixation","","","img/fixation.png","null","","","test","","","","","","","","","","","","","","","","","","","",""
"217","","449435","SARL_v60h4k6xm9","msl000095","freq","","","img/green_2bandit_b2.png","70","","70","test","1","","","circle","square","114","110","14","5","0.8363636363636363","","","","","","","","","",""
"null","","450024","SARL_v60h4k6xm9","msl000095","freq_resp","","","img/green_2bandit_b.png","70","img/green_2bandit_b.png","70","test","","","","","","","","","5","","","","","","","","","","",""
"null","","450180","SARL_v60h4k6xm9","msl000095","fixation","","","img/fixation.png","null","","","test","","","","","","","","","","","","","","","","","","","",""
"137","","450322","SARL_v60h4k6xm9","msl000095","freq","","","img/green_2bandit_b2.png","70","","70","test","1","","","circle","square","115","111","15","5","0.8378378378378378","","","","","","","","","",""
"null","","450990","SARL_v60h4k6xm9","msl000095","freq_resp","","","img/green_2bandit_b.png","70","img/green_2bandit_b.png","70","test","","","","","","","","","5","","","","","","","","","","",""
"null","","451145","SARL_v60h4k6xm9","msl000095","fixation","","","img/fixation.png","null","","","test","","","","","","","","","","","","","","","","","","","",""
"155","","451305","SARL_v60h4k6xm9","msl000095","freq","","","img/green_2bandit_b2.png","70","","70","test","1","","","circle","square","116","112","16","5","0.8392857142857143","","","","","","","","","",""
"null","","451956","SARL_v60h4k6xm9","msl000095","freq_resp","","","img/green_2bandit_b.png","70","img/green_2bandit_b.png","70","test","","","","","","","","","5","","","","","","","","","","",""
"null","","452110","SARL_v60h4k6xm9","msl000095","fixation","","","img/fixation.png","null","","","test","","","","","","","","","","","","","","","","","","","",""
"351","","452466","SARL_v60h4k6xm9","msl000095","freq","","","img/green_2bandit_b2.png","70","","70","test","1","","","circle","square","117","113","17","5","0.8407079646017699","","","","","","","","","",""
"null","","452921","SARL_v60h4k6xm9","msl000095","freq_resp","","","img/green_2bandit_b.png","70","img/green_2bandit_b.png","70","test","","","","","","","","","5","","","","","","","","","","",""
"null","","453077","SARL_v60h4k6xm9","msl000095","fixation","","","img/fixation.png","null","","","test","","","","","","","","","","","","","","","","","","","",""
"677","","453759","SARL_v60h4k6xm9","msl000095","infreq","","","img/orange_2bandit_b2.png","68","","68","test","1","","","circle","square","118","114","18","5","0.8421052631578947","","","","","","","","","",""
"null","","453887","SARL_v60h4k6xm9","msl000095","infreq_resp","","","img/orange_2bandit_b.png","68","img/orange_2bandit_b.png","68","test","","","","","","","","","5","","","","","","","","","","",""
"null","","454043","SARL_v60h4k6xm9","msl000095","fixation","","","img/fixation.png","null","","","test","","","","","","","","","","","","","","","","","","","",""
"363","","454411","SARL_v60h4k6xm9","msl000095","freq","","","img/green_2bandit_b2.png","70","","70","test","1","","","circle","square","119","115","19","5","0.8434782608695652","","","","","","","","","",""
"null","","454853","SARL_v60h4k6xm9","msl000095","freq_resp","","","img/green_2bandit_b.png","70","img/green_2bandit_b.png","70","test","","","","","","","","","5","","","","","","","","","","",""
"null","","455008","SARL_v60h4k6xm9","msl000095","fixation","","","img/fixation.png","null","","","test","","","","","","","","","","","","","","","","","","","",""
"292","","455305","SARL_v60h4k6xm9","msl000095","freq","","","img/green_2bandit_b2.png","70","","70","test","1","","","circle","square","120","116","20","5","0.8448275862068966","","","","","","","","","",""
"null","","455819","SARL_v60h4k6xm9","msl000095","freq_resp","","","img/green_2bandit_b.png","70","img/green_2bandit_b.png","70","test","","","","","","","","","5","","","","","","","","","","",""
"null","","455975","SARL_v60h4k6xm9","msl000095","fixation","","","img/fixation.png","null","","","test","","","","","","","","","","","","","","","","","","","",""
"374","","456354","SARL_v60h4k6xm9","msl000095","freq","","","img/green_2bandit_b2.png","70","","70","test","1","","","circle","square","121","117","21","5","0.8461538461538461","","","","","","","","","",""
"null","","456786","SARL_v60h4k6xm9","msl000095","freq_resp","","","img/green_2bandit_b.png","70","img/green_2bandit_b.png","70","test","","","","","","","","","5","","","","","","","","","","",""
"null","","456942","SARL_v60h4k6xm9","msl000095","fixation","","","img/fixation.png","null","","","test","","","","","","","","","","","","","","","","","","","",""
"350","","457296","SARL_v60h4k6xm9","msl000095","freq","","","img/green_2bandit_b2.png","70","","70","test","1","","","circle","square","122","118","22","5","0.847457627118644","","","","","","","","","",""
"null","","457753","SARL_v60h4k6xm9","msl000095","freq_resp","","","img/green_2bandit_b.png","70","img/green_2bandit_b.png","70","test","","","","","","","","","5","","","","","","","","","","",""
"null","","457907","SARL_v60h4k6xm9","msl000095","fixation","","","img/fixation.png","null","","","test","","","","","","","","","","","","","","","","","","","",""
"374","","458287","SARL_v60h4k6xm9","msl000095","freq","","","img/green_2bandit_b2.png","70","","70","test","1","","","circle","square","123","119","23","5","0.8487394957983193","","","","","","","","","",""
"null","","458718","SARL_v60h4k6xm9","msl000095","freq_resp","","","img/green_2bandit_b.png","70","img/green_2bandit_b.png","70","test","","","","","","","","","5","","","","","","","","","","",""
"null","","458873","SARL_v60h4k6xm9","msl000095","fixation","","","img/fixation.png","null","","","test","","","","","","","","","","","","","","","","","","","",""
"385","","459265","SARL_v60h4k6xm9","msl000095","freq","","","img/green_2bandit_b2.png","70","","70","test","1","","","circle","square","124","120","24","5","0.85","","","","","","","","","",""
"null","","459685","SARL_v60h4k6xm9","msl000095","freq_resp","","","img/green_2bandit_b.png","70","img/green_2bandit_b.png","70","test","","","","","","","","","5","","","","","","","","","","",""
"null","","459840","SARL_v60h4k6xm9","msl000095","fixation","","","img/fixation.png","null","","","test","","","","","","","","","","","","","","","","","","","",""
"307","","460152","SARL_v60h4k6xm9","msl000095","freq","","","img/green_2bandit_b2.png","70","","70","test","1","","","circle","square","125","121","25","5","0.8512396694214877","","","","","","","","","",""
"null","","460651","SARL_v60h4k6xm9","msl000095","freq_resp","","","img/green_2bandit_b.png","70","img/green_2bandit_b.png","70","test","","","","","","","","","5","","","","","","","","","","",""
"null","","460806","SARL_v60h4k6xm9","msl000095","fixation","","","img/fixation.png","null","","","test","","","","","","","","","","","","","","","","","","","",""
"305","","461116","SARL_v60h4k6xm9","msl000095","freq","","","img/green_2bandit_b2.png","70","","70","test","1","","","circle","square","126","122","26","5","0.8524590163934426","","","","","","","","","",""
"null","","461616","SARL_v60h4k6xm9","msl000095","freq_resp","","","img/green_2bandit_b.png","70","img/green_2bandit_b.png","70","test","","","","","","","","","5","","","","","","","","","","",""
"null","","461771","SARL_v60h4k6xm9","msl000095","fixation","","","img/fixation.png","null","","","test","","","","","","","","","","","","","","","","","","","",""
"322","","462098","SARL_v60h4k6xm9","msl000095","freq","","","img/green_2bandit_b2.png","70","","70","test","1","","","circle","square","127","123","27","5","0.8536585365853658","","","","","","","","","",""
"null","","462583","SARL_v60h4k6xm9","msl000095","freq_resp","","","img/green_2bandit_b.png","70","img/green_2bandit_b.png","70","test","","","","","","","","","5","","","","","","","","","","",""
"null","","462738","SARL_v60h4k6xm9","msl000095","fixation","","","img/fixation.png","null","","","test","","","","","","","","","","","","","","","","","","","",""
"347","","463089","SARL_v60h4k6xm9","msl000095","freq","","","img/green_2bandit_b2.png","70","","70","test","1","","","circle","square","128","124","28","5","0.8548387096774194","","","","","","","","","",""
"null","","463548","SARL_v60h4k6xm9","msl000095","freq_resp","","","img/green_2bandit_b.png","70","img/green_2bandit_b.png","70","test","","","","","","","","","5","","","","","","","","","","",""
"null","","463704","SARL_v60h4k6xm9","msl000095","fixation","","","img/fixation.png","null","","","test","","","","","","","","","","","","","","","","","","","",""
"689","","464397","SARL_v60h4k6xm9","msl000095","rl","","","img/black_2bandit_b2.png","75","","0","test","","","1","circle","square","129","","0","5","","75","0.2","0.8","0.5441754744002053","0.2","0.8","0.8","square","5","0"
"null","","465153","SARL_v60h4k6xm9","msl000095","feedback","","","img/yay_R_b.png","null","","na","test","","","","","","","","","5","","75","0.2","0.8","","","","0.8","","5",""
"697","","465854","SARL_v60h4k6xm9","msl000095","freq","","","img/green_2bandit_b2.png","70","","70","test","1","","","circle","square","130","125","1","6","0.856","","","","","","","","","",""
"null","","465963","SARL_v60h4k6xm9","msl000095","freq_resp","","","img/green_2bandit_b.png","70","img/green_2bandit_b.png","70","test","","","","","","","","","6","","","","","","","","","","",""
"null","","466119","SARL_v60h4k6xm9","msl000095","fixation","","","img/fixation.png","null","","","test","","","","","","","","","","","","","","","","","","","",""
"704","","466827","SARL_v60h4k6xm9","msl000095","freq","","","img/green_2bandit_b2.png","70","","70","test","1","","","circle","square","131","126","2","6","0.8571428571428571","","","","","","","","","",""
"null","","466928","SARL_v60h4k6xm9","msl000095","freq_resp","","","img/green_2bandit_b.png","70","img/green_2bandit_b.png","70","test","","","","","","","","","6","","","","","","","","","","",""
"null","","467084","SARL_v60h4k6xm9","msl000095","fixation","","","img/fixation.png","null","","","test","","","","","","","","","","","","","","","","","","","",""
"510","","467600","SARL_v60h4k6xm9","msl000095","freq","","","img/green_2bandit_b2.png","70","","70","test","1","","","circle","square","132","127","3","6","0.8582677165354331","","","","","","","","","",""
"null","","467896","SARL_v60h4k6xm9","msl000095","freq_resp","","","img/green_2bandit_b.png","70","img/green_2bandit_b.png","70","test","","","","","","","","","6","","","","","","","","","","",""
"null","","468051","SARL_v60h4k6xm9","msl000095","fixation","","","img/fixation.png","null","","","test","","","","","","","","","","","","","","","","","","","",""
"356","","468413","SARL_v60h4k6xm9","msl000095","freq","","","img/green_2bandit_b2.png","70","","70","test","1","","","circle","square","133","128","4","6","0.859375","","","","","","","","","",""
"null","","468863","SARL_v60h4k6xm9","msl000095","freq_resp","","","img/green_2bandit_b.png","70","img/green_2bandit_b.png","70","test","","","","","","","","","6","","","","","","","","","","",""
"null","","469018","SARL_v60h4k6xm9","msl000095","fixation","","","img/fixation.png","null","","","test","","","","","","","","","","","","","","","","","","","",""
"358","","469380","SARL_v60h4k6xm9","msl000095","freq","","","img/green_2bandit_b2.png","70","","70","test","1","","","circle","square","134","129","5","6","0.8604651162790697","","","","","","","","","",""
"null","","469829","SARL_v60h4k6xm9","msl000095","freq_resp","","","img/green_2bandit_b.png","70","img/green_2bandit_b.png","70","test","","","","","","","","","6","","","","","","","","","","",""
"null","","469984","SARL_v60h4k6xm9","msl000095","fixation","","","img/fixation.png","null","","","test","","","","","","","","","","","","","","","","","","","",""
"305","","470294","SARL_v60h4k6xm9","msl000095","freq","","","img/green_2bandit_b2.png","70","","70","test","1","","","circle","square","135","130","6","6","0.8615384615384616","","","","","","","","","",""
"null","","470794","SARL_v60h4k6xm9","msl000095","freq_resp","","","img/green_2bandit_b.png","70","img/green_2bandit_b.png","70","test","","","","","","","","","6","","","","","","","","","","",""
"null","","470949","SARL_v60h4k6xm9","msl000095","fixation","","","img/fixation.png","null","","","test","","","","","","","","","","","","","","","","","","","",""
"571","","471525","SARL_v60h4k6xm9","msl000095","infreq","","","img/orange_2bandit_b2.png","68","","68","test","1","","","circle","square","136","131","7","6","0.8625954198473282","","","","","","","","","",""
"null","","471760","SARL_v60h4k6xm9","msl000095","infreq_resp","","","img/orange_2bandit_b.png","68","img/orange_2bandit_b.png","68","test","","","","","","","","","6","","","","","","","","","","",""
"null","","471916","SARL_v60h4k6xm9","msl000095","fixation","","","img/fixation.png","null","","","test","","","","","","","","","","","","","","","","","","","",""
"256","","472176","SARL_v60h4k6xm9","msl000095","freq","","","img/green_2bandit_b2.png","70","","70","test","1","","","circle","square","137","132","8","6","0.8636363636363636","","","","","","","","","",""
"null","","472725","SARL_v60h4k6xm9","msl000095","freq_resp","","","img/green_2bandit_b.png","70","img/green_2bandit_b.png","70","test","","","","","","","","","6","","","","","","","","","","",""
"null","","472881","SARL_v60h4k6xm9","msl000095","fixation","","","img/fixation.png","null","","","test","","","","","","","","","","","","","","","","","","","",""
"94","","472979","SARL_v60h4k6xm9","msl000095","freq","","","img/green_2bandit_b2.png","70","","70","test","1","","","circle","square","138","133","9","6","0.8646616541353384","","","","","","","","","",""
"null","","473691","SARL_v60h4k6xm9","msl000095","freq_resp","","","img/green_2bandit_b.png","70","img/green_2bandit_b.png","70","test","","","","","","","","","6","","","","","","","","","","",""
"null","","473847","SARL_v60h4k6xm9","msl000095","fixation","","","img/fixation.png","null","","","test","","","","","","","","","","","","","","","","","","","",""
"263","","474114","SARL_v60h4k6xm9","msl000095","freq","","","img/green_2bandit_b2.png","70","","70","test","1","","","circle","square","139","134","10","6","0.8656716417910447","","","","","","","","","",""
"null","","474656","SARL_v60h4k6xm9","msl000095","freq_resp","","","img/green_2bandit_b.png","70","img/green_2bandit_b.png","70","test","","","","","","","","","6","","","","","","","","","","",""
"null","","474812","SARL_v60h4k6xm9","msl000095","fixation","","","img/fixation.png","null","","","test","","","","","","","","","","","","","","","","","","","",""
"225","","475042","SARL_v60h4k6xm9","msl000095","freq","","","img/green_2bandit_b2.png","70","","70","test","1","","","circle","square","140","135","11","6","0.8666666666666667","","","","","","","","","",""
"null","","475622","SARL_v60h4k6xm9","msl000095","freq_resp","","","img/green_2bandit_b.png","70","img/green_2bandit_b.png","70","test","","","","","","","","","6","","","","","","","","","","",""
"null","","475777","SARL_v60h4k6xm9","msl000095","fixation","","","img/fixation.png","null","","","test","","","","","","","","","","","","","","","","","","","",""
"231","","476015","SARL_v60h4k6xm9","msl000095","freq","","","img/green_2bandit_b2.png","70","","70","test","1","","","circle","square","141","136","12","6","0.8676470588235294","","","","","","","","","",""
"null","","476588","SARL_v60h4k6xm9","msl000095","freq_resp","","","img/green_2bandit_b.png","70","img/green_2bandit_b.png","70","test","","","","","","","","","6","","","","","","","","","","",""
"null","","476745","SARL_v60h4k6xm9","msl000095","fixation","","","img/fixation.png","null","","","test","","","","","","","","","","","","","","","","","","","",""
"107","","476858","SARL_v60h4k6xm9","msl000095","freq","","","img/green_2bandit_b2.png","70","","70","test","1","","","circle","square","142","137","13","6","0.8686131386861314","","","","","","","","","",""
"null","","477555","SARL_v60h4k6xm9","msl000095","freq_resp","","","img/green_2bandit_b.png","70","img/green_2bandit_b.png","70","test","","","","","","","","","6","","","","","","","","","","",""
"null","","477711","SARL_v60h4k6xm9","msl000095","fixation","","","img/fixation.png","null","","","test","","","","","","","","","","","","","","","","","","","",""
"63","","477779","SARL_v60h4k6xm9","msl000095","freq","","","img/green_2bandit_b2.png","70","","70","test","1","","","circle","square","143","138","14","6","0.8695652173913043","","","","","","","","","",""
"null","","478522","SARL_v60h4k6xm9","msl000095","freq_resp","","","img/green_2bandit_b.png","70","img/green_2bandit_b.png","70","test","","","","","","","","","6","","","","","","","","","","",""
"null","","478677","SARL_v60h4k6xm9","msl000095","fixation","","","img/fixation.png","null","","","test","","","","","","","","","","","","","","","","","","","",""
"78","","478759","SARL_v60h4k6xm9","msl000095","freq","","","img/green_2bandit_b2.png","70","","70","test","1","","","circle","square","144","139","15","6","0.8705035971223022","","","","","","","","","",""
"null","","479487","SARL_v60h4k6xm9","msl000095","freq_resp","","","img/green_2bandit_b.png","70","img/green_2bandit_b.png","70","test","","","","","","","","","6","","","","","","","","","","",""
"null","","479641","SARL_v60h4k6xm9","msl000095","fixation","","","img/fixation.png","null","","","test","","","","","","","","","","","","","","","","","","","",""
"96","","479743","SARL_v60h4k6xm9","msl000095","freq","","","img/green_2bandit_b2.png","70","","70","test","1","","","circle","square","145","140","16","6","0.8714285714285714","","","","","","","","","",""
"null","","480453","SARL_v60h4k6xm9","msl000095","freq_resp","","","img/green_2bandit_b.png","70","img/green_2bandit_b.png","70","test","","","","","","","","","6","","","","","","","","","","",""
"null","","480609","SARL_v60h4k6xm9","msl000095","fixation","","","img/fixation.png","null","","","test","","","","","","","","","","","","","","","","","","","",""
"301","","480914","SARL_v60h4k6xm9","msl000095","freq","","","img/green_2bandit_b2.png","70","","70","test","1","","","circle","square","146","141","17","6","0.8723404255319149","","","","","","","","","",""
"null","","481419","SARL_v60h4k6xm9","msl000095","freq_resp","","","img/green_2bandit_b.png","70","img/green_2bandit_b.png","70","test","","","","","","","","","6","","","","","","","","","","",""
"null","","481573","SARL_v60h4k6xm9","msl000095","fixation","","","img/fixation.png","null","","","test","","","","","","","","","","","","","","","","","","","",""
"639","","482219","SARL_v60h4k6xm9","msl000095","freq","","","img/green_2bandit_b2.png","70","","70","test","1","","","circle","square","147","142","18","6","0.8732394366197183","","","","","","","","","",""
"null","","482385","SARL_v60h4k6xm9","msl000095","freq_resp","","","img/green_2bandit_b.png","70","img/green_2bandit_b.png","70","test","","","","","","","","","6","","","","","","","","","","",""
"null","","482540","SARL_v60h4k6xm9","msl000095","fixation","","","img/fixation.png","null","","","test","","","","","","","","","","","","","","","","","","","",""
"632","","483177","SARL_v60h4k6xm9","msl000095","infreq","","","img/orange_2bandit_b2.png","68","","68","test","1","","","circle","square","148","143","19","6","0.8741258741258742","","","","","","","","","",""
"null","","483351","SARL_v60h4k6xm9","msl000095","infreq_resp","","","img/orange_2bandit_b.png","68","img/orange_2bandit_b.png","68","test","","","","","","","","","6","","","","","","","","","","",""
"null","","483506","SARL_v60h4k6xm9","msl000095","fixation","","","img/fixation.png","null","","","test","","","","","","","","","","","","","","","","","","","",""
"353","","483864","SARL_v60h4k6xm9","msl000095","freq","","","img/green_2bandit_b2.png","70","","70","test","1","","","circle","square","149","144","20","6","0.875","","","","","","","","","",""
"null","","484317","SARL_v60h4k6xm9","msl000095","freq_resp","","","img/green_2bandit_b.png","70","img/green_2bandit_b.png","70","test","","","","","","","","","6","","","","","","","","","","",""
"null","","484472","SARL_v60h4k6xm9","msl000095","fixation","","","img/fixation.png","null","","","test","","","","","","","","","","","","","","","","","","","",""
"187","","484665","SARL_v60h4k6xm9","msl000095","freq","","","img/green_2bandit_b2.png","70","","70","test","1","","","circle","square","150","145","21","6","0.8758620689655172","","","","","","","","","",""
